time,seconds_elapsed,z,y,x
1746476515281599500,0.079599609375,2.135232744061947,0.8453296385806054,0.7919763071209192
1746476515291578600,0.08957861328125,2.1019185034811496,0.8520728292305022,0.9217790373370051
1746476515301557500,0.0995576171875,1.9969155757397412,0.9244522020690142,0.9619207858502864
1746476515311537400,0.109537353515625,1.8598720806151627,1.0457383752871303,0.8996794337317346
1746476515321516500,0.1195166015625,1.732555029734969,1.1452891020372509,0.737126818819344
1746476515331495400,0.129495361328125,1.6009931808918714,1.2130318280510604,0.5759837784439324
1746476515341475600,0.1394755859375,1.5106091456115245,1.1969526537790893,0.47034226053804157
1746476515351454500,0.149454345703125,1.4010013544231652,1.0825959144979715,0.39845688176155086
1746476515361433600,0.15943359375,1.2707634476602077,1.021117801836878,0.3354509750112891
1746476515371413500,0.16941357421875,1.1816910795003175,0.9209956318743526,0.22748305998444557
1746476515381392400,0.179392333984375,1.0146411531686783,0.7976395935796201,0.041002164734899996
1746476515391371500,0.18937158203125,0.7811930472999811,0.6884685863733291,-0.15197364549189804
1746476515401350400,0.199350341796875,0.4423837017714977,0.5869025012128055,-0.367948930773139
1746476515411330600,0.20933056640625,0.17744272553026674,0.5466476477138698,-0.5568406865566968
1746476515421309400,0.219309326171875,0.042971126720309255,0.557494035898894,-0.5792246600612998
1746476515431288600,0.22928857421875,0.05890519343316555,0.5265205132253468,-0.4663444230735302
1746476515441268500,0.2392685546875,0.2545703888744116,0.42070568457916374,-0.3101829705029726
1746476515451247400,0.249247314453125,0.5236649776637554,0.34262817316427824,-0.16852525958120823
1746476515461226500,0.2592265625,0.7935644530951976,0.26306816810667516,-0.008475275139510631
1746476515471206400,0.269206298828125,1.0126438418716193,0.18732713681533933,0.10577537341862916
1746476515481185500,0.279185546875,1.187699380004406,0.10279007399752735,0.22626637767106295
1746476515491164400,0.289164306640625,1.2742080351561307,0.034392245075851674,0.33662323366105557
1746476515501144300,0.299144287109375,1.255050330221653,-0.00710807843953371,0.3800394738003611
1746476515511123500,0.30912353515625,1.2515911296784876,0.012385288190096617,0.42821050725132226
1746476515521102300,0.319102294921875,1.179931084090471,0.020119389573484657,0.4665577735632658
1746476515531082500,0.32908251953125,1.0515127939701079,-0.01611950628235936,0.4378180012911558
1746476515541061400,0.339061279296875,0.8370125496774912,-0.006757365305721759,0.40783232061117886
1746476515551040500,0.34904052734375,0.5554968707323074,0.03817074070125818,0.40958471723645923
1746476515561020400,0.3590205078125,0.3107873661369085,0.07551525971144438,0.36233459802269935
1746476515570999300,0.368999267578125,0.13139175297319888,0.08192600353658198,0.3489908400639891
1746476515580978400,0.378978515625,0.06993687505722046,0.0610793226018548,0.38405221657305955
1746476515590957300,0.388957275390625,0.13339783209860323,0.0005158405676484107,0.4026408894479275
1746476515600937500,0.3989375,0.31863281894028184,-0.15759864576682447,0.36508711160123347
1746476515610916400,0.408916259765625,0.4605220005303621,-0.32686960914880037,0.31785803517550226
1746476515620895500,0.4188955078125,0.5873311018884182,-0.44204453294500706,0.3413648752301931
1746476515630875400,0.42887548828125,0.6891080533206463,-0.5312352667875587,0.40862464003264903
1746476515640854500,0.4388544921875,0.742843150639534,-0.594385842705518,0.4488593275263905
1746476515650833700,0.448833740234375,0.6826520090490579,-0.6075199034363031,0.519808886757493
1746476515660813800,0.458813720703125,0.6855822172820568,-0.5885242571957409,0.6427151354581118
1746476515670792700,0.468792724609375,0.7557435487449169,-0.5245603190682828,0.700955142980814
1746476515680771800,0.478771728515625,0.890351925677061,-0.4232759734585881,0.7508017084285616
1746476515690751700,0.488751708984375,0.9876035086393355,-0.4206552695661783,0.7118190668225288
1746476515700731000,0.49873095703125,1.0210410833388566,-0.5625723620764911,0.5052195126518607
1746476515710709800,0.508709716796875,0.8471768008172511,-0.6640005000710487,0.3403437154889107
1746476515720689700,0.518689697265625,0.4844365446031093,-0.7013061483755707,0.1253741001188755
1746476515730668800,0.528668701171875,0.11736381214261055,-0.660708180527389,-0.025819500911235808
1746476515740647700,0.538647705078125,-0.1690267793625593,-0.678457479968667,-0.02210544882416725
1746476515750627800,0.5486279296875,-0.30054069741070266,-0.7218184827893972,-0.018665245242416858
1746476515760606700,0.558606689453125,-0.370757558453083,-0.7133706801787019,-0.022950082954764365
1746476515770585900,0.5685859375,-0.44134734446108337,-0.701950876019895,-0.05948240879923105
1746476515780564700,0.578564697265625,-0.5148609089612961,-0.6850391964465379,-0.04719634319990873
1746476515790544600,0.588544677734375,-0.5900567274600267,-0.8368757715553045,-0.06268032805770635
1746476515800523800,0.598523681640625,-0.7003215212523937,-1.0700745788380503,-0.2432777182266116
1746476515810502700,0.608502685546875,-0.9556763385027647,-1.2760063167497515,-0.4309355483010411
1746476515820482800,0.61848291015625,-1.2449655740588903,-1.3668059470936655,-0.5669362563744187
1746476515830461700,0.628461669921875,-1.4159715445399284,-1.3191548458635807,-0.6609326369330286
1746476515840440800,0.63844091796875,-1.5989736577630043,-1.1828113157019018,-0.747190239933133
1746476515850420700,0.648420654296875,-1.8038427348792552,-1.0589552189305425,-0.7488099500894546
1746476515860399600,0.658399658203125,-2.071359699088335,-1.0210782004788517,-0.6948553648009896
1746476515870378800,0.668378662109375,-2.311384260737896,-0.9639584291577339,-0.6451441161707043
1746476515880358700,0.678358642578125,-2.4098019648700952,-0.8702785672023892,-0.5356441692709922
1746476515890337800,0.688337890625,-2.3545652308166027,-0.7321718267604709,-0.48425914220958943
1746476515900316700,0.698316650390625,-2.113197437864542,-0.5038862182214856,-0.46459728714525694
1746476515910296600,0.708296630859375,-1.7018045021623371,-0.15476356847137213,-0.39524142684638497
1746476515920275700,0.718275634765625,-1.2631167322993277,0.24469693737477063,-0.30143092424869533
1746476515930254600,0.728254638671875,-0.8310580251872539,0.6235016086831688,-0.2831593544989824
1746476515940234800,0.73823486328125,-0.368996978521347,1.052850180053711,-0.2997226590260863
1746476515950213600,0.748213623046875,0.043530514168739314,1.4165008291110395,-0.14110270738750696
1746476515960192800,0.75819287109375,0.26189970884919167,1.5388012208729982,0.1453209096044302
1746476515970172700,0.768172607421875,0.178106157875061,1.4451742581486702,0.4401496591091156
1746476515980151600,0.778151611328125,-0.06757248401343822,1.1748837375730274,0.7316425421893596
1746476515990130700,0.788130615234375,-0.2705991481333971,0.8047340818852186,0.9803630359917879
1746476516000109600,0.798109619140625,-0.3966173913747072,0.35429099229872224,1.1187532695502043
1746476516010089700,0.80808984375,-0.3786877669304609,-0.08318272559940815,1.181080254125595
1746476516020068600,0.818068603515625,-0.23028233531415462,-0.42017771518230435,1.1718284416556357
1746476516030047700,0.8280478515625,0.09229425281584262,-0.7098223400473594,1.0764280395179986
1746476516040027600,0.838027587890625,0.3938637087523937,-0.9285779036968946,0.8784346933901309
1746476516050006500,0.848006591796875,0.8510802379965782,-0.9387766416281461,0.6788350811094045
1746476516059985700,0.857985595703125,1.407212484022975,-0.6967328491106629,0.46975218569040295
1746476516069965600,0.867965576171875,1.8355191451251505,-0.5195116573765873,0.28319267224669453
1746476516079944700,0.87794482421875,2.0608605169057843,-0.3614081308275461,0.08817571158111095
1746476516089923600,0.887923583984375,2.1017764646619557,-0.04404226308315992,-0.06860708775818347
1746476516099903700,0.89790380859375,2.205495782333612,0.25820290015786884,-0.19023089543282984
1746476516109883000,0.9078828125,2.1179805804878473,0.7022142031311989,-0.2886632126122713
1746476516119861500,0.917861572265625,1.9818799191713332,1.0289785983398556,-0.33571196403503417
1746476516129842000,0.927842041015625,1.6101327651590107,1.2839324335739015,-0.2574357151776552
1746476516139820800,0.93782080078125,1.161345041564107,1.3792942572668194,-0.2702273922115564
1746476516149800000,0.947800048828125,0.5739677624464035,1.4168778457298874,-0.4523088834583759
1746476516159778800,0.95777880859375,0.012263853767514227,1.4516791099980473,-0.7022258935689926
1746476516169758700,0.9677587890625,-0.26946400662362574,1.5052055330023169,-0.9429127185195684
1746476516179737900,0.97773779296875,-0.3590519230902195,1.5247721109986305,-1.0129489622980357
1746476516189716700,0.987716796875,-0.37612873009741304,1.4758344770893455,-0.8954436958581209
1746476516199697000,0.99769677734375,-0.3511065170437097,1.3197431671455502,-0.7607645917773246
1746476516209675800,1.00767578125,-0.40525428681671616,1.166665652064979,-0.6836036106854677
1746476516219655000,1.017655029296875,-0.5084276610434055,1.0657479478105902,-0.5629495248258114
1746476516229634800,1.027634765625,-0.5824725559413433,0.929257994915545,-0.41116731025278563
1746476516239613700,1.03761376953125,-0.8260732225120068,0.7786117986351251,-0.26292846737504005
1746476516249592800,1.0475927734375,-1.0569535237193106,0.6629086131811142,-0.19798750090897083
1746476516259572700,1.05757275390625,-1.1450760438084602,0.630454204300046,-0.07938684044778346
1746476516269551900,1.0675517578125,-1.085877420386672,0.5526636931329966,0.05018997205793857
1746476516279530800,1.07753076171875,-0.9488760108381509,0.47560032719671724,0.11775076563358307
1746476516289510700,1.0875107421875,-0.7420575532197952,0.4350508746653795,0.17975626316964624
1746476516299489800,1.09748974609375,-0.5556137751102447,0.3723357675552368,0.15137538733780384
1746476516309468700,1.10746875,-0.4376724553406238,0.27033611328303814,0.06120587159097194
1746476516319448800,1.11744873046875,-0.31899814512133595,0.23339608342051504,-0.08678864113688468
1746476516329427700,1.127427734375,-0.13713877219259737,0.1876841335594654,-0.24047990420162677
1746476516339406800,1.13740673828125,0.1410416248500347,0.08489303664863108,-0.3790677061587572
1746476516349385700,1.1473857421875,0.36499183453321454,-0.04019464774429798,-0.5074006560832262
1746476516359365600,1.15736572265625,0.5677437733650207,-0.14058219064474106,-0.4778945756137371
1746476516369344800,1.1673447265625,0.7121873156130314,-0.2162964800596237,-0.40053544160127635
1746476516379323600,1.17732373046875,0.7897264823675155,-0.2691045256614685,-0.1943237177044153
1746476516389303800,1.1873037109375,0.7924807495117187,-0.30014965226650236,0.10483750804662705
1746476516399282700,1.19728271484375,0.5967752220600843,-0.3985381303042173,0.27304887937307354
1746476516409261800,1.20726171875,0.12570318594276905,-0.572605241921544,0.32391748134493825
1746476516419241700,1.21724169921875,-0.3991320045441389,-0.7359101365059614,0.3072013243436813
1746476516429220600,1.227220703125,-0.7937006466954946,-0.845987298771739,0.23529227243065834
1746476516439199700,1.23719970703125,-0.966065630570054,-0.9028992725610733,0.3889011179089546
1746476516449179600,1.2471796875,-1.033168743506074,-0.7084861230075359,0.5646890619695186
1746476516459158800,1.25715869140625,-1.055229768666625,-0.7009872916847467,0.7491857976645231
1746476516469137700,1.2671376953125,-1.0946101774185895,-0.6738368344306945,0.7484609905213118
1746476516479117600,1.27711767578125,-1.0181319178938866,-0.46660745792388914,0.39307869585454464
1746476516489096700,1.2870966796875,-1.102024253067374,-0.5074146846085786,-0.05202127913832664
1746476516499075600,1.29707568359375,-1.2358727515429258,-0.5928782146215439,-0.4226677784323692
1746476516509054700,1.3070546875,-1.2600140901088714,-0.7627572268992662,-0.6514005462169646
1746476516519034600,1.31703466796875,-0.8061316737234592,-1.0985568692177534,-0.8298124090403318
1746476516529013800,1.327013671875,-1.471661283057928,-1.005447208365798,-0.5026081611096859
1746476516538992600,1.33699267578125,-0.907929667943716,-1.1709259398579597,-0.5931026710271835
1746476516548972500,1.34697265625,-0.4524661198467016,-1.26840899348855,-0.6980483156234025
1746476516558951700,1.35695166015625,-0.2138356429040432,-1.507519362902641,-0.47164662113487715
1746476516568930600,1.3669306640625,0.2123404359102249,-1.6319284173816442,-0.40684126374721524
1746476516578910700,1.37691064453125,0.4195487696290016,-1.6732172901034355,-0.27340777581334114
1746476516588889600,1.3868896484375,0.5709527985394001,-1.6628315051674842,-0.1239449440985918
1746476516598868700,1.39686865234375,0.6904208894848823,-1.6677356438219546,-0.022024784803390502
1746476516608849000,1.406848876953125,0.6627396863549947,-1.625761126923561,0.11671908449828625
1746476516618827800,1.416827880859375,0.6435252827972173,-1.5563029752939939,0.21924831560254096
1746476516628807000,1.426806884765625,0.6099743108510971,-1.5095084908932446,0.28351123667657374
1746476516638785800,1.436785888671875,0.6107587392270565,-1.4520511581808329,0.3987304380059242
1746476516648765000,1.446764892578125,0.6328408071756363,-1.3646961153328419,0.46601767533719535
1746476516658743800,1.456743896484375,0.6471697767794132,-1.263797115778923,0.5123176542192697
1746476516668723000,1.466722900390625,0.5662614258527755,-1.171924887767434,0.5186462727189064
1746476516678702800,1.476702880859375,0.4425456143349409,-1.020361868903041,0.41360301296710966
1746476516688681700,1.486681640625,0.30738311065137386,-0.7191659224539995,0.2376853050470352
1746476516698660900,1.496660888671875,0.10645663368105887,-0.36606677028834816,0.1356271985858679
1746476516708640800,1.506640869140625,-0.2295294711202383,-0.09407646005749702,0.2018926916539669
1746476516718620000,1.516619873046875,-0.6655529902100563,0.013726912057399749,0.33565526541173457
1746476516728598800,1.526598876953125,-1.1175140831440686,-0.03144084792435169,0.33157179549038407
1746476516738578700,1.53657861328125,-1.413260532015562,-0.14387129531800746,0.17182897730171678
1746476516748557800,1.546557861328125,-1.6862559276357292,-0.09260288037359714,-0.04392682000994682
1746476516758536700,1.55653662109375,-1.9182149639904498,0.09051555270552634,-0.17766425932645796
1746476516768516900,1.566516845703125,-2.0577172504439947,0.21844576704800128,-0.2266658983826637
1746476516778495700,1.576495849609375,-2.038691647456586,0.47069385045468803,-0.28400632671713827
1746476516788475000,1.586474853515625,-1.9669050528794525,0.7660539303570986,-0.36739246593415736
1746476516798454800,1.596454833984375,-2.0106559318006036,0.8832885631620884,-0.3983072441577911
1746476516808433700,1.60643359375,-2.1714380299091336,0.7895318365782499,-0.4931938515543937
1746476516818412800,1.616412841796875,-2.357026652494073,0.4765437455266714,-0.6653530837237834
1746476516828391700,1.6263916015625,-2.459257192912698,0.08830956709384917,-0.781521548601985
1746476516838371800,1.636371826171875,-2.4472242252916097,-0.2047895821392536,-1.0298539198696612
1746476516848350700,1.646350830078125,-2.3773428798139093,-0.45519642159342766,-1.1948445755839348
1746476516858329900,1.656329833984375,-2.2657035827979444,-0.6508037493675947,-1.321843646556139
1746476516868309800,1.666309814453125,-2.2022709750682115,-0.685462390294671,-1.473455765259266
1746476516878288600,1.67628857421875,-2.081084389767051,-0.72862056401968,-1.4415987377494572
1746476516888267800,1.686267822265625,-1.8581793052226303,-0.7235147653132676,-1.4633347687393425
1746476516898248000,1.696248046875,-1.6540210067242382,-0.5917658694654703,-1.4506500592112541
1746476516908226800,1.706226806640625,-1.4567436999112366,-0.5495704032927751,-1.2186749485045671
1746476516918205700,1.716205810546875,-1.1625491566568613,-0.5903764609336852,-1.0911772803604602
1746476516928185900,1.726185791015625,-0.777272951246798,-0.760060827422142,-0.9997685782074928
1746476516938165000,1.7361650390625,-0.4168471094548702,-0.9461322650879621,-0.8456862699985503
1746476516948143600,1.7461435546875,-0.10958557935655117,-1.1568348706632852,-0.7085363918900489
1746476516958122800,1.756122802734375,0.05625292535871267,-1.3362252231299876,-0.6311135449916124
1746476516968103000,1.76610302734375,0.10520488005429506,-1.4553548759013413,-0.5422545273214578
1746476516978082000,1.77608203125,0.19529899247735738,-1.4528630590856075,-0.41339375413060186
1746476516988061000,1.78606103515625,0.3218327840253711,-1.3965437904924154,-0.28382103327810765
1746476516998040800,1.796040771484375,0.4192936258241534,-1.2523118451684712,-0.21326690310537813
1746476517008020000,1.80602001953125,0.38941725073754785,-1.022149921363592,-0.1414472830414772
1746476517017998800,1.815998779296875,0.25806670655757186,-0.7277472883164883,-0.13281097212135792
1746476517027979000,1.82597900390625,0.04998305130898952,-0.41539398803710936,-0.1484831730276346
1746476517037958000,1.8359580078125,-0.18761574449837207,-0.1414601425230503,-0.1207470248401165
1746476517047937000,1.84593701171875,-0.39069150845706463,0.11783961296081542,-0.1100105267703533
1746476517057917000,1.8559169921875,-0.5501961339756846,0.36670857532322404,-0.12185060216784477
1746476517067895800,1.865895751953125,-0.7547159592628478,0.5770499463707208,-0.06845277397930621
1746476517077875000,1.875875,-0.9089584264695644,0.717353904595971,-0.07477671630382537
1746476517087854800,1.885854736328125,-1.0126654691815375,0.8617641290962695,-0.05480886403024196
1746476517097834000,1.895833984375,-1.093290911513567,0.984467548701167,-0.04708440725803375
1746476517107812900,1.905812744140625,-1.2010448915287852,1.0708166293770074,-0.0631289486080408
1746476517117792000,1.9157919921875,-1.4242594804137945,1.0861042148798703,-0.08122107013761996
1746476517127772000,1.92577197265625,-1.6089970391273498,0.9280266995549201,-0.08399170389473437
1746476517137750800,1.935750732421875,-1.6183412060558795,0.7042746427923441,-0.05153437240421772
1746476517147730000,1.94572998046875,-1.3978513659596443,0.471298246088624,0.015945757150650025
1746476517157709800,1.955709716796875,-0.9828989842101931,0.22863865976035594,0.06866027925014495
1746476517167689000,1.96568896484375,-0.5542448248445987,0.06698796212375163,0.17144143928885458
1746476517177667800,1.975667724609375,-0.06242810686230659,-0.01641571274995804,0.31671558714210984
1746476517187647700,1.985647705078125,0.38928427200764415,-0.07121697799563408,0.39298634139597416
1746476517197627000,1.995626953125,0.7276701314270496,-0.04287584965229034,0.5187900651037692
1746476517207605800,2.005605712890625,0.9713502929747104,0.011295300996303558,0.6583101794749499
1746476517217586000,2.0155859375,1.1166726638838649,0.07330138305425643,0.7922966251164675
1746476517227564800,2.025564697265625,1.2437249263480306,0.14521277305483818,0.9836199919611215
1746476517237544000,2.0355439453125,1.3489771526753902,0.2145370691716671,1.1495277625203133
1746476517247522800,2.045522705078125,1.4470274847999214,0.3123223206192255,1.3257587741732597
1746476517257502700,2.055502685546875,1.473785435605049,0.4273527213782072,1.473871360322833
1746476517267481900,2.06548193359375,1.4406377837628126,0.5656868408352136,1.6089607987701893
1746476517277460700,2.075460693359375,1.3654653461396693,0.6570405979305506,1.7325357405126094
1746476517287441000,2.08544091796875,1.3388926887735724,0.7578741310328244,1.8671458710104225
1746476517297419800,2.095419677734375,1.3452479030191897,0.8075181596457958,1.9814725074142217
1746476517307399000,2.10539892578125,1.2761162068650125,0.8909183273881673,2.025978004094958
1746476517317378800,2.11537890625,1.1110843423575163,0.9587047464132309,2.0623574774652718
1746476517327357700,2.125357666015625,0.9318453810602426,0.9528723869979381,2.1192343799412248
1746476517337336800,2.1353369140625,0.8081637640729546,0.9350503145813941,2.155788625356555
1746476517347316700,2.145316650390625,0.7070262795880436,0.8996066607564687,2.132380861762166
1746476517357295900,2.1552958984375,0.5939619182050228,0.8267582821667194,2.2077719105720517
1746476517367274800,2.165274658203125,0.5005868844151496,0.7241805357456207,2.263196276152134
1746476517377254000,2.17525390625,0.4357192754462361,0.6367711323618889,2.2339006235629317
1746476517387233800,2.18523388671875,0.38328883098512884,0.6159925482273102,2.1233751330077646
1746476517397212700,2.195212646484375,0.3886506502792239,0.5697212109178305,1.9981044932633638
1746476517407191800,2.20519189453125,0.4750830253243446,0.48500645344555376,1.9736457593113184
1746476517417172000,2.215171875,0.5789847138255835,0.5645721575915813,1.8279098391652107
1746476517427150800,2.22515087890625,0.6844549668177962,0.6790314804643393,1.6410907980024814
1746476517437129700,2.235129638671875,0.7722460629954934,0.78410455083251,1.5307897638529537
1746476517447110000,2.24510986328125,0.8164736195176839,0.8447919515073299,1.4616712194412946
1746476517457089000,2.255089111328125,0.8925485589385033,0.8651467572718858,1.4288468082040549
1746476517467068000,2.26506787109375,0.9044616995722055,0.8719272111922503,1.3806664224028586
1746476517477047800,2.2750478515625,0.9274132438316941,0.8322615557581186,1.3382049987703561
1746476517487027000,2.28502685546875,1.003266941717267,0.8185702995359897,1.3022884667366743
1746476517497005800,2.295005859375,1.0640654015511273,0.8275491402834654,1.257580725482106
1746476517506986000,2.304986083984375,1.0526339069545267,0.794992440071702,1.2095610832005739
1746476517516964900,2.31496484375,1.0794453415125609,0.8406628888785839,1.1149188059538602
1746476517526944000,2.324944091796875,1.1388988164782523,0.8864958347707986,0.9680646954327821
1746476517536923000,2.3349228515625,1.2675742962300778,0.9506740001708268,0.7457797886133194
1746476517546902800,2.34490283203125,1.371303550773859,1.1166530824005603,0.5727946270138025
1746476517556882000,2.3548818359375,1.3128256428420544,1.3123311373233795,0.5539028795391321
1746476517566860800,2.36486083984375,1.1739330127194523,1.3725298776984214,0.707393067073822
1746476517576841000,2.374841064453125,1.0382084912389515,1.3999252496242522,0.702570176962018
1746476517586819800,2.38481982421875,1.0282874012053012,1.5466460891544818,0.5077911167055368
1746476517596799000,2.394799072265625,1.107369705748558,1.8566683161377906,0.24907529858946797
1746476517606779000,2.40477880859375,1.1834215565547346,2.3728595969200135,-0.06107376964390278
1746476517616757800,2.4147578125,1.1589233673751353,3.057694210705161,-0.23804829314053058
1746476517626737000,2.42473681640625,0.8899757858410478,3.6367145803660152,-0.12475275335013866
1746476517636716800,2.434716796875,0.40261780083328486,3.8671518139809367,0.2783154215991497
1746476517646696400,2.444696533203125,-0.2754404506847262,3.757527656179666,0.6965987013369799
1746476517656675600,2.454675537109375,-0.9998223542213439,3.325180779775977,1.017151674684882
1746476517666654500,2.464654541015625,-1.5578224399462341,2.5522300756424663,1.0830196928679943
1746476517676634600,2.474634521484375,-1.8394494703114033,1.91196700951159,0.8344722175449133
1746476517686613500,2.484613525390625,-1.9736223784357307,1.1745803707122802,0.7113128708660602
1746476517696592600,2.494592529296875,-2.0770041347160935,0.45851533688306806,0.4886994627445936
1746476517706572500,2.504572509765625,-2.0134382559955117,0.016525602865219115,-0.010438976427912711
1746476517716551400,2.514551513671875,-1.8672990157455205,-0.776163236439228,-0.8866939876914024
1746476517726530600,2.524530517578125,-1.8267782047867773,-0.993387937259674,-1.3745850566625595
1746476517736510500,2.534510498046875,-1.8006405778370798,-1.1019470961779356,-0.7894839057832956
1746476517746489600,2.544489501953125,-1.7709335679680107,-1.0382920778691769,-1.1501333271980285
1746476517756468500,2.554468505859375,-1.4828367570668457,-1.4851631541877983,-1.383142457127571
1746476517766448400,2.564448486328125,-0.9283359116345643,-1.8027151921540499,-1.8878502208650112
1746476517776427500,2.574427490234375,-0.5980475800834596,-1.484611950045824,-2.4336820221513507
1746476517786406400,2.584406494140625,-0.4833971185527742,-1.2484522471308708,-2.244759871229529
1746476517796385500,2.594385498046875,-0.41402357646673915,-1.1609668559014796,-1.8895353974729776
1746476517806365400,2.604365478515625,-0.3756862470269203,-1.0955617790549992,-1.6977637023389338
1746476517816344600,2.614344482421875,-0.031001141332834957,-1.0694295589327811,-1.5265414587587118
1746476517826323500,2.624323486328125,0.2902604186758399,-0.5504559539556503,-0.9448486550182104
1746476517836303400,2.634303466796875,0.8186598775155842,-0.2149590939760208,-0.03183949185311794
1746476517846282500,2.644282470703125,1.4125300257839262,-0.07148468902111053,0.0923170491695404
1746476517856261400,2.654261474609375,1.5097278327323496,0.09922492886185645,0.24707564920485017
1746476517866241500,2.664241455078125,1.4419693246275185,-0.212304780074954,0.06525894637405871
1746476517876220400,2.674220458984375,1.3443076995596288,-0.4497551073223352,-0.20919453909993171
1746476517886199600,2.684199462890625,0.9299538682252169,-0.4430594090759754,-0.4593406817913055
1746476517896179500,2.694179443359375,0.37558994704559445,-0.5565040019482373,-0.5525982266813516
1746476517906158300,2.704158447265625,-0.028482582640647885,-0.6463450163930654,-0.5313040942400694
1746476517916137500,2.714137451171875,-0.23324162351116537,-0.6528332093685865,-0.4654395831882953
1746476517926116400,2.724116455078125,-0.3347035176448524,-0.7332254274666309,-0.30992285826206206
1746476517936096500,2.734096435546875,-0.34273674810528754,-0.8346773847281932,-0.2270540209174156
1746476517946075400,2.744075439453125,-0.23890213349089026,-0.8945341797977685,-0.2585086051061749
1746476517956054500,2.754054443359375,-0.06893018223270773,-0.9643775313526392,-0.39491117197871206
1746476517966034400,2.764034423828125,0.11741758815646171,-1.021918450695276,-0.533360149987042
1746476517976013300,2.774013427734375,0.2368833410143852,-1.0439560949802398,-0.6751385646790266
1746476517985992400,2.783992431640625,0.3216059895321727,-1.0630360585033893,-0.8115154125884175
1746476517995972400,2.793972412109375,0.32736294562369583,-1.0610182889401911,-0.9904162279725074
1746476518005951500,2.803951416015625,0.3127899381309748,-1.0294505997657775,-1.1673138868406414
1746476518015930400,2.813930419921875,0.3302121975749731,-0.9575023848861456,-1.3539204542964696
1746476518025910500,2.82391064453125,0.30124110076501964,-0.8551929340124129,-1.5253227306187152
1746476518035889700,2.8338896484375,0.2786447996839881,-0.7565957816600799,-1.6521365081518888
1746476518045868300,2.843868408203125,0.2176174995303154,-0.6522562862634659,-1.6906775434702634
1746476518055847400,2.853847412109375,0.1404110718615353,-0.5881622920155525,-1.6202449938505887
1746476518065827600,2.86382763671875,-0.03407587260305881,-0.5219862307965755,-1.5535755961567164
1746476518075806700,2.873806640625,-0.2724959216654301,-0.5068021056681871,-1.4375076690435409
1746476518085785300,2.883785400390625,-0.47866322189867494,-0.5494003074228764,-1.3154270575121045
1746476518095765500,2.893765625,-0.6434950337894261,-0.63326283197999,-1.268444649323821
1746476518105744600,2.90374462890625,-0.7754308305114507,-0.6896727014660835,-1.1977271452829241
1746476518115723500,2.9137236328125,-0.8691261822968721,-0.7437292858242989,-1.08113431751281
1746476518125703700,2.92370361328125,-0.8688456117898226,-0.8757242653876542,-1.005566450831294
1746476518135682600,2.9336826171875,-0.8595686648786067,-0.9627163201421499,-0.9744447518587112
1746476518145661700,2.94366162109375,-0.8643979847311973,-1.0808803427517413,-0.9532637244030833
1746476518155641600,2.9536416015625,-0.8130993207789957,-1.2314455827504396,-0.9627370706692338
1746476518165620500,2.963620361328125,-0.669795303954929,-1.3306079677700995,-0.9215648100644349
1746476518175599600,2.973599609375,-0.4646501863762736,-1.3831290131241083,-0.93886256634593
1746476518185578500,2.98357861328125,-0.2526484809011221,-1.3907640380471944,-0.929561946298182
1746476518195558700,2.99355859375,-0.03405526820644736,-1.350062609824538,-0.933692762492597
1746476518205537500,3.00353759765625,0.1740197653442621,-1.286940090957284,-0.9821355986222624
1746476518215516700,3.0135166015625,0.3000616817221045,-1.1609896522551775,-1.0091443093180656
1746476518225496600,3.02349658203125,0.46708092065453527,-1.0664303771167993,-1.0875023912400006
1746476518235475500,3.033475341796875,0.5360895749509335,-0.9665881931394338,-1.123347319342196
1746476518245454600,3.04345458984375,0.5083551803290843,-0.9055676149874925,-1.1577423408970235
1746476518255434500,3.0534345703125,0.4617053650960326,-0.8835609503626823,-1.2659703681647776
1746476518265413600,3.06341357421875,0.34369068782925605,-0.908272782292962,-1.370007081222534
1746476518275392500,3.073392578125,0.19953239226341246,-0.9149491913169622,-1.4573764448568225
1746476518285371600,3.08337158203125,0.09202858761698007,-0.8955278670102357,-1.531966114155948
1746476518295351600,3.0933515625,0.06059694591239095,-0.8243915530353784,-1.5038544106543064
1746476518305330400,3.103330322265625,0.09453662491515279,-0.7699468461424112,-1.3028045995652675
1746476518315309600,3.1133095703125,-0.07298866384327411,-0.6924965267151594,-1.3329811266422271
1746476518325289500,3.12328955078125,-0.39897710624337196,-0.5657879631221294,-1.5244102919489144
1746476518335268600,3.1332685546875,-0.5890193472363054,-0.5414741905987263,-1.711430116380751
1746476518345247500,3.14324755859375,-0.7341935418464243,-0.55524961797297,-1.7763479942321776
1746476518355227400,3.153227294921875,-0.8629676596671342,-0.5655588305413722,-1.8115975867897272
1746476518365206500,3.16320654296875,-0.9187095667637885,-0.6193722537934779,-1.866721800379455
1746476518375185400,3.173185302734375,-0.8473077337205409,-0.5863076040595769,-1.9428706818193195
1746476518385165600,3.18316552734375,-0.6891499927662312,-0.4939525609672069,-2.0154636243432758
1746476518395144400,3.19314453125,-0.5104752412229776,-0.29848493392467496,-2.088306742236018
1746476518405123600,3.20312353515625,-0.3331710473805666,0.024889526584744453,-2.215667924518883
1746476518415102500,3.2131025390625,-0.177332250893116,0.4388759859114885,-2.31860339833647
1746476518425082400,3.223082275390625,-0.06255421746000647,0.8813234005689621,-2.4068939684689044
1746476518435061500,3.2330615234375,-0.05706204978451133,1.2595774522572756,-2.4360525506749746
1746476518445040400,3.243040283203125,-0.17927476326301692,1.43786364287436,-2.306547634361684
1746476518455020500,3.2530205078125,-0.36817572526633735,1.396850664484501,-2.2434891206413505
1746476518464999400,3.26299951171875,-0.5658505069643258,1.2184259421795607,-2.3248890544772145
1746476518474978600,3.272978515625,-0.7347342245943844,0.9579156418621539,-2.396345978708565
1746476518484958500,3.28295849609375,-0.8283869062818586,0.633889439445734,-2.3972759530350563
1746476518494937300,3.292937255859375,-0.929352979722619,0.33224516470730303,-2.314731525339186
1746476518504916500,3.30291650390625,-0.9924981488130986,0.08458674717843533,-2.237994322617352
1746476518514895400,3.312895263671875,-1.1554587600044905,-0.17379940059185028,-2.058430074888468
1746476518524875500,3.32287548828125,-1.4107887350745498,-0.3989087171822786,-1.881768562863767
1746476518534854400,3.3328544921875,-1.507398366871476,-0.5708686273872852,-1.7231342904388904
1746476518544833500,3.34283349609375,-1.4604641817390918,-0.7093050381749868,-1.5356269747510551
1746476518554813700,3.352813720703125,-1.325260177001357,-0.7863298256665467,-1.2871762378007172
1746476518564792300,3.362792236328125,-1.123622190760821,-0.8578986858397721,-1.026607193033397
1746476518574771500,3.372771484375,-0.890929287173599,-0.8799871835291385,-0.7622659362509846
1746476518584751600,3.382751708984375,-0.6070955405443906,-0.925302243027091,-0.4322656278610229
1746476518594730500,3.39273046875,-0.3167109109669924,-0.9863105462193489,-0.14054302767813204
1746476518604709600,3.402709716796875,-0.054928691017627713,-0.9833382524102926,0.09755085816979407
1746476518614688500,3.4126884765625,0.2281754261627793,-0.8792524395138025,0.3225608060389757
1746476518624668700,3.422668701171875,0.457856142321974,-0.7670908721894025,0.5095709858596325
1746476518634647600,3.4326474609375,0.655565410811454,-0.5521645114392042,0.6719476596832274
1746476518644626200,3.442626220703125,0.8855437947429716,-0.23078268605172633,0.8987842384576797
1746476518654606000,3.452606201171875,0.9952069693803787,0.11941256136596202,1.0961083070218562
1746476518664585200,3.462585205078125,0.9553748713381588,0.42975802895426746,1.158830428394675
1746476518674564000,3.472564208984375,0.8561860367029904,0.6200906311959028,1.0034931516885757
1746476518684544300,3.482544189453125,0.6357477806635201,0.952411783748865,0.8898568356364965
1746476518694523100,3.492523193359375,0.5605396872051059,1.267612874674797,0.9134265117943287
1746476518704502000,3.502501953125,0.2849446304805577,1.5543348900914191,0.8557540750265121
1746476518714481200,3.512481201171875,0.0017841069377958773,1.8508219281971454,0.8054653187692165
1746476518724461300,3.52246142578125,-0.32545243582725525,1.9582260718613862,0.9316495662271976
1746476518734440400,3.5324404296875,-0.6609389205433428,1.9925544579207897,1.051958199650049
1746476518744419000,3.542419189453125,-0.9370720296673476,1.852348114851117,1.0781862813621759
1746476518754399200,3.552399169921875,-1.1408778614662587,1.5564491057664156,1.1187830801665781
1746476518764378400,3.56237841796875,-1.2888250279210507,1.189541793000698,1.1316326248675583
1746476518774357200,3.572357177734375,-1.3468157368578015,0.9294985256731509,1.0991004745751618
1746476518784337400,3.58233740234375,-1.3846758041746914,0.7170528758227824,1.1048691211044788
1746476518794316300,3.59231640625,-1.4246077093295753,0.5584510443627834,1.152109011185169
1746476518804295400,3.60229541015625,-1.4445796532563864,0.4598819490611553,1.2247826177299022
1746476518814274300,3.6122744140625,-1.4186561074487865,0.4798375263750553,1.369291041907668
1746476518824254200,3.622254150390625,-1.4006483032017945,0.5525386054486036,1.5969710857689379
1746476518834233300,3.6322333984375,-1.2927782955914735,0.6416828698009253,1.904943394485116
1746476518844212200,3.642212158203125,-1.1061476166076958,0.7452057881176471,2.1186738234490154
1746476518854192400,3.6521923828125,-0.9020458706021308,0.8091033830106258,2.2866636609792708
1746476518864171300,3.662171142578125,-0.7086876369290054,0.8012129220217465,2.451716276013851
1746476518874150400,3.672150390625,-0.5021142401129007,0.8024456786870956,2.5792279726833103
1746476518884130300,3.68213037109375,-0.29087036726772786,0.7509265038520098,2.630941208785772
1746476518894109200,3.692109130859375,-0.1055966558508575,0.6817196966350079,2.687669642701745
1746476518904088300,3.70208837890625,-0.014186200132220982,0.6318780996233224,2.70205764901638
1746476518914067200,3.712067138671875,0.06194309982433915,0.5983645370781421,2.686252177119255
1746476518924047000,3.722047119140625,0.11459200934171676,0.5359148029059171,2.6533243055075406
1746476518934026200,3.732026123046875,0.13505334422066806,0.47797114798128604,2.5996950066506863
1746476518944005400,3.74200537109375,0.14800050407722593,0.4873924717992544,2.5614485703647136
1746476518953985300,3.7519853515625,0.16820201897621154,0.5081833308935165,2.5140491058081387
1746476518963964200,3.761964111328125,0.1637859560996294,0.5151303735524415,2.464260115766525
1746476518973943300,3.771943359375,0.19239537999033926,0.4944722009271383,2.5065993743240833
1746476518983923200,3.781923095703125,0.21955811220407484,0.46624914600551126,2.5670471210241317
1746476518993902000,3.791902099609375,0.2070665871605277,0.44678748968839643,2.5992279736608266
1746476519003881200,3.801881103515625,0.20144728597402572,0.449434789326787,2.5589982546031473
1746476519013860400,3.8118603515625,0.23623949015289544,0.4259937079846859,2.4898037223458287
1746476519023840300,3.82184033203125,0.29732553475648166,0.43681496172845363,2.3534143072158096
1746476519033819100,3.831819091796875,0.4161078353948891,0.5195861839175224,2.1908663684785363
1746476519043798300,3.84179833984375,0.45925388029068703,0.6647340750426054,1.989317960217595
1746476519053778200,3.851778076171875,0.506957003968954,0.8416320261716842,1.8319798650830983
1746476519063757000,3.861757080078125,0.5793764896221458,0.9701602064073085,1.7886241229593753
1746476519073736200,3.871736083984375,0.6096884796470403,1.0665730004578828,1.7282663926303385
1746476519083716000,3.881716064453125,0.646959348899126,1.1031126328259706,1.7227514286011456
1746476519093695200,3.8916953125,0.6533928890779614,1.0516367126107216,1.7066963658571241
1746476519103674000,3.901674072265625,0.6565519376307726,0.9197340875059365,1.6810557286441326
1746476519113653200,3.9116533203125,0.6504197184860706,0.823851454809308,1.5782283913761377
1746476519123633200,3.921633056640625,0.7189683540552854,0.7273895609200001,1.4685574718236922
1746476519133612000,3.931612060546875,0.8072218070477247,0.7159545591920614,1.354971424654126
1746476519143591200,3.941591064453125,0.8800789534658193,0.7358914318054914,1.207876491114497
1746476519153571000,3.951571044921875,0.9423235204547643,0.7905757926732301,1.1191776324421168
1746476519163550200,3.96155029296875,1.0020166493952274,0.838629921746254,1.0688561429589987
1746476519173529000,3.971529052734375,1.0746455400153994,0.8378963467746973,1.0399883603930473
1746476519183509000,3.981509033203125,1.1475707832336426,0.8365630523443222,0.9299024302989244
1746476519193488100,3.991488037109375,1.276021806579828,0.9321586847931146,0.746973966833949
1746476519203467000,4.001467041015625,1.3701926669225095,0.9170978937834501,0.7010965972781181
1746476519213446100,4.011446044921875,1.2765478762805462,0.7247551207631826,0.6814853033572434
1746476519223426000,4.021426025390625,1.0769500175654887,0.4925386025160551,0.5423538960427046
1746476519233405200,4.0314052734375,0.8512731302201747,0.3053016282021999,0.3323416108191013
1746476519243384000,4.041384033203125,0.6360545085251331,0.2621668353527784,0.12894494434297085
1746476519253364200,4.0513642578125,0.5207260016024112,0.4015419882953167,-0.14283084635436535
1746476519263343000,4.061343017578125,0.4674006541281938,0.7597878556996583,-0.513413632762432
1746476519273322000,4.071322021484375,0.4675935463517904,1.264874974143505,-0.8447259005337953
1746476519283302400,4.081302490234375,0.5082730550035834,1.879996584755182,-1.0665420207977294
1746476519293281300,4.09128125,0.4654778693720698,2.418698388031125,-1.1007733762234448
1746476519303260400,4.101260498046875,0.25138182196617126,2.7551111938118935,-1.0010247157484293
1746476519313239000,4.111239013671875,-0.0782563751131296,2.8340824391961097,-0.7998983322918415
1746476519323219200,4.12121923828125,-0.44728433329463,2.4940736547499895,-0.5822936922430991
1746476519333198300,4.1311982421875,-0.8256341004423796,1.984177674719691,-0.5445721566140651
1746476519343177200,4.14117724609375,-1.1564181065559387,1.2565168956428765,-0.6879799260735512
1746476519353157400,4.151157470703125,-1.4120862275391817,0.5199947647184133,-0.8330237723022699
1746476519363136300,4.16113623046875,-1.551321095228195,-0.20605624107420442,-1.111646067893505
1746476519373115400,4.171115478515625,-1.5069601215846835,-0.8951847526609897,-1.6070435669720171
1746476519383094300,4.18109423828125,-1.3590112015642224,-1.4593191033571957,-2.1679133629143235
1746476519393074200,4.19107421875,-1.4784464131534099,-1.8440555028021335,-2.5456892756968736
1746476519403053300,4.20105322265625,-1.689581564927101,-1.9993471868008375,-2.172696505537629
1746476519413032200,4.2110322265625,-1.5484994619362056,-2.3114690164119005,-1.7613631910681724
1746476519423012400,4.221012451171875,-1.299299221792817,-2.5130495733767746,-2.0977637218892573
1746476519432991200,4.2309912109375,-0.826984492138028,-2.7390736667245625,-2.548226685220003
1746476519442970400,4.240970458984375,-0.3912449045561254,-2.8641391392856836,-2.619277658998966
1746476519452950300,4.2509501953125,-0.22225275811553,-2.6263416060358282,-2.6088772610157727
1746476519462929200,4.26092919921875,-0.13978899444043635,-2.314843461281061,-2.4284961439460515
1746476519472908300,4.270908203125,-0.03862564486190676,-1.989390440931916,-1.985347303020954
1746476519482887200,4.28088720703125,0.07410378547832369,-1.5021996291846036,-1.9106494971722363
1746476519492867300,4.290867431640625,0.15597557460963726,-1.1841881570130586,-1.9590695369482038
1746476519502846200,4.30084619140625,0.1626942153401673,-0.9061679189682006,-1.8130331725507973
1746476519512825300,4.310825439453125,0.02720072613656521,-0.5202601376563311,-1.3085165474712848
1746476519522805200,4.32080517578125,-0.18154709210917352,-0.2816349214106798,-0.7169079143941403
1746476519532784000,4.3307841796875,-0.440114441665262,-0.16759937690794466,-0.39147944396436213
1746476519542763300,4.34076318359375,-0.5712234321743249,-0.090417353028059,-0.17140929058492183
1746476519552743200,4.3507431640625,-0.660792059418559,-0.02447743865251541,0.0293751475661993
1746476519562722300,4.360722412109375,-0.6988245606929063,0.027765958803892134,0.22386311592161653
1746476519572701200,4.370701171875,-0.6371715298563242,0.1089607254564762,0.35540158388912674
1746476519582680300,4.380680419921875,-0.5862269400388002,0.20694529886841773,0.4916489601999521
1746476519592660200,4.39066015625,-0.5456165511004626,0.29856676698923107,0.6228980898320674
1746476519602639000,4.40063916015625,-0.48893151793479916,0.3384077789902687,0.6876572699904442
1746476519612618200,4.4106181640625,-0.39353403840661044,0.357786433199048,0.6345972954541444
1746476519622598100,4.42059814453125,-0.2681972015582025,0.3720774088799953,0.47087212963104247
1746476519632577300,4.430577392578125,-0.09598302433118223,0.37251112412214277,0.27847441155314445
1746476519642556700,4.440556640625,0.10266717827022075,0.32078912019133565,0.11337445024549961
1746476519652535600,4.45053564453125,0.2654226222783327,0.28007775509655475,-0.020319734451174735
1746476519662515700,4.460515625,0.4275121497236192,0.31333354348838327,-0.05885609359443188
1746476519672494600,4.47049462890625,0.525678071051836,0.369220850405097,-0.041270168021321295
1746476519682473700,4.4804736328125,0.5474234543919563,0.39177287395298477,0.07843523881137371
1746476519692453600,4.49045361328125,0.5128694428831339,0.4012468047410249,0.18153028710484503
1746476519702432500,4.5004326171875,0.4599639282561838,0.42884383671879767,0.28975393045842646
1746476519712411600,4.51041162109375,0.36970074287652965,0.4093021009027958,0.40389527342319487
1746476519722391600,4.5203916015625,0.23803265717998146,0.37584114532768725,0.5374725537419319
1746476519732370700,4.53037060546875,0.17316884760335086,0.28032500785589215,0.6513795034289359
1746476519742349600,4.540349609375,0.16433496828451752,0.14262626369297504,0.7266483871638775
1746476519752328700,4.55032861328125,0.165759886521101,-0.01337093822658062,0.8275491402834654
1746476519762308600,4.56030859375,0.21681378193199632,-0.14199381100833416,0.8999000907450914
1746476519772287500,4.57028759765625,0.24751710936203597,-0.334552272605896,0.8892191222548484
1746476519782266600,4.5802666015625,0.2426794600725174,-0.5715145240753888,0.7928688720464706
1746476519792246500,4.59024658203125,0.23022329860329627,-0.7884896340489387,0.619471037992835
1746476519802225700,4.6002255859375,0.11646817847713828,-1.051417516902089,0.35537878753542895
1746476519812204500,4.61020458984375,-0.12206322200521826,-1.218026129207015,-0.021425065344572065
1746476519822183700,4.62018359375,-0.3143212393514812,-1.3167249883681535,-0.36887481344640255
1746476519832163600,4.63016357421875,-0.20472586925327776,-1.4114379927635192,-0.4906161100208759
1746476519842142500,4.640142578125,0.016432663884758947,-1.4836860673725605,-0.48163376214206216
1746476519852121600,4.65012158203125,0.3978912107028067,-1.3870230979532003,-0.4545265595078468
1746476519862101500,4.6601015625,0.7128031094238162,-1.4754127445459364,-0.33752456641495227
1746476519872080600,4.67008056640625,0.8734989905536175,-1.438443488588929,-0.3269190012484789
1746476519882059500,4.6800595703125,0.8556263569936156,-1.1851426812589168,-0.5859264957875013
1746476519892039400,4.690039306640625,0.8761115111395716,-1.2786433872550724,-0.547666615498066
1746476519902018600,4.7000185546875,0.7412661105811595,-1.1849275772035122,-0.7356979550600051
1746476519911997400,4.70999755859375,0.5238621076710522,-0.9841612592309713,-0.7276438279420137
1746476519921976600,4.7199765625,0.4382506936199963,-0.7924795804679393,-0.564807719913125
1746476519931956500,4.72995654296875,0.4358208361245692,-0.5174257910132408,-0.40163843440711494
1746476519941935600,4.739935546875,0.41595922070443625,-0.2574351306557655,-0.342838454914093
1746476519951914500,4.74991455078125,0.34685616612285375,-0.07148351997733116,-0.3273147225677967
1746476519961894400,4.759894287109375,0.2549839381113648,-0.054710664352774614,-0.34840076521635055
1746476519971873500,4.76987353515625,0.09434387882202863,-0.1644470503568649,-0.5044295313179493
1746476519981852400,4.779852294921875,-0.11631138048022985,-0.3096083854854107,-0.7999111917734145
1746476519991832600,4.78983251953125,-0.3404223336830735,-0.4818757542043924,-1.1655816562205552
1746476520001811500,4.7998115234375,-0.536515691408515,-0.6256622938483953,-1.4730179583638905
1746476520011790600,4.80979052734375,-0.663311641024053,-0.662882894217968,-1.8029753043949603
1746476520021769500,4.81976953125,-0.746046184464544,-0.7178630231618881,-2.047434049099684
1746476520031749400,4.829749267578125,-0.81944167554304,-0.7787941694647074,-2.207214276689291
1746476520041728500,4.839728515625,-0.7860966014325619,-0.7975275115072726,-2.29488963753283
1746476520051707400,4.849707275390625,-0.7323042209684848,-0.7526987742215394,-2.3767761858418583
1746476520061687800,4.859687744140625,-0.6896621800720691,-0.6563210514843464,-2.4896248586475846
1746476520071666400,4.86966650390625,-0.5270516974925995,-0.40815176182389257,-2.669517607678473
1746476520081645600,4.8796455078125,-0.4278605247698724,-0.0021650690793991088,-2.8435850115567445
1746476520091624400,4.88962451171875,-0.3741961545996368,0.4590355613648891,-2.873006336352229
1746476520101604600,4.8996044921875,-0.4443948954634368,0.9206991331458091,-2.807785383901
1746476520111583500,4.90958349609375,-0.629391981896013,1.2069453477442265,-2.579401867945492
1746476520121562400,4.919562255859375,-0.9081764823116362,1.1898469134271143,-2.3506726072922346
1746476520131542800,4.929542724609375,-1.1889777293771504,0.9557868131399154,-2.196981344227493
1746476520141521700,4.939521728515625,-1.4249560843758284,0.553574962759018,-2.0706389835983514
1746476520151500800,4.949500732421875,-1.5536058451645076,0.10193243425488471,-1.9891773827031254
1746476520161479400,4.9594794921875,-1.6551140626579521,-0.3604097674399614,-1.933328654231131
1746476520171459600,4.96945947265625,-1.643004376538843,-0.7469839037060737,-1.8667443044722078
1746476520181438700,4.979438720703125,-1.5929045669823885,-1.0462222863465547,-1.799436024352908
1746476520191417600,4.98941748046875,-1.544015740650892,-1.2826853561222553,-1.755491084164381
1746476520201397800,4.999397705078125,-1.3629178536139428,-1.4261784657776355,-1.6546476141899824
1746476520211376600,5.009376708984375,-1.1571433520905672,-1.4449141459077597,-1.4758306776970624
1746476520221355800,5.019355712890625,-0.9103162708193063,-1.420343768274784,-1.2307535088330506
1746476520231335700,5.029335693359375,-0.6393523810267449,-1.3404507318705319,-0.9796253693670034
1746476520241314600,5.039314453125,-0.39341172720119355,-1.2728104433178902,-0.8017892606049776
1746476520251293700,5.049293701171875,-0.18304244523346422,-1.2671844201296567,-0.6261375101447105
1746476520261272600,5.0592724609375,0.009699702367931605,-1.2450333785980938,-0.45865562213659283
1746476520271252700,5.069252685546875,0.13965528505817054,-1.1393307781547308,-0.33580548753738404
1746476520281231600,5.079231689453125,0.30969606376886366,-0.9972545495599507,-0.1348024381995201
1746476520291210800,5.089210693359375,0.5102502002954483,-0.7920733377546072,0.03693360012173653
1746476520301190700,5.099190673828125,0.6669008976876736,-0.5723112274110317,0.14330898526012897
1746476520311169500,5.10916943359375,0.7440975346148013,-0.2592915721774101,0.19615736287236213
1746476520321148700,5.119148681640625,0.7586126744404434,0.11162439170777796,0.2708955007314682
1746476520331127600,5.12912744140625,0.6691004535585642,0.5049906723320484,0.3702624684125185
1746476520341107700,5.139107666015625,0.5476924805916845,0.8408078503072262,0.4067249438911676
1746476520351086600,5.149086669921875,0.49994347194507716,1.1593787099272013,0.40777357616126536
1746476520361065700,5.159065673828125,0.35761852928623555,1.3624509667545557,0.3952876040756702
1746476520371045600,5.169045654296875,0.13337722770199179,1.3942758455604314,0.2279910095065832
1746476520381024500,5.1790244140625,-0.12056757661998271,1.3291308809548616,0.05559913762509822
1746476520391003600,5.189003662109375,-0.3807189804971218,1.2489987750977276,-0.06137479841709136
1746476520400983600,5.198983642578125,-0.5875367074631154,1.1212982778578997,-0.14376374329030514
1746476520410962700,5.208962646484375,-0.7985806738220155,1.0780974340349436,-0.24351824898421762
1746476520420941600,5.218941650390625,-0.9848987797252833,0.851093682000041,-0.4001204310595989
1746476520430920700,5.228920654296875,-1.1381488748937845,0.5688298150360583,-0.2555886260062456
1746476520440900600,5.238900634765625,-1.2976577381961047,0.3821259246855974,-0.07696867339015007
1746476520450879500,5.24887939453125,-1.305074151932448,0.154892455548048,0.12313830389082431
1746476520460858600,5.258858642578125,-1.2292254224829375,-0.037222938457131385,0.3900643164694309
1746476520470838500,5.268838623046875,-1.101440900221467,-0.1369073015242815,0.6511357578009367
1746476520480817700,5.278817626953125,-0.8904051171690225,-0.08238543774187565,0.9170441177695989
1746476520490796500,5.288796630859375,-0.6823655933231115,-0.0229267020791769,1.191326338329911
1746476520500775700,5.298775634765625,-0.5432825551949441,0.07112929971218108,1.4479320324242113
1746476520510755600,5.308755615234375,-0.4050963197760284,0.2540232763856649,1.6378811883062123
1746476520520734500,5.318734375,-0.2386554652534425,0.3871855461627245,1.8112708390533923
1746476520530713600,5.328713623046875,-0.14736965882778166,0.46218438078463076,1.9037673364430665
1746476520540693500,5.338693603515625,-0.07375424138829112,0.5172971961975097,1.9305103819400071
1746476520550672600,5.348672607421875,-0.022121815437078474,0.5739478887021541,1.9255793552786111
1746476520560651500,5.358651611328125,-0.035711949372291565,0.6090098497331142,1.90098208963871
1746476520570630700,5.368630615234375,-0.12352686481699347,0.6099497609317303,1.8438836533665657
1746476520580610600,5.378610595703125,-0.2848071217060089,0.5799678796440363,1.7553069597691298
1746476520590589400,5.38858935546875,-0.4811135376602411,0.5681202054619788,1.6864187169820068
1746476520600568600,5.398568603515625,-0.5489706838339566,0.5389806202173233,1.5785294201493263
1746476520610548500,5.408548583984375,-0.6695382604539394,0.503991724422574,1.5419810199528932
1746476520620527600,5.418527587890625,-0.8367126899480819,0.5204986225873232,1.5461434003293513
1746476520630506500,5.428506591796875,-0.9056919720195233,0.5068903684735298,1.4971674802362918
1746476520640485600,5.438485595703125,-0.9029786214075982,0.4670113625496626,1.4764888493448496
1746476520650465300,5.44846533203125,-0.8404967385314405,0.4190378974974155,1.4726467869639395
1746476520660444200,5.458444091796875,-0.775440621253103,0.3493833465129137,1.4704758726656435
1746476520670423300,5.46842333984375,-0.651988429107517,0.23859482110738753,1.4679694428026675
1746476520680403200,5.4784033203125,-0.5105348624557257,0.1152525190770626,1.503429463240504
1746476520690382300,5.48838232421875,-0.3648211541414261,0.015222703573107718,1.5417583171129225
1746476520700361200,5.498361328125,-0.19751973726674912,-0.08012567611634731,1.546862362253666
1746476520710340400,5.50834033203125,-0.04517009806931019,-0.15570552549660205,1.564719505983591
1746476520720320300,5.5183203125,-0.0033989947885274883,-0.12565525514781475,1.538396731725335
1746476520730299100,5.528299072265625,0.1323335638679564,-0.08978957651853561,1.4607558581620455
1746476520740278300,5.5382783203125,0.2175995254822075,0.043005613511800767,1.4480641343712806
1746476520750258200,5.548258056640625,0.2709463541358709,0.16319617351293564,1.4418775546908378
1746476520760237300,5.5582373046875,0.35523134188875555,0.26100655940175055,1.4361398878216742
1746476520770216200,5.56821630859375,0.40565526883304115,0.3815419873178005,1.4232353980630634
1746476520780196000,5.578196044921875,0.3960702788859606,0.5138654681831598,1.4189298098236323
1746476520790175200,5.58817529296875,0.33858561977520585,0.6183253750890493,1.3785522067278624
1746476520800154000,5.598154052734375,0.3600876958787441,0.6380752006977796,1.3529548241347074
1746476520810133200,5.60813330078125,0.3284124546766281,0.6887292831361294,1.3344196350127457
1746476520820113200,5.618113037109375,0.378850702407211,0.6709364368140697,1.3038660913169384
1746476520830092300,5.62809228515625,0.3833895148806274,0.5664350288540124,1.206381284120679
1746476520840071200,5.6380712890625,0.4155557544700801,0.5066723418086767,1.028448144724965
1746476520850051000,5.648051025390625,0.48730830064713954,0.5083516731977462,0.7828560120761394
1746476520860030200,5.6580302734375,0.5816789213456213,0.6165010822713375,0.6282675079107284
1746476520870009000,5.668009033203125,0.5687082344830036,0.6976590240448712,0.5786813469648361
1746476520879988200,5.67798828125,0.5085995104789733,0.7291425420671701,0.6519190171331167
1746476520889968000,5.687968017578125,0.4529508346237242,0.7991331931382417,0.6434358509480953
1746476520899947300,5.697947265625,0.48993192714899775,1.014067152673006,0.5324211155712604
1746476520909926100,5.707926025390625,0.5983845569528639,1.3654706068366764,0.34351942291557785
1746476520919906000,5.717906005859375,0.7537251946598291,1.8443465947031974,0.18790391378998755
1746476520929885200,5.72788525390625,0.8594315944954752,2.4078595986306666,0.08265139520168303
1746476520939864000,5.737864013671875,0.9081418493896722,2.9671745663464066,0.09235679665803909
1746476520949843200,5.74784326171875,0.7459544145278633,3.332819896352291,0.3149842333048582
1746476520959823400,5.7578232421875,0.38192894080877304,3.3571716627985237,0.7219698739588261
1746476520969802200,5.76780224609375,-0.09934300228357315,3.1005197914749383,1.1370382833033799
1746476520979781000,5.777781005859375,-0.5668548617012799,2.5586416962504384,1.3626052805334328
1746476520989761300,5.78776123046875,-0.9192935041315853,1.883918726634979,1.3098404895514248
1746476520999740400,5.797740478515625,-1.128815229359269,1.1234504874557256,1.0861188279271126
1746476521009719300,5.80771923828125,-1.218836422676593,0.41287586773633955,0.9124287329286337
1746476521019698200,5.8176982421875,-1.1055172097496688,-0.28483459423482416,0.6032943946957587
1746476521029678300,5.82767822265625,-0.8024018395453691,-0.7857768679589032,0.2185457202911377
1746476521039657500,5.837657470703125,-0.5443443392075598,-1.14537473449409,-0.07241290978193282
1746476521049636400,5.84763623046875,-0.29395854254141446,-1.4718302098840474,-0.3307341756224632
1746476521059616300,5.8576162109375,-0.04228007571622729,-1.6820985156953334,-0.5147486807584762
1746476521069595400,5.867595458984375,0.17050693491771815,-1.84023857486248,-0.6459171463698148
1746476521079574300,5.87757421875,0.40057065904513,-1.9370079272657632,-0.8086679142028093
1746476521089553400,5.887553466796875,0.6501194203652441,-1.9165537527799605,-0.9298813875108957
1746476521099533300,5.897533203125,0.8314677750319242,-1.8366998793423175,-1.0949567988991737
1746476521109512400,5.907512451171875,0.9450222580194473,-1.6825141107589006,-1.2623650371491908
1746476521119491300,5.9174912109375,1.0525263549268244,-1.5367150622487067,-1.4534621940225363
1746476521129471200,5.92747119140625,1.0468991626948119,-1.3009697853535414,-1.5909586936116218
1746476521139450400,5.937450439453125,0.9690157125473022,-0.9834498960912227,-1.663590799102187
1746476521149429200,5.94742919921875,0.8732007382594048,-0.6599573621600866,-1.5698586224377153
1746476521159408400,5.957408447265625,0.7470837108187377,-0.36172961786687374,-1.2780600344091653
1746476521169388300,5.96738818359375,0.5462123250365257,-0.050803720042109486,-0.954442997315526
1746476521179367400,5.977367431640625,0.30950550963282586,0.18980010280013082,-0.6035235272765159
1746476521189346300,5.98734619140625,0.10268588297069071,0.38276480711102484,-0.21330431250631807
1746476521199326200,5.997326171875,-0.0765760208107531,0.564971970564127,0.08683891001939772
1746476521209305300,6.007305419921875,-0.21966887910217045,0.5428717824369669,-0.04873275898694992
1746476521219284200,6.0172841796875,-0.3993663978219032,0.6043979720234871,0.0076256725728511806
1746476521229263400,6.027263427734375,-0.5357873771339655,0.7070236492395401,0.1526794556736946
1746476521239243300,6.0372431640625,-0.7666342144630849,0.6519248623520135,0.16675415825545786
1746476521249222400,6.047222412109375,-0.9585023557089268,0.5932020397484302,0.2484118662446737
1746476521259201300,6.057201171875,-1.0200848055273293,0.5577227300882339,0.7915051824778317
1746476521269181200,6.06718115234375,-1.1484713853351771,0.3778770350694656,0.9555553424715996
1746476521279160300,6.077160400390625,-1.3337309220962226,0.14918343025147915,0.8753080858021974
1746476521289139200,6.08713916015625,-1.2449684966683388,-0.06341185720264911,0.689675624075532
1746476521299118300,6.097118408203125,-1.0693488949120045,-0.340275910949707,0.5011152922034263
1746476521309098200,6.10709814453125,-0.8054806624688208,-0.4960521635949611,0.3469681020647287
1746476521319077400,6.117077392578125,-0.42725379104837774,-0.5631815800160169,0.25436522169113157
1746476521329056300,6.12705615234375,-0.13703867281898854,-0.6718892074942588,0.13089315580129623
1746476521339036200,6.1370361328125,0.13371639652848244,-0.6893459537297487,-0.02264262444078922
1746476521349015300,6.147015380859375,0.4308288730561733,-0.6417939289599657,-0.08386077099144458
1746476521358994200,6.156994140625,0.656366644191742,-0.565807252344489,-0.11618541601300239
1746476521368973300,6.166973388671875,0.8221645246356725,-0.4154237986534834,-0.11230126805603503
1746476521378953200,6.176953125,0.9505512505739927,-0.2734030996382236,-0.0907704042494297
1746476521388932400,6.186932373046875,0.996921225952357,-0.17844810318052767,-0.1028612395375967
1746476521398911200,6.1969111328125,0.9883727394461631,-0.19880992320775984,-0.08804945485293865
1746476521408891100,6.20689111328125,0.9865404094524681,-0.2246148110717535,-0.07996376355290412
1746476521418870300,6.216870361328125,0.9066947193212807,-0.23861469485163686,-0.05983633680343627
1746476521428849200,6.22684912109375,0.7897277975417674,-0.2949094135254621,-0.04731704697012901
1746476521438828300,6.236828369140625,0.6006248832255602,-0.3366922072440386,0.00840951642692089
1746476521448808200,6.24680810546875,0.4283401249803602,-0.3665677055478096,0.11946166120469569
1746476521458787300,6.256787353515625,0.27527546938136216,-0.39253216788768763,0.20146365258693694
1746476521468766200,6.26676611328125,0.16905995097979903,-0.43739831457436085,0.2847141827255487
1746476521478746000,6.27674609375,0.13322247553169728,-0.45976972085833545,0.3515478310704231
1746476521488725200,6.286725341796875,0.12081132224798202,-0.4789952303320169,0.4063952735453844
1746476521498704100,6.2967041015625,0.20007775118649004,-0.5284025275796651,0.4289911362349987
1746476521508684000,6.30668408203125,0.23049860841333863,-0.6078618487417697,0.384081150406599
1746476521518663200,6.3166630859375,0.2446387774467468,-0.6667763945251702,0.2832733362674713
1746476521528642300,6.326642333984375,0.2953033812791109,-0.7185697101265192,0.1348462773412466
1746476521538621200,6.33662109375,0.3301636822581291,-0.7353004801750183,0.022412907338142395
1746476521548601000,6.34660107421875,0.37389220321699973,-0.695773940950632,-0.10069967758953571
1746476521558580200,6.356580322265625,0.4166226530492306,-0.639269963440299,-0.2026461403697729
1746476521568559000,6.36655908203125,0.496299562484771,-0.5345774168223142,-0.3474614385396242
1746476521578538200,6.376538330078125,0.5737152489900589,-0.36102760707736015,-0.48333413631916045
1746476521588518100,6.38651806640625,0.6193361595667898,-0.2410322773873806,-0.6095610538750886
1746476521598497300,6.396497314453125,0.5246346994787454,-0.1787339343845844,-0.6862935804218053
1746476521608476200,6.40647607421875,0.4165238688498735,-0.11611702695190906,-0.7741600799232721
1746476521618456300,6.416456298828125,0.27775091958418485,-0.09053834905922413,-0.7999556154370308
1746476521628435500,6.426435546875,0.07252572250664234,-0.11303659659326076,-0.8077122209131717
1746476521638414000,6.4364140625,-0.20592121651768683,-0.16837912910878658,-0.9344365665972232
1746476521648393500,6.4463935546875,-0.42528745941147206,-0.25945991448163985,-1.1887187861800192
1746476521658373400,6.456373291015625,-0.6472907728105783,-0.47730771563649177,-1.4735738386809825
1746476521668352300,6.466352294921875,-0.8723524508669972,-0.7452396903872489,-1.73652568693161
1746476521678331400,6.476331298828125,-0.9641850775204598,-0.8946510841757058,-2.0969614655956623
1746476521688311600,6.4863115234375,-0.9399525535397231,-0.9502823705047369,-2.4788717017039654
1746476521698290400,6.49629052734375,-0.8497925362735986,-0.9022317485630512,-2.7314702059835194
1746476521708269300,6.506269287109375,-0.7199496201775968,-0.7634072152405976,-2.7851933206036685
1746476521718248400,6.51624853515625,-0.6450444551885127,-0.6065057579576969,-2.671320565447211
1746476521728228600,6.526228515625,-0.5079821092329919,-0.5116968919724225,-2.4600220398053527
1746476521738207500,6.53620751953125,-0.36930502155721184,-0.5686006824553013,-2.279758996157348
1746476521748186400,6.546186279296875,-0.28988296366557476,-0.5553858115732669,-2.211503790576756
1746476521758166500,6.55616650390625,-0.27600173782929777,-0.5795715738028288,-2.162561480492353
1746476521768145700,6.566145751953125,-0.28206732147857544,-0.5652326673269271,-2.2169415977165103
1746476521778124500,6.57612451171875,-0.2872375637233257,-0.3650099547117948,-2.401163608123362
1746476521788103700,6.586103759765625,-0.26362054129242896,0.00743570295870304,-2.5871128807142374
1746476521798083600,6.59608349609375,-0.292587692579627,0.36514322570264335,-2.6757246456250545
1746476521808062500,6.6060625,-0.43463221086189147,0.6201812320888042,-2.634000011834502
1746476521818041600,6.61604150390625,-0.5554968707323074,0.6650789429575205,-2.5081676465541123
1746476521828021500,6.626021484375,-0.7008027288980782,0.4748205749958753,-2.390707680560648
1746476521838000600,6.636000732421875,-0.8833364939570426,0.05238952792882919,-2.3776541377201674
1746476521847979500,6.6459794921875,-1.0121196718670427,-0.4866600658714771,-2.440940614977479
1746476521857958700,6.655958740234375,-1.093027876663208,-0.9327823696494102,-2.526290747743845
1746476521867938600,6.6659384765625,-1.1660095262438057,-1.3150281213223933,-2.6841344543129204
1746476521877917400,6.67591748046875,-1.206700871463865,-1.5595149230778216,-2.8404382379636166
1746476521887896600,6.685896484375,-1.2334499083101749,-1.6768524317353963,-2.8781211951479313
1746476521897876500,6.69587646484375,-1.2450386392951012,-1.7490502374619243,-2.7723379306837916
1746476521907855600,6.705855712890625,-1.2714894238471983,-1.751132304432988,-2.5591931926533578
1746476521917834500,6.71583447265625,-1.2636508391760288,-1.707400130212307,-2.2537772904217244
1746476521927813600,6.725813720703125,-1.1386574089378119,-1.6305828479915856,-1.8269918475374578
1746476521937793500,6.73579345703125,-0.8379675123147666,-1.4800725530505179,-1.503265504850447
1746476521947772400,6.7457724609375,-0.5889074112944305,-1.3072633325397967,-1.3371022982254623
1746476521957751600,6.75575146484375,-0.35491482328549023,-1.1244295616209505,-1.1531360161453486
1746476521967731500,6.7657314453125,-0.13156243336498735,-0.90740009111166,-0.9729279175549745
1746476521977710600,6.775710693359375,0.019785481444001198,-0.5884510458290576,-0.8416875557512045
1746476521987689500,6.785689453125,0.12229483880400657,-0.2666203076303005,-0.6560340512365103
1746476521997668600,6.795668701171875,0.18879428675845264,0.03990764749646187,-0.4528144948929548
1746476522007648500,6.8056484375,0.23223653812184927,0.3957575596749782,-0.1462047067016363
1746476522017627400,6.81562744140625,0.26648630598708983,0.685432579678297,0.1640998443543911
1746476522027606500,6.8256064453125,0.28709917816594244,0.9670786070048808,0.44191199260652064
1746476522037586400,6.83558642578125,0.20959040654972194,1.1615578075319528,0.6718517980933189
1746476522047565600,6.845565673828125,0.03008884879350662,1.3155711421579122,0.8232511508285999
1746476522057544400,6.85554443359375,-0.14638985401019453,1.468324832111597,0.7357470548987388
1746476522067523600,6.865523681640625,-0.45465223171412944,1.5455875200122593,0.4823416181504726
1746476522077503500,6.87550341796875,-0.757372465121001,1.4385054479092358,0.30113515617251396
1746476522087482400,6.885482421875,-1.0384693341322242,1.2674269967138767,0.21648995680510996
1746476522097461500,6.89546142578125,-1.0959821964241563,1.0840320847809315,0.18553660013675688
1746476522107441400,6.90544140625,-1.126567012041062,0.7857447192549705,0.2922790650218725
1746476522117420500,6.915420654296875,-1.0698018993765115,0.47341713793873785,0.5164806191176176
1746476522127399400,6.9253994140625,-0.8988122955083847,0.2669008781373501,0.6084867026418447
1746476522137378600,6.935378662109375,-0.6850923879384994,0.0011105915904045104,0.7694149312227964
1746476522147358500,6.9453583984375,-0.4662457850046456,-0.21499650337696075,0.8664934957057238
1746476522157337300,6.95533740234375,-0.3121633306652307,-0.36567104896903035,0.8802128089785576
1746476522167316500,6.96531640625,-0.19636545266509056,-0.3960989204585552,0.9826987854629754
1746476522177296400,6.97529638671875,-0.11396437896266579,-0.43173020581007,1.075205804246664
1746476522187275500,6.985275634765625,0.01819777386114001,-0.46607145135104655,1.1620043822556734
1746476522197254400,6.99525439453125,0.1225157880783081,-0.42220775970518587,1.2692664871007204
1746476522207233500,7.005233642578125,0.26909458878934384,-0.24320611429512498,1.484613703611493
1746476522217213400,7.01521337890625,0.5020758077986538,0.10572598131895064,1.6769284195810557
1746476522227192300,7.0251923828125,0.5766572937913239,0.452907433873415,1.8156418937444685
1746476522237171500,7.03517138671875,0.4611803183086216,0.5697632964938879,2.0520085174083706
1746476522247151400,7.0451513671875,0.3378456150628626,0.6733183635145426,1.9761650486558675
1746476522257130500,7.055130615234375,0.21158348006308078,0.7630769603729247,1.9527520243644714
1746476522267109400,7.065109375,0.14385960488021374,0.9180477418541908,2.0394500646084546
1746476522277088500,7.075088623046875,-0.0033650925189256664,1.187165711519122,2.2623370289742946
1746476522287068400,7.085068359375,-0.30317104591429234,1.4514496851563452,2.5782524056494234
1746476522297047300,7.09504736328125,-0.7519017786249518,1.442197872686386,2.7061206606715915
1746476522307026400,7.1050263671875,-1.1324924565672874,1.2979589130997657,2.6666256856292483
1746476522317005300,7.11500537109375,-1.4376096681132913,1.1213491312623023,2.440086043974757
1746476522326985500,7.1249853515625,-1.4907193270102141,0.7565946126163006,2.222007356673479
1746476522336964400,7.13496435546875,-1.3426098096005619,0.5530237586170434,1.8637030370801686
1746476522346943500,7.144943603515625,-1.0514952583134174,0.4061503588736057,1.6652607781410216
1746476522356923600,7.154923583984375,-0.6100418231293558,0.25576982779204843,1.542205476358533
1746476522366902300,7.16490234375,-0.2044859230175614,0.20229542723596095,1.4866028316020965
1746476522376881400,7.17488134765625,0.20617314545214174,0.01945639562010765,1.3268272801876067
1746476522386860300,7.1848603515625,0.726905722925812,-0.05060089094638824,1.154701365765929
1746476522396840400,7.19484033203125,1.120109360334277,-0.015762801799178123,1.0744383270055056
1746476522406819600,7.204819580078125,1.3889859224587677,0.023860183537006377,1.0540203928768634
1746476522416798500,7.214798583984375,1.5273431305304168,0.11953297287523745,1.049541786158085
1746476522426778600,7.224778564453125,1.429122410275042,0.17213994294703006,1.050026354804635
1746476522436757500,7.234757568359375,1.2015084173873065,0.2123106252938509,1.0152087239235639
1746476522446736600,7.244736572265625,0.9550646363452077,0.26913141366839405,1.0192699820131064
1746476522456715500,7.254715576171875,0.7670446949601173,0.3832265794038772,1.172766014766693
1746476522466695400,7.2646953125,0.7557397493526339,0.5577753370583057,1.434126209911704
1746476522476674600,7.274674560546875,0.5084143631704151,0.770859284812212,1.7109347340792416
1746476522486653400,7.2846533203125,0.2914312160208821,0.7595365112870931,1.8406822269767522
1746476522496633600,7.294633544921875,0.20252222172915935,0.6914578313171863,1.7756991749346256
1746476522506612500,7.304612548828125,0.22747268472090362,0.765853439348936,1.5729565884530543
1746476522516591600,7.314591552734375,0.34687867021560664,0.8948065669983625,1.3654805437088011
1746476522526570500,7.324570556640625,0.47665100529342885,0.973324223396182,1.229222061482072
1746476522536550400,7.33455029296875,0.5392562222883105,0.9322598070800304,1.0920353584945202
1746476522546529500,7.344529541015625,0.6142635324776172,0.8614619312793016,0.7967962746232747
1746476522556508400,7.35450830078125,0.7106976615771651,0.9163765937715769,0.49088382104635236
1746476522566488600,7.364488525390625,0.7468500481933354,1.076117658394575,0.1720639551013708
1746476522576467500,7.374467529296875,0.7681041408851742,1.266911448407173,-0.156164375180006
1746476522586446600,7.384446533203125,0.8673249780938028,1.5769582253098486,-0.47314124360680576
1746476522596425500,7.394425537109375,0.9802706815332174,2.074423762834072,-0.7682809587568045
1746476522606405400,7.4044052734375,0.9715010996222495,2.6404075407892464,-0.7679816835492849
1746476522616384500,7.414384521484375,0.7527239086627959,3.158650493404269,-0.5796306105136871
1746476522626363400,7.42436328125,0.28117840981483455,3.4423277342975136,-0.24247955358624457
1746476522636342500,7.434342529296875,-0.32383243340998885,3.3812317528218028,0.09041326137483119
1746476522646323000,7.444322998046875,-0.9605265550129115,2.945792171099782,0.3227121972084045
1746476522656302000,7.454302001953125,-1.4727648603856562,2.1824591901391743,0.40610535068809983
1746476522666281000,7.464281005859375,-1.6519745955884455,1.3184312077641487,0.3030623248428106
1746476522676260900,7.4742607421875,-1.560510071595013,0.4750754265397787,0.08425766135454177
1746476522686240000,7.484239990234375,-1.3153221358329057,-0.2902045968353748,-0.033661446583271026
1746476522696219000,7.494218994140625,-0.9182844732195138,-0.995997242975235,-0.20436638829112053
1746476522706198000,7.504197998046875,-0.42539281948208807,-1.495947583052516,-0.3445686397075653
1746476522716178000,7.514177978515625,0.07781096943318844,-1.8111983583390712,-0.3379728947043419
1746476522726157000,7.524156982421875,0.5502864426076411,-2.0040771379321813,-0.3237228355556726
1746476522736136000,7.534135986328125,0.8742436714410782,-2.02990949832499,-0.33142098884284493
1746476522746115800,7.54411572265625,1.120758179631829,-1.8835072232246397,-0.4118091152876615
1746476522756095000,7.554094970703125,1.3571560752168297,-1.5112953743100166,-0.49176469553411006
1746476522766073900,7.564073974609375,1.458502672407776,-0.9701111065685748,-0.5145721551477909
1746476522776053000,7.574052978515625,1.3521230494856833,-0.5064496389687061,-0.37088790683448314
1746476522786033000,7.584032958984375,1.163396421135962,-0.054694297739863396,-0.15286182650327682
1746476522796012000,7.594011962890625,0.9995816773332655,0.4258271192461252,0.10877543201744556
1746476522805991000,7.603990966796875,0.9043035864010452,0.8067214563101529,0.43285365688204763
1746476522815970800,7.613970703125,0.8012555921196937,1.05169574932158,0.7087398055076599
1746476522825950000,7.623949951171875,0.69275181665048,1.20199620090425,0.9572130465507507
1746476522835928800,7.6339287109375,0.5174246219694614,1.2341384750962257,1.182329961925745
1746476522845908000,7.643907958984375,0.27405951772034165,1.2370038013994693,1.4133335972517729
1746476522855888000,7.653887939453125,0.0650083326138556,1.158275132599473,1.720156735932827
1746476522865867000,7.663866943359375,-0.09243819133117795,0.9762807351142168,1.9302450090020893
1746476522875846000,7.673845947265625,-0.24720555919483303,0.7391057176768779,2.0075585503071545
1746476522885825000,7.683824951171875,-0.4421772194139659,0.4818757542043924,1.9628613304466007
1746476522895805200,7.69380517578125,-0.572745965566486,0.30832769802510734,1.8456033167660235
1746476522905783800,7.70378369140625,-0.6540308947205543,0.17652327259778974,1.820111732634902
1746476522915763000,7.713762939453125,-0.6822504425108432,0.029591420665383335,1.7022686125427484
1746476522925743000,7.7237431640625,-0.6431206475190818,-0.18611761489510534,1.3991718009084462
1746476522935722200,7.73372216796875,-0.5110099326215685,-0.3244347832173109,1.1101853476911783
1746476522945701000,7.743701171875,-0.2880691922418773,-0.38923020373284817,0.8581751646935939
1746476522955680000,7.753679931640625,-0.06705591279342771,-0.403712318071723,0.6382008729040622
1746476522965660200,7.76366015625,0.17709625018015504,-0.3145838358104229,0.3463677980840206
1746476522975639000,7.77363916015625,0.42141704771891236,-0.2483475688368082,0.15209084213078022
1746476522985618200,7.7836181640625,0.6199713887304067,-0.2319476381778717,-0.10518939022421836
1746476522995598000,7.79359814453125,0.724652683302015,-0.21612112349271773,-0.3761871822863817
1746476523005577000,7.803576904296875,0.8414917409181595,-0.1500128668129444,-0.5762772084325551
1746476523015556000,7.81355615234375,0.9430116488493978,-0.0670242024809122,-0.6700169838815927
1746476523025535200,7.82353515625,1.0374885064013302,0.05211363359689712,-0.6342834071993827
1746476523035515100,7.83351513671875,1.006544502083212,0.14727788889110088,-0.49811143421232695
1746476523045494000,7.843493896484375,0.9163292474985122,0.21670856799185276,-0.2880705074161291
1746476523055473200,7.85347314453125,0.7404049637071788,0.27393735264539715,-0.1135445461153984
1746476523065453000,7.863453125,0.49772053519859905,0.3441857778698206,0.09717676416039467
1746476523075432000,7.873431884765625,0.27927111488878725,0.34142566550672054,0.3507634026944637
1746476523085411000,7.8834111328125,0.10318214205503463,0.31745909898579117,0.5434568888485432
1746476523095390200,7.89339013671875,-0.08995441169142722,0.26489362996816634,0.6092541798830032
1746476523105370000,7.9033701171875,-0.19987652952596544,0.15075871674418448,0.6978858185380696
1746476523115349000,7.913348876953125,-0.18029212361201644,0.0521755929172039,0.7339911511421203
1746476523125328100,7.923328125,-0.14367840309441088,-0.04897592009305954,0.742766578271985
1746476523135307000,7.93330712890625,-0.14169731227979063,-0.1806552578359842,0.6764326961427927
1746476523145287000,7.943286865234375,-0.06765767807886004,-0.3321545638144016,0.5234036963790655
1746476523155266000,7.95326611328125,0.06378522055968641,-0.4551104968756437,0.35354455784559247
1746476523165245200,7.9632451171875,0.20205811134874818,-0.5908908401966094,0.21389058796167373
1746476523175225000,7.97322509765625,0.3413252738721669,-0.7355927411198615,0.08104629809260368
1746476523185204000,7.983203857421875,0.4322112673252821,-0.8412620238155126,-0.07042378179132938
1746476523195183000,7.99318310546875,0.4943102883636951,-0.9545078792452811,-0.19503566536605357
1746476523205162000,8.003161865234375,0.484883849979192,-1.0469406637489795,-0.3657739248216152
1746476523215142000,8.013141845703124,0.4647482399232685,-1.036109473133087,-0.45562662970423695
1746476523225121000,8.02312109375,0.4023522817648947,-1.1091372999429703,-0.512169770181179
1746476523235100000,8.033099853515624,0.3010479162804782,-1.1507172645658255,-0.6789888103663921
1746476523245080000,8.043080078125,0.15060849461853504,-1.133796524903178,-0.847973504152894
1746476523255059000,8.053058837890624,0.014829904863238335,-1.125029281079769,-1.0027180756628513
1746476523265038000,8.0630380859375,-0.1807867752611637,-1.0786819559246301,-1.1208458579152822
1746476523275017000,8.073016845703124,-0.31823724375143647,-1.018252329403162,-1.1180459980636834
1746476523284996900,8.082996826171875,-0.39263387469649313,-0.9884785379081964,-1.1741057389378546
1746476523294976000,8.09297607421875,-0.5184487043201923,-0.95990009367764,-1.2698644529938696
1746476523304955000,8.102954833984375,-0.7085287200402468,-0.9076508510023354,-1.3278876028954982
1746476523314934000,8.11293408203125,-0.8235719072155654,-0.8387742986530065,-1.456188988637924
1746476523324914000,8.122913818359375,-0.9199082019638269,-0.7703753006875514,-1.4993272886186837
1746476523334893000,8.13289306640625,-0.9681225630998611,-0.7341250066548586,-1.5762684894800185
1746476523344872000,8.142871826171875,-1.010346013258025,-0.6979086148917675,-1.717761949750781
1746476523354851800,8.152851806640625,-1.089475152617693,-0.666834846714139,-1.8654431587457656
1746476523364831000,8.1628310546875,-1.1233049415051937,-0.5836176343232393,-2.0524510004788636
1746476523374809900,8.172809814453124,-1.0950485688358544,-0.4166489565342664,-2.196847780975699
1746476523384789000,8.1827890625,-1.0773428162753582,-0.3258639392375946,-2.2514076386809347
1746476523394769000,8.192768798828125,-1.1113619902551173,-0.34992344473898407,-2.2664853808254004
1746476523404748000,8.202748046875,-1.1163142058350146,-0.48420390489101406,-2.25915664537251
1746476523414727000,8.212726806640624,-1.076240334926173,-0.7024936045944691,-2.2849188631385564
1746476523424706800,8.222706787109376,-0.9950975907217711,-0.9307149157255887,-2.3508859577819705
1746476523434686000,8.23268603515625,-0.9009475539714098,-1.1384785452395676,-2.414373218308389
1746476523444664800,8.242664794921875,-0.8348908813484013,-1.3076286587208508,-2.435041620066762
1746476523454644000,8.25264404296875,-0.8394840543575585,-1.4405208793848752,-2.4665043875619768
1746476523464623900,8.262623779296876,-0.8328735501766205,-1.5275830767661331,-2.4856284824877974
1746476523474603000,8.27260302734375,-0.796156223154068,-1.5648896018534897,-2.4793480870440603
1746476523484582000,8.282581787109375,-0.6765764154624193,-1.4628858559280633,-2.3732062184005973
1746476523494561000,8.29256103515625,-0.49187268595322964,-1.2930968600213526,-2.2182330988317727
1746476523504541000,8.302541015625,-0.3746142338812351,-1.0670376953601837,-2.0919868920534848
1746476523514519800,8.312519775390625,-0.23923779518604277,-0.7955997583150863,-2.076402369430661
1746476523524499000,8.3224990234375,-0.18004026774279772,-0.4901093295425176,-2.145234498116374
1746476523534478800,8.332478759765625,-0.17050079743787644,-0.11015841080844402,-2.256573643141985
1746476523544458000,8.3424580078125,-0.27575448506996036,0.2684633051484823,-2.2964462193250657
1746476523554436900,8.352436767578125,-0.5167115052640437,0.43770343500077724,-2.2084236524790524
1746476523564416000,8.362416015625,-0.787948366779089,0.40691082185208793,-2.1379297280609606
1746476523574396000,8.37239599609375,-1.0541022259414194,0.16308803696334362,-2.1232859934195876
1746476523584374800,8.382374755859376,-1.234609599739313,-0.21254794118106363,-2.216121221244335
1746476523594354000,8.39235400390625,-1.3275754682064056,-0.6073813717484474,-2.2458073344558476
1746476523604332800,8.402332763671875,-1.339738930339366,-0.8754214830487966,-2.2324036630034447
1746476523614313200,8.412313232421875,-1.2288807006984948,-1.000544238755107,-2.1541832359865305
1746476523624291800,8.422291748046876,-1.1900690317451954,-0.9930518371731042,-2.214207204316556
1746476523634271000,8.43227099609375,-1.1832183621328323,-0.9172305802524089,-2.172846143141389
1746476523644251100,8.442251220703126,-1.1458983199767767,-0.7956950353831053,-2.0514900464922188
1746476523654229500,8.4522294921875,-1.070323292902112,-0.6005284371137619,-1.8679250386893749
1746476523664208400,8.46220849609375,-0.9864338803380727,-0.46774552204310893,-1.6145955897867679
1746476523674187500,8.4721875,-0.8262034978281706,-0.35970658760666846,-1.3358698338210582
1746476523684167400,8.48216748046875,-0.6309297859225422,-0.38771395395100117,-1.0188596476465464
1746476523694146300,8.492146240234375,-0.4943494513303041,-0.44945700115859505,-0.7721382187068462
1746476523704125400,8.50212548828125,-0.4523386940747499,-0.6072369948416948,-0.5501689537078142
1746476523714104300,8.512104248046874,-0.42243396967649455,-0.7953431532055139,-0.3931359789997339
1746476523724084500,8.52208447265625,-0.44975934510603544,-1.0083242251068354,-0.20864450400173662
1746476523734063400,8.5320634765625,-0.5099491715222597,-1.1884440608918667,-0.03968143752515316
1746476523744042500,8.54204248046875,-0.49624812455847855,-1.3184084114104508,0.09023381315469742
1746476523754022400,8.5520224609375,-0.3836686240829527,-1.3846996234416962,0.13755904343128203
1746476523764001300,8.562001220703126,-0.2839478745281696,-1.3140560614198447,0.08689502412080764
1746476523773980400,8.57198046875,-0.1479822377681732,-1.1755758114904165,0.008285597786307334
1746476523783959300,8.581959228515625,-0.013489011648297309,-0.9592810849964618,-0.11524433577060698
1746476523793939500,8.591939453125,0.063914692158252,-0.6178975050657988,-0.14605740718543528
1746476523803918300,8.60191845703125,0.19170871290042996,-0.2696568988472223,-0.10533668974041938
1746476523813897500,8.6118974609375,0.383243822799623,0.05650631559789181,-0.11797229942977427
1746476523823877600,8.621877685546876,0.4524221345745027,0.40204876877367496,-0.08998246874213219
1746476523833856500,8.6318564453125,0.3501584225386381,0.6725871266305447,-0.020177695631980894
1746476523843835400,8.64183544921875,0.2611281399548054,0.9455331301510334,-0.022790508478879926
1746476523853814300,8.651814208984375,0.14805062682926654,1.2417834368914364,-0.1665519136816263
1746476523863794700,8.661794677734376,-0.1332949562460184,1.405586344125867,-0.21692776370048522
1746476523873773600,8.671773681640625,-0.49307512054555114,1.5322195043951272,-0.23446400491297242
1746476523883752400,8.68175244140625,-0.9187724759321659,1.5418331359148025,-0.2799351317554712
1746476523893731300,8.6917314453125,-1.2337801631778478,1.414043791347742,-0.26942484365701674
1746476523903711500,8.70171142578125,-1.46315298243165,1.22489835306406,-0.2643839268803596
1746476523913690600,8.711690673828125,-1.6492793651551008,1.0633902787685394,-0.15329261913597583
1746476523923669500,8.72166943359375,-1.8222610196232794,0.8358966973900794,-0.020693243938684464
1746476523933649700,8.731649658203125,-1.964071290758252,0.6279109495580196,0.12726736651957035
1746476523943628500,8.741628662109376,-2.0357997254073616,0.455324431887269,0.24942542720139024
1746476523953607700,8.751607666015625,-2.039741741031408,0.34162615651488304,0.39865737276971336
1746476523963586600,8.761586669921876,-1.9934797560721635,0.2582639826953411,0.5871370406210422
1746476523973566500,8.77156640625,-1.8579981034368276,0.28158991322517396,0.8857862251967191
1746476523983545600,8.781545654296876,-1.6314000095933674,0.3638689679831266,1.1961094809532165
1746476523993524500,8.7915244140625,-1.380650640311837,0.4723953936755657,1.389537711122632
1746476524003503600,8.801503662109376,-1.1369394260387866,0.5250000256597995,1.5452438211411237
1746476524013483500,8.8114833984375,-0.9378303006887435,0.5665501796662807,1.6827110946357249
1746476524023462700,8.821462646484376,-0.7595026090174913,0.6274789878815412,1.8206255273759364
1746476524033441500,8.831441650390625,-0.6343553033918142,0.654676791408658,1.9923364312559364
1746476524043421400,8.84142138671875,-0.5736269861847162,0.6414560753077269,2.1137673467069864
1746476524053400600,8.851400634765625,-0.502650831207633,0.6521668544143437,2.233554002082348
1746476524063379500,8.86137939453125,-0.4694757068365812,0.6480605881392956,2.31879950543046
1746476524073358600,8.871358642578125,-0.46612698093056676,0.6084785193353891,2.40498082832396
1746476524083338500,8.88133837890625,-0.37970118175670503,0.5909615673452615,2.6220284190118313
1746476524093317600,8.891317626953125,-0.3054389908462763,0.5488958650320768,2.794192911878228
1746476524103296500,8.901296630859376,-0.3096422877550125,0.49661739626228807,2.929323266857862
1746476524113275600,8.911275634765625,-0.2618150993056595,0.4591138872981071,2.9726030211359262
1746476524123255600,8.921255615234376,-0.13804536564350128,0.45943946599066254,2.9127520712852477
1746476524133234400,8.931234375,0.01222396014854312,0.5025041162133217,2.8486294354647397
1746476524143213600,8.941213623046876,0.14590660053789614,0.578983544781804,2.843738740813732
1746476524153193500,8.951193359375,0.28560733217298984,0.6657154872953891,2.790878672763705
1746476524163172600,8.961172607421876,0.35632235199585555,0.7859539780914783,2.674741187545657
1746476524173151500,8.9711513671875,0.4834430035211146,0.9105962568044662,2.556767134550214
1746476524183130600,8.981130615234376,0.571781066057086,0.928461583840847,2.382901098462939
1746476524193110500,8.991110595703125,0.5241689816631376,0.8663935424625873,2.230018813693523
1746476524203089400,9.00108935546875,0.39155207080915566,0.7506950331836938,2.1072692168593408
1746476524213068500,9.011068603515625,0.2735229266256094,0.6080307755678892,1.941305332198739
1746476524223047400,9.02104736328125,0.24345044444501399,0.5665431654036045,1.6949328628271818
1746476524233027600,9.031027587890625,0.2901227637708187,0.6428378850549459,1.2687842565417289
1746476524243006500,9.04100634765625,0.4576802012331784,0.9477771096855402,0.7845096245020627
1746476524252985600,9.050985595703125,0.6734371675886214,1.4519260704964398,0.3620136955052614
1746476524262965500,9.060965576171874,0.9049316551715135,2.112521730560064,0.1452683026343584
1746476524272944400,9.0709443359375,1.1078225640825927,2.8029835365772247,0.06493921290040015
1746476524282923500,9.080923583984376,1.2942086206555365,3.525336856895685,-0.06308218685686588
1746476524292902400,9.09090234375,1.3639929354995488,4.150481848871707,-0.17225450923740862
1746476524302882600,9.100882568359374,1.2367524569869042,4.678268874901533,0.0003355155646800995
1746476524312861400,9.110861328125,0.8453333649076521,4.811303134384751,0.5657908857315779
1746476524322840600,9.120840576171876,0.24764541191682218,4.608502095714211,1.3781465485364197
1746476524332819500,9.1308193359375,-0.4697646067805588,4.088084137147665,2.080559489110112
1746476524342799400,9.14079931640625,-1.1566009157769381,3.3479584287732838,2.5602830337166784
1746476524352778500,9.150778564453125,-1.7220453261584043,2.4242162746697664,2.615238028219342
1746476524362757400,9.16075732421875,-1.9497570803321898,1.4715245049357413,2.292524661967158
1746476524372737300,9.1707373046875,-1.806866905006021,0.7107879702091217,1.8367220911741255
1746476524382716400,9.18071630859375,-1.344548230317235,0.14900807368457317,1.3712433450192212
1746476524392695600,9.190695556640625,-0.762045279237628,-0.33359014957547184,0.9616858080506324
1746476524402674400,9.20067431640625,-0.11066168415546417,-0.6866536459058523,0.67214815069139
1746476524412654300,9.210654296875,0.5771450773082674,-0.8800392059773207,0.46464112628698345
1746476524422633500,9.220633544921874,1.2075303080253301,-0.9009405397087336,0.310010536545515
1746476524432612400,9.2306123046875,1.756517650733143,-0.7257873864203691,0.22548399512171743
1746476524442591500,9.240591552734376,2.174144366258383,-0.4806915128558874,0.2933510781675577
1746476524452571400,9.2505712890625,2.3685968249090013,-0.3112847942650318,0.2452531099528074
1746476524462550500,9.260550537109374,2.452810793252289,-0.14297346969544886,0.24004969609081744
1746476524472529400,9.270529296875,2.454243748664856,-0.035495676273107526,0.25787469111680983
1746476524482509300,9.28050927734375,2.4297693787522614,-0.03221007873117924,0.20668167949616909
1746476524492488400,9.290488525390625,2.4305437241256236,-0.12088263391852379,0.1041156235128641
1746476524502467300,9.30046728515625,2.406781155744195,-0.2007803464978933,-0.13471183730661868
1746476524512446500,9.310446533203125,2.2712920504547656,-0.17461890028119087,-0.2563818222105503
1746476524522426400,9.32042626953125,1.9285208155579865,-0.18265899887382983,-0.14384557635486125
1746476524532405500,9.330405517578125,1.5218525702901184,-0.1099374615341425,0.09857260243296623
1746476524542384400,9.34038427734375,1.1263907786913216,-0.02214285822510719,0.38399113403558727
1746476524552363500,9.350363525390625,0.7729723314434289,-0.08050386177897453,0.6703846481502056
1746476524562343400,9.360343505859374,0.46678982875347136,-0.11625088246464729,0.8114180896937847
1746476524572322300,9.370322265625,0.11920213348567485,-0.09356558792591095,0.9716390467882156
1746476524582301400,9.380301513671874,-0.15590850072279572,-0.1316173784226179,0.9587930092185735
1746476524592281600,9.390281494140625,-0.43198914900720115,-0.16155834317803383,0.8971288724660873
1746476524602260200,9.40026025390625,-0.5455301879912614,-0.1717635108500719,0.801831346181035
1746476524612239400,9.4102392578125,-0.6211405786402523,-0.16397592571377753,0.6912082404702902
1746476524622218500,9.420218505859374,-0.5611011204801499,-0.1092401269197464,0.530599745362997
1746476524632198700,9.43019873046875,-0.5283526970885694,-0.20991525458991525,0.27837854996323586
1746476524642177500,9.440177490234374,-0.35239246520102024,-0.20114742624461648,-0.010595628294348717
1746476524652156000,9.450156005859375,-0.03661386664807796,-0.24394319639801978,-0.15515198326706886
1746476524662134800,9.460134765625,0.1810344664119184,-0.3229325619608164,-0.3031283758163452
1746476524672115000,9.470114990234375,0.29123700862303376,-0.3997930988013744,-0.37980011208653447
1746476524682093800,9.48009375,0.38815541410818694,-0.48003860190510744,-0.4886854342192411
1746476524692073000,9.490072998046875,0.43847982620075343,-0.5193804322123527,-0.5965922667086124
1746476524702052900,9.500052978515624,0.411057566267997,-0.6275520531177521,-0.754678549861908
1746476524712031700,9.51003173828125,0.318493556600064,-0.7395037770837545,-0.9483236376523971
1746476524722011000,9.520010986328124,0.1855718175806105,-0.8048778742700815,-1.0839888301610947
1746476524731989800,9.52998974609375,0.08275719366371631,-0.8750807067871094,-1.1867045237481593
1746476524741970000,9.539969970703124,-0.0034391806684434412,-0.8928075021356344,-1.1845406237125395
1746476524751948800,9.54994873046875,-0.10288520493507385,-0.9122194740921259,-1.104144898483157
1746476524761928000,9.559927978515624,-0.13349252464473246,-0.9199135357260704,-0.950209305268526
1746476524771906800,9.56990673828125,-0.15230302357673645,-0.9051298080921173,-0.8633283096730708
1746476524781886700,9.57988671875,-0.1901204207956791,-0.8787848220020532,-0.7623702734082937
1746476524791865900,9.589865966796875,-0.23625015767738222,-0.8763853596448897,-0.7874971158802508
1746476524801844700,9.5998447265625,-0.27041078595444556,-0.8146575100064277,-0.845410960188508
1746476524811823900,9.609823974609375,-0.2859066073805094,-0.7375345228374004,-0.87849256105721
1746476524821803800,9.6198037109375,-0.27862580272257326,-0.6857441298454999,-0.9256938726931809
1746476524831783000,9.629782958984375,-0.2560970869850367,-0.5733657049000263,-1.026558969977498
1746476524841761800,9.63976171875,-0.265878476287052,-0.41756081068217754,-1.1348849046617746
1746476524851741700,9.64974169921875,-0.24706505474559962,-0.35430969699919224,-1.207287293049693
1746476524861720800,9.659720947265624,-0.2537805536709726,-0.3034071927577257,-1.2721493490606546
1746476524871699700,9.66969970703125,-0.22560674471855163,-0.31229309452474113,-1.2998802365511655
1746476524881678800,9.679678955078124,-0.25465733650550243,-0.4074894985228777,-1.3766156857073306
1746476524891658800,9.68965869140625,-0.3671604107439518,-0.545213961648941,-1.490143280687928
1746476524901638000,9.699637939453124,-0.4574772260069847,-0.7528811450511217,-1.6188818888038397
1746476524911616800,9.70961669921875,-0.5474760613620281,-0.9305284532427788,-1.7414847706437109
1746476524921596000,9.719595947265624,-0.6207581551939249,-1.0723042375862597,-1.7851508938908576
1746476524931575800,9.729575927734375,-0.6839291893780232,-1.1577665985554455,-1.8047580961585044
1746476524941554700,9.7395546875,-0.7100801142007112,-1.2647095544487237,-1.8349650183737276
1746476524951533800,9.749533935546875,-0.7361497904807329,-1.3956483029574156,-1.891039372295141
1746476524961514000,9.759513916015624,-0.7576894221156835,-1.51113989148736,-1.9475161695376038
1746476524971492900,9.769492919921875,-0.715754798836261,-1.570184201130271,-1.9680936781421303
1746476524981471700,9.7794716796875,-0.6637362961769103,-1.5617945584475994,-2.0424363869428634
1746476524991451000,9.789450927734375,-0.5842027407348156,-1.4859651182204483,-2.1288678852051497
1746476525001431000,9.79943115234375,-0.4830295273493975,-1.3239502634465694,-2.1918530414283275
1746476525011410000,9.809409912109375,-0.4539437181185931,-1.1188012003451586,-2.199356548926234
1746476525021388800,9.819388916015624,-0.49038113222122187,-0.9905530060946941,-2.04682497729063
1746476525031367700,9.82936767578125,-0.47489356716684994,-0.9665887776613235,-2.011282831527293
1746476525041348000,9.83934814453125,-0.4683199609301984,-0.8813321683973073,-2.1684777187988162
1746476525051327000,9.849326904296875,-0.4709702562432736,-0.6994342170238494,-2.4926056280240414
1746476525061306000,9.85930615234375,-0.5391460399121045,-0.5001391406476497,-2.8296947256311773
1746476525071286000,9.8692861328125,-0.5412924042910338,-0.15196575444638727,-3.221193458817899
1746476525081265000,9.879264892578124,-0.5378044891100376,0.3560398817926645,-3.588284603717923
1746476525091244000,9.889244140625,-0.6495340947579592,0.7130711127102375,-3.720034376348555
1746476525101223000,9.899222900390624,-0.8741155880820005,0.7673422166019678,-3.7349212720960376
1746476525111203000,9.909203125,-1.0424432792644946,0.7901034989863633,-3.6598347591906784
1746476525121182000,9.919181884765624,-1.1670341931164263,0.7177578092217445,-3.522600709930062
1746476525131161000,9.9291611328125,-1.3004507299154997,0.4924819038927555,-3.3531735330730674
1746476525141140000,9.939139892578124,-1.4029197552651167,0.26951661359369755,-3.1791400314643976
1746476525151120000,9.949119873046875,-1.37898533744812,0.10985212133824825,-3.0076942082613707
1746476525161099000,9.95909912109375,-1.3162234685868024,-0.02133154184222221,-2.748362304073572
1746476525171078000,9.969077880859375,-1.2716893303334713,-0.10642740758657455,-2.3281921876758336
1746476525181057000,9.97905712890625,-1.1709663449335843,-0.14306056345701218,-1.7270821512818335
1746476525191037000,9.989036865234375,-0.9751111068129539,-0.18922142612934112,-1.118845039486885
1746476525201016000,9.99901611328125,-0.75929977992177,-0.3211877641201019,-0.5956868423014879
1746476525210995000,10.008994873046875,-0.6173622291453182,-0.4972779059976339,-0.08807575833797454
1746476525220974800,10.018974853515624,-0.3590244505614042,-0.6653747110337018,0.4774865793347358
1746476525230954000,10.0289541015625,-0.1021476844407618,-0.8890139550715684,0.890029269593954
1746476525240932900,10.038932861328124,0.08441840487420559,-1.0756588087111711,1.1722481283724306
1746476525250912000,10.048912109375,0.32217370641753074,-1.2883674934118985,1.369746384459734
1746476525260892000,10.058891845703124,0.646458559770137,-1.5042039547443389,1.437537479659915
1746476525270871000,10.06887109375,0.9675397947758435,-1.612525213253498,1.446259715297818
1746476525280850000,10.078849853515624,1.2211492296636104,-1.6395990981400013,1.457235282820463
1746476525290829000,10.0888291015625,1.343981244084239,-1.5776853705406189,1.3742828588455915
1746476525300809000,10.09880908203125,1.4328065056152641,-1.4104711935579777,1.2799264128029346
1746476525310787800,10.108787841796875,1.4947814618825912,-1.1768085681557654,1.1447621555536984
1746476525320767000,10.11876708984375,1.5249252557337283,-0.8841045557200908,0.922017814528942
1746476525330745900,10.128745849609375,1.4835311690717934,-0.5737655178725719,0.6248492238998413
1746476525340726000,10.13872607421875,1.3313881583623588,-0.23609832811653614,0.20825521242320535
1746476525350705000,10.148704833984375,1.0601058502703904,0.07235796472430228,-0.20508301212787627
1746476525360684000,10.15868408203125,0.8435866673707961,0.36763738060593604,-0.6581412526488304
1746476525370664000,10.168663818359375,0.636504005858302,0.7853262015819549,-1.269306234589219
1746476525380642800,10.178642822265624,0.4974649530023336,0.9357283599734306,-1.7992361178666352
1746476525390622000,10.1886220703125,0.3966254285506904,0.8557084823191166,-2.248982457360625
1746476525400600800,10.198600830078124,0.3684918054781854,0.6612965018093585,-2.5958617120981216
1746476525410581000,10.2085810546875,0.36594036742970343,0.3022609453320503,-2.808075891280174
1746476525420560000,10.218559814453124,0.34737200669050217,-0.03590367255210876,-2.8697534720361233
1746476525430539000,10.2285390625,0.1760112314224243,-0.27443010459840295,-2.8415461992055175
1746476525440518000,10.238517822265624,-0.1306890845965594,-0.44457156720459456,-2.726215354195237
1746476525450497800,10.248497802734375,-0.5243364471845329,-0.4959574710488319,-2.512692430502176
1746476525460477000,10.258476806640624,-0.9413467113118619,-0.41776480882167816,-2.2007897965997456
1746476525470455800,10.268455810546875,-1.3523369844973085,-0.2372416529327631,-1.8735873022347687
1746476525480435000,10.27843505859375,-1.7114631418675184,0.058386722517013545,-1.4883113890856503
1746476525490414800,10.288414794921875,-2.007483146983385,0.3756201960533857,-1.014729415974021
1746476525500394000,10.29839404296875,-2.1779712310701607,0.6608370676040649,-0.4546843804180622
1746476525510372900,10.308372802734375,-2.1612667645066974,0.9546581013709307,0.0274450562864542
1746476525520352800,10.318352783203125,-2.1034254009127618,1.2129396197229623,0.5343091212749481
1746476525530332000,10.328331787109375,-2.014047912326455,1.4060107070177792,1.0327630853146315
1746476525540310800,10.338310791015624,-1.8400480207264422,1.5593880818277597,1.5413181721299887
1746476525550290000,10.3482900390625,-1.6100900950610637,1.663534685000777,1.9024527467131613
1746476525560269800,10.358269775390625,-1.4069734145700932,1.664942798233032,2.143348830500245
1746476525570249000,10.3682490234375,-1.2803876005738972,1.6374299374073742,2.293903549104929
1746476525580227800,10.378227783203124,-1.1653998699128627,1.624323203074932,2.458534723857045
1746476525590207000,10.38820703125,-1.070893786266446,1.5802315478920936,2.5342905143260954
1746476525600187000,10.398186767578125,-0.9818728560328484,1.527245807635784,2.583570385801792
1746476525610165800,10.408165771484375,-0.9076104459267109,1.4505676416248083,2.6365076107412575
1746476525620145000,10.418144775390624,-0.799905784945935,1.3910960464805364,2.727052389541268
1746476525630123800,10.428123779296875,-0.6806016523905098,1.2919909446060658,2.817317182356119
1746476525640104000,10.43810400390625,-0.5396405454307794,1.2619529492169619,2.890794506499171
1746476525650083000,10.4480830078125,-0.3932066330831498,1.2438316015928983,2.972058831256628
1746476525660062000,10.45806201171875,-0.2064887142073363,1.251590545156598,3.0666642836242914
1746476525670042000,10.4680419921875,-0.1036409917384386,1.2302999198466538,3.14315072645545
1746476525680021000,10.47802099609375,0.04792611877918243,1.2111346161276102,3.2183366080820557
1746476525690000100,10.488000244140625,0.20711831734776495,1.1899001049190758,3.268962633469701
1746476525699979000,10.49797900390625,0.3321015184529125,1.1499842741161583,3.277988235968351
1746476525709959000,10.507958984375,0.40237756233662364,1.111103631579876,3.2460546360909937
1746476525719938000,10.51793798828125,0.4725539452381432,1.104201012584567,3.1781758626073597
1746476525729917000,10.5279169921875,0.5439530018024146,1.101135195273161,3.069583385941386
1746476525739896000,10.53789599609375,0.5814112103201449,1.143772559994459,3.0216876623004674
1746476525749876000,10.5478759765625,0.6014144261680543,1.1338275045633315,3.012753245216608
1746476525759855000,10.557855224609375,0.5882267355538904,1.090289976131916,2.9628830066323277
1746476525769834000,10.567833984375,0.5598049431897699,1.050005896538496,2.8635651387900114
1746476525779813000,10.577813232421875,0.49581324027255175,0.9939853186309338,2.747385567995906
1746476525789793000,10.58779296875,0.4511356018953025,0.9385632911384105,2.6557038941204545
1746476525799772000,10.59777197265625,0.4122124353915453,0.9097732499837875,2.5677263354599473
1746476525809751000,10.6077509765625,0.3930488852381706,0.8915326598942279,2.5475112304270264
1746476525819730000,10.61772998046875,0.36829029155671594,0.8646493291437626,2.4578420654177666
1746476525829710300,10.62771044921875,0.40034211098626254,0.9130430654346943,2.314890223032236
1746476525839689000,10.63768896484375,0.4915225573413074,0.9860510185003281,2.1123586489528416
1746476525849668000,10.647668212890625,0.5846047456644475,1.0983943721324205,1.921274936082959
1746476525859648300,10.657648193359375,0.6480500667452812,1.1352455546677112,1.8461697184771297
1746476525869627100,10.667627197265626,0.6480290239572525,1.0292243897944688,1.7603923002094028
1746476525879606300,10.677606201171875,0.6612018092632294,0.9446557627946138,1.5697884798109532
1746476525889585000,10.6875849609375,0.7405050630807876,0.9497983863800763,1.2277993352025747
1746476525899565300,10.6975654296875,0.8364145837843417,1.0891659405380487,0.765219233098626
1746476525909544200,10.707544189453126,0.8734687415458261,1.3731559006422758,0.27938334309160706
1746476525919523300,10.7175234375,0.9215192173570393,1.8159522748678922,-0.0719827016711235
1746476525929502200,10.727502197265625,0.8739360667966306,2.362684239864349,-0.28346330588161944
1746476525939482000,10.737482177734375,0.7134070666663348,2.83216111574471,-0.24547931992411612
1746476525949461200,10.747461181640626,0.42663799723759294,3.0576316668629646,0.01200023439526558
1746476525959440100,10.757440185546875,-0.01356368431970477,2.9150533339649436,0.3779138599485159
1746476525969419300,10.767419189453125,-0.5096615136872976,2.452676645478606,0.6848474732667207
1746476525979399200,10.777399169921875,-0.8994051468349993,1.8625035981625317,0.6918827787309885
1746476525989378300,10.78737841796875,-1.1735061656095087,1.3025228600144385,0.5047212077409029
1746476525999357200,10.797357177734375,-1.3044868535637855,0.7457803731352091,0.34605683243870733
1746476526009336300,10.80733642578125,-1.3260581955112516,0.22122750672101973,0.17308453032076357
1746476526019316200,10.817316162109375,-1.2568810527801513,-0.24650164870917796,-0.08303367251753807
1746476526029295000,10.827295166015626,-1.0644934177048504,-0.6582347761511802,-0.329376915794611
1746476526039274200,10.837274169921875,-0.7491583251357078,-0.9956021061778068,-0.5583563518166542
1746476526049254100,10.847254150390626,-0.3278156578272581,-1.2469669770091771,-0.7643623240083456
1746476526059233300,10.8572333984375,0.1047878967512399,-1.4011217659324406,-0.903722279381752
1746476526069212200,10.867212158203126,0.4566010276943445,-1.4691186128377913,-1.0445774417489766
1746476526079191300,10.87719140625,0.7609884636610746,-1.4156056338369845,-1.2011977440029382
1746476526089171200,10.887171142578126,1.0306127023477107,-1.2721943572461605,-1.3654443033516406
1746476526099150000,10.897150146484375,1.237757834637165,-1.0063111317187547,-1.4899848752558231
1746476526109129200,10.907129150390626,1.3084797225922344,-0.7223059740453958,-1.5112778386533259
1746476526119108000,10.917108154296875,1.3209798693336545,-0.4591097956448793,-1.5986106696695088
1746476526129088300,10.927088134765626,1.262220221851021,-0.18522329640388488,-1.6648580425590276
1746476526139067100,10.937067138671875,1.0872393563896416,0.06548983252048492,-1.58887311950922
1746476526149046300,10.94704638671875,0.8011919522989541,0.3067839757144451,-1.3978893598824738
1746476526159025200,10.957025146484375,0.48480654695928094,0.4632026179164648,-1.2319377501815556
1746476526169005000,10.967005126953126,0.1861247022230178,0.5107049583256245,-1.1773358069002628
1746476526178984200,10.976984130859375,-0.09560900338701903,0.41053544209003445,-1.3506249198824167
1746476526188963000,10.986963134765626,-0.3152962218634784,0.3867974236279726,-1.3079437160193919
1746476526198942200,10.996942138671875,-0.4738770105354488,0.4624538453757763,-1.177327623593807
1746476526208922000,11.006922119140626,-0.6608119331628084,0.5222615406066179,-0.6407552335619926
1746476526218901200,11.0169013671875,-0.8107529037833213,0.5045078572511673,-0.21067454852461814
1746476526228880100,11.026880126953126,-1.0166028086304664,0.23498949009180067,0.001005962172150612
1746476526238860000,11.036860107421875,-0.9759661892723291,0.025809564039111135,0.09844400761723518
1746476526248839200,11.046839111328126,-0.7183567980282008,-0.2627466810673475,0.03944119902849197
1746476526258818000,11.056818115234375,-0.38087723979875443,-0.5327835191428661,-0.010305120915174484
1746476526268797200,11.066797119140626,0.03414206970706582,-0.6895522899568081,-0.14589900175333023
1746476526278777000,11.076777099609375,0.37478498733825977,-0.8296224394261836,-0.2667395500957966
1746476526288756200,11.086756103515626,0.6980863826114684,-0.9141425511091947,-0.3159732443422079
1746476526298735000,11.096735107421875,1.011727749940008,-0.9566910685032606,-0.31442893750965595
1746476526308714200,11.10671435546875,1.212488953346014,-0.9392173711329698,-0.289516030049324
1746476526318694100,11.116694091796875,1.3005927687346934,-0.9186392780065537,-0.27152386176288124
1746476526328673000,11.126673095703126,1.4053700710266828,-0.8818143989562988,-0.2980874590396881
1746476526338652200,11.136652099609375,1.485436125910282,-0.8095347601652145,-0.26985096011459825
1746476526348631000,11.146631103515626,1.517033771831542,-0.6847592104613781,-0.2022708773165941
1746476526358611200,11.156611083984375,1.422751413938403,-0.5823141505092382,-0.13646481845378874
1746476526368590000,11.166590087890626,1.2848644537270069,-0.48782267991006373,-0.010485153657197951
1746476526378569200,11.1765693359375,1.0456032776653765,-0.4089747686445713,0.10711188271939753
1746476526388549000,11.186549072265626,0.811456302812323,-0.3820470142304897,0.23784955569803715
1746476526398528000,11.196528076171875,0.5747755716979503,-0.3216886993795633,0.29337971974015237
1746476526408507100,11.206507080078126,0.31964871798455713,-0.3085311116427183,0.2904834137767553
1746476526418486000,11.216486083984375,0.06437463782019913,-0.31225510060191153,0.26895371901392934
1746476526428466200,11.226466064453126,-0.16559848541431127,-0.33208734379708765,0.17473989631235598
1746476526438445000,11.236445068359375,-0.33247546633183955,-0.4344879800856113,0.086788056614995
1746476526448424200,11.246424072265626,-0.39349348720051347,-0.558067598003149,-0.016049802047014235
1746476526458403000,11.256403076171875,-0.41266938537880776,-0.679953271484375,-0.11734043126702308
1746476526468383000,11.266383056640626,-0.39353389227613805,-0.8060743905782699,-0.20658406434059143
1746476526478362000,11.276362060546875,-0.30102190505638715,-0.937950712198019,-0.286492882835865
1746476526488341000,11.286341064453126,-0.21022680475711822,-1.0353928492963314,-0.39868367625474926
1746476526498320100,11.296320068359375,-0.1393079329252243,-1.0955851599305868,-0.4931657945036888
1746476526508300000,11.306300048828126,-0.08552958098649978,-1.1301865177124737,-0.5955144083440304
1746476526518279200,11.316279052734375,-0.04331131846010685,-1.1447820292979478,-0.6490852550119162
1746476526528258000,11.326258056640626,0.013826792235299944,-1.122850767996907,-0.7905687784105538
1746476526538237200,11.3362373046875,0.006001870763301849,-1.096282494544983,-0.8862649486243724
1746476526548217000,11.346217041015626,0.009527049214765429,-1.0808721594452857,-1.021449079617858
1746476526558196000,11.356196044921875,-0.009384498938918113,-1.0149059415847062,-1.1236503939419984
1746476526568175000,11.366175048828126,-0.04900573070943355,-0.9829822785794734,-1.2213520587593316
1746476526578154000,11.376154052734375,-0.10192191286087035,-0.9349006769776343,-1.3354425483196972
1746476526588134100,11.386134033203126,-0.18594693450331687,-0.8980173457384109,-1.453196236562729
1746476526598113000,11.396113037109375,-0.2786772406488657,-0.8749234703987836,-1.5996809292495249
1746476526608092200,11.406092041015626,-0.4154829084295779,-0.8623819687336682,-1.7024591666787863
1746476526618072000,11.416072021484375,-0.5103810601335018,-0.9200035520970821,-1.758782526925206
1746476526628051000,11.426051025390626,-0.6481645599704235,-1.0281780956119297,-1.8277566944301127
1746476526638030000,11.436030029296875,-0.7030769574403762,-1.05909930357635,-2.0074656113266944
1746476526648009000,11.446009033203126,-0.6694961748778819,-0.9744511815994977,-2.282859007999301
1746476526657989600,11.45598974609375,-0.6354529624354094,-0.8642524387806654,-2.469844053378701
1746476526667968800,11.46596875,-0.6541700109302997,-0.8085171075552702,-2.537848499068618
1746476526677947600,11.47594775390625,-0.766160824797675,-0.7839929071515798,-2.5900527335584163
1746476526687926800,11.4859267578125,-0.8334703470259904,-0.7192454174309969,-2.5971090818107125
1746476526697906700,11.49590673828125,-0.8397170593958347,-0.6262345407783985,-2.6182328261211514
1746476526707885800,11.5058857421875,-0.8529086224675178,-0.5838508585572243,-2.603101307962835
1746476526717864700,11.51586474609375,-0.7987736391108483,-0.5316220741480588,-2.6474998371377585
1746476526727843800,11.52584375,-0.5756470938354731,-0.35087913802862164,-2.7284970353916287
1746476526737823700,11.53582373046875,-0.3381997622627765,-0.04067863186895847,-2.789092666129768
1746476526747802600,11.545802734375,-0.14341244563460348,0.3547527645915746,-2.7850512817844746
1746476526757781800,11.55578173828125,-0.07863397625386714,0.6843038679093122,-2.7207629340082407
1746476526767760600,11.5657607421875,-0.11329553979039192,0.8727923035889863,-2.6248341240823265
1746476526777740800,11.57574072265625,-0.21888583896569908,0.9286486308455467,-2.404886135777831
1746476526787719700,11.5857197265625,-0.33091420836448665,0.7999398333460092,-2.1902830156326294
1746476526797698800,11.59569873046875,-0.4740882421333342,0.5765893431216478,-2.059361802780628
1746476526807677700,11.605677734375,-0.6703810679536313,0.24338322442770002,-2.065797973307967
1746476526817657600,11.61565771484375,-0.838926274344325,-0.12121581139564513,-2.122754955282807
1746476526827636700,11.62563671875,-0.9610171150088309,-0.4305436263740062,-2.113385069391131
1746476526837615600,11.63561572265625,-1.0216139147907495,-0.6766776108145713,-1.9914520496368406
1746476526847594800,11.6455947265625,-1.0434873084247112,-0.833411310315132,-1.8301076414704323
1746476526857574700,11.65557470703125,-1.0449305660355837,-0.9600596681535244,-1.580840619701147
1746476526867553800,11.6655537109375,-1.0295358668964356,-1.0958487793028353,-1.2571826660752297
1746476526877532700,11.67553271484375,-1.0047843605428934,-1.1785294005990028,-0.9246341345071792
1746476526887512600,11.6855126953125,-0.9044576809842139,-1.220864567503333,-0.5961000992774963
1746476526897491700,11.69549169921875,-0.7602519660800695,-1.2317980494499206,-0.28818974988162516
1746476526907470600,11.705470703125,-0.6041108987104147,-1.2569091098308562,-0.11737491805851459
1746476526917449700,11.71544970703125,-0.47978141227364535,-1.2181541395008564,-0.03059036857485771
1746476526927429600,11.7254296875,-0.3481634493291378,-1.1471306382507085,0.03448094627261162
1746476526937408800,11.73540869140625,-0.20769355995245276,-1.057576039531827,0.10922726743817329
1746476526947387600,11.7453876953125,-0.09574059387743472,-0.8845143055647611,0.13860475309193135
1746476526957366800,11.75536669921875,-0.014625249136611819,-0.6785434046864509,0.21346154889464378
1746476526967346700,11.7653466796875,-0.006963336206600069,-0.43133974518775936,0.28477029682695865
1746476526977325600,11.77532568359375,-0.024618892949819563,-0.14534779761135577,0.3450982165396213
1746476526987304700,11.7853046875,-0.08146949194073677,0.1267336980342865,0.4332154759317636
1746476526997283600,11.79528369140625,-0.15405600472390651,0.32560850317180157,0.5067945068836212
1746476527007263700,11.805263671875,-0.18410919768214223,0.5465355656415224,0.4673112222790718
1746476527017242600,11.81524267578125,-0.2029283913772553,0.8044640327721834,0.3187316031396389
1746476527027221800,11.8252216796875,-0.26511808637380596,1.0467056859493256,0.24749592044353483
1746476527037200600,11.83520068359375,-0.4013187009334564,1.2480337294578552,0.1942109049797058
1746476527047180500,11.8451806640625,-0.5670441737283021,1.359576288101077,0.20131810663640498
1746476527057159700,11.85515966796875,-0.7378717189025134,1.4070768749445677,0.23722645536363124
1746476527067138600,11.865138671875,-0.9315846842974423,1.3375380592942236,0.3115495826810598
1746476527077117700,11.87511767578125,-1.0852268475234508,1.1820195808023213,0.43224692316055296
1746476527087097600,11.88509765625,-1.1912737313598394,0.9599661446511745,0.4949994396716356
1746476527097076700,11.89507666015625,-1.2352391298145056,0.6991063002437353,0.5287544097572565
1746476527107055600,11.9050556640625,-1.2317390127390622,0.4907470429241657,0.5901794770568609
1746476527117035500,11.915035400390625,-1.2222263573758303,0.33001521369814873,0.6222130301773547
1746476527127014700,11.9250146484375,-1.1304577358692884,0.24158698866069314,0.6868249108195305
1746476527136993500,11.93499365234375,-1.0230319648951292,0.23856851762235162,0.791366650789976
1746476527146972700,11.94497265625,-0.891940583107993,0.27894495167434213,0.9337830711245536
1746476527156952600,11.95495263671875,-0.7610579487007111,0.37653205020129676,1.0693985792726277
1746476527166931700,11.964931640625,-0.6362039999984205,0.5118137963503598,1.2141945882201195
1746476527176910600,11.97491064453125,-0.5678665229618549,0.6287649360388518,1.3454144917577504
1746476527186889700,11.9848896484375,-0.518096822142601,0.7045604739964008,1.4542010296911
1746476527196869600,11.99486962890625,-0.5102601371675729,0.7424819161117077,1.487474938261509
1746476527206848500,12.0048486328125,-0.5414531478106975,0.7827981444090605,1.540263694640994
1746476527216827600,12.01482763671875,-0.5507202309150249,0.809850986507535,1.58585172586143
1746476527226806500,12.024806640625,-0.585228065194562,0.8261392734855413,1.6322797150373458
1746476527236786700,12.03478662109375,-0.6614946547299623,0.8923574202805757,1.6709411618649959
1746476527246765600,12.044765625,-0.7338765848517418,0.9097206430137157,1.7173878557413815
1746476527256744700,12.05474462890625,-0.7974158678263426,0.8935884233802557,1.8139374279141425
1746476527266723600,12.0647236328125,-0.881717441387847,0.8679016089379787,1.90075821775496
1746476527276703500,12.074703369140625,-0.9481500346511602,0.8304676580786704,1.9966198076635597
1746476527286682600,12.0846826171875,-0.994652915694192,0.837037099596858,2.026075619250536
1746476527296661500,12.09466162109375,-1.0494318960428237,0.8525760295122862,2.1123229931175707
1746476527306640600,12.104640625,-1.1287421641230582,0.8589537478506565,2.193109178969264
1746476527316620800,12.114620849609375,-1.1429115592509507,0.8840273988306522,2.2252584674239158
1746476527326599700,12.124599609375,-1.15294663105309,0.8924345771700143,2.2440637056589123
1746476527336578600,12.13457861328125,-1.1423100862264632,0.8909148202568292,2.2820319095253945
1746476527346557700,12.1445576171875,-1.1286327854644507,0.8525760295122862,2.3293203149229287
1746476527356537900,12.154537841796875,-1.0944015031039713,0.7725976529121399,2.3297797491282224
1746476527366516700,12.164516845703124,-1.0128403142917901,0.686176676043868,2.351364388948679
1746476527376495600,12.17449560546875,-0.8840057715207338,0.6090361532181501,2.3278017270535227
1746476527386474500,12.184474609375,-0.7506968598145991,0.5703764599561691,2.270707966956496
1746476527396455000,12.194454833984375,-0.6002097996186465,0.5740495955109596,2.2016367688179015
1746476527406433800,12.204433837890624,-0.41695758409202094,0.5840495959997177,2.139326150855422
1746476527416413000,12.214412841796875,-0.1461911896329373,0.6534919655382633,2.1024609397947787
1746476527426392800,12.224392822265624,0.10834938862510025,0.7498164967834949,2.0827245581895113
1746476527436371700,12.234371826171875,0.2892917197741568,0.7630798829823732,2.0685423035800454
1746476527446350800,12.244350830078124,0.46271987590081987,0.736222271195054,2.024997176364064
1746476527456329700,12.254329833984375,0.5704466756481676,0.6992021618336439,1.9086784893602131
1746476527466310000,12.264309814453124,0.6805009684950113,0.6248936475634574,1.7681249402880668
1746476527476288800,12.274288818359375,0.7886889560133218,0.504226702222228,1.65381291693151
1746476527486268000,12.284267822265624,0.8532223645918071,0.38193186341822144,1.5179238525390624
1746476527496246800,12.294246826171875,0.8876081799268722,0.30784839007556436,1.4182564406067133
1746476527506226700,12.304226806640624,0.9388456152111291,0.28517127884328364,1.3030547749340533
1746476527516205800,12.314205810546875,0.9940653981298208,0.26081892787516114,1.2195903097838163
1746476527526184700,12.324184814453124,1.0044243681240825,0.24454408490061758,1.1201613827824592
1746476527536163800,12.334163818359375,1.0192999387599526,0.23149521823525426,1.0666986726641654
1746476527546143700,12.344143798828124,0.9987234530687331,0.19563012412786482,0.9381254842430352
1746476527556123000,12.354122802734375,1.0370885472983122,0.17822423129677772,0.83002108335495
1746476527566101800,12.364101806640624,1.1024721429653466,0.1640945836573839,0.677530428251624
1746476527576081000,12.374080810546875,1.1606550134733318,0.19332886144816874,0.47143443968892096
1746476527586060800,12.384060791015624,1.27952484626472,0.23716624960899352,0.1989116300165653
1746476527596039700,12.394039794921875,1.4316719486273823,0.35069735172092914,-0.15310732569694518
1746476527606018800,12.404018798828124,1.5807868436872958,0.4385825559228658,-0.4659563005387783
1746476527615997700,12.413997802734375,1.635725033185631,0.4091723370432854,-0.6560305441051721
1746476527625977900,12.423977783203124,1.5623201897569,0.306017667517066,-0.847524006819725
1746476527635956700,12.433956787109375,1.4525960787124932,0.19949673642814159,-1.0637854155659674
1746476527645935900,12.443935791015624,1.3569408250309527,0.13943068252205848,-1.356152158871293
1746476527655914200,12.453914306640625,1.237795244038105,0.16788345454633236,-1.6310101334929465
1746476527665894100,12.46389404296875,1.1323838816262781,0.29908640694916244,-1.9092823004722594
1746476527675873300,12.473873291015625,1.0628544183261692,0.5726625250667333,-2.1892922510296104
1746476527685852400,12.483852294921874,1.0442343273997305,1.0384393773853777,-2.413307927164435
1746476527695831300,12.493831298828125,0.9343407050073146,1.5876625746756792,-2.475904960852861
1746476527705811500,12.5038115234375,0.71522975204885,2.0039678323388097,-2.3496622612059115
1746476527715790300,12.513790283203125,0.3454407463669777,2.191284886151552,-2.0852339106619358
1746476527725769200,12.523769287109374,-0.054393268966674804,2.190742449837923,-1.81640411028862
1746476527735748400,12.533748291015625,-0.5345482637930661,1.8170880008995531,-1.4151952994704247
1746476527745728500,12.543728515625,-1.1627164029825479,1.129203351894021,-1.13918289411664
