time,seconds_elapsed,z,y,x
1746476815541408800,0.01240869140625,-0.2536263860225677,0.38292847324013707,-1.1874953818649052
1746476815551388000,0.022387939453125,-1.2446674678951501,0.7146428920716047,-1.4189642966151237
1746476815561366800,0.03236669921875,-2.0573300046920777,0.9931523749381304,-1.3241852412462234
1746476815571346000,0.042345947265625,-2.488037297195196,1.1061907250970602,-1.1706675811827183
1746476815581324800,0.05232470703125,-2.5299247203320263,1.090495143315196,-1.01044136339128
1746476815591304000,0.062303955078125,-2.221459075140953,1.0149106177598237,-0.8199433414548635
1746476815601282800,0.07228271484375,-1.7100304787158964,0.927916809439659,-0.6905559140413999
1746476815611262000,0.082261962890625,-1.2268114932090044,0.8708125279486179,-0.5649743086516856
1746476815621240800,0.09224072265625,-0.9262158507406711,0.794485075071454,-0.37637072215974327
1746476815631220000,0.102219970703125,-0.762888159802556,0.7471370484411716,-0.1352168642193079
1746476815641198800,0.11219873046875,-0.6693798550218343,0.6845768396317958,0.14739157839864492
1746476815651178000,0.122177978515625,-0.6108288818538189,0.557939003187418,0.5031254629820585
1746476815661156600,0.132156494140625,-0.511856466448307,0.34345980168282986,0.839661018359661
1746476815671134700,0.142134765625,-0.29946517713367937,0.14067103797197342,1.043933298626542
1746476815681113600,0.152113525390625,-0.05975099660754203,0.0034527708023786544,1.1739642846405505
1746476815691092700,0.1620927734375,0.2955173162907362,-0.07539572498500346,1.1585872672885655
1746476815701071600,0.172071533203125,0.7022369994848966,-0.11883563826084136,1.1036235049575567
1746476815711050800,0.18205078125,1.194991290578246,-0.10852584117054939,1.0039373883247376
1746476815721029600,0.192029541015625,1.7355027736246584,-0.0578267505466938,0.8491942781195044
1746476815731008800,0.2020087890625,2.1914076357483863,0.03606967676877975,0.7023305229872465
1746476815740988000,0.21198779296875,2.5206068568885325,0.16832009239792822,0.5354872251436114
1746476815750966800,0.221966796875,2.7264532546043396,0.26402619948387146,0.41781157057285306
1746476815760946000,0.23194580078125,2.7363118007957934,0.28996114346832036,0.2591694071024656
1746476815770924800,0.2419248046875,2.502362175145745,0.3419169561550021,0.037136136956512925
1746476815780904000,0.251904052734375,2.143251799866557,0.404208284895122,-0.1683995873749256
1746476815790882800,0.2618828125,1.754991317948699,0.49118689564615486,-0.333188875298202
1746476815800862000,0.271862060546875,1.391544374769926,0.5660471985802054,-0.4370476014405489
1746476815810840800,0.2818408203125,1.0493331118434668,0.593577302801609,-0.44737844131886956
1746476815820820000,0.291820068359375,0.7389566645950079,0.5705404183462262,-0.30329817942529913
1746476815830798800,0.301798828125,0.46959085764884945,0.5138759895771742,-0.05066197348386049
1746476815840778000,0.311778076171875,0.27982816424965856,0.4389651254996657,0.11234306137114762
1746476815850756900,0.3217568359375,-0.03551204288601875,0.33169308378249407,0.19579992773681879
1746476815860735700,0.33173583984375,-0.2517114923119545,0.24370325016230343,0.34154958414733405
1746476815870714600,0.341714599609375,-0.21704934425354003,0.1361187814950943,0.47400136756747957
1746476815880693800,0.35169384765625,-0.06567220335006714,0.0003837386205792427,0.5585054048985243
1746476815890672600,0.361672607421875,0.05978606792092323,-0.05721300256252288,0.7510252880513668
1746476815900651800,0.37165185546875,0.09828969383835792,-0.1834194618523121,0.9696770990654826
1746476815910630700,0.381630615234375,0.31657647093236446,-0.2649135037124157,1.1540762196049092
1746476815920609800,0.39160986328125,0.6840145295739174,-0.2761073901608586,1.1995990766346454
1746476815930589700,0.401589599609375,0.9894406609386205,-0.2821981082513928,1.2954086440950632
1746476815940567800,0.41156787109375,1.2584510785758494,-0.26242490176707506,1.3801970513254402
1746476815950546700,0.421546630859375,1.4358634089678526,-0.1988008631184697,1.332149351993203
1746476815960525800,0.43152587890625,1.5219909558475018,-0.12969342462271452,1.299963238659501
1746476815970504700,0.441504638671875,1.5185171422570942,-0.09404489587545395,1.2065700846910477
1746476815980483600,0.451483642578125,1.3997937321990728,-0.026278350594639777,1.1230775624901055
1746476815990462500,0.46146240234375,1.206295359402895,0.04949322196543216,1.0865174718558788
1746476816000441600,0.471441650390625,1.0431588071227074,0.13254676822721959,1.0120271712779998
1746476816010420500,0.48142041015625,0.9239473212867975,0.19666414335072038,0.9348293653070926
1746476816020399600,0.491399658203125,0.7880559188067913,0.24741525642275808,0.852007289713621
1746476816030378500,0.50137841796875,0.520278842356801,0.30990123095214367,0.6664174980849027
1746476816040357600,0.511357666015625,0.044264673662185665,0.42514615124464034,0.335227395388484
1746476816050336500,0.52133642578125,-0.437237571054697,0.5748012906610965,0.16815408818125724
1746476816060315600,0.531315673828125,-0.7010463283956051,0.6577841097742319,0.16717033784091473
1746476816070294500,0.54129443359375,-0.7243705053597689,0.6561287437826394,0.3123223206192255
1746476816080273700,0.551273681640625,-0.5934317568510771,0.6503086593270302,0.5997580372631549
1746476816090252500,0.56125244140625,-0.45832887440025805,0.5859358481377362,0.6804086140364408
1746476816100231700,0.571231689453125,-0.07114508180320263,0.41118192330002784,0.7192372341245412
1746476816110210600,0.58121044921875,0.502934324324131,0.3480576508671045,0.6922334918648004
1746476816120189700,0.591189697265625,0.9231494489073753,0.37666181406080723,0.618648615694046
1746476816130168600,0.60116845703125,1.064239589074254,0.47362172060012814,0.5072708922237158
1746476816140147700,0.611147705078125,1.0265864425063134,0.541416907453537,0.45496845805644986
1746476816150126600,0.621126708984375,0.8680962547272443,0.6403788014650345,0.526403462716937
1746476816160105700,0.631105712890625,0.6119891578048468,0.9642395841866731,0.8863251543790102
1746476816170084600,0.641084716796875,0.3849234464496374,1.3623591968178748,1.1420552346825599
1746476816180063700,0.651063720703125,0.4273094667583704,1.5311182651549577,-0.2924479918479919
1746476816190042600,0.661042724609375,-0.24834113909602165,0.5069932443261146,-0.2663940976589918
1746476816200021800,0.671021728515625,-0.7874626290887594,1.021999114716053,2.288065344470739
1746476816210000600,0.681000732421875,-0.4377133718729019,2.1013591160327194,2.7621125970065594
1746476816219979500,0.6909794921875,-0.48452539193034166,2.2345155405908823,2.886122423034906
1746476816229958700,0.700958740234375,-0.671805036342144,1.5375895069956778,2.0921999502822755
1746476816239937500,0.7109375,-0.5036065244972705,0.7375210788339376,0.8243243330180644
1746476816249916700,0.720916748046875,0.3132926269561052,0.2736842546671629,0.2413800679117441
1746476816259895600,0.7308955078125,1.2196908475488424,0.27534605039954185,0.1909536567494273
1746476816269873700,0.740873779296875,1.5675070908755062,0.2768856810569763,0.4408081230178475
1746476816279852500,0.7508525390625,1.658022059059143,0.2803659243881702,0.36136516846865413
1746476816289831700,0.760831787109375,1.5285650735408067,0.28638708437383176,0.1578147727355361
1746476816299810600,0.770810546875,0.8205863155335188,0.4429378285229206,0.08301526007801294
1746476816309789700,0.780789794921875,0.17977905952334403,0.4395218825995922,-0.14609160171598196
1746476816319768600,0.7907685546875,-0.10879238315224647,0.28981062908172606,-0.5963283550754189
1746476816329747700,0.800747802734375,-0.09629822776019573,0.41177696658372875,-0.9966016386091708
1746476816339726600,0.8107265625,0.034088147562742234,0.805785052242875,-1.0835752809241412
1746476816349705700,0.820705810546875,0.14122107307016848,0.9253566035628318,-1.2749036162048577
1746476816359684600,0.8306845703125,0.26250410448312755,1.1929004557788372,-1.766358515137434
1746476816369663700,0.840663818359375,0.465693850210309,1.326824942100048,-2.05218767336756
1746476816379642600,0.850642578125,0.8217413307875394,1.374931093621254,-2.284615788538754
1746476816389621800,0.860621826171875,0.5594914933264256,1.3904992496311663,-2.602474115975201
1746476816399600600,0.8706005859375,-0.09289689488410949,1.1167904450446366,-2.593576816031337
1746476816409579800,0.880579833984375,-0.5422141953110694,0.7635802337199449,-2.4062802204847333
1746476816419558400,0.890558349609375,-0.8984744418561458,0.2285655945241451,-2.34700707052201
1746476816429537500,0.90053759765625,-1.2463809938147663,-0.5129238034188747,-2.3595444805338976
1746476816439516700,0.9105166015625,-1.6817846274405717,-1.0570230818241835,-2.034445680449903
1746476816449495600,0.92049560546875,-1.6303084149643778,-1.610000078690052,-1.6986115513399243
1746476816459474700,0.930474609375,-1.1649810599789023,-2.0418863518446684,-1.7637579772502183
1746476816469453600,0.94045361328125,-0.40532296813875435,-2.3193840273201465,-2.140665290504694
1746476816479432700,0.9504326171875,0.3746142338812351,-2.28259948028028,-2.271853629860282
1746476816489411600,0.96041162109375,1.0024562098562717,-1.9892069010585545,-1.7902984859123825
1746476816499390700,0.970390625,1.5932137790620327,-1.8112790223598478,-1.6377002787813544
1746476816509369600,0.98036962890625,1.8196593126922844,-1.6808032151877879,-1.405097683826089
1746476816519348700,0.9903486328125,1.8704624482125043,-1.1862322300612926,-1.4792580217972398
1746476816529327600,1.00032763671875,1.7419003657072782,-0.672293696641922,-1.2631339756950735
1746476816539306800,1.010306640625,1.4468015670895575,-0.3483084107577801,-0.7094380169048905
1746476816549285600,1.02028564453125,1.1041197640419005,-0.1948386814892292,-0.1918649263754487
1746476816559264800,1.0302646484375,0.7414233469694852,-0.0632335780262947,-0.02274462351053953
1746476816569243600,1.04024365234375,0.14808160648941993,0.1724082384943962,-0.06942454162091016
1746476816579222800,1.050222900390625,-0.40320524533241986,0.3244558260053396,-0.19582067826390265
1746476816589201700,1.06020166015625,-0.9947554262205958,0.46379181598126884,-0.5820514079198241
1746476816599180800,1.070180908203125,-1.3476213541522621,-0.11714227834641933,-0.06807371153384446
1746476816609159700,1.08015966796875,-1.5067697135791183,-0.3394967432707548,0.33668519298136235
1746476816619137500,1.090137451171875,-1.6217974839895963,-0.04284428547024727,0.34129677843004463
1746476816629116400,1.100116455078125,-1.5542042494490742,-0.06831190420389174,0.5588777453422547
1746476816639095600,1.110095458984375,-1.4125412778303026,-0.16613748766183853,0.8052750568941235
1746476816649074400,1.120074462890625,-1.299858901502192,-0.12433365115523337,0.8286948031872511
1746476816659053600,1.130053466796875,-1.314097854734957,-0.12361644279658794,0.5992798983573914
1746476816669032400,1.140032470703125,-1.1014695417940616,-0.7853145111441612,1.175099133889377
1746476816679011600,1.150011474609375,-1.047775361007452,-0.5239449636489153,0.9006251901492476
1746476816688990700,1.15999072265625,-1.1915998945742845,-0.5709311712294817,0.6575774812862276
1746476816698969600,1.169969482421875,-1.419715114982426,-0.9394979416400193,0.45358255665600294
1746476816708948700,1.17994873046875,-1.7271739212185144,-1.1299626458287237,0.010669862574338912
1746476816718927600,1.189927734375,-1.9410548645690082,-1.34575117636621,-0.44098523315042254
1746476816728906800,1.19990673828125,-1.8627014588221906,-1.5963532461315393,-0.7717550646081567
1746476816738885600,1.2098857421875,-1.6379659439802168,-1.5916852543205022,-1.0475529504284262
1746476816748864800,1.21986474609375,-1.422290080036968,-1.5637626436501741,-1.1026032219991087
1746476816758843600,1.22984375,-1.1740344272673129,-1.424980195903778,-1.1436372431769966
1746476816768822800,1.23982275390625,-1.0111562336623667,-1.1638561476022005,-1.1557391843810676
1746476816778801700,1.2498017578125,-0.8326680907323956,-1.1199649834275245,-0.9659124858349561
1746476816788780800,1.25978076171875,-0.7011684934705495,-0.9911977337390184,-0.893089826208353
1746476816798759700,1.269759765625,-0.6871211172871291,-0.6650321812063456,-0.9224743261247873
1746476816808738800,1.27973876953125,-0.7700994063556194,-0.3289695040374994,-0.9561597381055355
1746476816818717700,1.2897177734375,-0.6577344254136085,-0.3894026376903057,-0.6094359661906957
1746476816828696800,1.29969677734375,-0.4127431812673807,-0.05667407338023185,-0.42466684329509735
1746476816838675700,1.30967578125,-0.417996279489994,0.25842355717122556,-0.2204293420806527
1746476816848654800,1.31965478515625,-0.5460486589074135,0.22686171321570872,0.1562298416316509
1746476816858633700,1.3296337890625,-0.5848609123826026,0.13751929594278334,0.34758652622401714
1746476816868612600,1.339612548828125,-0.5665808670654893,0.09093465490043162,0.3612567396581173
1746476816878591500,1.349591552734375,-0.6467012824848294,0.02358428920507431,0.31493688703179357
1746476816888570600,1.359570556640625,-0.801626178997755,-0.017808628413081166,0.27670038761794563
1746476816898549500,1.369549560546875,-0.9557882744446397,0.0389303268969059,0.32900223726332184
1746476816908528600,1.379528564453125,-1.110223341614008,0.1508358736336231,0.5228299881443381
1746476816918507500,1.389507568359375,-0.9662842417567967,0.00973930372595787,0.5218611431121826
1746476816928486000,1.39948583984375,-0.6087403851419687,-0.26259236728847024,0.2558697810351848
1746476816938464800,1.40946484375,-0.15848609612584114,-0.43079906243979926,-0.17582447667866943
1746476816948444000,1.41944384765625,0.278663504384458,-0.7752186490654945,-0.5129056832402944
1746476816958422800,1.4294228515625,0.6015829146027565,-1.0208253947615622,-0.6982789095088839
1746476816968402000,1.43940185546875,0.6800754365593195,-1.1218839687913655,-0.8299918572604655
1746476816978380800,1.449380859375,0.7723331567570567,-1.0975748724430798,-1.0446040374949574
1746476816988360000,1.45935986328125,0.9176856305435299,-1.1517319945663214,-1.3143342938393354
1746476816998338000,1.469338134765625,0.9462678741663694,-1.2353998733341693,-1.5451558505967258
1746476817008317000,1.47931689453125,0.8212854037135839,-1.2059627664476633,-1.6589131626799702
1746476817018296000,1.489296142578125,0.757313574540615,-1.2654986589998005,-1.7761527639210224
1746476817028274700,1.499274658203125,0.6817185275912284,-1.2719886055409908,-1.9340081609278916
1746476817038253800,1.50925390625,0.5996849720269442,-1.258556292515993,-2.088730520606041
1746476817048232700,1.519232666015625,0.5205503527745604,-1.1810884374320507,-2.117581644298136
1746476817058211800,1.5292119140625,0.4201204320371151,-0.9776187057197093,-2.096798091727495
1746476817068190700,1.539190673828125,0.3118222621425986,-0.715071346616745,-2.022115483447909
1746476817078169900,1.549169921875,0.2028568605110049,-0.5902969659566879,-1.881244538989663
1746476817088148700,1.559148681640625,0.030332302160561084,-0.5214736050993204,-1.7751807040184735
1746476817098128000,1.5691279296875,-0.13882511784434318,-0.46620004616677757,-1.728746869623661
1746476817108106800,1.579106689453125,-0.2874351321220398,-0.4649304646223783,-1.6132015050798654
1746476817118086000,1.5890859375,-0.3644374155208468,-0.4688023376196623,-1.5211568431109188
1746476817128064800,1.599064697265625,-0.4320271429300308,-0.38666356811523434,-1.490001826390624
1746476817138044000,1.6090439453125,-0.5284159715831279,-0.1868172875970602,-1.4035899096116422
1746476817148022800,1.619022705078125,-0.6740665515333414,0.08672375920712948,-1.319715694616735
1746476817158002000,1.629001953125,-0.5690867124065756,-0.25432255159318445,-1.9961156575337051
1746476817167980800,1.638980712890625,-0.597646744197607,0.8863064496785402,-1.179648175495863
1746476817177960000,1.6489599609375,-1.026933648508787,1.8772803115338086,0.9668737320825457
1746476817187938800,1.658938720703125,-1.4126111281961202,0.4637433006644249,-0.46549569728970525
1746476817197918000,1.66891796875,-1.0807754210725427,0.7384580674231052,-1.3823191580459475
1746476817207896800,1.678896728515625,-0.7836442398443818,1.0207546676129102,-0.99391751409173
1746476817217876000,1.6888759765625,-1.1075979615464806,0.6098468850791454,-1.4342019054964183
1746476817227854800,1.698854736328125,-1.1427493544265628,0.6655412997722625,-1.7410951868042348
1746476817237834000,1.708833984375,-0.9156400961905717,0.784115656748414,-1.6632716501504181
1746476817247812900,1.718812744140625,-0.8213979241773486,0.8449135320603847,-1.5092279203861951
1746476817257792000,1.7287919921875,-0.7605369205012917,0.9488836096227169,-1.226492928779125
1746476817267771000,1.73877099609375,-0.7107730649009346,1.0374141259908676,-0.9205623550236225
1746476817277749800,1.748749755859375,-0.6962669851645827,1.0487778160482644,-0.6471399661630391
1746476817287729000,1.75872900390625,-0.7613529130592942,0.9700947399556636,-0.33571664021015163
1746476817297707800,1.768707763671875,-0.8647440216898917,0.799345374584198,-0.03386602924466133
1746476817307687000,1.77868701171875,-0.897670139735937,0.5777075334966182,0.2170592811256647
1746476817317665800,1.788665771484375,-0.9322989700466394,0.3023082916051149,0.5108534268856049
1746476817327645000,1.79864501953125,-0.9510995321065187,-0.022744915771484374,0.7837012307286262
1746476817337623800,1.808623779296875,-1.0216323272302745,-0.33044016111195085,0.942117184227705
1746476817347603000,1.81860302734375,-1.0462874605372547,-0.5947293954461813,1.069071831536293
1746476817357581800,1.828581787109375,-0.964019803956151,-0.7990192113697528,1.133237137454748
1746476817367561000,1.83856103515625,-0.7480325359761715,-0.8318956450551748,1.1121622007220984
1746476817377539800,1.848539794921875,-0.39551615213453767,-0.7101146009922027,1.0966764622986316
1746476817387519000,1.85851904296875,-0.08332768702805042,-0.49417000311017034,1.1955097614943981
1746476817397497900,1.868497802734375,0.3067643942311406,-0.1914040308654308,1.2711363726258278
1746476817407477000,1.87847705078125,0.7146940377369523,0.19261399117708206,1.3478233064651488
1746476817417454800,1.888454833984375,1.0318877637848258,0.6291185717821121,1.4091566038280725
1746476817427434000,1.89843408203125,1.2799322580218315,1.0535516063213348,1.5757330674290657
1746476817437412900,1.908412841796875,1.3632178594738245,1.3352239371329546,1.6968366506218908
1746476817447392000,1.91839208984375,1.3477011413902042,1.5255109466671943,1.7431494889855383
1746476817457371000,1.928370849609375,1.2875576383337377,1.5815245103120803,1.7827169447422027
1746476817467350000,1.93835009765625,1.0505614845946432,1.5706430508136748,1.6819418638288974
1746476817477329000,1.948328857421875,0.8440408408790826,1.4580086052805183,1.386238085055351
1746476817487307800,1.958307861328125,0.6755424693048,1.3416250363469122,1.206830781453848
1746476817497287000,1.968286865234375,0.4077516565904021,1.214116846808791,1.0899164666444063
1746476817507265800,1.978265869140625,0.05775339304953813,0.9422656527876854,1.048310198536515
1746476817517245000,1.988244873046875,-0.126885673725605,0.6771773770302534,1.1406553047567605
1746476817527223800,1.998223876953125,-0.22620295704603194,0.3811053494662046,0.9289806392788886
1746476817537203000,2.008202880859375,-0.45262131040841336,-0.0038689503878355023,0.813071702119708
1746476817547181800,2.018181884765625,-0.582471386897564,-0.24404314964115617,0.7623071450442075
1746476817557161000,2.028160888671875,-0.63894175439924,-0.399702497908473,0.7365431737124919
1746476817567139800,2.038139892578125,-0.6530646800369024,-0.500517326310277,0.7679857752025127
1746476817577119000,2.048118896484375,-0.6180968270301819,-0.49376785205006596,0.8153150971323251
1746476817587097900,2.058097900390625,-0.5765379051953554,-0.3994365404486656,0.929011618939042
1746476817597077000,2.068076904296875,-0.5202974009267985,-0.25762568479180337,1.0744698911875485
1746476817607056000,2.078055908203125,-0.42500031303316355,-0.08512626088261604,1.231368425861001
1746476817617035000,2.088034912109375,-0.28658450664207336,0.1321270815104246,1.3829326137691735
1746476817627014000,2.098013916015625,-0.19262027478739618,0.31565175730288025,1.5413035590827464
1746476817636993000,2.107992919921875,-0.17565584211349486,0.4800666589558124,1.700894401580095
1746476817646972000,2.117971923828125,-0.10282587596327065,0.6398720209866762,1.8497043223440646
1746476817656951000,2.127950927734375,0.016467881328612564,0.7564829689353704,2.0302531971961257
1746476817666930000,2.137929931640625,0.14295797986537218,0.8381944529384374,2.2296961576104164
1746476817676909000,2.147908935546875,0.25781623892784117,0.9387152668297291,2.3975346039712426
1746476817686888000,2.157887939453125,0.3817170516237616,1.0822153907477856,2.625329214122891
1746476817696867000,2.1678671875,0.4876259882941842,1.0905611942887306,2.8818805476814506
1746476817706846000,2.177845947265625,0.6040834992468357,1.0134352845102548,3.0627433107882736
1746476817716825000,2.1878251953125,0.7051528869315982,0.9991121601253747,3.0897827088832854
1746476817726803700,2.1978037109375,0.737775930377841,1.103003911754489,2.854766330784559
1746476817736782800,2.207782958984375,0.7401976045668125,0.5910778872013092,3.08817059751153
1746476817746761700,2.21776171875,0.8214318264469503,0.31577392237782476,3.1413609204292294
1746476817756740900,2.227740966796875,0.9175906457364559,0.5133680400550366,2.7759529063105584
1746476817766719700,2.2377197265625,0.9910571562245487,0.5142395621925592,2.6043723508119583
1746476817776699000,2.247698974609375,1.0329349347501993,0.4081687129586935,2.497711134469509
1746476817786677800,2.257677734375,1.0693278521239757,0.4317904115647077,2.277961299085617
1746476817796657000,2.267656982421875,1.0665361755788325,0.46369653891324997,2.037162245932221
1746476817806635800,2.2776357421875,1.0336913060754538,0.5389695143014193,1.822649726679921
1746476817816615000,2.287614990234375,1.0140291587501764,0.540359507355094,1.6757248890101908
1746476817826593800,2.29759375,0.9925362888664007,0.5721919849455356,1.5096224726617335
1746476817836573000,2.307572998046875,0.9291969123780727,0.670387570759654,1.3557722196429967
1746476817846551800,2.3175517578125,0.8193854153111576,0.6258931799948215,1.2726678199768067
1746476817856531000,2.327531005859375,0.7453165550157428,0.5732844563573598,1.1534259390026331
1746476817866509800,2.337509765625,0.7032315634801983,0.543943795582652,0.9821160171389579
1746476817876489000,2.347489013671875,0.6549202447757124,0.6159615685671568,0.878581992906332
1746476817886467800,2.3574677734375,0.5877554647803306,0.6214169113636017,0.8368886310368776
1746476817896447000,2.367447021484375,0.4611135366827249,0.5281488450795412,0.6594640256851911
1746476817906425900,2.37742578125,0.3732353467434644,0.5660995132893324,0.572476647105813
1746476817916405000,2.387405029296875,0.3232467424765229,0.5612900671809912,0.49860944686233993
1746476817926383900,2.3973837890625,0.3436822122618556,0.6371738679438829,0.2914461213290691
1746476817936363000,2.407363037109375,0.3346861281186342,0.5554641375064849,0.09821429051458835
1746476817946342000,2.417341796875,0.1999269445389509,0.4005611605644226,0.11458382603526114
1746476817956321000,2.427321044921875,0.0681570059031248,0.2340437336742878,0.0877899271339178
1746476817966300000,2.4372998046875,0.024240707287192343,0.16233283468186854,-0.18830080415308476
1746476817976279000,2.447279052734375,0.0553255813807249,0.14639000014066694,-0.4513140272021293
1746476817986258000,2.4572578125,0.599666559587419,0.38275954641401766,-0.9592278935045003
1746476817996237000,2.467237060546875,-0.26508769123554227,0.3692120825767517,-0.5832458784013986
1746476818006216000,2.4772158203125,-0.02859758732244372,0.8343734333455562,-1.0549854385167359
1746476818016195000,2.487195068359375,0.4487187500119209,1.309661041331291,-1.5875509309947489
1746476818026174000,2.497174072265625,0.46851665254607794,1.8074907359927892,-1.5220681127369402
1746476818036153000,2.507153076171875,0.5254807949140667,2.131642026093602,-1.631027961410582
1746476818046131200,2.517131103515625,0.33870676193684335,2.238605440253019,-1.4221011333361266
1746476818056111000,2.527111083984375,-0.010626023432612418,2.167673708939552,-1.3411647253587842
1746476818066089000,2.5370888671875,-0.4416762841545045,1.7268319759130477,-1.4118322527781129
1746476818076067800,2.54706787109375,-1.1853085393451153,1.2898457492709159,-1.3554916491359472
1746476818086047000,2.557046875,-1.7124954075247047,0.5725654944330454,-1.2694690239354967
1746476818096025900,2.56702587890625,-1.926899790227413,-0.16975743172466753,-1.5687354636266826
1746476818106005000,2.5770048828125,-2.0437818102024496,-0.8036188141196966,-2.0020827492445705
1746476818115984000,2.58698388671875,-1.9370336462289093,-1.346299457898736,-2.216160676471889
1746476818125963000,2.596962890625,-1.8049112408936023,-1.6853186467856167,-2.2154282705441117
1746476818135942000,2.60694189453125,-1.6904308752328157,-1.9704127687394617,-2.098684051604569
1746476818145921000,2.616921142578125,-1.6430384249389172,-2.298518933945894,-1.9197174775078891
1746476818155900000,2.62689990234375,-1.5100585259914396,-2.3133172746270896,-1.7604659499675035
1746476818165879000,2.636879150390625,-1.2152028154145926,-2.349713699132204,-1.5368483332395553
1746476818175858000,2.64685791015625,-0.8467125443063676,-2.0904004996448755,-1.5408859181925654
1746476818185837000,2.656837158203125,-0.5324286412905901,-2.1473200722187755,-1.6925404147326946
1746476818195816000,2.66681591796875,-0.30028591893203554,-1.4193003967016935,-1.6215569532319902
1746476818205795000,2.676795166015625,-0.29708259284608063,-0.9921148485839366,-1.4014745248928666
1746476818215774000,2.68677392578125,-0.39410387418381865,-0.680697367849946,-1.6350491797506808
1746476818225753000,2.696753173828125,-0.6765449243456125,0.1376174956202507,-1.4804089453980325
1746476818235732000,2.70673193359375,-0.8788292456656693,0.2936252189338207,-1.2279866744682193
1746476818245711000,2.716711181640625,-0.9856213949114083,0.16614391740262507,-1.112406823132932
1746476818255690000,2.72668994140625,-0.9522135577630251,0.08585515967905522,-0.9433876425549388
1746476818265669000,2.736669189453125,-0.7335393157213926,0.13598726406991482,-0.8200397875666617
1746476818275648000,2.74664794921875,-0.511209400716424,0.1757195549994707,-0.7576888375937938
1746476818285627100,2.756627197265625,-0.6660206077218055,-0.08631167127490043,-0.8462269527465105
1746476818295606000,2.76660595703125,-0.8715385041356086,-0.1817412995070219,-0.8566337804704904
1746476818305585000,2.7765849609375,-0.9441717786699533,-0.14126023603677748,-0.8559802849978208
1746476818315564000,2.78656396484375,-1.107300732165575,-0.23148820397257802,-0.7463570039793849
1746476818325543000,2.79654296875,-1.2781827840059994,-0.3735521576076746,-0.5571987062141299
1746476818335522000,2.80652197265625,-1.3965513892769812,-0.5244903225719928,-0.370703490178287
1746476818345501000,2.8165009765625,-1.4358108019977807,-0.6765367410391568,-0.24297668945342302
1746476818355480000,2.82647998046875,-1.4110861105859278,-0.7833195379346609,-0.22251316261738538
1746476818365459000,2.836458984375,-1.2783791833609341,-0.9612550154179335,-0.18556319588273762
1746476818375438000,2.84643798828125,-1.015268345156312,-1.1176537838757037,-0.18871815278232096
1746476818385417000,2.8564169921875,-0.7581278135329484,-1.1355898380607365,-0.2734764571353793
1746476818395396000,2.86639599609375,-0.4612613841881975,-1.0549176339775324,-0.3371817443266511
1746476818405375000,2.876375,-0.23015078135635703,-1.0012994410365819,-0.35984628833830357
1746476818415354000,2.88635400390625,-0.045033867936395106,-0.9598971710681915,-0.34019466240704055
1746476818425333000,2.8963330078125,0.1689842188624665,-0.8448772917032241,-0.36775633081048725
1746476818435312000,2.90631201171875,0.3849672125261277,-0.730702046468854,-0.38581250424385066
1746476818445291000,2.916291015625,0.6413537109117955,-0.6442459982872009,-0.4074871604353189
1746476818455270100,2.926270263671875,0.8480741149831563,-0.5488111093580722,-0.41197541176527736
1746476818465249000,2.9362490234375,0.9757727855920791,-0.45922260836958884,-0.2959121608272195
1746476818475228200,2.946228271484375,1.0075251836836336,-0.41514089005887506,-0.1640545439079404
1746476818485207000,2.95620703125,0.9900333661347627,-0.4276087419658899,-0.10004092141985893
1746476818495186200,2.966186279296875,0.9711025287587195,-0.4701724569290876,-0.0200379949003458
1746476818505165000,2.9761650390625,0.9555044890671968,-0.5285726234495639,0.04190262070596218
1746476818515144200,2.986144287109375,0.9208177910894155,-0.5725672479987144,0.08745090443789959
1746476818525123000,2.996123046875,0.8564267866563051,-0.6291705942302942,0.1400438459843397
1746476818535102200,3.006102294921875,0.7852197455327957,-0.6814461403906344,0.2413625322550535
1746476818545080800,3.016080810546875,0.6956452730696648,-0.7719488336145878,0.3062216656565666
1746476818555060000,3.02606005859375,0.6081588589269667,-0.8469786478966475,0.32591888429522514
1746476818565038800,3.036038818359375,0.6512059004276991,-0.8620464531689882,0.24993220767974852
1746476818575018000,3.04601806640625,0.7711241462934761,-0.7957423816561698,0.13879413818418979
1746476818584996900,3.055996826171875,0.895488777108863,-0.7169833177179098,0.003709375911951065
1746476818594976000,3.06597607421875,0.9714753075938671,-0.5985603519111872,-0.11669745718836784
1746476818604955000,3.075954833984375,1.034330846088007,-0.43473289475739,-0.1589542981594801
1746476818614934000,3.08593408203125,1.0710808332711457,-0.27234862214922906,-0.1517781229197979
1746476818624913000,3.095912841796875,1.0894652157455682,-0.2034656400591135,-0.168518245318532
1746476818634892000,3.10589208984375,1.0525602571964263,-0.1603174032062292,-0.3000876929461956
1746476818644871000,3.115870849609375,1.0112574290145189,-0.1100584575653076,-0.494150129365921
1746476818654850000,3.12585009765625,0.9384253439724445,-0.08782909010052681,-0.7407453015774488
1746476818664829000,3.135828857421875,0.8022989636927843,-0.03434767528176307,-1.017267702279985
1746476818674808000,3.14580810546875,0.589244826555252,-0.017746084570884703,-1.130568502767384
1746476818684787000,3.155786865234375,0.3369483008969575,-0.13751754237711428,-1.1814055405572057
1746476818694766000,3.16576611328125,0.11581650963537395,-0.29591888282895085,-1.3414020412459968
1746476818704745000,3.175744873046875,-0.055275239432975645,-0.4056885865807533,-1.5151257462531327
1746476818714724000,3.18572412109375,-0.17795710479319093,-0.521257916522026,-1.7003899591892957
1746476818724703000,3.195702880859375,-0.21710896548628805,-0.6530985823065042,-1.8371733420729637
1746476818734682000,3.20568212890625,-0.19124445638954637,-0.7416454652875661,-1.8477333145320414
1746476818744661000,3.215660888671875,-0.3242014859180897,-0.8697592195034026,-1.913630266548693
1746476818754640100,3.22564013671875,-0.4964987383186817,-0.9831605577558279,-2.0192463577523827
1746476818764619000,3.235618896484375,-0.5822229650944472,-0.9198258574426174,-2.231308268982172
1746476818774598100,3.24559814453125,-0.4388397090217098,-0.5485241091102362,-2.4779484493792054
1746476818784577000,3.255576904296875,-0.1914437783539295,0.05694353797137737,-2.6576760709762572
1746476818794556000,3.265555908203125,0.0034678953062742945,0.6645078650712967,-2.616590611872077
1746476818804535000,3.27553515625,0.11786642790250479,1.1334428891599178,-2.295572066839039
1746476818814514000,3.285513916015625,0.22510990111231802,1.4259581010252236,-1.9434230550050735
1746476818824493000,3.2954931640625,0.319938056319952,1.5601006140112876,-1.624856287038326
1746476818834472000,3.305471923828125,0.39631815269980575,1.6363965027064085,-1.382055246412754
1746476818844451000,3.315451171875,0.4536502881299704,1.6619938852995633,-1.1098872415274381
1746476818854430000,3.325429931640625,0.37663434153199193,1.5286305399924516,-0.8714493645474314
1746476818864409000,3.3354091796875,0.0199853148650378,1.271384209907055,-0.7405494867444038
1746476818874388000,3.345387939453125,-0.3887275149077177,0.8648819688558578,-0.680934099215269
1746476818884367000,3.3553671875,-0.7109767707794904,0.4812146599471569,-0.6680769557297229
1746476818894346000,3.365345947265625,-1.0017314027130604,0.17611118466556072,-0.6270458571612835
1746476818904325000,3.3753251953125,-1.2794716547727585,-0.208772514295578,-0.5098632468044757
1746476818914303000,3.385302978515625,-1.5046125355452298,-0.561650132665038,-0.3765706286460161
1746476818924282400,3.395282470703125,-1.618629375347495,-0.8230845620900392,-0.24692484255731104
1746476818934261200,3.40526123046875,-1.5482909337520598,-1.0157815553754568,-0.10346446612775326
1746476818944240400,3.415240478515625,-1.3232324705660343,-1.0730752219587565,0.00677694678902626
1746476818954219300,3.42521923828125,-0.9505909980624914,-0.9941460621505975,0.10976444305479525
1746476818964198400,3.435198486328125,-0.5331885928124189,-0.7975263424634933,0.20983225248157977
1746476818974177300,3.44517724609375,-0.24652323948647825,-0.5341010314822197,0.3248293354928493
1746476818984156400,3.455156494140625,-0.028741525837779044,-0.3330447906523943,0.47705111052691934
1746476818994135300,3.46513525390625,0.16771401626355945,-0.1163029049128294,0.5955792902737855
1746476819004114200,3.4751142578125,0.2707856106162071,0.1250777475208044,0.6578577595323324
1746476819014093000,3.485093017578125,0.3348789472769946,0.39046296039819717,0.7636848631381988
1746476819024072200,3.495072265625,0.3469693441737443,0.605246697807312,0.760392835855484
1746476819034051000,3.505051025390625,0.40933498025909065,0.8132388753801584,0.7026338898479938
1746476819044030200,3.5150302734375,0.40592999412119385,0.9262409851819277,0.5618395177572966
1746476819054009000,3.525009033203125,0.2572609431326389,0.9214712865620851,0.5219418071329593
1746476819063988200,3.53498828125,-0.002858312040567398,0.7979530434429645,0.4495423413544893
1746476819073967000,3.544967041015625,-0.32116840183250606,0.5753472341060638,0.34655309152305125
1746476819083946200,3.5549462890625,-0.6584604016005993,0.27898002298772334,0.21421967378556728
1746476819093925000,3.564925048828125,-0.9213046978235244,0.015123919373750686,0.10650865612924099
1746476819103904300,3.574904296875,-1.1173428182303904,-0.21661738257706165,0.01912088005542755
1746476819113883100,3.584883056640625,-1.2698235364615917,-0.36906536758244035,-0.041669980993866915
1746476819123862300,3.5948623046875,-1.3651976351141928,-0.48237902755141254,-0.05259937128722667
1746476819133841200,3.604841064453125,-1.3943851511538028,-0.5390776508510112,-0.01608311979472637
1746476819143820300,3.6148203125,-1.370755269241333,-0.47870998364984985,0.13536299469172955
1746476819153799200,3.624799072265625,-1.269414371138811,-0.41002632352411744,0.3635404666811228
1746476819163778300,3.6347783203125,-1.148745087710023,-0.298809343573451,0.6360492478281259
1746476819173757400,3.64475732421875,-0.9621750528723001,-0.18816051889955995,0.8839081563651561
1746476819183736300,3.654736328125,-0.779108057719469,-0.13240005323290824,1.0459013838291167
1746476819193715500,3.664715576171875,-0.6367308003515004,-0.04129121080935001,1.2101117028206587
1746476819203694300,3.6746943359375,-0.5001146272609011,0.06196925717890262,1.351411686345935
1746476819213673500,3.684673583984375,-0.4081547209659591,0.17567045516073704,1.5040642540127038
1746476819223652400,3.69465234375,-0.4181663753598928,0.28217385059297084,1.6906044782340526
1746476819233631500,3.704631591796875,-0.41091600237283854,0.34486674587130545,1.7895120117098091
1746476819243610400,3.7146103515625,-0.38009646468460556,0.43595396098494527,1.9317156660765409
1746476819253589200,3.72458935546875,-0.4349351393312216,0.48797407107949253,2.0862492251843214
1746476819263568100,3.734568115234375,-0.46433246219661084,0.5170172102123498,2.2287574154555796
1746476819273547300,3.74454736328125,-0.5196504447927698,0.5095768310785294,2.3297218814611433
1746476819283526100,3.754526123046875,-0.5652150951376185,0.4762602524101734,2.3904835164159537
1746476819293505300,3.76450537109375,-0.559505521851778,0.39632805303931234,2.4213345817536114
1746476819303484200,3.774484130859375,-0.5786544224252924,0.29880349835455416,2.4056775784164666
1746476819313463300,3.78446337890625,-0.5489298403669148,0.23942133505940436,2.3252345069140192
1746476819323442200,3.794442138671875,-0.47782625961787994,0.2036088479220867,2.2097066780269143
1746476819333421300,3.80442138671875,-0.3205716780483723,0.20090660322606563,2.0811130313396453
1746476819343400200,3.814400146484375,-0.19707966534905136,0.27923838166296483,2.0098697498589755
1746476819353379300,3.82437939453125,-0.04099376223273575,0.390213369551301,1.9779577772915362
1746476819363358200,3.834358154296875,0.12120996617674827,0.5644587603449821,1.9901064802467823
1746476819373337300,3.84433740234375,0.23096849094741045,0.7016933941274881,2.0116729998886584
1746476819383316200,3.854316162109375,0.33937757387049494,0.7197960370510816,1.9856448246628045
1746476819393295400,3.86429541015625,0.4285972415465861,0.7113917813211679,1.8063526718735694
1746476819403274200,3.874274169921875,0.5280197388071567,0.6933546048492193,1.6319927147895097
1746476819413253400,3.88425341796875,0.5466776775259524,0.6166928054511547,1.5153782597094774
1746476819423232300,3.894232177734375,0.4206179332304746,0.48106911399662494,1.347218910831213
1746476819433211400,3.90421142578125,0.3421621630877256,0.39117549258172507,1.105261919814348
1746476819443190300,3.914190185546875,0.23445414110608398,0.41550387815237044,0.8032184166252613
1746476819453169400,3.92416943359375,-0.4509007702261209,0.8503671212911605,0.568347584477067
1746476819463148300,3.934148193359375,-1.7359370733886956,1.0802537352859973,0.46102878100872036
1746476819473127400,3.94412744140625,-1.896584146940708,0.40176527565717696,1.00387659804821
1746476819483106300,3.954106201171875,-0.7581381887964904,0.7835802346974611,0.9593044658720493
1746476819493085400,3.96408544921875,-0.18179039934575555,1.1731190659880637,0.5512567489445209
1746476819503064000,3.97406396484375,-0.37591472202055154,0.8727344359219074,0.6471656851261853
1746476819513043200,3.984043212890625,-0.20000424755886195,0.48685704974830146,0.9202192406743764
1746476819523022000,3.99402197265625,0.2792506566226482,0.3159042707592249,0.8277326801568269
1746476819533001200,4.004001220703125,0.6125847856104374,0.10977671801447868,0.6448965711504221
1746476819542980000,4.01397998046875,0.7527683323264122,-0.11336743598282337,0.33086861565709114
1746476819552959200,4.023959228515625,0.54366790125072,-0.25205226857364177,-0.09177578189969063
1746476819562938000,4.033938232421875,0.3851408885926008,-0.28473405646979805,-0.5326005637913942
1746476819572917200,4.043917236328125,0.5136509486496448,0.024673253485560417,-1.0898229431420563
1746476819582896000,4.053896240234375,0.7447019302487373,0.5301449873328209,-1.5150444977104662
1746476819592875300,4.063875244140625,0.9543927284330129,1.0225614247739314,-1.7069792744517325
1746476819602854100,4.073854248046875,1.2086821084089576,1.5768822374641895,-1.5894892055809497
1746476819612833300,4.083833251953125,1.30684233064875,1.8960241749703883,-1.1904010401785372
1746476819622812200,4.093812255859375,1.0935888715468347,1.8157862706512211,-0.6017571021258831
1746476819632791300,4.103791259765625,0.7332472009070217,1.4552262810856103,-0.21671207512319088
1746476819642770200,4.113770263671875,0.3596697627276182,1.0637211181581019,-0.04450374311506748
1746476819652749300,4.123749267578125,-0.045060646345466374,0.3492255256026983,-0.043051206219196315
1746476819662728200,4.133728271484375,-0.3395597255043685,-0.19358020586073396,-0.09650514850914478
1746476819672707300,4.143707275390625,-0.4241711687326431,-0.5030670107930898,0.04571311890482902
1746476819682686200,4.153686279296875,-0.3966803736083209,-0.9550012157201766,0.09003156858086585
1746476819692665300,4.163665283203125,-0.28100699877068397,-1.2593319530636071,-0.14145195921659467
1746476819702644200,4.173644287109375,-0.07021919912993907,-1.5040654230564832,-0.25901509332358835
1746476819712623400,4.183623291015625,-0.04559036930799484,-1.6358406223893165,-0.5056383225858211
1746476819722602200,4.193602294921875,-0.08114040611684321,-1.5695616853177548,-0.7478443199276924
1746476819732581400,4.203581298828125,0.0006182780288159846,-1.4024515532314776,-0.9032014703780412
1746476819742560500,4.213560546875,0.21898352718651293,-1.0983429342061282,-1.1460790833711623
1746476819752539100,4.2235390625,0.3533155713953078,-0.7669464952826499,-1.2779139039367438
1746476819762518300,4.233518310546875,0.4152490266084671,-0.32598201265931126,-1.3233768474727867
1746476819772497200,4.2434970703125,0.4035521590739488,0.11711480581760406,-1.2349188118189574
1746476819782476300,4.253476318359375,0.25374270587861536,0.5312397968322038,-1.0420715964078902
1746476819792455200,4.263455078125,-0.09089607645571231,0.8362772211402654,-0.7806506109863519
1746476819802434300,4.273434326171875,-0.4576214567832648,1.2082827338278292,-0.6519821454972028
1746476819812413200,4.2834130859375,-0.8202328259207308,1.4488064771711826,-0.7826631198525428
1746476819822392300,4.293392333984375,-1.0945922033704816,1.914180593907833,-1.134867369005084
1746476819832371200,4.30337109375,-1.5492600710451603,-0.3458212701171636,0.2064671599626541
1746476819842350300,4.313350341796875,-1.514652137392014,-0.04749415710270405,0.23320143763124943
1746476819852329200,4.3233291015625,-1.3431534149579702,0.20683950040638446,-0.46699791854619976
1746476819862308400,4.333308349609375,-0.7169416705332696,-0.22055472202599047,-0.07002747595012188
1746476819872287200,4.343287353515625,-0.2707300810366869,-0.13683248272240162,-0.3233154237985611
1746476819882266400,4.353266357421875,0.1713712966620922,-0.5228215125769377,-0.21425825223028658
1746476819892245200,4.363245361328125,0.42788229821026325,-0.8788573027163743,-0.34365503199398517
1746476819902224400,4.373224365234375,0.7179658990144729,-1.4186024775654076,-0.7017448320537805
1746476819912203300,4.383203369140625,0.7843664166390896,-1.722819817662239,-0.906314633962512
1746476819922182400,4.393182373046875,0.5257610731601715,-1.4691916780740022,-1.3005775711655616
1746476819932160800,4.403160888671875,-0.06834113029837607,-1.391464295271039,-0.9543734392106532
1746476819942140000,4.413139892578125,-0.28039252013415095,-1.1921803248107432,-0.7277110479593276
1746476819952118800,4.423118896484375,-0.31909400671124455,-0.9893453838706016,-0.5590139389425516
1746476819962098000,4.433097900390625,-0.2013634070828557,-0.9187918382197618,-0.23130466409921643
1746476819972076500,4.44307666015625,-0.06835282073616981,-0.6761801826864481,-0.3367296166449785
1746476819982055700,4.4530556640625,-0.16482611280232667,-0.5267874935984611,-0.2764472896397114
1746476819992034600,4.46303466796875,-0.2767436422377825,-0.41616964858472344,-0.4406643306329846
1746476820002013700,4.473013671875,-0.5471060590058565,-0.01432253986299038,-0.8609040051355957
1746476820011992600,4.48299267578125,-0.8067733326278627,0.2470265493661165,-1.5972031409591436
1746476820021971700,4.4929716796875,-1.0339975955456495,0.17484978642761706,-2.1173753080710767
1746476820031950600,4.50295068359375,-0.7449325241342186,-0.18750176272988317,-1.914294283415377
1746476820041929700,4.5129296875,0.07850596596002578,-0.6435697064608336,-1.6350442113146184
1746476820051908600,4.52290869140625,0.9743497670516371,-1.1377163286954164,-0.8141343629151582
1746476820061887700,4.5328876953125,1.7228244938373565,-1.9148533786028623,1.1646163183197378
1746476820071866600,4.54286669921875,1.422078336982429,-1.4930255581259726,1.749733543550968
1746476820081844700,4.5528447265625,0.6153983817264437,-0.7155740354418754,1.9202096449390054
1746476820091823900,4.562823974609375,-0.12032704586237668,-0.7654220621943474,1.6551669618889688
1746476820101802800,4.572802734375,-0.22490093453675508,-1.1727478945881127,1.303782504686713
1746476820111782000,4.582781982421875,0.007606383350491523,-1.3442787657260895,0.9046557608395814
1746476820121760800,4.5927607421875,0.28218554103076454,-1.408144796437025,0.37504444199204445
1746476820131740000,4.602739990234375,0.5010667768865823,-1.369829971089959,0.1800333265453577
1746476820141718800,4.61271875,0.783744485348463,-1.3347533970117569,0.01859977879077196
1746476820151698000,4.622697998046875,1.1581021141201258,-1.1134282751351594,-0.03490969307869673
1746476820161676800,4.6326767578125,1.4818065372362732,-0.7588760015517473,-0.3913201617494225
1746476820171655700,4.64265576171875,1.4620280700549482,0.26698388024568553,-1.9212299278974532
1746476820181634600,4.652634521484375,1.2353449282765387,-0.14156301837563515,-1.707082734826207
1746476820191613700,4.66261376953125,1.1014616507485508,-0.7074199550807475,-1.2164675015881656
1746476820201592600,4.672592529296875,1.2662649671971797,-0.6252560511350631,-1.1605778565838933
1746476820211571700,4.68257177734375,1.4116665408223867,-0.5917939265161752,-0.5636123726487159
1746476820221550600,4.692550537109375,1.5239739463582633,-0.46963352774679656,-0.39644466515630483
1746476820231529700,4.70252978515625,1.4987316608130932,-0.12459902409315109,-0.865735663075745
1746476820241508600,4.712508544921875,1.2876099530428646,-0.24751170253455637,-1.1679080533415078
1746476820251487700,4.72248779296875,0.8450394965276121,-0.3803665137976408,-1.4274913019418716
1746476820261466600,4.732466552734375,0.22884791859686374,-0.3352338251292705,-1.7926508942574262
1746476820271445800,4.74244580078125,-0.2990837766006589,0.008078677037358284,-2.042421773895621
1746476820281424600,4.752424560546875,-0.567761893543601,0.3540571835428476,-2.1760113291740417
1746476820291403800,4.76240380859375,-0.49398032575696704,0.4777981295019388,-1.986578306120634
1746476820301382700,4.772382568359375,-0.19356997672766446,0.513488451564312,-1.7554247409299015
1746476820311361800,4.78236181640625,-0.059497314107418056,0.6203478208273648,-1.7651082228153943
1746476820321340700,4.792340576171875,-0.015036241090297699,0.5401040712893009,-1.688044856879115
1746476820331319800,4.80231982421875,0.01277092650681734,0.24295009370744228,-1.4828104535818099
1746476820341299000,4.812298828125,-0.030865970645844936,0.06451075835525989,-1.536968452487886
1746476820351277800,4.82227783203125,-0.2683791339963674,0.1648743358582258,-1.111857080295682
1746476820361257000,4.832257080078125,-0.3478314408957958,0.7059925526261329,-0.7897773357719182
1746476820371235800,4.84223583984375,-0.3122743898242712,1.070017003431916,-0.9965142525866627
1746476820381215000,4.852215087890625,-0.5480569299899042,0.9440566278576851,-1.1137725585281848
1746476820391193900,4.86219384765625,-0.900302680196613,0.8335562717437743,-1.1934858544513582
1746476820401173000,4.872173095703125,-1.1033359201878308,0.8515408412456512,-1.0727703937932849
1746476820411152000,4.88215185546875,-1.1618524065643547,0.9227537275880575,-0.8605375099107623
1746476820421130800,4.892130859375,-1.0219950230628252,0.9860685541570186,-0.6751651604250073
1746476820431109600,4.902109619140625,-0.702251320271194,0.9034510612249373,-0.3946729793086648
1746476820441088800,4.9120888671875,-0.25998189252912995,0.7267495094507932,-0.18126900582015512
1746476820451067600,4.922067626953125,0.14998480976223943,0.6604015987962484,-0.05395020137429237
1746476820461046800,4.932046875,0.34107875176519153,0.4618167165160179,0.08273702765852213
1746476820471025700,4.942025634765625,0.30158173089623447,0.09113280782103537,0.22104718171805143
1746476820481004800,4.9520048828125,0.2799810167238116,-0.2874520832568407,0.29737288102954623
1746476820490983700,4.961983642578125,0.2695323956847191,-0.5576689540743828,0.30308395215272904
1746476820500962800,4.971962890625,0.31656857988685366,-0.8882721967935562,0.31364509365558624
1746476820510941700,4.981941650390625,0.5398831220149993,-1.0383370860546828,0.2776256857693195
1746476820520920800,4.9919208984375,0.7759066313296556,-1.0985095229446888,0.2412678397089243
1746476820530899700,5.001899658203125,1.0785621289372445,-1.1640589766979217,0.2299135020017624
1746476820540878800,5.01187890625,1.2953484383404255,-1.2133902860999106,0.1921118868738413
1746476820550857700,5.021857666015625,1.2977236430391668,-1.008897056558728,0.07391513103842735
1746476820560836900,5.0318369140625,0.3820011292621493,-0.38088790732324124,0.39896249319612975
1746476820570815700,5.041815673828125,0.5119277781188488,-0.23910218610763548,0.1887251670449972
1746476820580795000,5.051794921875,0.5964423368439078,0.15684534318149088,0.22057401124835013
1746476820590773800,5.061773681640625,-0.040778585112094874,0.6527718345701694,0.4247890083700418
1746476820600753000,5.0717529296875,-0.08799100266396999,0.5442495005309581,0.17393500967025755
1746476820610731800,5.081731689453125,-0.21632219902276992,0.6605974136292934,-0.07153437338173389
1746476820620711000,5.0917109375,-0.3834574655503034,0.7357955702155828,-0.21844576704800128
1746476820630689800,5.101689697265625,-0.7083861697643995,0.7247679802447557,-0.43421676192879677
1746476820640669000,5.1116689453125,-0.9974503643929957,0.8532412154227494,-0.5089315189123154
1746476820650647800,5.121647705078125,-1.1626219296321272,0.9138841924339532,-0.41624622095227237
1746476820660626700,5.131626708984375,-1.165345509377122,0.7339595869600772,-0.2951695257663727
1746476820670605600,5.14160546875,-1.226342122131586,0.4929682261049747,-0.23320026858747003
1746476820680584700,5.151584716796875,-1.4406550271585583,0.5882236668139695,0.14710019423663614
1746476820690563600,5.1615634765625,-0.8639555016607046,-0.37242929105758665,-0.5619102449059487
1746476820700542700,5.171542724609375,-0.28730595278441906,-1.1945926466494798,-1.4677321269154548
1746476820710521600,5.181521484375,-0.4847941258691251,-0.5382756868183612,-0.15375672951638697
1746476820720500700,5.191500732421875,-0.4732603399418294,-0.5670926159799099,-0.37740474138259883
1746476820730479600,5.201479736328125,-0.4240247459992766,-0.6823685159325599,-0.25140870997309683
1746476820740458800,5.211458740234375,-0.3343452057264745,-0.47418227709233757,0.287393631067872
1746476820750437600,5.221437744140625,-0.20330723462700842,-0.4729477668613195,0.3545774080246687
1746476820760416800,5.231416748046875,-0.10920973178148269,-0.3573047871619463,0.6060591832339763
1746476820770395600,5.241395751953125,0.06186535841301083,-0.05179039299190044,1.0970125623852014
1746476820780374800,5.251374755859375,0.1436798643991351,0.2564519648373127,1.4882757332503795
1746476820790353700,5.261353759765625,0.07286196872368454,0.6474392413705587,1.7725713983029125
1746476820800332800,5.271332763671875,-0.4299857002303004,1.0034744469881056,1.934214497154951
1746476820810311700,5.281311767578125,-1.0232564213007689,1.300707335025072,2.065286516654491
1746476820820290800,5.291290771484375,-1.4417694181412457,1.4469173024237154,2.2508558500170706
1746476820830269700,5.301269775390625,-1.7745856607347725,1.1690817732959986,2.098948547759652
1746476820840248800,5.311248779296875,-1.657341383318603,0.7737018147617578,1.9859353320419788
1746476820850227700,5.321227783203125,-1.6156448065787552,0.6565531066745519,1.6682371636033058
1746476820860206800,5.331206787109375,-1.3676067420825362,0.6261223125755786,1.799108107572794
1746476820870185700,5.341185791015625,-0.83017013643682,0.70506550090909,2.029020440530777
1746476820880164900,5.351164794921875,-0.18092150755673647,0.7030564991742372,2.1553934885591266
1746476820890143700,5.361143798828125,0.193805831310153,0.4922007488638162,2.1980261771053073
1746476820900123000,5.371122802734375,0.5184551340609789,0.5611667330622673,2.3430437198489904
1746476820910101800,5.381101806640625,-0.6214882230341434,3.179469994071126,4.81850269050002
1746476820920080600,5.39108056640625,-0.19517887322902677,-0.31304771228432654,1.4794798478543758
1746476820930060300,5.401060302734375,1.3700567655831575,-1.3096475973278283,-0.3402314872860908
1746476820940039400,5.411039306640625,1.6096704083442688,-0.7723790417253971,0.14520985044538973
1746476820950018300,5.421018310546875,0.8242495142161845,-0.8599819218546152,0.8977736001104116
1746476820959997400,5.43099755859375,0.6248521465092897,-0.5863870990365744,1.5727718795359134
1746476820969976300,5.440976318359375,0.708696550887823,-0.3131388976991176,1.1925368831634522
1746476820979955500,5.45095556640625,0.8869386101022362,-0.06903320421576499,0.9226490981698036
1746476820989934300,5.460934326171875,0.9193290138363838,0.10571429088115691,1.202501812338829
1746476820999913500,5.47091357421875,0.40944764685332774,0.16093524284362792,1.0755237841546534
1746476821009892400,5.480892333984375,-0.3128554045826196,0.297625102224946,0.7123433829575777
1746476821019871500,5.49087158203125,-0.057546180039644235,0.40780397129952906,1.0370651664227246
1746476821029850400,5.500850341796875,-0.2063727596774697,0.30170038883984085,0.8467471772283315
1746476821039829500,5.51082958984375,-0.19864450351297855,0.395398078712821,0.8763356752842664
1746476821049808400,5.520808349609375,-0.094384210832417,0.38974516751766203,0.9219120160669088
1746476821059787500,5.53078759765625,0.0034089316606521606,0.39564883860349653,0.7679226468384266
1746476821069766400,5.540766357421875,0.12210486918985843,0.34978725113868714,0.7720598927736282
1746476821079745300,5.550745361328125,0.3846919757813215,0.3054161944925785,0.7641963197916746
1746476821089724400,5.560724365234375,0.717367056338489,0.3299403948962688,0.6444774689555168
1746476821099703300,5.570703369140625,0.9924491951048373,0.4097188650101423,0.3820832545876503
1746476821109682400,5.580682373046875,1.0044003296613693,0.47272915567457674,0.30205344006121154
1746476821119661300,5.590661376953125,0.8225856726571917,0.4946317754030227,0.3141343384772539
1746476821129640400,5.600640380859375,0.6385495402112603,0.5027548761039972,0.17209318119585512
1746476821139619300,5.610619384765625,0.45377340305298564,0.45073885766267774,-0.02988835778534412
1746476821149598500,5.620598388671875,0.27271920902729035,0.23010990135669707,-0.06147533618211746
1746476821159577300,5.630577392578125,0.1971536804333329,0.2898164743006229,-0.24892975263893602
1746476821169556500,5.640556396484375,0.17747896588742731,0.36797757234573364,-0.3151759564846754
1746476821179535400,5.650535400390625,-0.07150982346236705,0.4539601577967405,-0.09769231246709822
1746476821189514500,5.660514404296875,-0.3007411884188652,0.8359528114914894,-0.07677636568844318
1746476821199493400,5.670493408203125,-0.41638036872595546,1.2319950333267449,-0.12333821037709712
1746476821209472500,5.680472412109375,-0.5349056258633732,1.4666940160393713,-0.09947451970875262
1746476821219451400,5.690451416015625,-0.5236667312294244,1.73458624330163,-0.17972586803138255
1746476821229430500,5.700430419921875,-0.5901318385228514,1.9569716878861187,-0.30247663390934465
1746476821239409400,5.710409423828125,-0.8483642570361495,1.8872879108071325,-0.18548516221046446
1746476821249388500,5.720388427734375,-1.0324290310546755,1.7192992423206568,-0.10425415520071983
1746476821259367400,5.730367431640625,-1.2779440068140626,1.3366414027154445,-0.0396925434410572
1746476821269346600,5.7403466796875,-1.2864955620601772,0.7941331928938626,0.1070347258299589
1746476821279325400,5.750325439453125,-0.9402887997567653,0.1751882246017456,0.12720599172115324
1746476821289304600,5.7603046875,-0.598545738863945,-0.0829582691937685,0.3078454674661159
1746476821299283500,5.770283447265625,-0.22573066335916517,-0.5233955130726099,0.23776596906781194
1746476821309262300,5.780262451171875,0.12530658784061668,-1.0273030663430691,0.0923515359610319
1746476821319241200,5.7902412109375,0.5636825152754783,-1.2209206816047429,0.12349953841865062
1746476821329220400,5.800220458984375,0.9503069204241037,-1.325107032266259,0.15636895784139632
1746476821339199200,5.81019921875,1.449850141005218,-1.4610206465780735,0.13700550120174884
1746476821349178400,5.820178466796875,1.6264216366589068,-1.090989064311981,0.13958558082282543
1746476821359157200,5.8301572265625,1.1360448883518577,-0.950992564600706,0.4365799839287996
1746476821369136400,5.840136474609375,1.1054518894284964,-1.5239964504510164,-0.03520399985015392
1746476821379115300,5.850115234375,1.4108423649579285,-1.307328214469552,-0.6689946550965309
1746476821389094400,5.860094482421875,1.6001377331063151,-0.7812333793103694,-0.9266904825150966
1746476821399073300,5.8700732421875,1.6409768162339924,-0.3484393436610698,-0.7421218506276607
1746476821409052400,5.880052490234375,1.4173957321241497,-0.12621405807435512,-0.7984247526079415
1746476821419031300,5.89003125,0.5931625845208763,0.12285656433999538,-0.8044932588666677
1746476821429010400,5.900010498046875,0.10566139165014028,0.15961246980726718,-1.0411907219201326
1746476821438989300,5.9099892578125,-0.01815510376319289,-0.047100773870944974,-1.2970067269414662
1746476821448968400,5.919968505859375,-0.2752716699890792,-0.22538579544425008,-1.5666092652529477
1746476821458947300,5.929947265625,-0.4940682963013649,-0.2152460942238569,-1.6589187156379221
1746476821468926500,5.939926513671875,-0.7688736639529467,-0.12211714414954185,-1.641501716890931
1746476821478905300,5.9499052734375,-1.0153995703205465,-0.026771687069535255,-1.3731044627159834
1746476821488884500,5.959884521484375,-1.0399076963722704,0.14125439081788063,-0.9623884033620357
1746476821498863400,5.96986328125,-1.0568436336040496,0.17501111446917056,-0.8024427560776471
1746476821508842500,5.979842529296875,-1.080912783716619,0.1599210973650217,-0.6116606565028428
1746476821518821400,5.9898212890625,-1.0415784060634672,0.06670505352914333,-0.3590694587469101
1746476821528800500,5.999800537109375,-0.7835615299969911,-0.08089139979183674,-0.1508168766722083
1746476821538779400,6.009779296875,-0.526793338817358,-0.35150165384113785,-0.12507482491135596
1746476821548758500,6.019758544921875,-0.3458540033429861,-0.5825777698814869,-0.20594693548083304
1746476821558737200,6.029737060546875,-0.28776582538112994,-0.7511094592034816,-0.4052037256732583
1746476821568716300,6.03971630859375,-0.2179896938435733,-0.882515240702033,-0.6253934137791395
1746476821578695400,6.0496953125,-0.5071731309376657,-1.0721908403396605,-0.7287497433573007
1746476821588674300,6.05967431640625,-0.5995692366927862,-1.1925269462913275,-0.5894599306106567
1746476821598653400,6.0696533203125,-0.23512173816934226,-1.1069114405870437,-0.6626631139874458
1746476821608632300,6.07963232421875,-0.0002813011594116688,-0.5082482128232717,-0.5337593784376978
1746476821618611500,6.089611572265625,-0.27207667334005237,-0.463131306245923,-0.5544564217686653
1746476821628590300,6.09959033203125,-0.8562291451923548,-1.2039999419420957,-1.3471429229855536
1746476821638569500,6.109569580078125,-0.27241350407898424,-0.9721756378829479,-0.7605106170162558
1746476821648548400,6.11954833984375,-0.19189254503473638,-0.5418313334733248,-0.4181836187556386
1746476821658527500,6.129527587890625,-0.31280966574475166,-0.7322358319073915,-0.6484069173589349
1746476821668506400,6.13950634765625,-0.2341464633964002,-0.9259528158903121,-0.5182280473068356
1746476821678485500,6.149485595703125,-0.0204268480874598,-0.9092577016770839,-0.5043482827752829
1746476821688464400,6.15946435546875,0.10488032427504658,-0.9705874919086694,-0.5372369914203882
1746476821698443500,6.169443603515625,0.20710531173571944,-0.9655126728624105,-0.56311056060642
1746476821708422400,6.17942236328125,0.22657412844598293,-0.9978893403321504,-0.48048050045371055
1746476821718401500,6.189401611328125,0.22412965790331363,-1.0646294651746748,-0.44043782840073104
1746476821728380400,6.19938037109375,0.25244170628264545,-1.1286106466978787,-0.4400236946418881
1746476821738359600,6.209359619140625,0.3213783182561397,-1.2939695512026548,-0.5278796727493406
1746476821748338400,6.21933837890625,0.49882060539498924,-1.484393338859081,-0.7420961316645145
1746476821758317600,6.229317626953125,0.7549895155072212,-1.5326345149368046,-0.9834861364483832
1746476821768296400,6.23929638671875,1.0098644402861594,-1.4641425779908894,-1.1732441536724567
1746476821778275600,6.249275634765625,1.1604219353698193,-1.1794681427538394,-1.4106728536099196
1746476821788254500,6.25925439453125,1.0898615215867757,-0.8313929562300443,-1.459016613279283
1746476821798233600,6.269233642578125,0.9245460178323089,-0.5585556737810373,-1.39583564222306
1746476821808212200,6.279212158203125,0.720345487627387,-0.3541302487790584,-1.3771090221822262
1746476821818191400,6.28919140625,0.41530061066523194,-0.21243103680312633,-1.4070111162319778
1746476821828170200,6.299170166015625,0.13625804383531212,-0.17365034750998018,-1.4214321480333805
1746476821838149400,6.3091494140625,-0.03568973754048347,-0.22333529265522956,-1.4829717816233634
1746476821848128300,6.319128173828125,-0.11698796456754207,-0.3179892603397369,-1.5903253641441464
1746476821858107400,6.329107421875,-0.2328840422451496,-0.30386545791923997,-1.7025260944351552
1746476821868086300,6.339086181640625,-0.42639922004565595,-0.3583271159470081,-1.6541060546591877
1746476821878065400,6.3490654296875,-0.4659631686709821,-0.5200462026447057,-1.6569062067717313
1746476821888044300,6.359044189453125,-0.42153190627023573,-0.6139671798795461,-1.7848986726954579
1746476821898023400,6.3690234375,-0.30201705357357855,-0.7102753445118666,-1.8243594532072542
1746476821908002300,6.379002197265625,-0.2242348718434572,-0.8568389476537704,-1.7741978304609656
1746476821917981400,6.3889814453125,-0.25004575105682014,-1.0237269614219664,-1.6727195697143673
1746476821927960600,6.398960693359375,-0.212022309871763,-1.1708148806989191,-1.5829709097281097
1746476821937939700,6.408939697265625,-0.04280497637316584,-1.253498424604535,-1.593891824454069
1746476821947918600,6.418918701171875,0.22597426285669206,-1.13890290813148,-1.6761691256463527
1746476821957897700,6.428897705078125,0.5050000246822833,-0.7734428715646267,-1.7636285056516527
1746476821967876600,6.438876708984375,0.7440624633014201,-0.22067279544770715,-1.8912164824277162
1746476821977855700,6.448855712890625,0.843484376040101,0.3998112189799547,-1.8956205626055598
1746476821987834600,6.458834716796875,0.9162798553988337,1.0327642543584108,-2.075362212727964
1746476821997813800,6.468813720703125,1.058482048460841,1.601892760080099,-2.377358369643986
1746476822007792600,6.478792724609375,0.9138267631582915,1.4680378318637608,-2.1023042879283427
1746476822017771800,6.488771728515625,0.3195657158762216,0.8798159186154604,-1.5486948383778332
1746476822027750700,6.498750732421875,-0.23896716155111788,0.8068430368632078,-1.5894108796477318
1746476822037729800,6.508729736328125,-0.6005284371137619,0.9635580316632986,-1.8228823663920164
1746476822047708700,6.518708740234375,-0.9048381316691636,0.8441156596809625,-1.9620564438045023
1746476822057687800,6.528687744140625,-1.2972072179496288,0.6113952835649251,-1.9377853413790462
1746476822067666400,6.53866650390625,-1.630222197985649,0.49098845046460626,-1.7925567862331866
1746476822077645600,6.5486455078125,-1.8825540141530335,0.41638007646501063,-1.6186749680548906
1746476822087624400,6.55862451171875,-2.0283932485431433,0.33316461763978,-1.3549059582024812
1746476822097603600,6.568603515625,-2.17554838783741,0.22016893757879732,-0.9262877469331026
1746476822107582500,6.57858251953125,-2.2251912474066016,0.1330856974095106,-0.5083177709281445
1746476822117561600,6.5885615234375,-2.219619146362692,0.014658639949560164,-0.008819266271591186
1746476822127540500,6.59854052734375,-2.1335212639689445,-0.2334381689965725,0.44262920096516606
1746476822137519600,6.60851953125,-1.8329589392483234,-0.46884559223949906,0.6982663422882557
1746476822147498500,6.61849853515625,-1.3722539833664893,-0.6057599080264569,0.8796037371695041
1746476822157477600,6.6284775390625,-0.8481663963764905,-0.5627554635584354,1.219165362370014
1746476822167456500,6.63845654296875,-0.26007768105380236,-0.33180911137759683,1.2767109578877687
1746476822177435600,6.648435546875,0.1803951455950737,-0.3439385251104832,1.1598515881359577
1746476822187414500,6.65841455078125,0.47961606564410025,0.014070026406645774,1.2202058113336562
1746476822197393700,6.6683935546875,0.645405689716339,0.4735451482325792,1.2776684047430753
1746476822207372500,6.67837255859375,0.6708511696834116,0.8162760511189698,1.432962426829338
1746476822217351700,6.6883515625,0.6934719476185739,1.0792577099859715,1.5321078607141971
1746476822227330600,6.69833056640625,0.7084592350006103,1.2896300606936215,1.5546914484441279
1746476822237309700,6.708309814453125,0.6088327396005392,1.502866568660736,1.4701649070203304
1746476822247288600,6.71828857421875,0.30556627048775553,1.6285580641657114,1.4441601126700638
1746476822257267700,6.728267822265625,0.01907762543559074,1.6165186668038367,1.4141583576381205
1746476822267246800,6.738246826171875,-0.2379518470287323,1.5102560943901537,1.274541212633252
1746476822277225700,6.748225830078125,0.06579385696835816,1.5784417418658732,1.129591474428773
1746476822287204900,6.758204833984375,-0.7030142674677073,1.2285387553930283,1.0990542973458766
1746476822297183700,6.768183837890625,-2.3441823684900998,0.6032657531231641,1.2437380780905485
1746476822307163000,6.778162841796875,-1.1197270099531857,0.8238783428162336,1.3201006022810935
1746476822317141500,6.7881416015625,-1.5281769510060548,0.4063981961548328,1.0844383274942635
1746476822327120600,6.79812060546875,-1.939197546264529,0.19851883130669593,1.2752525757730007
1746476822337099500,6.808099609375,-1.8680238228887318,0.14935235707759856,1.297021924510598
1746476822347078700,6.81807861328125,-1.7918021684736012,-0.032391865038871766,1.47145260874331
1746476822357057500,6.8280576171875,-1.4358628244459628,0.0463631072461605,1.7672025647461413
1746476822367036700,6.83803662109375,-1.0055407318681477,0.25149405016899107,2.030136877340078
1746476822377015600,6.848015625,-0.6596323679894208,0.38458500827550884,2.3908564413815734
1746476822386994700,6.85799462890625,-0.42236097750552,0.46586628416776654,2.746653746590018
1746476822396973600,6.8679736328125,-0.2505115419376641,0.6409598162233829,2.988196311587095
1746476822406952700,6.87795263671875,-0.144278707075119,0.8297352521508932,3.1785476185292003
1746476822416931600,6.887931640625,-0.1748790125221014,0.9833066882282495,3.2770378033757206
1746476822426910700,6.89791064453125,-0.25869652889370914,1.140979129883647,3.3198627996236083
1746476822436889600,6.9078896484375,-0.322830197564885,1.2952946623265742,3.343558147987723
1746476822446868700,6.91786865234375,-0.41135494177937504,1.3693161763489246,3.3106250156790016
1746476822456847600,6.92784765625,-0.46423137644231316,1.3754209229648113,3.2809926784813404
1746476822466826800,6.93782666015625,-0.4418184691041708,1.396956462946534,3.2218717964708805
1746476822476805600,6.9478056640625,-0.5065478751787915,1.4024012843489646,3.0282652871251106
1746476822486784800,6.95778466796875,-0.5775175638824701,1.3019003442019224,2.9117659828573466
1746476822496763600,6.967763671875,-0.562274986565113,1.1683429376274346,2.752670230400562
1746476822506742800,6.97774267578125,-0.5122854689827189,1.094276999941468,2.5438562150508166
1746476822516721700,6.9877216796875,-0.48677992939148096,1.0500754546433686,2.3458552701383826
1746476822526700800,6.99770068359375,-0.4588589992215857,0.9506780918240547,2.241875255703926
1746476822536679700,7.0076796875,-0.4432423278948292,0.867609932515025,2.135176629960537
1746476822546658800,7.017658935546875,-0.45942543746531006,0.7987982620954514,2.0208914946109053
1746476822556637400,7.027637451171875,-0.49431496453881263,0.7166536473721266,1.8540216010212898
1746476822566616600,7.037616455078125,-0.4834610141018405,0.6205120714783668,1.6791659693747758
1746476822576595500,7.047595458984375,-0.36178865457773207,0.5849421609252691,1.5162147105336188
1746476822586574600,7.05757470703125,-0.15566281886603683,0.5928881514936685,1.3991969353497027
1746476822596553500,7.067553466796875,0.07493095701746642,0.5994973405003547,1.2685387573480604
1746476822606532600,7.07753271484375,0.33786366217620667,0.5888128648787736,1.2144617147237062
1746476822616511500,7.087511474609375,0.5733196007359772,0.5757096376776695,1.1254425380557775
1746476822626490600,7.09749072265625,0.6999187856703997,0.5691033712804318,1.0111217468708753
1746476822636469500,7.107469482421875,0.7193716741591691,0.56166533023417,0.9107119921386241
1746476822646448600,7.11744873046875,0.6764215902268886,0.5696732801228761,0.7879045276373624
1746476822656427500,7.127427490234375,0.6077601419329642,0.6012912381798029,0.6607908903747797
1746476822666406700,7.13740673828125,0.4412374543458223,0.6227320856153965,0.539727054670453
1746476822676385500,7.147385498046875,0.27259244084246453,0.6354214713186025,0.43749709877371784
1746476822686364700,7.15736474609375,0.09786248140223323,0.6522931111425161,0.35617373730540275
1746476822696343600,7.167343505859375,-0.02269756949841976,0.6807464676886796,0.30136253518760203
1746476822706322700,7.17732275390625,-0.09821312147080898,0.7382406252801418,0.22201018153131008
1746476822716301600,7.187301513671875,-0.19658347932994363,0.8008744838476181,0.11341244416832923
1746476822726280700,7.19728076171875,-0.3707791857630014,0.7575812855660915,0.1526362010538578
1746476822736259600,7.207259521484375,-0.5287719454139471,0.594625350549817,0.1785509790331125
1746476822746238700,7.21723876953125,-0.551562453892827,0.46014615295529365,0.05091302563548088
1746476822756217600,7.227217529296875,-0.5050819308120758,0.34857378369569775,-0.17871347611844537
1746476822766196700,7.23719677734375,-0.34276071350276466,0.37398821093738077,-0.4079506862938404
1746476822776175600,7.247175537109375,-0.04805296002924442,0.6113719026893377,-0.6977963866889476
1746476822786154800,7.25715478515625,0.20542269241102037,0.994484500324726,-0.9415092814624308
1746476822796133600,7.267133544921875,0.3665793959856033,1.45669986076951,-1.1097206527888774
1746476822806112500,7.277112548828125,0.484433658526279,1.8875187969535587,-1.2624182286411523
1746476822816091600,7.287091552734375,0.41797224102728064,2.1128946555256842,-1.4371896891355513
1746476822826070500,7.297070556640625,0.127296008092165,2.120931246986985,-1.3116378943622111
1746476822836049700,7.307049560546875,-0.32709443088062107,2.0513111827939747,-0.8506476917982101
1746476822846027500,7.317027587890625,-0.8420885377675295,1.306601069238782,-0.7020195573419332
1746476822856006700,7.327006591796875,-0.990491631296277,0.529728807747364,-0.850254308566451
1746476822865985500,7.336985595703125,-1.016476551902294,-0.06719312930703163,-0.9535258824706077
1746476822875964700,7.346964599609375,-1.0427144974213094,-0.7250742697149515,-0.9265700710058212
1746476822885943600,7.356943603515625,-1.126006601679325,-1.2981588195860385,-0.9293126477122307
1746476822895922700,7.366922607421875,-1.0270213998574762,-1.6739982113480567,-0.9399959542900324
1746476822905901600,7.376901611328125,-0.8413204760044812,-1.9557763406217097,-0.924834040993452
1746476822915880700,7.386880615234375,-0.5095177213024348,-2.1178642606317997,-0.8913391831487417
1746476822925859600,7.396859619140625,-0.1421837806224823,-2.2535154246151445,-0.8877735996216535
1746476822935838500,7.40683837890625,0.26800562450885773,-2.2877292443841695,-1.0317910254120826
1746476822945817300,7.4168173828125,0.6593705752480775,-2.1784218974471092,-1.15718032310009
1746476822955796500,7.42679638671875,0.9873784677118063,-2.0251719484090804,-1.34187170458436
1746476822965775600,7.436775634765625,1.2339040818184615,-1.7506360453486443,-1.4979700287908315
1746476822975754500,7.44675439453125,1.2823849118709563,-1.4541250418454408,-1.6082155333608388
1746476822985733600,7.456733642578125,1.2616641954034566,-1.1256722551584244,-1.7465373778581619
1746476822995712500,7.46671240234375,1.0398750362116842,-0.7809756051570177,-1.8128852885127067
1746476823005691600,7.476691650390625,0.733074036297202,-0.5292261189222336,-1.7452619510948657
1746476823015670500,7.48667041015625,0.3500094425220042,-0.31759763067364694,-1.624371718391776
1746476823025649700,7.496649658203125,-0.09553308860659598,-0.19338439102768898,-1.4959949293255805
1746476823035628500,7.506628662109375,-0.5085346285492182,-0.161563603875041,-1.3454349500238894
1746476823045607700,7.516607666015625,-0.8276163603007793,-0.12759119164645671,-1.2420073087751864
1746476823055586600,7.526586669921875,-1.1090005218207835,-0.11406593964099883,-1.1800275302022696
1746476823065565700,7.536565673828125,-1.290746497502923,-0.17654022373259068,-1.116092525908351
1746476823075544600,7.546544677734375,-1.3615356054753065,-0.2365431492745876,-1.0700409688293933
1746476823085523700,7.556523681640625,-1.4169506187051535,-0.1996183169811964,-0.9726841719269752
1746476823095502600,7.566502685546875,-1.4873358220517634,-0.19373451963961122,-0.7574708109289408
1746476823105481700,7.576481689453125,-1.4901485413849354,-0.3135416332811117,-0.5430547377884387
1746476823115460600,7.586460693359375,-1.2954957378566265,-0.4870557871907949,-0.38958267043232914
1746476823125439700,7.596439697265625,-0.9846469969213009,-0.6892156053483486,-0.3248533008903265
1746476823135418600,7.606418701171875,-0.616325214247778,-0.9193149853110313,-0.39062078130841255
1746476823145397800,7.616397705078125,-0.2491963676858693,-1.096039917960763,-0.46460956210494037
1746476823155376600,7.626376708984375,0.0961556044191122,-1.1440671590268612,-0.5254705657809973
1746476823165355500,7.63635546875,0.40698154900074,-1.128546933811903,-0.5064975697636604
1746476823175334400,7.64633447265625,0.7380506556659936,-1.0635428389817476,-0.45452772855162615
1746476823185313500,7.6563134765625,1.004720136200264,-0.9551946924656629,-0.4100368449181318
1746476823195292400,7.66629248046875,1.2054437110096214,-0.8300818736314773,-0.3910258549779653
1746476823205271600,7.676271484375,1.3491262057572602,-0.6568973900675773,-0.3609720774978399
1746476823215250400,7.68625048828125,1.383332426741719,-0.4986714061826467,-0.3958598510056734
1746476823225229600,7.6962294921875,1.3765917203098534,-0.3274965088754892,-0.3929571153014898
1746476823235208400,7.70620849609375,1.2572276742607353,-0.1652373239517212,-0.3481716326355934
1746476823245187600,7.7161875,1.0589566802352666,-0.10028934322297572,-0.26420506318211556
1746476823255166500,7.72616650390625,0.7631593779593706,-0.09941840560734272,-0.3005851210743189
1746476823265145600,7.7361455078125,0.5028308639496565,-0.07549158657491206,-0.2576607561051845
1746476823275124500,7.74612451171875,0.3714472942829132,-0.14962708236575126,-0.1688257038325071
1746476823285103600,7.756103515625,0.24256715880446134,-0.28084289425015446,-0.09217267226278782
1746476823295082500,7.76608251953125,0.19677695607542992,-0.35310149025321,-0.06402268257737159
1746476823305061600,7.7760615234375,0.17309790125899016,-0.325777429997921,0.010721885022521018
1746476823315040500,7.78604052734375,0.09711889649331569,-0.2971247514873743,0.1932832687407732
1746476823325019600,7.79601953125,0.034279286220669745,-0.39178690247833725,0.3440098367810249
1746476823334998500,7.80599853515625,0.03809497205130756,-0.5107721783429384,0.42696342979967594
1746476823344977700,7.815977783203125,0.1025514429360628,-0.6040788230717182,0.4082990613400936
1746476823354956500,7.82595654296875,0.23036482596583663,-0.6873369519948959,0.3197539319247007
1746476823364935700,7.835935791015625,0.4058914156764745,-0.7630828055918216,0.21121113961935042
1746476823374914600,7.84591455078125,0.6514538107741624,-0.7097808389931917,0.08303425703942775
1746476823384893700,7.855893798828125,0.9075070586174726,-0.5651128403395415,-0.05262158311903476
1746476823394872600,7.86587255859375,1.0767232230722903,-0.44061260044574735,-0.2553571553379297
1746476823404851700,7.875851806640625,1.1807336326450109,-0.33356443061232566,-0.4907184013515711
1746476823414830300,7.885830322265625,1.2459078233450651,-0.2950684034794569,-0.7311819389402866
1746476823424809500,7.8958095703125,1.1981325112134218,-0.28171500090956686,-1.014468134689331
1746476823434788400,7.905788330078125,1.1471272041846066,-0.2886293103426695,-1.2298059988498686
1746476823444767500,7.915767578125,1.0955798261683434,-0.28114158493578434,-1.4207944346517323
1746476823454746400,7.925746337890625,1.0204127223074435,-0.3420113564401865,-1.5426070428967475
1746476823464725500,7.9357255859375,0.8875088112056255,-0.4863035075187683,-1.5574953999489545
1746476823474704400,7.945704345703125,0.7285825700968503,-0.6661644001066684,-1.5778127963125705
1746476823484683500,7.95568359375,0.5799415761590003,-0.8444663728147744,-1.6272686088770627
1746476823494662400,7.965662353515625,0.5059230212787166,-0.933187443318963,-1.6906874803423881
1746476823504641500,7.9756416015625,0.40882746912837026,-0.8976210398972034,-1.7513386406600475
1746476823514620400,7.985620361328125,0.2605721865724772,-0.7883674689739942,-1.7097931628286838
1746476823524599600,7.995599609375,0.1187035363137722,-0.7522919469863176,-1.5798784966707229
1746476823534578700,8.00557861328125,0.006812091167643666,-0.7610819871634245,-1.4230489355802536
1746476823544557600,8.0155576171875,-0.05451890464033931,-0.7445330034226179,-1.2426339162409306
1746476823554536700,8.02553662109375,0.011452025927975774,-0.7001040791094303,-1.1071055018544196
1746476823564515600,8.035515625,0.11874971354305744,-0.6159487090855836,-0.974928151461482
1746476823574494700,8.04549462890625,0.2244400755593553,-0.464451741194725,-0.8653209447950124
1746476823584473600,8.0554736328125,0.30574060414135457,-0.24641104781627654,-0.855485779479146
1746476823594452700,8.06545263671875,0.39244215151667594,0.03698445352613926,-0.9301987828969955
1746476823604431600,8.075431640625,0.3950391822725534,0.3668225570917129,-1.0680150159597397
1746476823614410800,8.08541064453125,0.3371569021463394,0.6433247917890549,-1.1827917342185974
1746476823624389600,8.0953896484375,0.2803671299645677,0.8244453290492296,-1.2666817313045262
1746476823634368800,8.10536865234375,0.20477438457012176,0.9463602286249398,-1.353437054693699
1746476823644347600,8.11534765625,0.03218965699765831,0.9628665422677993,-1.445844120234251
1746476823654326800,8.125326904296875,-0.15572777386102823,0.7810591917872428,-1.5182558609724044
1746476823664305400,8.135305419921876,-0.29370935355331745,0.4678191718012094,-1.6613216851264236
1746476823674284500,8.145284423828125,-0.3172761436343193,0.13859656978547572,-1.7593424988955257
1746476823684263400,8.155263427734376,-0.2642008984636515,-0.19226444708704948,-1.8609785805523393
1746476823694242600,8.16524267578125,-0.24630992552936076,-0.42215164560377594,-1.9336796596258878
1746476823704221400,8.175221435546876,-0.24846328590465708,-0.5555494777023792,-1.9163842414319514
1746476823714200600,8.18520068359375,-0.326931860730052,-0.619560469841957,-1.8345722196638583
1746476823724179500,8.195179443359375,-0.5474199837932363,-0.6529027674734592,-1.674452384856343
1746476823734158600,8.20515869140625,-0.7967384069561958,-0.6904641441047191,-1.4454963297098875
1746476823744137500,8.215137451171875,-0.952438087233901,-0.6726958477020263,-1.100687451505661
1746476823754116600,8.22511669921875,-0.9802817874491214,-0.656043988108635,-0.6857248406231403
1746476823764095500,8.235095458984375,-0.8342243802636862,-0.6739543233305215,-0.3159937026083469
1746476823774074600,8.24507470703125,-0.6144090784281492,-0.6655547437757253,-0.04814823709726333
1746476823784053500,8.255053466796875,-0.38164018699526786,-0.618383827278018,0.1701858862698078
1746476823794032600,8.26503271484375,-0.19674889902472495,-0.582765985929966,0.40099370676279067
1746476823804011500,8.275011474609375,-0.019834544750116763,-0.5174801515489816,0.6498375346839428
1746476823813990700,8.28499072265625,0.13601185052189976,-0.40990649653673167,0.8226362338006495
1746476823823969500,8.294969482421875,0.2600514871666208,-0.22171792058646678,0.9569523497879504
1746476823833948700,8.30494873046875,0.3592284121682867,-0.04667582645714283,1.1162994466573
1746476823843927600,8.314927490234375,0.3720896838396787,0.21180092220604418,1.184537701103091
1746476823853906700,8.32490673828125,0.3394552056839689,0.4979407538205385,1.2527835543334482
1746476823863885600,8.334885498046875,0.32415713531970974,0.7464964124500751,1.25270581292212
1746476823873864700,8.34486474609375,0.2921937248259783,0.9237842396795749,1.119518408703804
1746476823883843600,8.354843505859375,0.20187108261035755,1.0164666150301693,0.9483990409761667
1746476823893822700,8.36482275390625,0.09503100256966426,1.0991682791143655,0.65702306227386
1746476823903801300,8.37480126953125,-0.026972744333278387,1.2124503749012947,0.43340310745835303
1746476823913780500,8.384780517578125,-0.19422084185183047,1.2989707204908132,0.3150157974869013
1746476823923759400,8.39475927734375,-0.3880173208117485,1.2607751376092433,0.24745675747692583
1746476823933738000,8.404738037109375,-0.6042810676455498,1.1380413228660822,0.21686054368317126
1746476823943717000,8.414717041015624,-0.8397779227375983,0.9431523724943399,0.23740122740864752
1746476823953695700,8.42469580078125,-1.0138742604494093,0.6577163052350282,0.29373686261475085
1746476823963675000,8.4346748046875,-1.1707599356412888,0.3645160337150097,0.36998131338357926
1746476823973653800,8.44465380859375,-1.2981401148855685,0.11758300785124301,0.3967927479416132
1746476823983633000,8.4546328125,-1.357998663520813,-0.10307985072433948,0.489485644686222
1746476823993611800,8.46461181640625,-1.3574106344997883,-0.27047055331766606,0.5636451058745384
1746476824003591000,8.4745908203125,-1.3189865035593509,-0.310987857145071,0.7057593283921479
1746476824013569800,8.48456982421875,-1.2312310632169245,-0.2704740604490042,0.9295996479600668
1746476824023549000,8.494548828125,-1.0810276422679423,-0.1268207917958498,1.2340654098600148
1746476824033527800,8.50452783203125,-0.9640577978789806,-0.006437339571118354,1.5282891792088746
1746476824043507000,8.5145068359375,-0.85268065893054,0.1051525653451681,1.7308622543424368
1746476824053485800,8.52448583984375,-0.7675637503981589,0.18407529541254042,1.885528499919176
1746476824063465000,8.53446484375,-0.6799731452286243,0.26749533689916133,2.0145096846193074
1746476824073443800,8.54444384765625,-0.5823509753882885,0.36122225286662574,2.0572160229235887
1746476824083423000,8.554423095703125,-0.4991618200480938,0.46401101168990133,2.101630918711424
1746476824093401900,8.56440185546875,-0.4612801254212856,0.636442631059885,2.1823457928925754
1746476824103381000,8.574381103515625,-0.4729880988717079,0.7773597527474164,2.3079425958514213
1746476824113360000,8.58435986328125,-0.5287760370671749,0.8648165024042129,2.386819733211398
1746476824123339000,8.594339111328125,-0.5973918926537036,0.9391618415534496,2.4238129545658826
1746476824133318000,8.60431787109375,-0.6725216601788997,0.9935703080892563,2.406352116677165
1746476824143297000,8.614297119140625,-0.7091700136184692,0.9590729952037333,2.393332476106286
1746476824153276000,8.62427587890625,-0.7796037322819233,0.9295119696766138,2.3948691841542717
1746476824163255000,8.634255126953125,-0.8259165706455707,0.8901742310225963,2.3913562075972554
1746476824173234000,8.64423388671875,-0.885978532898426,0.7928098353356122,2.4587919134885072
1746476824183213000,8.654213134765625,-0.8974620499432087,0.6316419527798891,2.4586697484135627
1746476824193192000,8.66419189453125,-0.8034884657382965,0.4843167176157236,2.3663743265539408
1746476824203170800,8.6741708984375,-0.6286088686943054,0.3346908042937517,2.23839851950407
1746476824213149700,8.684149658203125,-0.42235681278705595,0.30357319697439666,2.0591624808162448
1746476824223128800,8.69412890625,-0.26273557515144347,0.3812000420123339,1.9306267017960548
1746476824233107700,8.704107666015625,-0.10826631345152854,0.49074821196794505,1.7961124328881501
1746476824243086800,8.7140869140625,0.016485846243565902,0.5828337904691696,1.6347750389844178
1746476824253065700,8.724065673828125,0.12445524084144272,0.7130103224337101,1.434497381311655
1746476824263044900,8.734044921875,0.2391840191721916,0.8171160090744495,1.2416723777323961
1746476824273023700,8.744023681640625,0.2874088286370039,0.8494786480188369,1.0830196928679943
1746476824283003000,8.7540029296875,0.30264437342537565,0.8614011410027742,0.9039876523196697
1746476824292981800,8.763981689453125,0.2781102544158697,0.8184481344610453,0.814908854418993
1746476824302961000,8.7739609375,0.24260988370133563,0.7148761163055897,0.7170417699068784
1746476824312939800,8.783939697265625,0.20280745014501733,0.5816273372888565,0.57078504075706
1746476824322919000,8.7939189453125,0.23040099325776098,0.4040151004105806,0.42265199634134765
1746476824332897800,8.803897705078125,0.31336163707170633,0.2684118672221899,0.2633627671390772
1746476824342877000,8.813876953125,0.41798692713975905,0.28206279143393037,0.07999591225683689
1746476824352855800,8.823855712890625,0.47420916509926314,0.4900830260574817,-0.05723346082866192
1746476824362835000,8.8338349609375,0.45008481420073654,0.7150520573943853,-0.055684477820992465
1746476824372813800,8.843813720703125,0.3716448261490091,0.7404752524644136,0.1208031389415264
1746476824382793000,8.85379296875,0.28928865103423596,0.6744944215565919,0.23866437921226022
1746476824392771800,8.863771728515625,0.28547877388987686,0.5482230803370476,0.21536182955801486
1746476824402751000,8.8737509765625,0.36413313534464686,0.5436240621089935,0.06641220806241036
1746476824412728800,8.883728759765624,0.42102468740046023,0.6570628097623586,-0.12247545606791972
1746476824422707700,8.893707763671875,0.4811859818419441,0.9397077849984169,-0.32077626070976256
1746476824432687900,8.90368798828125,0.5267735016057268,1.4083324279636145,-0.5373211625725031
1746476824442665700,8.913665771484375,0.48857612862586974,1.930978583973646,-0.6735790602773427
1746476824452644900,8.923644775390626,0.37231121763586994,2.312944934183359,-0.7563122885435819
1746476824462623700,8.933623779296875,0.18121990598142146,2.476537413537502,-0.7768699234038591
1746476824472604000,8.94360400390625,-0.1856143415480852,2.3185195194453,-0.7247036828368901
1746476824482581800,8.953581787109375,-0.6293506269723177,1.8982091177940368,-0.6215601192265748
1746476824492562000,8.96356201171875,-1.02366441757977,1.3893681997746228,-0.500088287243247
1746476824502539800,8.973539794921875,-1.2095143214493989,0.4697486785590648,-0.6410813967764377
1746476824512519000,8.983518798828126,-1.3277139998942613,-0.199460496070981,-0.8154284943789243
1746476824522497800,8.993497802734375,-1.2744710700064896,-0.7781488572984934,-0.966468366152048
1746476824532477000,9.003476806640625,-1.102990467751026,-1.3319324943721293,-1.0908470254927873
1746476824542455800,9.013455810546875,-0.8212468252688646,-1.7459189536988735,-1.1852958259940147
1746476824552435000,9.02343505859375,-0.4517325448751449,-2.015424461376667,-1.243241234484315
1746476824562413800,9.033413818359374,-0.11434884823560713,-2.1290788976073265,-1.1895973225802183
1746476824572393000,9.04339306640625,0.2430500834831968,-2.138386239656806,-1.096190724608302
1746476824582371800,9.053371826171874,0.6186445240408182,-2.004636525380611,-0.9887707988530396
1746476824592351000,9.06335107421875,0.9489689498186111,-1.6661451597601173,-0.9663023619353771
1746476824602329900,9.073329833984374,1.1851976993817834,-1.3368524151176213,-0.9387643666684627
1746476824612309000,9.08330908203125,1.3456535612106322,-1.0136901360541581,-0.9027233314722776
1746476824622288000,9.093287841796876,1.4238023842960594,-0.6757990744143724,-0.8814064026772975
1746476824632267000,9.10326708984375,1.3906862966358662,-0.26825755344331265,-0.923071707496047
1746476824642246000,9.113245849609376,1.1775824751377104,-0.010292845955491065,-0.8857996692001819
1746476824652224800,9.123224853515625,0.8612947580188512,0.07927285867929458,-0.8749865987628698
1746476824662204000,9.133203857421876,0.5119196313450113,0.09802139829099178,-0.8372989654034375
1746476824672182800,9.143182861328125,0.1783732843786478,0.08647533740401267,-0.8276198674321175
1746476824682162000,9.153161865234376,-0.1540296647062525,0.10278817430138587,-0.7588269017130136
1746476824692140800,9.163140869140625,-0.494060734049417,0.13001988009810447,-0.6021218437850475
1746476824702120000,9.173119873046875,-0.7708505169838666,0.1725660594046116,-0.49476095474064347
1746476824712098800,9.183098876953125,-0.9681740010261535,0.2241220591187477,-0.3510457267671823
1746476824722078000,9.193077880859375,-1.1320710162848233,0.20576339560747145,-0.18859715675115585
1746476824732056800,9.203056884765624,-1.222390169635415,0.1032405942440033,-0.05553367117345333
1746476824742036000,9.213035888671875,-1.2192559632629156,-0.05760229414105415,0.03379705566167831
1746476824752014800,9.223014892578124,-1.1047428643763064,-0.2653705998301506,0.08653495863676071
1746476824761994000,9.232993896484375,-0.9239788854688405,-0.47370472270846364,0.11990589784085749
1746476824771972900,9.242972900390624,-0.7037146708220243,-0.69544193251729,0.15908113940954208
1746476824781952000,9.252951904296875,-0.4560211454471573,-0.8583002523779869,0.1340396371334791
1746476824791931000,9.262930908203124,-0.1368984606307,-0.9478338083088398,0.0692161595672369
1746476824801910000,9.272909912109375,0.233929788438417,-1.0316805507749318,-0.016392331874370576
1746476824811889000,9.282888916015626,0.5597218314835801,-1.0821113458514213,-0.1012052890241146
1746476824821868000,9.292867919921875,0.8311808478493243,-1.0096849920660256,-0.18203999019265174
1746476824831847000,9.302846923828126,1.026518711032346,-0.910484613123536,-0.18613924220502376
1746476824841826000,9.312825927734375,1.146609902312234,-0.7833838353425264,-0.17179098337888718
1746476824851805000,9.322804931640626,1.2155740598797797,-0.6406050114363432,-0.12518997572362422
1746476824861784000,9.3327841796875,1.250495735657215,-0.4957499657779932,-0.10170973141491413
1746476824871763000,9.342762939453126,1.2124532975107432,-0.33281215094029903,-0.02261398286819458
1746476824881742000,9.3527421875,1.055858787285164,-0.21858897491097448,0.08723580038249493
1746476824891721000,9.362720947265625,0.8335516686338931,-0.15317746832370757,0.12307283743917942
1746476824901699800,9.372699951171874,0.6063655457694083,-0.15062076957821846,0.14848141946196555
1746476824911678700,9.3826787109375,0.42268823669850825,-0.12287643808424473,0.21791151404082773
1746476824921657900,9.392657958984374,0.23652152196466922,-0.07629764226078986,0.2593266434907913
1746476824931637000,9.402636962890625,0.0731195967465639,-0.03721007897555828,0.3667015610605478
1746476824941616000,9.4126162109375,-0.10798632746636867,-0.09505378065705299,0.4627320777952671
1746476824951595000,9.422594970703125,-0.24223171630501747,-0.1887999858468771,0.48217210680246353
1746476824961574100,9.43257421875,-0.2518389180839062,-0.28352760328948495,0.44685587874948973
1746476824971553000,9.442552978515625,-0.23095636211819945,-0.38037235901653765,0.3486410037130117
1746476824981532200,9.4525322265625,-0.14750124931819736,-0.48289925203323364,0.2934516159325838
1746476824991511000,9.462510986328125,0.008262289975956082,-0.649434214580059,0.22411036868095396
1746476825001490200,9.472490234375,0.2849772175759077,-0.7658271358639002,0.042839609295129776
1746476825011469000,9.482468994140625,0.5832534041207283,-0.7837719578772783,-0.14008300895094872
1746476825021448200,9.4924482421875,0.8232978395145386,-0.7647668131560087,-0.34832653093636035
1746476825031427000,9.502427001953125,0.9909445626955479,-0.7154898642897606,-0.5163473481267691
1746476825041406200,9.51240625,1.0816803340230137,-0.6297141995877027,-0.6317232013225555
1746476825051385000,9.522385009765625,1.136464794264361,-0.5504401718646288,-0.7467834126979113
1746476825061364200,9.5323642578125,1.156891642351821,-0.5112444720298052,-0.8976637099951505
1746476825071342800,9.5423427734375,1.112355092945695,-0.5169523282825946,-1.015952820289135
1746476825081322000,9.552322021484375,1.0612398958016187,-0.5470674805611372,-1.1346738922595978
1746476825091300900,9.56230078125,0.9774263980180025,-0.5132797772496939,-1.2318722837299108
1746476825101280000,9.572280029296875,0.8144763082206249,-0.5000444481015205,-1.273642217966914
1746476825111260200,9.58226025390625,0.610628975367546,-0.569358222824335,-1.2695984955340622
1746476825121239000,9.592239013671875,0.45485564533174033,-0.6984650797307491,-1.3271060971289872
1746476825131218000,9.602218017578124,0.36878538159728047,-0.8016250099539757,-1.4438023852735757
1746476825141197000,9.612197021484375,0.39020752433240413,-0.8389730360954999,-1.628621777051687
1746476825151176000,9.622176025390624,0.42450317716598507,-0.8272071949779987,-1.771166207680106
1746476825161155000,9.632155029296875,0.4097627041518688,-0.7650134813934564,-1.7964473639309406
1746476825171134000,9.642134033203124,0.3273514743816107,-0.7890700642853975,-1.6965905669063328
1746476825181113000,9.652113037109375,0.2600011817514896,-0.8860556897878646,-1.6069757624328136
1746476825191092000,9.662092041015624,0.25751287206709383,-0.9802905552774667,-1.5939222195923328
1746476825201071000,9.672071044921875,0.3557446982383728,-1.018655064985156,-1.632790002647042
1746476825211050000,9.682050048828126,0.5104571941096335,-0.9693757780313491,-1.7536907567441462
1746476825221029000,9.692029052734375,0.6784586490124463,-0.6574205371588469,-1.8884931949436663
1746476825231008000,9.702008056640626,0.7526479938823729,-0.11266191806197166,-1.9647890836387871
1746476825240987100,9.711987060546875,0.7034434526652097,0.46083588878512377,-1.943927497395873
1746476825250966000,9.721966064453126,0.542815668335557,0.8313584694385528,-1.841180824148655
1746476825260945200,9.731945068359375,0.3587017944782972,1.0137263764113187,-1.7775608771532774
1746476825270924000,9.741924072265626,0.15929401497524232,1.0074322447031736,-1.7791127827703952
1746476825280903200,9.751903076171875,-0.03488539888765663,0.8176040848523378,-1.8792928203999995
1746476825290882000,9.761882080078125,-0.21185995891690254,0.5419698651611805,-2.0233476555913685
1746476825300861200,9.771861083984374,-0.2924450692385435,0.2838420760661363,-2.170633143267035
1746476825310840000,9.781840087890625,-0.336257396023348,0.02272328846156597,-2.2554268111944196
1746476825320819200,9.791819091796874,-0.36918398899342864,-0.15565701017975805,-2.2564286817133423
1746476825330798000,9.801798095703125,-0.4109808112373575,-0.21691315065324304,-2.2271651778280734
1746476825340777200,9.811777099609374,-0.4950467859447002,-0.2864700864821672,-2.112891732916236
1746476825350756000,9.821756103515625,-0.6546645164489746,-0.3969400474578142,-1.8722762196362017
1746476825360735200,9.8317353515625,-0.846574743270874,-0.5164905559897423,-1.5639298169106244
1746476825370713900,9.8417138671875,-0.9645049571245908,-0.7245300798356533,-1.2421972783893347
1746476825380693000,9.85169287109375,-0.9170523010760545,-0.9860171162307262,-0.9569768997073173
1746476825390672000,9.861671875,-0.7465174552381039,-1.216125848543644,-0.7136936285227536
1746476825400651000,9.871651123046876,-0.5305857168376445,-1.4144126246601343,-0.5221528195351361
1746476825410630000,9.8816298828125,-0.23485855718851087,-1.5423118593424558,-0.3094838823229074
1746476825420609000,9.891609130859376,-0.08289331419877707,-1.6069839457392692,-0.10214987639784813
1746476825430588000,9.901587890625,0.07054886947572231,-1.5094582220107315,0.0700263069063425
1746476825440567000,9.911567138671876,0.24908468747232107,-1.2992331708192824,0.2431406478434801
1746476825450546000,9.9215458984375,0.4814362668085843,-1.0106395163118838,0.36455285859405995
1746476825460525000,9.931525146484375,0.6705729372639209,-0.6714268506795168,0.48926411089003086
1746476825470504000,9.94150390625,0.8146218541711568,-0.28213234953880306,0.6114771166294812
1746476825480483000,9.951483154296875,0.9149953685462474,0.1453203250825405,0.568690698826313
1746476825490462000,9.9614619140625,0.8653641994148492,0.5089852949261665,0.4655494733035564
1746476825500441000,9.971441162109375,0.6708809072345495,0.8284200778990983,0.32551322610378264
1746476825510420000,9.981419921875,0.36340131393875924,1.1063479614853857,0.22152736645042895
1746476825520399000,9.991399169921875,0.002641454419493675,1.3623141886323689,0.17062427768707275
1746476825530378000,10.0013779296875,-0.4101905741751194,1.574031524208188,0.1352776544958353
1746476825540357000,10.011357177734375,-0.808179838424921,1.6718652909725904,0.12108429397046565
1746476825550336000,10.0213359375,-1.1464730511248111,1.5929437299489975,0.07291735217273235
1746476825560315100,10.031315185546875,-1.4388298575580118,1.420287654173374,-0.0029869068562984463
1746476825570294000,10.0412939453125,-1.7109271352946758,1.2245020472228527,-0.11345628331005572
1746476825580273200,10.051273193359375,-1.948127287173271,0.9006552930265664,-0.08519348089993
1746476825590252300,10.061252197265626,-2.021241623222828,0.5257014519274235,-0.053704702180624
1746476825600231200,10.071231201171875,-2.0626292801439763,0.1917921534001827,0.011149170523881912
1746476825610210000,10.0812099609375,-2.0666578050076962,-0.10040449403524399,0.13665303450226782
1746476825620189000,10.09118896484375,-2.039976718831062,-0.2703933964282274,0.34952480081021786
1746476825630168000,10.10116796875,-1.9673580573439597,-0.3444067271441221,0.6194891581714153
1746476825640147000,10.11114697265625,-1.8348679877400398,-0.29090602310299873,0.9559843815386295
1746476825650126000,10.1211259765625,-1.7034382408440112,-0.2342909864336252,1.2139058344066143
1746476825660105000,10.13110498046875,-1.547746159350872,-0.13863807083964347,1.3613205014199017
1746476825670084000,10.141083984375,-1.414116272062063,-0.023562661895155906,1.4609750538706778
1746476825680063000,10.15106298828125,-1.3287573714673517,0.07284896311163902,1.56658646889925
1746476825690042000,10.1610419921875,-1.2270809578001498,0.14877484945058822,1.6250339816927908
1746476825700021000,10.17102099609375,-1.1031459505736827,0.20370704759955405,1.676974596810341
1746476825710000000,10.181000244140625,-0.9571288753986358,0.2085363674521446,1.7269722611665725
1746476825719979000,10.19097900390625,-0.8035866654157638,0.22621932365894315,1.7739689901411533
1746476825729958100,10.200958251953125,-0.6805436385929584,0.25961247469484805,1.9518746570080518
1746476825739937000,10.21093701171875,-0.6586895341813563,0.28421617007553573,2.0660575010269877
1746476825749916200,10.220916259765625,-0.6213046831607818,0.29448563515543935,2.0991905398219823
1746476825759895000,10.23089501953125,-0.5182932580301538,0.38291327567100525,2.1204273891180754
1746476825769874200,10.240874267578125,-0.5823568206071853,0.44565001009106636,2.1552666473090647
1746476825779853000,10.25085302734375,-0.679828183799982,0.4643167166382074,2.1424550965309144
1746476825789832200,10.260832275390625,-0.7691045500993728,0.5343295795410872,2.1329045933753252
1746476825799811000,10.27081103515625,-0.8957154985368251,0.5256061748594045,2.0941952157527206
1746476825809790200,10.280790283203125,-0.9591337854802608,0.47181379439532756,2.0346587386786936
1746476825819769000,10.29076904296875,-0.9318003728747367,0.42549511081278324,1.896886344757676
1746476825829748200,10.300748291015625,-0.8294318852901458,0.42275136506259436,1.726851849657297
1746476825839727000,10.31072705078125,-0.7490729849398136,0.4685942478269338,1.5950842491090296
1746476825849706200,10.320706298828124,-0.6807096428096294,0.5624404062598943,1.4544517895817757
1746476825859684900,10.330684814453125,-0.6228256091177463,0.7138818445712327,1.3405460089385508
1746476825869664000,10.3406640625,-0.6040928150644526,0.8533850078076124,1.2436784568578003
1746476825879643000,10.350642822265625,-0.6336217284202575,0.934862098532915,1.1744810019910334
1746476825889622000,10.3606220703125,-0.6759691702842712,0.9812830734461545,1.110776883843541
1746476825899601000,10.370600830078125,-0.7338204707503319,1.025609706428647,1.0465320829480886
1746476825909580000,10.380580078125,-0.7792764000236988,1.0414479115515947,0.9836889655441046
1746476825919559000,10.390558837890625,-0.8121475730121135,1.0904115566849708,0.9840116216272116
1746476825929538000,10.4005380859375,-0.8105401378154754,1.1056342602580784,1.0573854853957891
1746476825939517000,10.410516845703125,-0.7768576484441757,1.0543003788620233,1.155805527615547
1746476825949496000,10.42049609375,-0.6484639082431792,1.0822007777005433,1.2344319050848482
1746476825959475000,10.430474853515625,-0.4600163890957832,1.1721265478193759,1.2556874590814113
1746476825969454000,10.4404541015625,-0.3096680067181587,1.147228253406286,1.2737602913886308
1746476825979433000,10.450432861328125,-0.1979588593363762,0.9260936856657266,1.365089498564601
1746476825989412000,10.460412109375,-0.06958031670451163,0.5958090073764324,1.3838041359066962
1746476825999391000,10.470390869140624,0.10346329708397388,0.34196517921090125,1.2426707411199807
1746476826009370000,10.4803701171875,0.34403438670039177,0.29741876599788664,1.053648052433133
1746476826019349000,10.490348876953124,0.641136926355958,0.3924041575938463,0.8152396938085555
1746476826029328100,10.500328125,0.9022831864893436,0.6595347528338432,0.4992874922543764
1746476826039307000,10.51030712890625,1.1606126356363295,1.095845856693387,0.21530922258794308
1746476826049286100,10.5202861328125,1.284625384274125,1.641276091441512,-0.06755027218163014
1746476826059265000,10.53026513671875,1.2121347330808638,2.2280904759794473,-0.1791705722361803
1746476826069244200,10.540244140625,0.8078887465238571,2.618677355018258,-0.13821721507906912
1746476826079223000,10.55022314453125,0.2650742472320795,2.643146025842428,0.00028407763838768005
1746476826089202200,10.5602021484375,-0.260345465144515,2.394495674666762,0.12805647107064724
1746476826099181000,10.57018115234375,-0.7499252178549766,1.956210055863857,0.10468903948664665
1746476826109160000,10.580159912109375,-1.0868950729966163,1.2915624900609255,-0.07870178079307079
1746476826119139000,10.59013916015625,-1.2355337288469075,0.73719959179461,-0.11952771217823027
1746476826129118000,10.600117919921875,-1.2725976773500443,0.041945875325798986,-0.20437281803190707
1746476826139097000,10.61009716796875,-1.1513947254359722,-0.5861293248832226,-0.23241934734284878
1746476826149076000,10.620075927734375,-0.8059054637521504,-1.017021326303482,-0.30744916162490843
1746476826159055000,10.63005517578125,-0.443214891898632,-1.6079536675542592,-0.5781821652710437
1746476826169034000,10.640033935546874,-0.04364277890417725,-1.856490036961436,-0.7535498380929231
1746476826179013000,10.65001318359375,0.35216037347819656,-2.091238704034686,-0.9456272381752728
1746476826188992000,10.659991943359374,0.6470400129199028,-2.2612217612087724,-1.1362485942304135
1746476826198971100,10.66997119140625,0.9943243413269519,-2.2357436210811135,-1.3530460095494985
1746476826208950000,10.679949951171874,1.29735393294394,-2.0783003120064736,-1.5626596508443356
1746476826218929200,10.68992919921875,1.5273942761957644,-1.7844886305898426,-1.6991127788603304
1746476826228908000,10.699907958984374,1.653124350145459,-1.3760814327001571,-1.6921809337705374
1746476826238887200,10.70988720703125,1.7680448607891797,-0.9008540304690599,-1.526454949519038
1746476826248866000,10.719865966796876,1.7483201696217059,-0.4984627318680286,-1.3172919746011496
1746476826258845200,10.72984521484375,1.5830694016665219,-0.1998053639858961,-1.2005196986109017
1746476826268825000,10.7398251953125,1.2532459111481904,0.03553483923971653,-0.9941232657968997
1746476826278803200,10.74980322265625,0.8749380834460257,0.2073597248882055,-0.7532768663704394
1746476826288783000,10.759783203125,0.4900450321346521,0.33674539873600007,-0.5235749612927436
1746476826298762000,10.769761962890625,0.04699376983251422,0.5322504351794719,-0.30772388691306113
1746476826308741000,10.7797412109375,-0.3765700075915083,0.6547217995941639,-0.0656868163973093
1746476826318720000,10.789719970703125,-0.7347095285445451,0.7367232064545154,0.1387725108742714
1746476826328699100,10.79969921875,-1.0197697482287884,0.7319213591307401,0.3382721699118614
1746476826338678000,10.809677978515625,-1.2620265989750623,0.6366717636406422,0.5100789353817701
1746476826348657200,10.8196572265625,-1.4551386028021573,0.5022369897097348,0.6004372516989708
1746476826358636000,10.829635986328125,-1.5010077890515328,0.2615408124089241,0.6394353831350803
1746476826368615200,10.839615234375,-1.3929513189584015,0.003184475255012512,0.619362901443243
1746476826378594000,10.849593994140625,-1.0867635555714368,-0.24357787021696567,0.5008423204809427
1746476826388573200,10.8595732421875,-0.6215677180111407,-0.4510585911363363,0.35040509077608584
1746476826398552000,10.869552001953124,-0.16699209519717842,-0.6085691202282906,0.22535715387165545
1746476826408531000,10.879531005859375,0.2698778846541419,-0.744196903336048,0.11422551411688327
1746476826418510000,10.889510009765624,0.7201017419993877,-0.8072592164486646,0.031000118419528006
1746476826428489000,10.899489013671875,1.076241065578535,-0.8080769625723362,-0.035384617114067075
1746476826438468000,10.909468017578124,1.3300713766753673,-0.7275345223486424,-0.10727204171717167
1746476826448447000,10.919447021484375,1.5165806212365627,-0.612701105466485,-0.1355786832690239
1746476826458426000,10.929426025390624,1.6031167489171028,-0.4948433723270893,-0.11179039592444896
1746476826468405000,10.939405029296875,1.5874270123541354,-0.349186947157979,-0.1386936004191637
1746476826478384000,10.949384033203126,1.4486230834282934,-0.2065279502391815,-0.15174480517208574
1746476826488363000,10.959363037109375,1.2193396229583768,-0.1188426525235176,-0.14513795425295828
1746476826498342100,10.969342041015626,0.951930722233653,-0.08141688497066497,-0.09604571430385112
1746476826508321000,10.979321044921875,0.7238724927097558,-0.0850058493733406,-0.014043722921609878
1746476826518300200,10.989300048828126,0.4960047442566603,-0.08921382245719432,0.08486673316359519
1746476826528279000,10.999279052734375,0.28631285009384155,-0.1396089616984129,0.16781448096334933
1746476826538258200,11.009258056640626,0.17206161701381206,-0.2463216159671545,0.26311259177029134
1746476826548237000,11.019237060546875,0.11432656333856284,-0.3399760512202978,0.31734219460785384
1746476826558216200,11.02921630859375,0.10900222651064395,-0.4335334558397531,0.3144850516110658
1746476826568195000,11.039195068359374,0.1653535707425326,-0.5118482831418514,0.2896259201645851
1746476826578174200,11.04917431640625,0.25081366668939586,-0.5642834037780762,0.29640520504117013
1746476826588153000,11.059153076171874,0.4053215068340301,-0.667903352728486,0.2797837405860424
1746476826598132200,11.06913232421875,0.5807458782792091,-0.8354056990027428,0.1788350566715002
1746476826608111000,11.079111083984374,0.7516578138012439,-0.9535708906561136,0.028672552254796025
1746476826618090200,11.08909033203125,0.914367592036724,-1.0752975741833448,-0.11290800177752972
1746476826628069000,11.099069091796874,1.0429151345599441,-1.126021799248457,-0.2968886046439409
1746476826638048300,11.10904833984375,1.0695640720326454,-1.0461422068476676,-0.4018319111526012
1746476826648027000,11.11902685546875,1.0782898148018867,-1.0504694223970175,-0.42868250867724417
1746476826658006000,11.129006103515625,1.0518062239587307,-1.0027233363598584,-0.5278565841346979
1746476826667985000,11.13898486328125,1.0509095673799513,-0.9111761025190352,-0.651233957478404
1746476826677964000,11.148964111328125,1.0836907970625906,-0.76590195466578,-0.8143155647009611
1746476826687943000,11.15894287109375,1.0946517515379934,-0.5863982049524784,-0.9657704470157623
1746476826697922000,11.168922119140625,1.0479688377529381,-0.4019359560489654,-1.1296095946073532
1746476826707901000,11.17890087890625,0.9223696967065333,-0.2898404396981001,-1.2349234879940747
1746476826717880000,11.188880126953125,0.7753660216469317,-0.27059447195827957,-1.3471025909751653
1746476826727859000,11.19885888671875,0.6077110420942307,-0.34835283442139625,-1.5007763183832168
1746476826737838000,11.208838134765625,0.46483869468569755,-0.5134720849514007,-1.6240578301370143
1746476826747817000,11.21881689453125,0.40303602624535556,-0.6604606355071068,-1.7920166880071162
1746476826757796000,11.228796142578124,0.3643933206507936,-0.6868810249209404,-1.974366474801302
1746476826767775000,11.23877490234375,0.24291213631723074,-0.6909750162363052,-2.083071764191985
1746476826777754000,11.248754150390624,0.08753514865525067,-0.8174334044605494,-2.0628987447351217
1746476826787733000,11.25873291015625,-0.052502925175428386,-0.9915046077311038,-2.035109405055642
1746476826797712100,11.268712158203124,-0.11556403271164745,-1.1439952628344296,-2.0512188283354043
1746476826807691000,11.27869091796875,-0.14181900243069975,-1.2503016743898392,-2.071413475102186
1746476826817670100,11.288670166015624,-0.08046992297675461,-1.2130734752357006,-2.15393218383491
1746476826827649000,11.29864892578125,0.039727651287056506,-0.9374392555445432,-2.249652319446206
1746476826837628200,11.308628173828126,0.10797467356119304,-0.4845949500352144,-2.3040356515407563
1746476826847607000,11.31860693359375,0.13153671440184114,0.0058306058496236796,-2.301069202950597
1746476826857586200,11.328586181640626,0.13881814011428503,0.41245735006332396,-2.306920851588249
1746476826867565000,11.33856494140625,0.09217329331729561,0.7018155592024325,-2.3365023353815078
1746476826877544200,11.348544189453126,0.008462123396992684,0.8243594043314456,-2.3836948791891337
1746476826887523000,11.358523193359375,-0.15714523944351821,0.6842068372756243,-2.4055402157723904
1746476826897502000,11.368501953125,-0.40502862483467905,0.3623620705515146,-2.4194413153529166
1746476826907480800,11.378480712890624,-0.5776841526210308,-0.10815233168303966,-2.4801024125427005
1746476826917460000,11.3884599609375,-0.6593231559097766,-0.5285305378735066,-2.5590724888831375
1746476826927438800,11.39843896484375,-0.6204886906027793,-0.8225356960356235,-2.601729727348685
1746476826937419500,11.40841943359375,-0.5291635750800371,-0.9822545488268136,-2.611032977744937
1746476826947398400,11.4183984375,-0.4133703732550144,-1.0051906032562254,-2.6332512392938137
1746476826957376500,11.42837646484375,-0.45856443672180175,-0.8973416384339332,-2.4915444285333157
1746476826967356400,11.4383564453125,-0.6016641631454229,-0.7534475467622279,-2.185691596189141
1746476826977335600,11.44833544921875,-0.7834048781305551,-0.6122206284731626,-1.7538865715771912
1746476826987314400,11.458314453125,-0.9210562760204076,-0.504607225972414,-1.3183055355578661
1746476826997293600,11.46829345703125,-0.9528566049069166,-0.5055827930063009,-0.9187082515895366
1746476827007272400,11.4782724609375,-0.9413871163874864,-0.6063403382629156,-0.562176202365756
1746476827017251600,11.48825146484375,-0.8210586092203855,-0.7133323939949273,-0.2344441311687231
1746476827027230500,11.49823046875,-0.6111252709845081,-0.7551485054612159,-0.008400748598575591
1746476827037209600,11.508209716796875,-0.4212140724927187,-0.7554343366652727,0.141568863594532
1746476827047188500,11.5181884765625,-0.19376137111391872,-0.693276863437891,0.2795657139211893
1746476827057167600,11.528167724609375,0.009808313841558992,-0.5533382313936949,0.41875440438091754
1746476827067146500,11.538146484375,0.15341887586414812,-0.35743688910901544,0.5615045867145061
1746476827077125600,11.548125732421875,0.21031444650795308,-0.1181675297409296,0.688213150307536
1746476827087104500,11.5581044921875,0.22862057611439376,0.1720376516163349,0.8131506125748157
1746476827097083600,11.568083740234375,0.23993454527854918,0.4226204321593046,0.9099486065506934
1746476827107062500,11.5780625,0.23910803132653236,0.6809913823604583,0.9215192173570393
1746476827117041700,11.588041748046875,0.1805552680602297,0.9160825792610645,0.9232266057968139
1746476827127020500,11.5980205078125,0.14065763050112873,1.0469032543480397,0.9035960226535796
1746476827136999700,11.607999755859375,0.11190320864915847,1.2056132223576306,0.8591869720846415
1746476827146978600,11.617978515625,0.05219663570523262,1.297107849228382,0.7953852387815713
1746476827156957700,11.627957763671875,-0.028902251091133802,1.310078974482417,0.7051356435358523
1746476827166936600,11.6379365234375,-0.04550092832571827,1.2739262956053017,0.5835194346457719
1746476827176915500,11.64791552734375,-0.08060323050022125,1.2181424490630626,0.3814811970412731
1746476827186894300,11.657894287109375,-0.25271044022142886,1.1252093138217925,0.1634410881847143
1746476827196873500,11.66787353515625,-0.47228550356030463,0.9923597632557153,0.09116963270008563
1746476827206852400,11.677852294921875,-0.6969231109857559,0.8076198664546013,0.2049649387061596
1746476827216831500,11.68783154296875,-0.8269161030769347,0.6394856520175933,0.3549053248047829
1746476827226810400,11.697810302734375,-0.8863409364700316,0.492467875367403,0.5341542229741811
1746476827236789500,11.70778955078125,-0.892776522475481,0.34965514919161794,0.7545195599079132
1746476827246768400,11.717768310546875,-0.8798995052456855,0.22931728967428205,0.9788730896949768
1746476827256747500,11.72774755859375,-0.8923124120950698,0.14032675457894803,1.1591823105722665
1746476827266726400,11.737726318359375,-0.886771144580841,0.12844751621484757,1.3184388065487145
1746476827276705500,11.74770556640625,-0.8566846338748931,0.16070786382853983,1.411354406133294
1746476827286684400,11.757684326171875,-0.8466320264160633,0.2516764209985733,1.4973562808066605
1746476827296663600,11.76766357421875,-0.8199380807578563,0.32911504998803137,1.5721125388443469
1746476827306642400,11.777642333984375,-0.7917115187048912,0.3945148661375045,1.629920000168681
1746476827316621600,11.78762158203125,-0.7753998508512974,0.46023324671685695,1.719490965500474
1746476827326600400,11.797600341796874,-0.7869511724352836,0.5659679958641529,1.8017121525913475
1746476827336579600,11.80757958984375,-0.856759452676773,0.6230085644692183,1.942676036030054
1746476827346558500,11.817558349609374,-0.9075696024596691,0.6278226867526769,2.084637113812566
1746476827356537600,11.82753759765625,-0.9445908808648585,0.5976812309890985,2.165355495125055
1746476827366516500,11.8375166015625,-0.955252633197978,0.5744686977058648,2.1863865927159787
1746476827376495600,11.84749560546875,-0.9160276342034339,0.5770265654951333,2.204056689441204
1746476827386474500,11.857474609375,-0.9221113380312919,0.5774176106393337,2.248266418045759
1746476827396453600,11.86745361328125,-0.9262181888282298,0.5448205784171819,2.311454987886548
1746476827406432500,11.8774326171875,-0.909934578025341,0.49681788727045056,2.3361276568502185
1746476827416411400,11.887411376953125,-0.8558487675726413,0.4273258333712816,2.3539351162195206
1746476827426391600,11.8973916015625,-0.7810393180429935,0.3476660212010145,2.3339847996026277
1746476827436370700,11.90737060546875,-0.6850432880997658,0.26844167783856393,2.30898889003396
1746476827446349600,11.917349609375,-0.5605354859540239,0.2598492060601711,2.255716149529815
1746476827456328700,11.92732861328125,-0.41270515081193293,0.3046954790025949,2.168137819319963
1746476827466307300,11.937307373046876,-0.27205754851447417,0.3875409354716539,2.035104144358635
1746476827476286500,11.947286376953125,-0.1436602829158306,0.4937544080466032,1.9065631046414375
1746476827486265300,11.957265380859376,-0.040054947012662885,0.660351914435625,1.7344956424087286
1746476827496244500,11.967244384765625,0.00438740303767845,0.8332277704417705,1.6015765337377785
1746476827506223400,11.977223388671876,-0.049179333710670466,0.9405085799872874,1.545937064102292
1746476827516202500,11.987202392578125,-0.12869303367482499,0.9872773454248904,1.458766730171442
1746476827526181400,11.997181396484375,-0.20073533831238746,0.9977262587249278,1.3251713296741245
1746476827536160500,12.007160400390624,-0.25945642561661075,1.0405956786364317,1.1768927393078803
1746476827546139400,12.017139404296875,-0.35175361930821086,1.1208248151272535,1.0654004495471716
1746476827556118500,12.027118408203124,-0.45076808375716204,1.1769950306385755,1.03580552175045
1746476827566097400,12.037097412109375,-0.5324070505132898,1.1746797394335269,1.0344769034951924
1746476827576076500,12.04707666015625,-0.5642436562895774,1.1762579485356808,0.9851350726991891
1746476827586055400,12.057055419921875,-0.49025253740549085,1.2464309704363346,0.843424754807353
1746476827596034600,12.06703466796875,-0.37096447920203207,1.3592284975767135,0.6785761379122733
1746476827606013400,12.077013427734375,-0.2700666486918926,1.3620768727451562,0.6700549778044224
1746476827615992600,12.08699267578125,-0.2352759058177471,1.2025041504263878,0.701622666978836
1746476827625971500,12.096971435546875,-0.21361469362974167,0.9564619359225034,0.6859738469481468
1746476827635950600,12.10695068359375,-0.16646014374494553,0.7306997083812952,0.5433341392517089
1746476827645929500,12.116929443359375,-0.103261637032032,0.5347638793051243,0.3485159160286188
1746476827655908600,12.12690869140625,-0.009258827303457656,0.40274844147562977,0.20345394962131977
1746476827665887500,12.136887451171875,0.1441997966200113,0.35383214261531826,0.053632221466302865
1746476827675866600,12.14686669921875,0.22130641717612742,0.4246551528573036,-0.15499474687874315
1746476827685845500,12.156845458984375,0.21152795048356055,0.5999339783519506,-0.2510924836307764
1746476827695824600,12.16682470703125,0.20512860483527182,0.9847779298245907,-0.38283319617211814
1746476827705803500,12.176803466796875,0.21913491835594176,1.4635937119364737,-0.5298860441356897
1746476827715782400,12.186782470703125,0.12257190217971801,1.7775024249643085,-0.5995148761570454
1746476827725761500,12.196761474609374,-0.10144143586754799,1.7973188860684632,-0.6160732122480869
1746476827735740400,12.206740478515625,-0.41682372857928274,1.55258015537858,-0.633135990729928
1746476827745719600,12.216719482421874,-0.6807827080458402,1.030626657807827,-0.7288292383342981
1746476827755698400,12.226698486328125,-0.7999170369923114,0.40967444134652614,-0.8615297358185052
1746476827765677600,12.236677490234374,-0.761978059220314,-0.1295966862499714,-0.9962386505156755
1746476827775657500,12.246657470703125,-0.641910833337903,-0.5553495712161064,-1.1598778916209935
1746476827785636400,12.25663623046875,-0.48334173510372636,-0.9561603226274251,-1.3242384327381849
1746476827795615500,12.266615478515625,-0.3100812636941671,-1.311037590381503,-1.4268641099542378
1746476827805594400,12.276594482421874,-0.12768237706124783,-1.598218455481529,-1.4312591300427913
1746476827815573500,12.286573486328125,0.13433014451265335,-1.7529858233451843,-1.4512608845859765
1746476827825552400,12.296552490234374,0.4547825435629114,-1.815499270403385,-1.4609639479547738
1746476827835531500,12.306531494140625,0.819302705463767,-1.8647101682960987,-1.5117735132157801
1746476827845510400,12.316510498046876,1.1364905862927437,-1.8213456583440302,-1.5254326207339763
1746476827855489500,12.326489501953125,1.423706522706151,-1.7673925343602894,-1.4538397951632738
1746476827865468400,12.336468505859376,1.6464765826940535,-1.6307769092589617,-1.4355629647165535
1746476827875447600,12.346447509765625,1.850022302252054,-1.4820523286908864,-1.421181388142705
1746476827885426400,12.356426513671876,1.961381905543804,-1.3482102599561214,-1.461611013686657
1746476827895405600,12.366405517578125,1.87218620326519,-1.1587339822828768,-1.4923258854240178
1746476827905384400,12.376384521484376,1.4853998855531214,-0.9906564664691686,-1.4537772513210772
1746476827915363600,12.386363525390625,1.0924416742730885,-0.8768670056819915,-1.4475626145899294
1746476827925342500,12.396342529296875,0.7271317867666482,-0.6812006411969661,-1.4388321956455707
1746476827935321600,12.406321533203124,0.3399111692905426,-0.4719014726787805,-1.2943594273030756
1746476827945300500,12.416300537109375,-0.040641806989908213,-0.3015630261957645,-1.0721616142451762
1746476827955279600,12.426279541015624,-0.3560965804159641,-0.12753741563260554,-0.8051075913727282
1746476827965258500,12.436258544921875,-0.5872007535070181,0.058413026002049444,-0.6140355689406395
1746476827975237600,12.446237548828124,-0.7268184830337763,0.30033728379309177,-0.46097442047297954
