time,seconds_elapsed,z,y,x
1746476650113744100,0.036744140625,-0.46598201950192447,-0.38063597838878627,0.6934370224356651
1746476650123724000,0.04672412109375,-0.14452654435634613,-0.42700493085384367,0.5721095673590898
1746476650133703000,0.056702880859375,0.04203998335003853,-0.3743973762601614,0.53107905331254
1746476650143683000,0.06668310546875,0.25339900700747964,-0.344462841245532,0.5853966266945004
1746476650153663200,0.076663330078125,0.6294874050945043,-0.27028175274729727,0.6096197983250021
1746476650163642000,0.08664208984375,1.0102221676826477,-0.2069721868753433,0.5549520963311195
1746476650173622000,0.0966220703125,1.3895605074763298,-0.14629238498508929,0.5696227189794183
1746476650183601200,0.10660107421875,1.7046569689840076,-0.04094225124120712,0.6578221036970615
1746476650193581000,0.1165810546875,2.0253473049759863,0.09415010981559753,0.7681558710724115
1746476650203560200,0.126560302734375,2.2942063314437866,0.1391770000219345,0.8401625381410122
1746476650213540000,0.1365400390625,2.3723253439128396,0.18936814112365244,0.9155977183535694
1746476650223520000,0.14652001953125,2.1944582554906606,0.3199742966771126,0.9092690998539328
1746476650233499100,0.1564990234375,1.8110685944795608,0.5445359162569046,0.8438692837044596
1746476650243479000,0.16647900390625,1.3298819915831088,0.7441314368844032,0.7374073893263936
1746476650253458000,0.1764580078125,0.7771545855641364,0.7493839505851269,0.657367930188775
1746476650263438000,0.18643798828125,0.19983049842715261,0.6514701043218374,0.5678560015678406
1746476650273417000,0.1964169921875,-0.23419804745316505,0.5324819058477879,0.5030117734745144
1746476650283397000,0.206397216796875,-0.5825275009989738,0.4037070573747158,0.4338911832362413
1746476650293376000,0.2163759765625,-0.8524147014707326,0.2803314375966787,0.41860476677715774
1746476650303356200,0.226356201171875,-0.9450766185551881,0.16717735210359094,0.417466702657938
1746476650313336000,0.236336181640625,-0.8850222550868988,0.0009556932896375655,0.3662418345943093
1746476650323315200,0.246315185546875,-0.6983171956926584,-0.07647358334958552,0.27024025169312954
1746476650333295000,0.256295166015625,-0.3983084132015705,-0.10194938538968562,0.25258272218853234
1746476650343274200,0.266274169921875,-0.09552899695336818,-0.155067812114954,0.39305180784761906
1746476650353254100,0.276254150390625,0.18737725956737994,-0.20700608914494514,0.5762403835535049
1746476650363233000,0.28623291015625,0.4088911820143461,-0.25757716947495934,0.6296709449678659
1746476650373213000,0.296212890625,0.4448018688291311,-0.2550368373423815,0.6535434034645557
1746476650383193000,0.306193115234375,0.4326373837828636,-0.2722059988081455,0.6731064743295312
1746476650393172000,0.316171875,0.3541016072064638,-0.30678689832389355,0.596160305032134
1746476650403152000,0.32615185546875,0.2309451831370592,-0.3180471280068159,0.4517424817472696
1746476650413131000,0.336131103515625,0.07904021896719932,-0.3376625135809183,0.3234790899276733
1746476650423111200,0.346111083984375,-0.1298784258008003,-0.38448505503237246,0.2008320766851306
1746476650433090000,0.356090087890625,-0.40507542311847206,-0.4142892416656017,0.06775251675546169
1746476650443070200,0.3660703125,-0.647916211232543,-0.429430696696043,-0.04304419195652008
1746476650453050000,0.376050048828125,-0.8050982390224933,-0.5147761532872915,-0.13966273771226406
1746476650463029200,0.386029296875,-0.9391828843414783,-0.6141776077598333,-0.22613018407076596
1746476650473009200,0.396009033203125,-0.9975836353838443,-0.6210299578726292,-0.30223785671740766
1746476650482988000,0.405988037109375,-1.0172083733081818,-0.7401046655863524,-0.29793577560931445
1746476650492968200,0.41596826171875,-1.0814525896817444,-0.8048205911248922,-0.3715905021458864
1746476650502947000,0.425947021484375,-1.22950497007668,-0.8564011407583951,-0.3896273863568902
1746476650512927000,0.435927001953125,-1.3212369128346442,-0.8711509661227465,-0.36424510781913993
1746476650522907100,0.4459072265625,-1.308777244234085,-0.8856085305422544,-0.4879290628939867
1746476650532886000,0.455885986328125,-1.3057798159837721,-0.8662000657171011,-0.6108253747224808
1746476650542866000,0.465865966796875,-1.1655009921997785,-0.7618143930912017,-0.6895806392684578
1746476650552845000,0.475844970703125,-0.9308429260194301,-0.6646195087522268,-0.8451932257845998
1746476650562825200,0.4858251953125,-0.764404409584403,-0.6282493877321481,-0.9825526549905538
1746476650572804000,0.49580419921875,-0.5951894141733646,-0.5409399375915527,-1.0382996766537427
1746476650582784300,0.5057841796875,-0.47627544997930527,-0.4093143758624792,-1.0788374387472868
1746476650592763100,0.51576318359375,-0.4601859004437923,-0.3438239588201046,-1.0033315313860773
1746476650602743000,0.525742919921875,-0.4193640607118606,-0.2726759544074535,-0.9205304985806345
1746476650612723200,0.53572314453125,-0.4952759185254573,-0.19131050736308097,-1.012717199368775
1746476650622702000,0.5457021484375,-0.5971504851132631,-0.06592179419696331,-1.062594744476676
1746476650632682000,0.555681884765625,-0.6088578740417957,0.03907996450066566,-0.9882619725480675
1746476650642661000,0.5656611328125,-0.5741057096123695,0.019708909076452254,-0.926603973275423
1746476650652641000,0.57564111328125,-0.46418110755980013,-0.06752864487171173,-0.9171996005922556
1746476650662620200,0.5856201171875,-0.2731915027141571,-0.13726912057399748,-1.095983803859353
1746476650672600000,0.59560009765625,-0.007004910326004028,-0.1119850417137146,-1.190304886327684
1746476650682580000,0.605580078125,0.14572422970831395,-0.21137948192358016,-1.2042746672302485
1746476650692559000,0.61555908203125,0.2345569438934326,-0.3241811007171869,-1.2916507528662682
1746476650702539000,0.6255390625,0.3816349262982607,-0.3415226961404085,-1.4683929289117454
1746476650712518000,0.635517822265625,0.44041737013459203,-0.12208382640182971,-1.7605699948638676
1746476650722498300,0.645498291015625,0.432218866109848,0.43762686263322825,-1.9226359953030943
1746476650732477200,0.655477294921875,0.4752870234638452,1.2024953825980425,-2.004422882629931
1746476650742457000,0.66545703125,0.6663140377104282,2.0045701821461317,-1.930697136683762
1746476650752437000,0.67543701171875,0.9886217457711696,2.58126210885942,-1.6213152534306048
1746476650762416000,0.685416015625,1.2595265988528728,2.9009307005882263,-1.101936867044866
1746476650772396500,0.695396484375,1.2597364422112702,2.940580866192281,-0.5387196311935782
1746476650782375700,0.705375732421875,1.1199486168146133,2.6705221085458994,-0.08298807981014251
1746476650792355600,0.71535546875,0.8315618830561637,2.2488474328041077,0.1568555723145604
1746476650802334500,0.72533447265625,0.5120692324161529,1.801392419117689,0.18213468273878097
1746476650812314600,0.735314697265625,0.32491701377630233,1.3263891810312867,0.13159341302514074
1746476650822294500,0.74529443359375,0.2882581389427185,0.8923091972246766,-0.01343757372200489
1746476650832273400,0.7552734375,0.3590460778713226,0.49430385862290854,-0.1274000529885292
1746476650842253600,0.765253662109375,0.4717138411521911,0.16530512849092482,-0.25290683957636356
1746476650852232700,0.775232666015625,0.7560942618787289,-0.04311170423477888,-0.31310850256085393
1746476650862212600,0.785212646484375,1.076285416176915,-0.04841097968667745,-0.2508645200937986
1746476650872191700,0.795191650390625,1.364813019710779,0.12403320690393448,-0.07791209172010422
1746476650882171600,0.805171630859375,1.6115975770145654,0.3676107848599553,0.18536065904796123
1746476650892151600,0.815151611328125,1.6759499299377203,0.6806757405400276,0.3820522749274969
1746476650902130700,0.825130615234375,1.673865524879098,0.9792562437936663,0.5705477248698473
1746476650912110600,0.835110595703125,1.6438526639312505,1.1987284312799573,0.6997837611138821
1746476650922089500,0.84508935546875,1.547673094114661,1.314064536987245,0.781377756217122
1746476650932069600,0.855069580078125,1.4814192914843558,1.310862526075542,0.7634060461968183
1746476650942048500,0.865048583984375,1.5319804349422455,1.2755652949839829,0.788828656744957
1746476650952028400,0.8750283203125,1.699031530317664,1.221666531535983,0.8291273493856192
1746476650962007600,0.885007568359375,1.7616840935856102,1.0795470483213663,0.9256126241505146
1746476650971987500,0.894987548828125,1.6581389634370802,0.8549825061321258,0.8671335471749305
1746476650981967600,0.904967529296875,1.6145277852475641,0.6196700676962733,0.9299123671710491
1746476650991946800,0.91494677734375,1.6965385444581507,0.4431619926676154,1.0360282245904207
1746476651001926700,0.9249267578125,1.7153396910399197,0.27063071231544017,1.1496715549051761
1746476651011905800,0.93490576171875,1.7639362564265726,0.1401274326145649,1.2777701115518807
1746476651021885700,0.9448857421875,1.801086714169383,0.05000175600945949,1.3236200085788965
1746476651031864600,0.954864501953125,1.8010113108456134,-0.02193856782466173,1.3258400227159262
1746476651041844500,0.964844482421875,1.8177607855945825,-0.05956073473244905,1.3267998076587915
1746476651051824600,0.97482470703125,1.8358973307877777,-0.04687105676829815,1.2858236541479826
1746476651061803500,0.984803466796875,1.8726444684267043,-0.023038638021051883,1.2513678423166275
1746476651071783400,0.994783447265625,1.9149615151524542,0.025050562365353107,1.1945949847370385
1746476651081762600,1.004762451171875,1.7924018879324197,0.1570999024644494,1.0389449888199567
1746476651091742500,1.014742431640625,1.5190519797861575,0.2112833280727267,0.9402660034030675
1746476651101721600,1.0247216796875,1.3403981249004602,0.31835517104268074,0.8490449327766895
1746476651111701500,1.034701416015625,1.1341279488146305,0.3572358135789633,0.80264266256392
1746476651121681700,1.044681640625,0.9569844984918833,0.29484862324893474,0.7953992673069238
1746476651131660800,1.054660888671875,0.8339256895780562,0.2044581582278013,0.6654512834012508
1746476651141640700,1.064640625,0.9654559742391109,-0.06083323888629674,-0.12023790627419947
1746476651151619600,1.07461962890625,0.797108993834257,-0.45501171267628665,-0.08212064932584762
1746476651161599700,1.084599853515625,0.7415911047518253,0.04055588227212429,1.0959230135828255
1746476651171578600,1.09457861328125,1.1192810928165913,0.383376217007637,1.365307525229454
1746476651181558500,1.10455859375,1.1719991220474242,0.0005126256972551345,1.087535708987713
1746476651191538700,1.11453857421875,1.0646920090168714,-0.30279812094867226,0.7099608717352152
1746476651201517600,1.124517578125,0.9435603687733412,-0.3983125048547983,0.6395400125533341
1746476651211497500,1.13449755859375,0.8424690615177154,-0.36648528796136376,0.7626368153899907
1746476651221476600,1.1444765625,0.7881950350165366,-0.3862123172163963,0.8036509628236294
1746476651231456500,1.15445654296875,1.2538000378996133,-0.6396949108541011,0.6308686303198338
1746476651241435600,1.164435546875,0.9554606499254703,-0.40024785683155056,0.679516633632779
1746476651251415600,1.17441552734375,0.4099415678501129,-0.10190145459473132,1.5272528218984602
1746476651261395700,1.184395751953125,0.48386955837011336,0.47305531888902186,1.7640426394104955
1746476651271374600,1.19437451171875,0.5251788893580437,0.5966816985577345,1.5080238052934407
1746476651281354800,1.204354736328125,0.4248480450809002,0.0794727651655674,1.4126274948090314
1746476651291333600,1.214333740234375,0.2294754028454423,0.20009879397451877,1.0600567504316567
1746476651301313500,1.2243134765625,0.06816226660013198,0.15981062272787094,0.7382844644218682
1746476651311292700,1.234292724609375,-0.15770868201255797,-0.1448497849613428,0.6511801814645528
1746476651321272600,1.2442724609375,-0.2217857251256704,-0.14287819262742996,0.3639350189566612
1746476651331252500,1.25425244140625,-0.3673012805193662,-0.2398819383084774,0.026546646142005918
1746476651341231600,1.264231689453125,-0.606438245679438,-0.4537421311318874,-0.2295674650430679
1746476651351211500,1.27421142578125,-0.8166048446819185,-0.505685084336996,-0.4688315637141466
1746476651361190700,1.284190673828125,-0.947040612104535,-0.6622662236243486,-0.6004512802243233
1746476651371170600,1.294170654296875,-0.9514268643647432,-0.7614052277684211,-0.7201724691480398
1746476651381149400,1.3041494140625,-0.9133031776756048,-0.8429027767598628,-0.8276870874494314
1746476651391129600,1.314129638671875,-0.980650036239624,-0.9104261609345674,-1.0552449662357568
1746476651401108500,1.3241083984375,-0.9874325359866023,-1.0652461357682943,-1.2319511941850185
1746476651411088400,1.33408837890625,-1.1202350325405597,-0.9200017985314131,-1.5632687226533888
1746476651421068500,1.344068603515625,-1.349020407295227,-0.8205734560519456,-1.952644472336769
1746476651431047700,1.354047607421875,-1.5614946987181901,-0.9188017750918864,-2.264158983704448
1746476651441027600,1.364027587890625,-1.7935498889237642,-0.798183345067501,-2.540430916777253
1746476651451006700,1.3740068359375,-1.8806287451788781,-0.6857523131519556,-2.622059983193874
1746476651460986600,1.383986572265625,-1.843086365509033,-0.4918190560698509,-2.5960107651799915
1746476651470965500,1.393965576171875,-1.7498223908782005,-0.26876608748733993,-2.5228929219990968
1746476651480945700,1.403945556640625,-1.627948992356658,-0.21104747349023817,-2.3478116649031637
1746476651490925600,1.413925537109375,-1.5676906307488678,-0.33373744909167286,-2.2254285632938147
1746476651500904400,1.423904541015625,-1.5925040233574808,-0.5556342333763837,-2.243997654685378
1746476651510884600,1.433884521484375,-1.7902302429817616,-0.7486556363105773,-2.3258774809926748
1746476651520863500,1.443863525390625,-2.0369661388382316,-0.8410662089824676,-2.382816927310824
1746476651530843400,1.453843505859375,-2.2579973923347887,-0.8746259487569331,-2.520548404699564
1746476651540822500,1.463822509765625,-2.418798925796151,-0.9683072720170021,-2.6922464490979907
1746476651550802400,1.473802490234375,-2.477569679194689,-1.0373083275288342,-2.869468225353956
1746476651560782600,1.483782470703125,-2.3584860575221476,-0.9766302792042493,-3.0594015991449353
1746476651570761700,1.49376171875,-2.2025246575683353,-0.8984417086303234,-3.198070649644732
1746476651580741600,1.50374169921875,-2.0268750990651547,-0.877399505123496,-3.235961112099886
1746476651590720800,1.513720703125,-1.9302280578672886,-0.8659948985338211,-3.281427562767267
1746476651600700700,1.52370068359375,-1.9233745387107133,-0.8821990143597126,-3.34671573523581
1746476651610679600,1.533679443359375,-1.8780320066839455,-0.9098732032269239,-3.285716784393787
1746476651620659700,1.54365966796875,-1.8407219744652508,-0.8734510597586631,-3.248536516034603
1746476651630639600,1.5536396484375,-1.7991688978493212,-0.7773632598787545,-3.352726666088402
1746476651640618500,1.563618408203125,-1.7811866664350031,-0.6425117218405008,-3.4276492206037044
1746476651650598400,1.573598388671875,-1.7465934919595718,-0.4132084606915712,-3.455113566112518
1746476651660577500,1.58357763671875,-1.7130138784408568,-0.16397124953866005,-3.34454335963279
1746476651670557400,1.593557373046875,-1.7419518036335706,0.07208499300181866,-3.092316319014132
1746476651680536600,1.60353662109375,-1.9019027116149663,0.2026110690563917,-2.7620284258544445
1746476651690516500,1.6135166015625,-2.179097020229697,0.2773141356021166,-2.40214648168087
1746476651700496600,1.62349658203125,-2.5447487799763677,0.24806232215464113,-2.092595671601593
1746476651710475800,1.633475830078125,-2.9897809504300352,0.112965284922719,-1.8069556062027812
1746476651720455700,1.64345556640625,-3.3723534498393533,-0.07856500267088412,-1.4921847233876586
1746476651730434600,1.6534345703125,-3.610739596632123,-0.29741350530087945,-1.2076228086143732
1746476651740414700,1.663414794921875,-3.69306599766314,-0.49206981596052646,-0.941723508735001
1746476651750393600,1.6733935546875,-3.6286014165371654,-0.6778109987586737,-0.679690236634016
1746476651760373500,1.68337353515625,-3.449673420885205,-0.8191390393346547,-0.4324544284313917
1746476651770352400,1.693352294921875,-3.1615386160612102,-0.933414822334051,-0.22616320955753325
1746476651780332500,1.70333251953125,-2.7791531636565923,-1.0199673166275023,-0.04236556204259395
1746476651790312400,1.7133125,-2.4053625211179255,-1.0047136333942412,0.09047872782647609
1746476651800291600,1.72329150390625,-1.9491993003189563,-0.9523463172972202,0.1667921521782875
1746476651810271500,1.733271484375,-1.4904624296396969,-0.8529875329226255,0.15498364096283912
1746476651820250600,1.743250732421875,-1.0764969400357454,-0.7017699664950371,0.10051029249727725
1746476651830230500,1.75323046875,-0.7905886521548032,-0.5293383471250533,0.0025222119539976117
1746476651840209400,1.76320947265625,-0.5592495012640952,-0.33097324507534504,-0.18313655325770378
1746476651850189600,1.773189453125,-0.3549035712391138,-0.10845336045622825,-0.35930502106845374
1746476651860169500,1.78316943359375,-0.14868439468815922,0.08464052319228649,-0.4704091882944107
1746476651870148400,1.7931484375,-0.014889526095986365,0.3094926501512527,-0.510830630531907
1746476651880128300,1.803128173828125,0.027979163163155317,0.5996797113299369,-0.528925090149045
1746476651890107400,1.813107421875,0.030157383985072374,0.912420549622178,-0.5538906045794487
1746476651900087300,1.82308740234375,0.005895049387961626,1.1938923894256352,-0.6409814435333013
1746476651910066400,1.83306640625,-0.0750165164090693,1.4690508082985878,-0.656829001006484
1746476651920046600,1.843046630859375,-0.2612566617053002,1.7119839508712291,-0.5414250907599926
1746476651930026500,1.853026611328125,-0.562539044328779,1.83354346113801,-0.32084464977085586
1746476651940005600,1.863005615234375,-0.8454460315018891,1.6902426591843365,-0.1692927368223667
1746476651949985500,1.872985595703125,-1.151113570407033,1.5901690045386552,-0.09296820655465125
1746476651959964400,1.88296435546875,-1.4280401679962873,1.3660136276721953,0.04316577250957489
1746476651969944600,1.892944580078125,-1.5774312496490777,1.09009591486454,0.040839375388622284
1746476651979923500,1.90292333984375,-1.6308780315458773,0.9727847096920013,0.015079495710134505
1746476651989903400,1.9129033203125,-1.6188531011007725,0.8940361671477556,0.0677040014386177
1746476651999883500,1.922883544921875,-1.456421482219547,0.6664946549743413,0.17875380812883376
1746476652009862400,1.9328623046875,-1.0921154379934073,0.5371522357463836,0.35714404364228247
1746476652019842300,1.94284228515625,-0.6430347228012979,0.6777560537010431,0.6061813483089208
1746476652029821400,1.952821533203125,-0.1265587798587978,0.7224474283426999,0.8687672858566046
1746476652039801300,1.96280126953125,0.40883740600049495,0.6071493165582418,1.0101818356722592
1746476652049780500,1.972780517578125,0.9851064311265945,0.44414954240024085,1.0100099862366914
1746476652059760600,1.9827607421875,1.49631290923357,0.34620822360813613,1.0574538744568824
1746476652069739300,1.9927392578125,1.8858327435627578,0.2586994515031576,1.3996820885181427
1746476652079719400,2.002719482421875,2.2029382068052885,0.25509412048757074,1.7399346185922622
1746476652089699600,2.012699462890625,2.330918105508387,0.40513796696066856,2.086522196906805
1746476652099678500,2.022678466796875,2.232488418677449,0.6378145039349794,2.3884371052801607
1746476652109658400,2.032658447265625,2.0259788808777928,0.6793710876822471,2.621898070630431
1746476652119637500,2.042637451171875,1.7993477615475653,0.6590320640087127,2.709991949146986
1746476652129617400,2.052617431640625,1.603097751955688,0.6771066498816013,2.773081150266528
1746476652139596500,2.062596435546875,1.4090835385918616,0.8293009523868561,2.853449402967095
1746476652149576400,2.072576416015625,1.293831019514799,0.8005068195790052,3.054508566406369
1746476652159556400,2.082556396484375,1.3181924305722117,0.695067253986001,3.145526807937026
1746476652169535500,2.092535400390625,1.4138786639139056,0.5865729769974947,3.170540253162384
1746476652179515400,2.102515380859375,1.550221025031805,0.5602379277795553,3.1662253125727173
1746476652189494300,2.112494384765625,1.6586363915652036,0.5738613794624805,3.156793467360735
1746476652199474700,2.122474609375,1.8944988650992511,0.5382505523771047,3.0675451581120488
1746476652209453300,2.132453369140625,2.237981755396724,0.4892079967886209,2.9130566071897745
1746476652219433500,2.14243359375,2.74992326977998,0.48242695834636684,2.7808775032311677
1746476652229413600,2.15241357421875,3.7361709798961877,0.4404530259698629,2.6226205396860838
1746476652239392500,2.162392578125,4.286266576106846,0.46390872035920616,2.4170354232549665
1746476652249372400,2.172372314453125,4.062796843416988,0.5687678557157516,2.022789437186718
1746476652259351600,2.1823515625,3.2134453289091587,0.7414332838416099,2.008452868798375
1746476652269331500,2.19233154296875,1.5048141955971717,1.2665168961316347,2.820584659719467
1746476652279310600,2.202310546875,-0.7663885691389442,1.1123089157164097,2.410361936840415
1746476652289290500,2.21229052734375,-2.5023636364504696,1.000038627320528,1.984532479506731
1746476652299270400,2.2222705078125,-2.966532176789641,1.1400544162541628,1.989362968403101
1746476652309249300,2.232249267578125,-2.1352577323727306,1.1341238571614027,2.0376538288414476
1746476652319229400,2.2422294921875,-0.5321639259397983,1.0669283897668123,2.265279512166977
1746476652329208300,2.252208251953125,1.2731122027434407,1.1653548617273568,2.7521231179118155
1746476652339188500,2.2621884765625,2.580793322303891,1.4251304180294275,3.187597770947218
1746476652349167400,2.27216748046875,3.154771021622419,1.5403741692781447,3.1083985620260237
1746476652359147500,2.2821474609375,2.966639436556399,1.4690572380393743,2.673519536796212
1746476652369126700,2.292126708984375,2.188345325568318,1.2362310634613036,1.8528040419250726
1746476652379106600,2.3021064453125,1.3817425272017716,1.1814385660439728,0.9655296239972114
1746476652389086500,2.31208642578125,0.8818618913598358,1.230452480059862,0.2450660629481077
1746476652399065600,2.322065673828125,0.7424732944138348,1.494403276219964,-0.2137391967922449
1746476652409045500,2.33204541015625,0.6478595126092433,1.6121271538466213,-0.9822627321332692
1746476652419024400,2.3420244140625,0.6501064147531986,1.8182015150994062,-1.6875573656231164
1746476652429004500,2.352004638671875,0.6437060461916029,2.4667788205891847,-1.8690911598592996
1746476652438984400,2.361984375,0.24930662312731144,3.0747464677929877,-1.293445235067606
1746476652448963300,2.37196337890625,-0.8734580740213393,3.127836252945661,0.1502566124409437
1746476652458943500,2.381943603515625,-1.6474416283339262,2.9966350541085003,0.9351397464305162
1746476652468922400,2.39192236328125,-2.0088713864713905,2.692475581678748,0.7679974656403065
1746476652478902500,2.401902587890625,-2.3962023324541746,1.9432798471421002,0.5918044479101896
1746476652488881400,2.41188134765625,-2.5684976120933887,1.279211542531848,0.35840836448967456
1746476652498861600,2.421861572265625,-2.4603297905802726,0.4836813423216343,0.3572065874844789
1746476652508840400,2.43184033203125,-2.028187935229391,-0.1284030925512314,0.4353992497116327
1746476652518820600,2.441820556640625,-1.5140876353770494,-0.48411739565134043,0.4809259061336517
1746476652528800500,2.451800537109375,-0.9527192422628402,-0.6903472397267818,0.26318974865972994
1746476652538779400,2.461779296875,-0.6049238955937326,-1.0193307722896336,0.4337123195379972
1746476652548759600,2.471759521484375,-0.4109717876806855,-0.6789215903490782,0.7033779862135648
1746476652558738400,2.481738525390625,0.20141133787781,-1.4829524924010038,1.6989917828291654
1746476652568718300,2.49171826171875,1.4788929878771304,-1.1866618536502123,1.29578741427958
1746476652578697500,2.501697509765625,2.0340303776472806,-0.987891677930951,0.6283031637459993
1746476652588677400,2.511677490234375,2.2134832739561796,-1.0858487788140774,0.43454643227457995
1746476652598657300,2.5216572265625,2.2531473219551144,-0.9747878662079572,0.09044131842553615
1746476652608636400,2.531636474609375,2.0202171024806796,-0.623012656122446,-0.5255564904987812
1746476652618616300,2.5416162109375,1.6357089588336646,-0.17498188837468623,-1.066661847785115
1746476652628595500,2.551595458984375,0.966266998361051,0.15114567023515701,-1.2815519681781529
1746476652638575600,2.56157568359375,-0.03425853569358587,0.32115093924105165,-1.5661170978218315
1746476652648554500,2.571554443359375,-0.8221370521068573,0.45846740608811376,-1.7820944289296865
1746476652658534400,2.581534423828125,-1.078040735411644,0.6882324395298958,-1.687412404194474
1746476652668514600,2.5915146484375,-0.7678226935952901,0.8218319316804409,-1.3669763352245092
1746476652678493400,2.601493408203125,0.04377513657957315,0.9670569796949624,-1.3867846130222081
1746476652688473300,2.611473388671875,0.49316637902557847,0.9447177221149206,-1.2813929782241582
1746476652698452500,2.621452392578125,0.3255772312507033,0.7929179718852043,-0.4596715211808681
1746476652708432400,2.631432373046875,-0.19433745396882293,0.6370996336638927,0.004346504771709442
1746476652718411500,2.64141162109375,-0.9361585680842399,0.3208627699494362,-0.40075872896313663
1746476652728391400,2.651391357421875,-1.863775225533545,-0.27426936107873917,-1.1932687045693398
1746476652738371300,2.661371337890625,-2.4179034382611513,-1.2707307144343851,-1.310966863232851
1746476652748350500,2.6713505859375,-2.7445029982969165,-1.620878615579009,-1.157732111763954
1746476652758330400,2.681330322265625,-2.8811686000198122,-1.7399299424171446,-1.2828262258976697
1746476652768309500,2.6913095703125,-2.460515376280248,-1.8233540755569935,-1.3792901656135916
1746476652778289700,2.70128955078125,-1.5492854977473616,-1.7580466138660906,-1.1344266395002602
1746476652788268500,2.7112685546875,-0.5420689416214823,-1.5353005192756652,-0.81838325253129
1746476652798248400,2.72124853515625,0.27428835804015395,-1.2877093217641113,-0.634320232078433
1746476652808228600,2.731228515625,0.8861404454618692,-1.2478560348033905,-0.723573802024126
1746476652818207500,2.74120751953125,1.2404402055889368,-1.2188310158491134,-1.0716177166268228
1746476652828187400,2.7511875,1.1967340425923465,-1.1527578304827213,-1.3181497604742645
1746476652838166500,2.76116650390625,0.9646467036828398,-1.0395213274031876,-1.493651581069827
1746476652848146700,2.771146728515625,0.6677455318182707,-0.7315671388655901,-1.918292997662723
1746476652858125600,2.78112548828125,0.20133476551026105,-0.5963163723766803,-2.0797420352473854
1746476652868105700,2.791105712890625,-0.03328764483481646,-0.6874468421101569,-1.6604305815055966
1746476652878085600,2.801085693359375,0.07102116316258907,-0.5756581997513771,-1.5472870174065232
1746476652888064500,2.811064453125,0.20966391017735003,-0.43078386487066744,-1.1068038885593414
1746476652898044700,2.821044677734375,0.36286066772341724,-0.7028156761556863,-0.3719827163338661
1746476652908023600,2.8310234375,0.3870210032507777,-1.0627350297302007,0.42222704892754553
1746476652918003500,2.84100341796875,0.5314321045339108,-1.33457979401052,1.0274778383880854
1746476652927982600,2.850982666015625,0.513730735887587,-1.339426649519801,1.2346017086938024
1746476652937962500,2.86096240234375,0.2072536341652274,-1.0493284356683492,0.9048445614099502
1746476652947942400,2.8709423828125,-0.12879238412976265,-0.8821616049587726,0.40579058565050363
1746476652957921500,2.880921630859375,-0.39334348427057264,-0.8618477157264948,0.10779869593977928
1746476652967901400,2.8909013671875,-0.5867147235557436,-0.9224228881984948,-0.06468173100799322
1746476652977880600,2.900880615234375,-0.6587474018484354,-0.7682260136991739,-0.3714697983756661
1746476652987860700,2.91086083984375,-0.6684259152978659,-0.5898749411523342,-0.6450003237858414
1746476652997839600,2.920839599609375,-0.6640753188729286,-0.6536158841788768,-0.7735860794275998
1746476653007819800,2.93081982421875,-0.6801753898024558,-0.6545692393809557,-0.9700207979366182
1746476653017799700,2.940799560546875,-0.723823685131967,-0.5891027877360582,-1.1301336184814572
1746476653027778600,2.950778564453125,-0.8878916730433702,-0.5886772558003663,-1.233069384559989
1746476653037758500,2.960758544921875,-1.021121601229161,-0.5964613338053226,-1.2798606540903448
1746476653047737600,2.970737548828125,-1.1225118914313614,-0.6354618033289909,-1.3121329844027756
1746476653057717500,2.980717529296875,-1.1634690479807555,-0.7170224806845188,-1.3743410187736154
1746476653067696600,2.990696533203125,-1.1381031360559164,-0.7457511470407248,-1.467856630077958
1746476653077676500,3.000676513671875,-1.0849173431828618,-0.7291618312895297,-1.5717255853533745
1746476653087656400,3.010656494140625,-1.0149714080363512,-0.7179483633577823,-1.6405504075154662
1746476653097635600,3.020635498046875,-0.9379986429929733,-0.6754419315397739,-1.7477146049439907
1746476653107615500,3.030615478515625,-0.9000625878304243,-0.7228864042818546,-1.8590329994425177
1746476653117594400,3.040594482421875,-0.9030464259468018,-0.7904021896719932,-1.9596444142267107
1746476653127574800,3.05057470703125,-0.7939856011167168,-0.7596545847088098,-2.078483851879835
1746476653137553700,3.0605537109375,-0.6494387446247041,-0.725149673038721,-2.124476664508879
1746476653147533600,3.070533447265625,-0.5803276528671384,-0.6523667609006166,-2.1124851979419588
1746476653157513700,3.080513671875,-0.5638572873204947,-0.648233022096753,-1.9481886619716882
1746476653167492600,3.09049267578125,-0.6206698923885822,-0.6699439186453819,-1.8199460206791758
1746476653177472500,3.100472412109375,-0.6114034668713808,-0.7369710437357425,-1.7771607719197868
1746476653187451600,3.11045166015625,-0.6165891989462077,-0.7516565716922283,-1.7119538479939103
1746476653197431600,3.120431640625,-0.6380249318152665,-0.7252016954869032,-1.681522761633992
1746476653207410700,3.13041064453125,-0.6582013122729957,-0.6176742177039385,-1.6624419213280082
1746476653217390600,3.140390625,-0.6462794038109481,-0.411578813663125,-1.6866045949429274
1746476653227370500,3.15037060546875,-0.5740810135625303,-0.11319500202536582,-1.7414640201166272
1746476653237349600,3.160349609375,-0.489646095944941,0.20305238308310508,-1.739752540023625
1746476653247329500,3.17032958984375,-0.36352103132829067,0.5103770415455102,-1.7249425089046357
1746476653257308400,3.180308349609375,-0.2941436898499727,0.7850713500380515,-1.7015554958373307
1746476653267288600,3.19028857421875,-0.4192142769776284,0.8604992237269878,-1.6714359596446156
1746476653277267700,3.200267822265625,-0.7343623225420713,0.6980535763204098,-1.7655746712833642
1746476653287247600,3.21024755859375,-1.0257013302348554,0.42220951327085493,-2.006032071392238
1746476653297227500,3.2202275390625,-1.2613923927247523,0.07710954316556454,-2.157798211613297
1746476653307206700,3.23020654296875,-1.3816817369252443,-0.3156938428789377,-2.1968398899301884
1746476653317186600,3.2401865234375,-1.4227642734199761,-0.6081149467200041,-2.13691412127763
1746476653327165700,3.250165771484375,-1.3867493955783545,-0.7751163577347994,-1.992682760475576
1746476653337145600,3.2601455078125,-1.3876046972334384,-0.8899667257517576,-1.835520021907985
1746476653347124500,3.27012451171875,-1.4112702349811792,-0.8851099333703517,-1.6347437670633196
1746476653357104600,3.280104736328125,-1.3956839587926864,-0.8246984270274639,-1.337440444138646
1746476653367084500,3.29008447265625,-1.3172986966028808,-0.6641688423752784,-1.0443953631803393
1746476653377063400,3.3000634765625,-1.1096556247286498,-0.5002987151235342,-0.8040490222305059
1746476653387043600,3.310043701171875,-0.7842676324397325,-0.4582511329889297,-0.5356655043199658
1746476653397022500,3.3200224609375,-0.4202665625095367,-0.4732528872877359,-0.3634469431787729
1746476653407002600,3.330002685546875,-0.17183599156439303,-0.5175730905294418,-0.17476678431928155
1746476653416981800,3.339981689453125,0.023306056785583496,-0.6233756442159414,0.05988368307650089
1746476653426961700,3.349961669921875,0.19305179807245731,-0.719895990294218,0.35398119569718833
1746476653436941600,3.359941650390625,0.3229664642304182,-0.8717389951437711,0.5983174830660224
1746476653446920700,3.369920654296875,0.37652035976350307,-0.861367823255062,0.7404606394171714
1746476653456900600,3.379900634765625,0.42217517260983584,-0.8157657635092734,0.7809288434058428
1746476653466879500,3.38987939453125,0.5518718121029437,-0.6689420481264591,0.7815370384320617
1746476653476859600,3.399859619140625,0.6592185264915228,-0.39931788250505923,0.7984200764328241
1746476653486838500,3.409838623046875,0.7368944713681936,-0.13122282614707945,0.723465665474534
1746476653496818400,3.419818359375,0.7151344749808312,0.19491525385677813,0.500619909901917
1746476653506798600,3.429798583984375,0.5709621508896351,0.4523690892130136,0.2786395389869809
1746476653516777500,3.439777587890625,0.5086243526592851,0.6923322760641575,0.10648322942703961
1746476653526757400,3.44975732421875,0.3561855738736689,0.9026695554584264,-0.12080196989774704
1746476653536736500,3.459736572265625,0.02926058127582073,0.9841519068807363,-0.3322551015794277
1746476653546716700,3.469716552734375,-0.2579939335823059,1.106008354267478,-0.4994201787233352
1746476653556695800,3.47969580078125,-0.35088030707240103,1.2540011134296656,-0.3380851229071617
1746476653566675700,3.48967578125,-0.5987216799527406,1.2874965557962654,-0.23862696981132028
1746476653576655600,3.499655517578125,-0.9530594340026378,1.1905015779435635,-0.18275018428862094
1746476653586634800,3.509634765625,-1.276678809183836,1.0465022723317146,-0.10490238997638225
1746476653596614700,3.51961474609375,-1.4079174174219369,0.7534393634557723,-0.03335398806929588
1746476653606593500,3.529593505859375,-1.500259016510844,0.41491935626268384,0.16394786866307257
1746476653616573700,3.53957373046875,-1.5248241334468124,0.15565467209219933,0.2746200742125511
1746476653626552600,3.549552490234375,-1.4624439573794603,-0.07252104633152484,0.41629064461588855
1746476653636532500,3.559532470703125,-1.2417941044159233,-0.2350274840146303,0.5194114118725061
1746476653646512400,3.569512451171875,-0.9246176217637956,-0.3654308104723692,0.6004565409213304
1746476653656491500,3.579491455078125,-0.7192768354825675,-0.42558454266190526,0.754407916226983
1746476653666471400,3.589471435546875,-0.4798777122549712,-0.46777416361570356,0.812357416370511
1746476653676450600,3.599450439453125,-0.30133082487508656,-0.4233089989453554,0.9071738811403512
1746476653686430700,3.6094306640625,-0.2350273378841579,-0.36140988439321514,1.0860925244420767
1746476653696409600,3.61940966796875,-0.32347777475342154,-0.23991642509996888,1.2856553118437528
1746476653706389800,3.6293896484375,-0.39620457279011606,-0.08113163828849793,1.421593476074934
1746476653716369700,3.63936962890625,-0.4660381336033344,0.0785790311962366,1.5830565421849487
1746476653726348500,3.6493486328125,-0.5852339834786952,0.16700842527747153,1.7096031932145357
1746476653736328700,3.65932861328125,-0.7130202593058347,0.29735329954624173,1.838534109032154
1746476653746307600,3.6693076171875,-0.8063625598698854,0.4255184916883707,1.973826961097121
1746476653756287500,3.67928759765625,-0.8860825777947902,0.5156324778556823,2.082251095458865
1746476653766266600,3.6892666015625,-0.8860461913071572,0.6125140584617853,2.2156208705067635
1746476653776246500,3.69924658203125,-0.8028091051720082,0.7089590012162923,2.326424593481421
1746476653786226400,3.709226318359375,-0.6480212790422141,0.8091179960578679,2.4382372012376785
1746476653796205600,3.71920556640625,-0.5036386732012034,0.8108376594573259,2.537624042662978
1746476653806185500,3.729185546875,-0.3156991035759449,0.8389648527890443,2.47307236777544
1746476653816164600,3.73916455078125,-0.09574278583452105,0.8629951321959495,2.3708412428349255
1746476653826144500,3.74914453125,0.12184826408028603,0.8197469420999288,2.278971937432885
1746476653836123400,3.759123291015625,0.30568931234553454,0.7294716278910637,2.1360785472363233
1746476653846103600,3.769103515625,0.4987029703646898,0.61547057017982,1.985726073205471
1746476653856083500,3.77908349609375,0.687755615798384,0.44559214242398737,1.8537515519082546
1746476653866062300,3.789062255859375,0.8854501251101493,0.34154666153788565,1.605171343359351
1746476653876042500,3.79904248046875,1.006971787584573,0.35125323203802106,1.3909031542569399
1746476653886021600,3.809021728515625,1.0516362742193042,0.4182359334647655,1.1867694056779146
1746476653896001500,3.81900146484375,1.0409833627797662,0.5010270293980836,0.9964712902277707
1746476653905980700,3.828980712890625,0.9602848552115261,0.5718804347783327,0.8410147710561752
1746476653915960600,3.838960693359375,0.8258781383313238,0.5884703350514173,0.7872896106094122
1746476653925940500,3.8489404296875,0.5889246546901762,0.6174111828535794,0.794906515353918
1746476653935919600,3.858919677734375,0.38534240251407026,0.6462520774126053,0.811935976088047
1746476653945899500,3.8688994140625,0.21898995692729947,0.6471779600858688,0.8577297590136528
1746476653955878400,3.87887841796875,0.15068462859466672,0.6150391930252314,0.9252817847609519
1746476653965858600,3.888858642578125,0.18586524756923317,0.598847936680913,0.9549421790093183
1746476653975837400,3.89883740234375,0.3251316794402897,0.591320463785529,0.99098964394629
1746476653985817300,3.9088173828125,0.5337579171329736,0.5554571232438087,1.0246288786977529
1746476653995797500,3.918797607421875,0.7644934030421078,0.47430093503594395,1.0833183835536242
1746476654005776400,3.9287763671875,0.943079307258129,0.37207507079243657,1.048480294406414
1746476654015755500,3.938755615234375,1.1329273408532141,0.3926291985213756,0.9283937793016434
1746476654025734400,3.948734375,1.2938017934203148,0.5732084685117006,0.7809697599381208
1746476654035714300,3.95871435546875,1.3768559242039917,0.616126988261938,0.6432178242832421
1746476654045694500,3.968694580078125,1.3889827075883745,0.4930301854252815,0.49902738001346586
1746476654055673600,3.978673583984375,1.300555943855643,0.31658523876070976,0.2850333316773176
1746476654065653500,3.988653564453125,1.2463272178009153,0.15215046336352825,-0.003924479967355728
1746476654075632600,3.998632568359375,1.2302661637075245,0.092246906542778,-0.3671808690100908
1746476654085612500,4.008612548828125,1.212117781946063,0.12653846772313118,-0.6153080730944872
1746476654095591400,4.01859130859375,1.1408698242902755,0.1476595816850662,-0.7748515693187713
1746476654105571600,4.028571533203125,1.0791479660011827,0.2863818236768246,-1.0064911644607781
1746476654115551500,4.038551513671875,1.1190135279215871,0.7015665528774261,-1.4003911135703324
1746476654125530400,4.0485302734375,1.1926046877026557,1.3974001150608062,-1.834703152567148
1746476654135510500,4.058510498046875,1.0294453390687703,1.7712147229969502,-1.8661445850133895
1746476654145489400,4.068489501953125,0.8407916298247873,1.7116525269597769,-1.4947335310876368
1746476654155469300,4.07846923828125,0.7485239727549254,1.5991723952054977,-0.9712538468629122
1746476654165448400,4.088448486328125,0.6530572273828089,1.5517027880221603,-0.266302327722311
1746476654175428400,4.098428466796875,0.4453485429264605,1.3978607183098792,0.4774801495939493
1746476654185408500,4.108408447265625,0.010312281308323144,1.1136702671974896,1.1463403646558523
1746476654195387600,4.1183876953125,-0.41608255482316014,0.7776461684733629,1.5042366879701614
1746476654205367600,4.128367431640625,-0.7339981654047966,0.31875849114656446,1.4571137022674083
1746476654215346700,4.1383466796875,-0.963102104589343,-0.27903262995779515,1.1558417679727078
1746476654225326600,4.14832666015625,-1.1016956056348979,-0.8824860146075486,0.6265946062624455
1746476654235306500,4.158306396484375,-1.4076970526695252,-1.2194663911432027,0.13084054883122442
1746476654245285600,4.16828564453125,-1.712744998371601,-1.475581671372056,-0.13395955763459205
1746476654255265500,4.178265625,-1.9058665006794033,-1.5189268921017647,-0.41575872969627375
1746476654265244400,4.188244384765625,-1.9812654405348002,-1.4853566309332846,-0.7194236966073513
1746476654275224300,4.198224365234375,-1.9085414189770817,-1.343690152183175,-1.021284828966856
1746476654285203500,4.208203369140625,-1.5069348410129546,-1.0303472563445568,-0.9664251115322112
1746476654295183400,4.218183349609375,-1.2486170823037623,-0.7736679124921559,-1.189211538133025
1746476654305163300,4.228163330078125,-0.9726416479595005,-0.44137773959934706,-1.1335364126622676
1746476654315142400,4.238142333984375,-0.7785365414418279,-0.05989888064563274,-1.063417166775465
1746476654325122600,4.24812255859375,-0.7826222033202648,0.31255612937510013,-0.8567974465996027
1746476654335101700,4.258101806640625,-0.8569231188058852,0.5836988828659058,-0.5602180540353059
1746476654345081600,4.26808154296875,-1.0046271241545677,0.6854927854329347,-0.3558277003467083
1746476654355060500,4.278060546875,-1.1351479395121336,0.658470338472724,-0.14824235000908373
1746476654365040600,4.28804052734375,-1.268100512061268,0.5246382066100835,0.05443067836761474
1746476654375020500,4.2980205078125,-1.3300637778908013,0.4034048595577478,0.15631109017431735
1746476654385000400,4.30800048828125,-1.3546534447461367,0.2383697801798582,0.1439969675242901
1746476654394979600,4.3179794921875,-1.0945335319858043,0.33219489582479,0.45183249811828136
1746476654404959500,4.32795947265625,-0.93469192959778,0.3201531603753567,0.6242611948788166
1746476654414938400,4.3379384765625,-0.8139331412546336,0.33834406610429285,0.7226572717010974
1746476654424918500,4.34791845703125,-0.6327928763806819,0.24784780262112616,0.6226449918538332
1746476654434897400,4.3578974609375,-0.5155525444872677,0.09895429522693157,0.46089434097409243
1746476654444877300,4.367877197265625,-0.3416618123501539,-0.11262217057347297,0.37324353004992006
1746476654454857500,4.377857421875,-0.2363005726903677,-0.325866861847043,0.273991713181138
1746476654464836600,4.387836669921875,-0.017779110057651995,-0.5463976184755563,0.10309855542480945
1746476654474816500,4.39781640625,0.3325568610049784,-0.7246598436951637,0.024921675288677215
1746476654484795600,4.407795654296875,0.5844497012332082,-0.8288847728013992,-0.07886427787840367
1746476654494775600,4.417775634765625,0.6750877112746239,-0.8041378695577382,-0.08746902461647987
1746476654504754400,4.42775439453125,0.8101121216617524,-0.717842564895749,0.07503215236961841
1746476654514734600,4.437734619140625,0.9344194693319499,-0.7864215956032276,0.04878711952269077
1746476654524714500,4.447714599609375,1.0185736703120172,-0.4433130915760994,0.02661094354987144
1746476654534693400,4.457693359375,1.016814405554533,-0.39043724143505093,0.24888415993154048
1746476654544673500,4.467673583984375,0.92957027573511,-0.2810691042214632,0.33682314014732834
1746476654554652400,4.47765234375,0.9326042366035282,-0.08721417307257652,0.31233225749135013
1746476654564632300,4.48763232421875,0.8283015660859644,-0.09306991336345673,0.3105401133775711
1746476654574612700,4.49761279296875,0.7284020989634096,-0.059764440611004825,0.30331250021159645
1746476654584591400,4.50759130859375,0.5769125837266444,-0.18035715167224406,0.3266302474349737
1746476654594571500,4.517571533203125,0.44964945499077436,-0.28478783248364925,0.2728209158360958
1746476654604550700,4.527550537109375,0.4169540769606828,-0.33422727843523026,0.2224059028506279
1746476654614530600,4.537530517578125,0.4868552961826324,-0.40732466334998607,0.2619499777317047
1746476654624509700,4.547509765625,0.5780078316174447,-0.4859107088088989,0.2650596341848373
1746476654634489600,4.557489501953125,0.6723181004308164,-0.5877630635648966,0.2838081737965345
1746476654644469500,4.567469482421875,0.7243640756189823,-0.7026257065415382,0.26745442036688327
1746476654654448400,4.577448486328125,0.8016967600159347,-0.858764362758398,0.23817104273736475
1746476654664428500,4.587428466796875,0.8716400648139416,-0.9879536372512578,0.23847557864189148
1746476654674407400,4.597407470703125,0.8956004938550293,-1.0173036503762005,0.2772311334937811
1746476654684387300,4.60738720703125,0.9140256467312574,-1.0569266357123852,0.3322901728928089
1746476654694366500,4.617366455078125,0.9010217882513999,-1.0516519101798534,0.3121644997090101
1746476654704346400,4.627346435546875,0.8746152812324464,-0.9834060569494962,0.21864275092482566
1746476654714326500,4.637326416015625,0.8072979410238563,-0.8476806586861609,0.050642976522445676
1746476654724305400,4.647305419921875,0.716286129233986,-0.6386223131865263,-0.14487316583693027
1746476654734285600,4.65728564453125,0.5615275291986763,-0.35836803247928617,-0.21654081020951269
1746476654744264700,4.6672646484375,0.2659066064029932,-0.07564940748512744,-0.2745464244544506
1746476654754244600,4.67724462890625,-0.027398148404806852,0.08030512433648108,-0.39970951217114925
1746476654764223500,4.687223388671875,-0.30861922831758853,0.05866378589272499,-0.6063146192997694
1746476654774203100,4.697203125,-0.4440120336256921,0.009755085816979408,-0.8236252448379993
1746476654784183000,4.70718310546875,-0.5453077774122357,-0.050336687052249904,-0.9701298112690449
1746476654794162000,4.717161865234375,-0.630772038077563,-0.08109072175621986,-1.0976178348019718
1746476654804142000,4.72714208984375,-0.7181488543659448,-0.07834639148414134,-1.2595736528649926
1746476654814121000,4.737120849609375,-0.9252573809720576,-0.15054770434200762,-1.3662038895472883
1746476654824100900,4.747100830078125,-0.9905617739230393,-0.3390817327290773,-1.4279688563257456
1746476654834080000,4.757080078125,-0.937697029697895,-0.4124152644872665,-1.606415498201549
1746476654844060000,4.767059814453125,-0.8291874090097844,-0.42602936381995676,-1.7657482742846011
1746476654854039800,4.777039794921875,-0.7246446461260319,-0.45188452056646344,-1.8297525444224476
1746476654864019000,4.78701904296875,-0.6494551112376153,-0.53443596252501,-1.873764120106399
1746476654873999000,4.7969990234375,-0.5620082984529435,-0.6447545323312283,-1.8869927272528408
1746476654883978000,4.80697802734375,-0.41752047867178915,-0.8143179027885198,-1.9885989982932806
1746476654893958100,4.816958251953125,-0.2404308043628931,-0.85473233076334,-2.0974492491126058
1746476654903938000,4.82693798828125,-0.053980011990666384,-0.857872966876626,-2.1988260953113437
1746476654913917200,4.836917236328125,0.13737477290555833,-0.7725690113395453,-2.2614657990977167
1746476654923897000,4.84689697265625,0.2798445308625698,-0.6238689806908368,-2.2837328682243823
1746476654933876000,4.8568759765625,0.3540476850621402,-0.42868660033047196,-2.333057163363695
1746476654943856000,4.866856201171875,0.3986724242083728,-0.1476473067253828,-2.3789175817847252
1746476654953835000,4.8768349609375,0.32408407008349893,0.16488076559901235,-2.3810358891129493
1746476654963815000,4.88681494140625,0.12264277545884252,0.38162674299180505,-2.3022066825479266
1746476654973794800,4.896794921875,-0.17384221682026982,0.4492091638773679,-2.2590806575268507
1746476654983774000,4.90677392578125,-0.5283147031657397,0.34248832630217074,-2.2596976203814148
1746476654993753900,4.91675390625,-0.7873447017975151,0.12326046896576881,-2.309196687565744
1746476655003733000,4.92673291015625,-0.9979116982944309,-0.19827859281003474,-2.3376219870612025
1746476655013713000,4.936712890625,-1.124995963332057,-0.5590992791384458,-2.3663959538638593
1746476655023691800,4.94669189453125,-1.1315127978801727,-0.8187579310625791,-2.348740470185876
1746476655033672200,4.956672119140625,-1.0359140966914593,-1.0117202972859143,-2.273908516563475
1746476655043652000,4.966652099609375,-0.9685795130871235,-1.15317050293684,-2.1308201883167026
1746476655053631000,4.976630859375,-0.915589242786169,-1.171742516937852,-2.0066902430400253
1746476655063611100,4.986611083984375,-0.8271212702602148,-1.0817214697510003,-1.8682330817252397
1746476655073590000,4.996590087890625,-0.7224918520063162,-0.9073796328455209,-1.7669854148641229
1746476655083570000,5.00656982421875,-0.6089933369897306,-0.72621467192173,-1.586709511734545
1746476655093549000,5.016549072265625,-0.4117131075672805,-0.5739607481837272,-1.3799845776185393
1746476655103529000,5.026529052734375,-0.20634908654093742,-0.5088134454905987,-1.1679130217775702
1746476655113508900,5.0365087890625,-0.059879591423273086,-0.5077098681628703,-1.0002651295527816
1746476655123488000,5.046488037109375,0.05810381392240524,-0.5674433291137219,-0.86446754283607
1746476655133468000,5.056468017578125,0.19377777425944803,-0.6667600279122591,-0.7763219341322779
1746476655143447000,5.066447021484375,0.25628844483867286,-0.7324842537105083,-0.6675102617576718
1746476655153427000,5.076427001953125,0.19054756016656754,-0.8570955527633428,-0.4619701535120606
1746476655163405800,5.08640576171875,0.024919921723008154,-0.9477449609816074,-0.3176613435596227
1746476655173386000,5.096385986328125,-0.13932196145057676,-0.939213279479742,-0.280554724958539
1746476655183366100,5.1063662109375,-0.22827976332008837,-0.867263311034441,-0.29710283191651105
1746476655193345000,5.116344970703125,-0.3102424456052482,-0.6732663410663604,-0.31812837654948234
1746476655203325000,5.126324951171875,-0.39099502144828435,-0.4878922380149364,-0.35365912413597106
1746476655213304000,5.136303955078125,-0.42023850545883173,-0.27471827389001846,-0.47741234505474567
1746476655223284000,5.146283935546875,-0.42136254105269905,-0.07853402301073074,-0.686889208227396
1746476655233263900,5.156263916015625,-0.4043155446618795,0.074941551476717,-0.868762609681487
1746476655243243000,5.166242919921875,-0.331585970146209,0.273003286665678,-0.8613520411640405
1746476655253223000,5.176222900390625,-0.240987707593292,0.46251229756474493,-0.7475736862927674
1746476655263202000,5.1862021484375,-0.12867138809859752,0.6466121428966521,-0.5992763912260533
1746476655273182000,5.196181884765625,-0.05325228223800659,0.7690922751396894,-0.44134500637352464
1746476655283160800,5.206160888671875,-0.050870793928951025,0.8162339655429124,-0.2857037782847881
1746476655293141000,5.21614111328125,-0.07600245870649815,0.7885229517966509,-0.1822773060798645
1746476655303121200,5.22612109375,-0.2072305455505848,0.7055132446765899,-0.11733809317946434
1746476655313100000,5.23610009765625,-0.3858107506781816,0.6372621307492256,-0.02136953576505184
1746476655323080000,5.246079833984375,-0.5899415766477585,0.5285638556212187,0.2052075152903795
1746476655333059000,5.25605908203125,-0.802472128302604,0.39487259353399273,0.44176235500276084
1746476655343039000,5.2660390625,-0.9479266011588275,0.2264233217984438,0.712100221851468
1746476655353018000,5.27601806640625,-0.9807388835668563,0.04805179098546505,1.0265572164118288
1746476655362998000,5.285998046875,-0.9386443935506045,0.031252631875872613,1.1380635346978902
1746476655372978000,5.29597802734375,-0.803875419229269,0.01371814422905445,1.2581295915365218
1746476655382957000,5.30595703125,-0.7199998890601098,-0.1145335571527481,1.4333441196233034
1746476655392937000,5.31593701171875,-0.6848194162160158,-0.02310322768986225,1.6051842028409242
1746476655402915800,5.325915771484375,-0.608194295566529,0.06235094997286796,1.8325521120131014
1746476655412896000,5.33589599609375,-0.45745326060950753,0.15074819535017012,2.0329285538852213
1746476655422875000,5.345875,-0.31297976161465046,0.2281301257163286,2.131884018155932
1746476655432854800,5.355854736328125,-0.1731095186315477,0.37499592667520043,2.2495412602871654
1746476655442835200,5.365835205078125,0.018623451927304267,0.5244990904003382,2.3299229569911954
1746476655452814000,5.37581396484375,0.22907938926517962,0.632794629946351,2.387526420176029
1746476655462794000,5.3857939453125,0.3644717561818659,0.7237339610219001,2.4307132354736325
1746476655472773000,5.395773193359375,0.4429325678259134,0.8163385949611663,2.4197885213553905
1746476655482753000,5.4057529296875,0.42407822975218296,0.8806617217898368,2.3281892650663853
1746476655492733000,5.41573291015625,0.3140864076822996,0.9077712625116109,2.2037240964859723
1746476655502712000,5.425712158203125,0.18323709102272986,0.9150169958561658,2.089159559673071
1746476655512692000,5.43569189453125,0.03844590438082814,0.9027981502741574,2.0662480551630256
1746476655522671000,5.445671142578125,-0.09491349540352821,0.873391438525915,2.0529174489468334
1746476655532651000,5.455651123046875,-0.1621738447278738,0.8087427330046891,2.0680401992768047
1746476655542630000,5.4656298828125,-0.22839491413235663,0.744236066302657,2.103694865503907
1746476655552610000,5.475610107421875,-0.25602526385784147,0.6375923856168985,2.1329443408638236
1746476655562590000,5.48558984375,-0.16283654642030596,0.4990910928994417,2.0979636283755303
1746476655572568800,5.49556884765625,-0.06908508053347467,0.3972755630224943,2.0578338625609875
1746476655582549000,5.505549072265625,-0.007467121010273694,0.31200667879879473,2.027384363761544
1746476655592528100,5.515528076171875,0.03667173431515693,0.2470879241645336,1.8802613731712101
1746476655602508000,5.525508056640625,0.12933964274898171,0.2876484826117754,1.6769453707158564
1746476655612487200,5.535487060546875,0.2795768198370933,0.36135669290125366,1.5050164401710033
1746476655622467000,5.545467041015625,0.4868294310890138,0.39608489193320273,1.4837825134843587
1746476655632447000,5.555447021484375,0.7031739880740642,0.4628653487861156,1.5410995609432458
1746476655642426000,5.565426025390625,0.933334742835164,0.5251829810112715,1.5834785669893026
1746476655652406000,5.575406005859375,1.1362955021120607,0.5745242272853851,1.6065864708542823
1746476655662385000,5.585385009765625,1.2983242392808199,0.6537146683782339,1.6216174512475727
1746476655672365000,5.595364990234375,1.426683638820797,0.747746120250225,1.5925871715962885
1746476655682344000,5.605343994140625,1.4616688813537357,0.7708505169838666,1.5478689089477062
1746476655692323800,5.61532373046875,1.4221727372676134,0.7497077757120132,1.4720751245558261
1746476655702304000,5.625303955078125,1.242071606183052,0.6639326955318451,1.2620575786352157
1746476655712283000,5.635282958984375,1.059924063962698,0.5726373906254768,0.9180658620327711
1746476655722263000,5.645262939453125,0.9146336956270038,0.6107552320957184,0.4761871871739626
1746476655732242200,5.6552421875,0.8667368029423057,0.6841033769011498,0.1224848084181547
1746476655742222000,5.66522216796875,0.8318570666104554,0.6917647053092718,-0.09196282890439032
1746476655752201000,5.675200927734375,0.7126790446527301,0.6389262645691632,-0.19356267020404339
1746476655762181000,5.68518115234375,0.5777461119413375,0.48255263055264946,-0.2698579743772745
1746476655772160800,5.695160888671875,0.4769138940133154,0.3059194678395986,-0.39828795493543145
1746476655782140000,5.705139892578125,0.4441267460465431,0.2085059723138809,-0.6226449918538332
1746476655792120000,5.7151201171875,0.45392347904816266,0.23144787196218966,-0.9027771074861287
1746476655802099000,5.725098876953125,0.5124235988117755,0.39682431212365626,-1.1828040091782808
1746476655812078800,5.735078857421875,0.6078655020035802,0.754005180644989,-1.30585872643888
1746476655822058000,5.74505810546875,0.6625614071786403,1.277318276131153,-1.2319658072322606
1746476655832038000,5.755037841796875,0.5934025307565927,1.8105688282638788,-1.200528466439247
1746476655842017800,5.765017822265625,0.48890638349354265,2.1318892788529396,-1.1786264312326908
1746476655851997000,5.774996826171875,0.29809432717189194,2.26458334659636,-1.0679197388917208
1746476655861976800,5.784976806640625,-0.21092048610970376,2.0162322706282136,-0.7421943313419819
1746476655871956000,5.7949560546875,-0.7722789423517883,1.5234744724035263,-0.5506120213001966
1746476655881936000,5.804935791015625,-1.1188690048843621,0.9531126254945993,-0.5132172334074974
1746476655891915800,5.814915771484375,-1.448652747914195,0.1972428200215101,-0.41477030318081376
1746476655901895000,5.82489501953125,-1.6246620796404778,-0.6435176840126514,-0.5469026453882455
1746476655911874800,5.834874755859375,-1.7187823788397014,-1.20248135407269,-0.8113444399356842
1746476655921853700,5.844853759765625,-1.6795231122493743,-1.5876567294567823,-0.6245622236520052
1746476655931833900,5.854833740234375,-1.4817324490867554,-1.8737234958350657,-0.6153676943272351
1746476655941813000,5.86481298828125,-1.005565427917987,-1.7869062131255864,-0.7130202593058347
1746476655951793000,5.87479296875,-0.39884018199071286,-1.5367624085217713,-0.7752075431495904
1746476655961772800,5.884772705078125,0.095807229372859,-1.2118442257016897,-0.6907102278202771
1746476655971752000,5.894751953125,0.56496612534523,-0.8141594973564148,-0.534089341044426
1746476655981731800,5.90473193359375,0.9544069030888378,-0.3028010435581207,-0.5446259326279163
1746476655991711000,5.9147109375,1.2198843242943287,0.1275830083400011,-0.4256371496319771
1746476656001691000,5.92469091796875,1.254433513497561,0.25465806715786454,-0.5117588512927294
1746476656011669800,5.934669677734375,1.1695150501467286,0.6112544137895107,-0.6873264306008815
1746476656021650000,5.94464990234375,0.7975928318284452,0.7936264124155044,-0.3694178342819214
1746476656031629800,5.9546298828125,0.21769100315794349,0.5673661722242832,-0.13132336391210556
1746476656041608700,5.964608642578125,-0.268310014282912,0.4136480211526155,-0.16653905420005322
1746476656051588900,5.9745888671875,-0.6394599330544471,0.24769056623280047,-0.07723404632806778
1746476656061567700,5.984567626953125,-0.9105389736592769,0.18358312798142432,0.2976461450129747
1746476656071548000,5.9945478515625,-1.088513175717741,0.17020517549216746,0.6131260528802871
1746476656081527000,6.004527099609375,-1.1460066026568412,0.2184054350376129,0.739038497659564
1746476656091507000,6.0145068359375,-1.0091045618295669,0.2806470794171095,0.9060919311225414
1746476656101486800,6.02448681640625,-0.7613309934884309,0.24458558595478533,1.1468950759291647
1746476656111466000,6.034466064453125,-0.4914199737496674,0.16386603559851645,1.2681699240356683
1746476656121446000,6.04444580078125,-0.25474793739840385,0.025287585991621016,1.2658598935276268
1746476656131425000,6.054425048828125,-0.03560951191112399,-0.21462533197700975,1.1686696853637695
1746476656141405000,6.064405029296875,0.11696633725762366,-0.42413259028792377,0.9641980831325053
1746476656151384800,6.074384765625,0.23641864611208438,-0.5774515129089355,0.7457832957446575
1746476656161364000,6.084364013671875,0.33409912201091646,-0.6693985597223043,0.581385929748416
1746476656171344000,6.09434375,0.3869324481844902,-0.7261410221636295,0.43246553434729573
1746476656181322800,6.10432275390625,0.43289764215424653,-0.704783761358261,0.3389209892094135
1746476656191302700,6.114302734375,0.49267611129060385,-0.6201689571291208,0.3496329373598099
1746476656201281800,6.12428173828125,0.5299884815968573,-0.4656716383785009,0.4335772949814796
1746476656211262000,6.134261962890625,0.5183798768676817,-0.28971885914504525,0.5632832868248224
1746476656221241900,6.144241943359375,0.43969972338452934,-0.1362093823879957,0.6578530833572149
1746476656231221000,6.154220947265625,0.3058879036575556,-0.014928689062595367,0.6741606595575809
1746476656241201000,6.164200927734375,0.1479820916377008,0.08919628680050373,0.6663339114546776
1746476656251180000,6.174179931640625,-0.035572248640656466,0.12472878795266151,0.6814221749931574
1746476656261160000,6.184159912109375,-0.21284838543236254,0.1475292333036661,0.7078676988482475
1746476656271138800,6.194138916015625,-0.3585768529243767,0.16876374451220036,0.6773813751697539
1746476656281119000,6.204118896484375,-0.42854046985805033,0.15417290910184384,0.6420347519785166
1746476656291099000,6.214098876953125,-0.48239656320810315,0.057036476951837535,0.5629682295262813
1746476656301077800,6.224077880859375,-0.46496495141386984,-0.07650923918485641,0.3905997385203838
1746476656311058000,6.234057861328125,-0.390568612729758,-0.2733732890218496,0.22152210575342177
1746476656321036800,6.244036865234375,-0.309606778050214,-0.49414311510324477,0.06378185955882072
1746476656331016700,6.2540166015625,-0.2354284660309553,-0.6778443165063858,-0.11318155802190304
1746476656340995800,6.263995849609375,-0.0967652607500553,-0.8763403514593839,-0.29593875657320023
1746476656350976000,6.27397607421875,0.06607552345395087,-1.0975713653117418,-0.5066062908351421
1746476656360956000,6.283955810546875,0.23443580173179507,-1.276792790952325,-0.6887181772202253
1746476656370935000,6.29393505859375,0.4209590748183429,-1.338466280055046,-0.8485428284734488
1746476656380915000,6.3039150390625,0.5917104860164225,-1.3091402323275805,-0.9169809894055128
1746476656390893800,6.313893798828125,0.7352011114537715,-1.1917822654038668,-0.9857067351073026
1746476656400874000,6.3238740234375,0.826210585156083,-1.0425263544380665,-1.0354115539968014
1746476656410852900,6.333852783203125,0.8184984033435583,-0.8356517827183008,-1.057568440747261
1746476656420832800,6.343832763671875,0.7499462606430053,-0.6425310110628605,-1.0287380675822495
1746476656430813000,6.35381298828125,0.604071808809042,-0.47787820900082584,-0.9752624979823827
1746476656440791800,6.363791748046875,0.43183439683690666,-0.37019875552654263,-0.9278262085467577
1746476656450771700,6.373771728515625,0.21262582872286437,-0.3055810296654701,-0.9287509221762418
1746476656460750800,6.383750732421875,-0.07691840450763703,-0.2870890951633453,-0.9511693824723363
1746476656470730800,6.393730712890625,-0.3068311758570373,-0.25829554687738415,-0.9891633053019643
1746476656480711000,6.4037109375,-0.5162637614965438,-0.2945242136001587,-1.031972811719775
1746476656490690000,6.41368994140625,-0.6724363199830055,-0.42968204110860825,-1.0903986972033977
1746476656500670000,6.423669921875,-0.7600834776453673,-0.6333534328728914,-1.215804946026206
1746476656510649000,6.433649169921875,-0.7758702448420226,-0.8002911310017109,-1.3592995169863105
1746476656520629000,6.44362890625,-0.7314607558816671,-0.8567430860638618,-1.5836483705982565
1746476656530607900,6.45360791015625,-0.6629052521802484,-0.8141407926559447,-1.770925969183445
1746476656540587800,6.463587890625,-0.5468681585967541,-0.7355681912004948,-1.8725246414393186
1746476656550568000,6.47356787109375,-0.5029943839482963,-0.7462123348116875,-1.845238867367804
1746476656560546800,6.483546875,-0.46004561519026754,-0.838876005461812,-1.8185835001543162
1746476656570526700,6.493526611328125,-0.3737684307068586,-0.9693751935094594,-1.87260559772104
1746476656580505900,6.503505859375,-0.30057810681164265,-1.0978653798222542,-1.9295882986590265
1746476656590485800,6.51348583984375,-0.20730317239537835,-1.1527052235126494,-2.0407111705854533
1746476656600465000,6.52346484375,-0.060948681959509844,-1.028988827472925,-2.074748172482848
1746476656610444800,6.53344482421875,-0.011769932770729064,-0.778929194021225,-1.9885890614211559
1746476656620425000,6.543425048828125,-0.03633388066291809,-0.48532910952866076,-2.02229054775387
1746476656630403800,6.55340380859375,-0.1032183824121952,-0.11883096208572387,-2.0813550234019753
1746476656640384000,6.563384033203125,-0.3262824569106102,0.1904939302831888,-2.0925062397524714
1746476656650363000,6.57336279296875,-0.6591027911573648,0.4227326603621244,-1.9707754645720124
1746476656660343000,6.583343017578125,-0.9758857444472611,0.4272948537111282,-1.8823583454504609
1746476656670322000,6.593322021484375,-1.2460678362123667,0.2870814963787794,-1.8748802646547555
1746476656680301800,6.6033017578125,-1.3790056495837866,0.07984218299984931,-1.8188669932708144
1746476656690282000,6.613281982421875,-1.3995745364904404,-0.1524883170157671,-1.7739511622235178
1746476656700260900,6.6232607421875,-1.349932261443138,-0.35928806993365286,-1.6972139595016835
1746476656710240800,6.63324072265625,-1.1502689362764358,-0.47881519758999347,-1.5539683948665857
1746476656720220000,6.643219970703125,-0.9465671493738889,-0.5548778620511293,-1.3663807074189185
1746476656730199800,6.65319970703125,-0.8548860600203275,-0.5834855323761702,-1.2207105459854006
1746476656740179000,6.663178955078125,-0.8045734844960272,-0.5705716902673245,-1.1591522076949476
1746476656750158800,6.673158935546875,-0.7311486211925745,-0.4590542660653591,-1.0890209791094063
1746476656760139000,6.683138916015625,-0.5513613783627748,-0.35397067430317397,-0.9930910001397132
1746476656770117600,6.69311767578125,-0.3360628232993185,-0.2649900760799646,-0.8967591623708605
1746476656780098600,6.7030986328125,-0.1734323208451271,-0.21747078453600405,-0.7676210335433483
1746476656790077700,6.71307763671875,-0.03999123412668705,-0.10504676688313483,-0.6801455791860819
1746476656800057600,6.7230576171875,-0.014623422505706548,0.0033878888726234435,-0.5961302021548152
1746476656810037500,6.73303759765625,-0.2067068139374256,0.11436696841418742,-0.46923488381803036
1746476656820016600,6.7430166015625,-0.5362010725013912,0.05582943924963474,-0.26079379343390463
1746476656829996500,6.75299658203125,-0.8482065822564065,0.0514262358546257,-0.14100070831775666
1746476656839975700,6.7629755859375,-0.993772991054505,-0.1152268001139164,0.036353169885277745
1746476656849955600,6.77295556640625,-0.9468163018293678,-0.3009270663797855,0.3000397621512413
1746476656859934500,6.7829345703125,-0.7335621120750904,-0.46781391110420223,0.6243102947175503
1746476656869914600,6.79291455078125,-0.3858187878541648,-0.7174094341754913,0.8990957886248826
1746476656879894800,6.802894775390625,-0.011902473109215498,-0.7760580224990844,1.0143822099715472
1746476656889873700,6.812873779296875,0.2909405098944902,-0.7253601009190083,0.9033581222444772
1746476656899853800,6.822853759765625,0.4755488892704248,-0.4046604125767946,0.5552788440674543
1746476656909832700,6.832832763671875,0.5665384892284869,-0.14025544290840625,0.1537427009910345
1746476656919812600,6.8428125,0.38561961202025413,-0.11200842258930206,0.22923078043460846
1746476656929791700,6.852791748046875,0.05823533134758472,0.07798866408765316,0.23251053275763986
1746476656939771600,6.862771728515625,-0.250907628583163,0.43480420642793177,0.17417115651369094
1746476656949751600,6.87275146484375,-0.3536129469066858,0.608984130769968,0.2721580680131912
1746476656959730700,6.882730712890625,-0.22160276977419852,0.8186193993747234,0.2508119131237268
1746476656969710600,6.892710693359375,-0.27962767324149607,0.991918449229002,0.2935913166642189
1746476656979689500,6.902689453125,-0.34191315676271916,1.1330810701102019,0.4695417578101158
1746476656989669600,6.912669677734375,-0.3493045821882784,1.1662047565549611,0.5886246488302945
1746476656999648500,6.9226484375,-0.39907296783328056,1.3311065649420022,0.42270927948653697
1746476657009628400,6.93262841796875,-0.4956996968954801,1.4696072731375693,0.1641810928970575
1746476657019608800,6.94260888671875,-0.6348281816005706,1.4449351886957884,0.34165538260936734
1746476657029587500,6.95258740234375,-0.6276373933136463,1.2506874588370323,0.6618629035204648
1746476657039567600,6.962567626953125,-0.6715835025459528,0.9443132329672574,0.5778863971948623
1746476657049546800,6.972546630859375,-0.8171312066435813,0.9751754042208194,0.24524784925580023
1746476657059526700,6.982526611328125,-0.9981289943069219,1.1920043837219476,-0.1903811175584793
1746476657069506600,6.992506591796875,-0.9525023846417665,0.5474748923182488,0.3755997377872467
1746476657079485700,7.002485595703125,-0.3036620443016291,-1.1228554441720247,1.783628214368224
1746476657089465600,7.012465576171875,-0.23413491908907888,-0.0991968718111515,1.0017126980125903
1746476657099444700,7.02244482421875,0.29688685107827184,-0.25940847655534743,0.9402683414906263
1746476657109424600,7.032424560546875,1.0625333696782588,-0.6997919444203377,1.3497995749741791
1746476657119403500,7.042403564453125,1.4981730040170251,-0.6324316418528556,1.4091151027739046
1746476657129383700,7.0523837890625,1.948733144111931,-0.7847802581369876,1.5859949337244033
1746476657139363600,7.062363525390625,2.254892558187246,-0.7666133178055285,1.6125293049067257
1746476657149342500,7.072342529296875,2.161667308131605,-0.5047907658457755,1.443078162652254
1746476657159322600,7.082322509765625,1.67850545963943,-0.2052127759873867,1.3460726634055376
1746476657169301500,7.092301513671875,0.9202657101646066,0.10863222415447235,1.406874630370736
1746476657179281700,7.10228173828125,0.18580168081372975,0.4012660939633846,1.6623884375751017
1746476657189260800,7.1122607421875,-0.38689825365394354,0.7050590711683035,1.8554706307858229
1746476657199240700,7.12224072265625,-0.7412985515460372,0.8955173456162214,1.7559540255010126
1746476657209220600,7.132220703125,-0.7257754037216305,1.3232283789128065,1.7610276755034922
1746476657219199700,7.14219970703125,-0.4998357737869024,1.4218465740531683,1.6920003165066242
1746476657229179600,7.1521796875,-0.31916707194745536,1.025460653346777,0.8940636396765709
1746476657239158500,7.162158447265625,0.07508242125213145,0.568418311625719,0.4487754486352205
1746476657249138700,7.172138671875,0.258627847571671,0.025589783808588982,0.9783025963306426
1746476657259117600,7.18211767578125,0.13858604839146135,-0.25853753893971443,1.1437795742571353
1746476657269097500,7.192097412109375,0.19690029019415378,-0.17548983789682387,1.1418874769002199
1746476657279077600,7.20207763671875,0.718139209754765,-0.3062865475863218,1.5234902544945477
1746476657289056500,7.212056396484375,1.110855502037704,-0.43353404036164284,1.924689712962508
1746476657299036700,7.22203662109375,0.9953040000140666,0.04751929154396057,1.650356638997793
1746476657309015600,7.232015625,0.8233686397284269,0.43640813449323174,1.204064823871851
1746476657318995700,7.24199560546875,0.7464096109494567,0.5865449199467897,0.8026672124832868
1746476657328975600,7.2519755859375,0.5236547485306858,0.5954845977276564,0.42646074097454545
1746476657338954800,7.261954833984375,0.1767404224798083,0.5623685100674629,0.07207037995457649
1746476657348934700,7.2719345703125,-0.13052198440134524,0.5305979917973279,-0.03866495395898819
1746476657358913500,7.28191357421875,-0.23821663544476032,0.42498423868119717,0.0499491490393877
1746476657368893700,7.291893798828125,-0.1976891024842858,0.3073457012504339,0.20194705218970774
1746476657378872600,7.30187255859375,-0.12080839963853358,0.17056816358566282,0.37855391141772265
1746476657388852500,7.3118525390625,-0.024471593433618544,0.15843465819954872,0.5633329711854458
1746476657398832600,7.32183251953125,0.02058539965003729,0.07033902611732483,0.7271949151307344
1746476657408811500,7.3318115234375,0.06020750820338726,0.02917641012370586,0.598085135614872
1746476657418791400,7.34179150390625,0.13393793032467363,0.031280104404687877,0.4054366576462984
1746476657428770600,7.3517705078125,0.2228150681734085,0.07924889328181743,0.22587211765646933
1746476657438750700,7.361750732421875,0.18516835134625434,0.32062896119356155,-0.19057634786963462
1746476657448729600,7.3717294921875,-0.03234101163446903,0.14038637581169605,-0.14952420651316642
1746476657458709800,7.381709716796875,-0.22112784573882818,-0.22365853326022625,-0.16070903287231922
1746476657468689700,7.391689697265625,-0.27548516660928724,-0.281073195874691,-0.29034722017645836
1746476657478668800,7.401668701171875,-0.24131547824293373,-0.3835340379178524,-0.24000527242720127
1746476657488648700,7.411648681640625,-0.1992445152327418,-0.10772153905034064,-0.30402795500457286
1746476657498627600,7.421627685546875,-0.23319617693424224,0.021678747844696044,-0.1379495040535927
1746476657508607700,7.431607666015625,-0.18252631240487097,0.10199322453141212,0.028361586609482764
1746476657518586600,7.441586669921875,-0.04149462442696094,0.4580331063240766,-0.07195581366419791
1746476657528566500,7.45156640625,0.02694090615659952,0.9611223289489745,-0.2660679344445467
1746476657538546700,7.461546630859375,0.01575169588327408,1.4844266566067934,-0.3641360944867134
1746476657548525600,7.471525634765625,-0.13571838400065897,2.0085019686371086,-0.45196284649968144
1746476657558505500,7.48150537109375,-0.4992395614594221,2.312773084747791,-0.14182897583544254
1746476657568484600,7.491484619140625,-0.9786603237271309,2.2622926053106784,0.21392156762182712
1746476657578464500,7.501464599609375,-1.4076736717939375,1.962208419495821,0.46675475744009015
1746476657588444700,7.511444580078125,-1.7398215136066078,1.3763982435643671,0.716346773380041
1746476657598423800,7.521423828125,-1.6947282801657915,0.5938520280897617,0.7114023027151822
1746476657608403700,7.53140380859375,-1.3602376746192573,0.0064770870596170425,0.5681769040852784
1746476657618382600,7.541382568359375,-1.0281897860497236,-0.3654828329205513,0.5370101969271898
1746476657628362800,7.55136279296875,-0.7322146429888904,-0.6117939274936914,0.6285188523232936
1746476657638341600,7.561341552734375,-0.45233577146530146,-1.0410720639765263,0.3929606224328279
1746476657648321500,7.571321533203125,-0.2913204491227865,-1.4754068993270397,-0.13919628924429417
1746476657658301700,7.5813017578125,-0.14053586728498338,-1.9243916067987679,-0.5967565173596143
1746476657668280600,7.591280517578125,0.10490940423905849,-2.148863210007548,-0.8213219363316893
1746476657678260500,7.601260498046875,0.38837972438335416,-2.1419214280456305,-0.6940723977297544
1746476657688239600,7.611239501953125,0.8003507522344588,-2.062526988813281,-0.7253402271747589
1746476657698219500,7.621219482421875,1.2687863023683428,-1.6814397595256565,-1.122382858224213
1746476657708198700,7.63119873046875,1.4058578545436262,-1.585437884363532,-1.082843167257309
1746476657718178600,7.641178466796875,1.2195844645649194,-1.3132020749390125,-0.8916963260233401
1746476657728158700,7.65115869140625,1.0102152995504439,-0.780682175168395,-0.8935106819689274
1746476657738137600,7.6611376953125,0.8868915560901165,-0.28097382715344427,-1.1309317831218242
1746476657748117800,7.67111767578125,0.6549674449183046,0.2745814957678318,-1.0139432340323924
1746476657758096600,7.6810966796875,0.46879079331234097,0.5167834014564753,-0.5137316126704216
1746476657768076500,7.69107666015625,0.40993294615224,0.6847638866364956,-0.04568155472278595
1746476657778056400,7.701056396484375,0.4688707266807556,0.7475549815922975,0.12278554493039846
1746476657788035300,7.711035400390625,0.4999456639021635,0.5974404079705476,-0.16481997532248496
1746476657798015200,7.72101513671875,0.24591625003665685,0.4088344833910465,-0.5261047720313072
1746476657807994400,7.730994384765625,-0.0602699059151113,0.17271043631136415,-0.7111763850048184
1746476657817974500,7.740974609375,-0.05687500277981162,0.22058803977370262,-0.7379463185086846
1746476657827953700,7.75095361328125,0.031135142976045607,0.35293490151464935,-0.6062833473786712
1746476657837933600,7.76093359375,0.019780220746994016,0.38150048626363275,-0.623704730039835
1746476657847913500,7.77091357421875,0.09044380264356731,0.38512686006724833,-0.3561100244194269
1746476657857892600,7.780892578125,0.07416998258233069,0.11639350580573081,-0.08307721939831972
1746476657867872500,7.79087255859375,0.02975231031551957,0.003712298521399498,-0.11716419791728258
1746476657877851400,7.800851318359375,0.13989479290246962,-0.16241466774642466,0.0978156465858221
1746476657887831600,7.81083154296875,0.4670062479831278,-0.5474830756247043,0.25084230826199055
1746476657897810400,7.820810546875,0.8843594072639942,-0.9088421066135167,-0.39008009856045245
1746476657907790300,7.830790283203125,1.0625650799907744,-0.6007832886576652,-0.2698527136802673
1746476657917770500,7.8407705078125,1.2776046918570994,-0.7366992410570382,-0.014259996020793914
1746476657927749400,7.850749267578125,1.5238859758138656,-0.4696773668885231,-0.08415273967534304
1746476657937729300,7.860729248046875,1.6966490190953016,-0.16633096440732478,-0.015617548109591007
1746476657947708400,7.87070849609375,1.6524587258435786,0.0767278503715992,0.25039690258204933
1746476657957688600,7.8806884765625,1.4638679988332093,0.27965514577031136,0.49888563345521686
1746476657967667500,7.89066748046875,1.2739907391436398,0.4213479280054569,0.7229357963815332
1746476657977647600,7.900647705078125,0.9908753699168562,0.5547714790672064,0.7896782593116164
1746476657987627500,7.91062744140625,0.6086117903262377,0.5954793370306491,0.9767994982913136
1746476657997606400,7.9206064453125,0.29846184531003234,0.5435907443612814,1.1069339446797966
1746476658007585500,7.93058544921875,0.08050152369141578,0.5134668242543935,1.14069388320148
1746476658017565400,7.9405654296875,0.005619885708391666,0.38138591997325416,1.2027037646517156
1746476658027544600,7.950544677734375,0.023641572350263595,0.2735527372419834,1.1886790386915207
1746476658037524500,7.9605244140625,0.128142688049376,0.08921089984774588,1.1267413456946611
1746476658047504400,7.97050439453125,0.2709939926698804,-0.08321370525956154,1.0087439118236303
1746476658057483500,7.9804833984375,0.42605566730499267,-0.1642471438705921,0.924390096618235
1746476658067463400,7.99046337890625,0.5578069012403488,-0.3049842328161001,0.895074278023839
1746476658077442300,8.0004423828125,0.7354631233908235,-0.4602525359392166,0.8037295810177921
1746476658087422500,8.01042236328125,0.809733497607708,-0.5847212116509676,0.6245207225978374
1746476658097402600,8.020402587890626,0.8575070561736822,-0.6841255887329578,0.45845308530181644
1746476658107381200,8.03038134765625,0.8660352305442094,-0.7000754375368357,0.2219116895928979
1746476658117361700,8.040361572265626,0.8052034529626368,-0.7369453247725963,-0.029965222413837908
1746476658127340500,8.050340576171875,0.6466881307423115,-0.6955418857604265,-0.27095073805004355
1746476658137320400,8.060320556640624,0.4737989768631756,-0.4686597142785787,-0.5086421805769205
1746476658147299600,8.070299560546875,0.241563023263216,-0.13475567644834519,-0.6232219149589538
1746476658157279500,8.080279541015624,-0.12836626767218112,0.06075637425780296,-0.6107327280029654
1746476658167259400,8.09025927734375,-0.5841942651674151,0.10737608661353587,-0.6188327400892972
1746476658177238500,8.100238525390624,-1.051235584463924,0.14211480703949927,-0.6484156851872801
1746476658187218400,8.110218505859375,-1.3679868274413047,0.0053653264254331584,-0.7554445657983422
1746476658197197300,8.120197265625,-1.5321534534215926,-0.07471241889595985,-0.8510080495432019
1746476658207177500,8.130177490234376,-1.4646778539113698,-0.12538228342533111,-1.216587913097441
1746476658217156400,8.14015625,-1.4071803353190422,-0.010984919872879981,-1.2805085966050624
1746476658227136300,8.15013623046875,-1.4475959323376417,-0.22229951986670493,-1.181395311424136
1746476658237116700,8.16011669921875,-1.3663152409672736,-0.29581483793258667,-1.3775839462175965
1746476658247095300,8.17009521484375,-1.0612900916188954,-0.1297661975979805,-1.6332324857175349
1746476658257075500,8.180075439453125,-0.8669820098750293,-0.1596896266967058,-1.7867939849227665
1746476658267054600,8.1900546875,-0.6582628332018852,-0.3948603185743093,-1.8067346569284795
1746476658277034500,8.200034423828125,-0.4657714454911649,-0.5856260515362024,-1.8656746294140814
1746476658287014400,8.210014404296874,-0.320586144965142,-0.7358148594379424,-2.0494576638817787
1746476658296993500,8.21999365234375,-0.20336568681597708,-0.8930454025447369,-2.2102529137328264
1746476658306973400,8.229973388671874,0.02012918031513691,-0.9355115023523568,-2.3667267932534215
1746476658316952600,8.23995263671875,0.16820494158565996,-0.8788339218407869,-2.482083941748738
1746476658326932500,8.249932373046875,0.7956815913796424,-0.40448914766311644,-2.4513813449710606
1746476658336911400,8.259911376953125,-0.6403745636813343,-1.0945686763644218,-2.3948177462279796
1746476658346891500,8.2698916015625,-0.46366716668829316,-0.6595020196080208,-2.4361560110494493
1746476658356871400,8.279871337890626,-0.4206159604690969,-0.2987503068625927,-2.7405469541475176
1746476658366850300,8.289850341796875,-0.6153156718790531,-0.028909868142008778,-2.962454259826243
1746476658376830500,8.29983056640625,-0.8007964501753448,0.2438373979359865,-2.9000664849743245
1746476658386809300,8.309809326171875,-1.1661655935883521,0.19910686032772063,-2.765305840089917
1746476658396789500,8.31978955078125,-1.3766973726414142,0.13900047441124916,-2.6868074729144573
1746476658406768600,8.3297685546875,-1.5511077447384596,0.02037526403069496,-2.61942934242934
1746476658416748500,8.33974853515625,-1.6111599162496626,-0.18813129280507562,-2.5255431442469356
1746476658426728400,8.349728515625,-1.6592869644284247,-0.4302700701296329,-2.536033266340196
1746476658436707600,8.35970751953125,-1.6545568671666084,-0.6089081429243087,-2.584588915194571
1746476658446687500,8.3696875,-1.5250217018455265,-0.7476514277040958,-2.5521087873503565
1746476658456666400,8.379666259765624,-1.3282464993357657,-0.8219570193648338,-2.4981480645820495
1746476658466646500,8.389646484375,-1.0912029993236065,-0.8491770347237586,-2.3180799589842556
1746476658476626400,8.39962646484375,-0.9016542409360409,-0.7741027967780828,-2.0247920091807843
1746476658486605300,8.409605224609376,-0.732924983215332,-0.7098948207616805,-1.6288237293645738
1746476658496585500,8.41958544921875,-0.5023851660087705,-0.6436205598652363,-1.233693946199119
1746476658506564400,8.429564453125,-0.32569019010588524,-0.5460334613382816,-0.8346542961135506
1746476658516544300,8.439544189453125,-0.1800442863307893,-0.5279126982361078,-0.4762698970213532
1746476658526523400,8.4495234375,-0.09168196613639593,-0.6038000061303377,-0.2329050850331783
1746476658536503600,8.459503662109375,-0.1293929803714156,-0.7414788765490055,-0.03830781108438969
1746476658546483500,8.4694833984375,-0.16870631523653865,-0.9188578891932964,0.13500205242484808
1746476658556462600,8.479462646484375,-0.18013444883227347,-1.0744272210896015,0.31958471283763645
1746476658566442500,8.4894423828125,-0.1824367344252765,-1.1228794095695018,0.44080578493028877
1746476658576421400,8.49942138671875,-0.1414506440423429,-1.1388497166395186,0.5065773570016027
1746476658586401500,8.509401611328125,-0.014504326170682907,-1.1004741010159254,0.5451277446702122
1746476658596380400,8.51938037109375,0.12641995590999722,-0.9249813405096531,0.5080868847817183
1746476658606360300,8.5293603515625,0.2809429936237633,-0.6803513308912515,0.4337228409320116
1746476658616340500,8.539340576171876,0.34929859083890913,-0.3839928876012563,0.39665743112415075
1746476658626319400,8.5493193359375,0.44236967324614523,-0.06975099709630012,0.24247253932356833
1746476658636299300,8.55929931640625,0.48224809464812274,0.1798328355371952,0.05249415734708309
1746476658646278400,8.5692783203125,0.4946317754030227,0.45273266182839866,-0.06268149710148573
1746476658656258300,8.57925830078125,0.4103486873462796,0.6991320192068815,-0.07248480597436428
1746476658666237400,8.589237548828125,0.3058881959185004,0.8495254097700119,-0.09383183764666318
1746476658676217600,8.599217529296874,0.03142506583333015,1.0791472353488207,-0.20090280383378267
1746476658686197500,8.609197509765625,-0.1692284394145012,1.2420499788731336,-0.186772863933444
1746476658696176600,8.6191767578125,-0.31837679835259913,1.3770891484379768,-0.2895481787532568
1746476658706156500,8.629156494140625,-0.589487403139472,1.3454039703637362,-0.2990460749387741
1746476658716135400,8.639135498046874,-0.9292360753446817,1.2171563606351614,-0.26793372831642626
1746476658726115600,8.649115478515625,-1.1457913524709642,0.9945096347659825,-0.3463537695586681
1746476658736094500,8.659094482421875,-1.310450145882368,0.7607663453429937,-0.2236164476841688
1746476658746074400,8.669074462890626,-1.4548124395877122,0.5157195716172457,0.07448737796843051
1746476658756054500,8.679054443359375,-1.5609667293213307,0.29664602805972096,0.2761801631361246
1746476658766033400,8.689033447265626,-1.4645796542339027,0.21366846964359282,0.36544016282260416
1746476658776013000,8.699012939453125,-1.2716881612896918,0.2017886467576027,0.5296797079086304
1746476658785992200,8.7089921875,-1.1136264280557633,-0.008812836530804634,0.5719190132230519
1746476658795972000,8.71897216796875,-0.879365252238512,-0.00580839401781559,0.5524848294347524
1746476658805952300,8.7289521484375,-0.7859120386458933,-0.02070551889836788,0.8336971415191888
1746476658815931400,8.738931396484375,-0.6729914696477353,0.08226619527637959,1.038870170018077
1746476658825911300,8.748911376953124,-0.44156113334223623,0.24199849207103252,1.3351643159002065
1746476658835890200,8.75889013671875,-0.29469840112328527,0.38214579842984675,1.6449609174340962
1746476658845870300,8.768870361328124,-0.15867124343439937,0.5487888975262641,1.926858873695135
1746476658855849200,8.77884912109375,-0.05149404039382934,0.7107914773404598,2.227807567384839
1746476658865829000,8.7888291015625,0.05104176658168435,0.7845294982463121,2.5400644215524193
1746476658875809300,8.798809326171876,0.08386252455711364,0.8407242636770009,2.780186598357558
1746476658885788200,8.8087880859375,0.061531011892110105,0.8639788825362921,2.957645690500736
1746476658895768000,8.81876806640625,0.02259893142953515,0.8034335206806659,3.0214895093798635
1746476658905747200,8.828747314453125,-0.08698387144804,0.7191144845277071,2.9544325736731287
1746476658915727000,8.83872705078125,-0.20985154170393944,0.6307441271573305,2.731211847308278
1746476658925707000,8.84870703125,-0.28750045244321226,0.6220312438696622,2.5296184308618304
1746476658935686100,8.85868603515625,-0.314928703725338,0.6284498787403107,2.410193594536185
1746476658945666300,8.868666259765625,-0.2738375455327332,0.6474561925053596,2.316018350279331
1746476658955645400,8.8786455078125,-0.16992635855078697,0.6172913558661938,2.2278455613076686
1746476658965625300,8.888625244140625,-0.03141001439467072,0.5479091920822858,2.1531150222331283
1746476658975604200,8.898604248046874,0.06206438811644911,0.5467576839596032,2.1305162369340658
1746476658985584400,8.90858447265625,0.13404445943906904,0.4796750292897224,2.2161334962040184
1746476658995564300,8.918564208984375,0.20923136397898195,0.3828612532228231,2.2350819423019885
1746476659005543200,8.928543212890625,0.2899222727626562,0.3575432720929384,2.1707617380827666
1746476659015523000,8.938523193359375,0.38254035070538517,0.34103988105952737,2.079895472243428
1746476659025502200,8.948502197265626,0.5130950683325529,0.3861474352866411,2.0015788913756607
1746476659035482000,8.958482177734375,0.6949645242638886,0.5113274741381406,2.0463304717719555
1746476659045461200,8.968461181640626,0.7452654093503952,0.5150456178784371,2.151775298061967
1746476659055441200,8.978441162109375,0.6192950969040394,0.49853228997290133,2.120763489204645
1746476659065421000,8.988421142578124,0.4830611645966768,0.511190696015954,1.905387046599388
1746476659075400200,8.998400146484375,0.38640345587432384,0.5287018027871847,1.6730682370215653
1746476659085380400,9.00838037109375,0.277386031794548,0.5515425801485777,1.5404162548542022
1746476659095359200,9.018359130859375,0.22928104931712148,0.5389999094396829,1.4307394900828598
1746476659105339400,9.02833935546875,0.1705233015306294,0.5730009632408618,1.2903449309647081
1746476659115318300,9.038318359375,0.19161811200752854,0.5906108542114495,1.1506354315012692
1746476659125298200,9.048298095703124,0.2635125508733094,0.5643424404889344,1.0572358477920294
1746476659135278300,9.0582783203125,0.2424047347843647,0.6200041219562292,1.0313152245938777
1746476659145257200,9.06825732421875,0.28547829896584154,0.6220142927348613,1.0226911886334418
1746476659155237000,9.078237060546876,0.40795609312132,0.6588309884786605,0.9113748399615287
1746476659165216300,9.08821630859375,0.4935907419174909,0.790788558641076,0.6997469362348318
1746476659175196200,9.098196044921876,0.48837096144258973,0.7370031924396753,0.5932108075767755
1746476659185176000,9.108176025390625,0.3696306002497673,0.6093751759141683,0.5320400072991848
1746476659195155200,9.1181552734375,0.23594474499002097,0.46247547268569467,0.4360656046658754
1746476659205135000,9.128135009765625,0.11569982445314526,0.3098305038034916,0.3406687096595764
1746476659215114200,9.1381142578125,0.03893967924714088,0.18994389518499374,0.18387305083870886
1746476659225094400,9.148094482421875,0.08173618005290627,0.2547141812592745,-0.07664251017570495
1746476659235073300,9.1580732421875,0.23441139794290064,0.5083434898912906,-0.43020811080932614
1746476659245053200,9.16805322265625,0.42487507921829815,1.001700423052907,-0.7182979074478149
1746476659255033300,9.178033447265625,0.5847410853952169,1.5002642772078514,-0.9295867884784936
1746476659265012200,9.18801220703125,0.6638673752106726,2.071386002573371,-1.100275363573432
1746476659274992000,9.1979921875,0.5837428681381046,2.4090420864135025,-1.0534937386542558
1746476659284971300,9.20797119140625,0.32633740196824074,2.5439766265600916,-0.9212976835608482
1746476659294951200,9.217951171875,-0.10334756174981594,2.27403857268393,-0.966037573519349
1746476659304930300,9.227930419921876,-0.6012836393952369,2.006379569655657,-0.9291413827985524
1746476659314910200,9.23791015625,-1.1121620545916258,1.4706050520032643,-0.5515414111047983
1746476659324890000,9.24789013671875,-1.671258995642513,0.5722247181713581,-0.3681961835324764
1746476659334869200,9.257869140625,-1.8832358589373528,-0.220687993016839,-0.56278410513103
1746476659344849200,9.26784912109375,-1.7338174508862196,-0.9818120657563209,-0.8357645954430103
1746476659354828000,9.277828125,-1.5524175121627748,-1.5172808784604073,-1.0881307522714136
1746476659364808400,9.287808349609374,-1.4477202893696723,-1.8135341078102587,-0.9707248545527457
1746476659374788400,9.297788330078125,-1.171450109862536,-2.279949258032441,-0.7500245865762233
1746476659384767200,9.307767333984375,-0.7102927340380847,-2.698519538018107,-0.8675549874573946
1746476659394747100,9.3177470703125,-0.08684124810695648,-2.6265420970439908,-1.2419710684180258
1746476659404726300,9.327726318359375,0.5352034397661686,-2.4214853884011505,-1.4677029008209705
1746476659414706200,9.3377060546875,0.8986937836952507,-1.9591770889759064,-1.1754863796412944
1746476659424685300,9.347685302734375,1.0667337439775466,-1.5247241802036762,-0.9230079946100711
1746476659434665200,9.357665283203126,1.2361644279658794,-0.9455816454678774,-0.9022960459709167
1746476659444645000,9.36764501953125,1.2807102566570043,-0.43542087702155113,-0.8840157083928585
1746476659454624300,9.377624267578126,1.1216684263445436,0.020358897417783735,-0.8935536443278193
1746476659464604200,9.387604248046875,0.9170023244544863,0.3122866647839546,-1.0123059882193803
1746476659474583000,9.3975830078125,0.6157464645117521,0.5449626172363757,-1.061294767794013
1746476659484563200,9.407563232421875,0.26949396337047216,0.5728086555391549,-0.9845935131683945
1746476659494542000,9.4175419921875,0.00486029951274395,0.376332143715024,-0.8333975740507245
1746476659504522200,9.427522216796875,-0.2938134349822998,0.24367314728498457,-0.6164288938179612
1746476659514502400,9.43750244140625,-0.6151723178856074,0.18902327320873735,-0.3894754106655717
1746476659524481300,9.447481201171875,-0.8846212730705737,0.1459562848985195,-0.23941169044822452
1746476659534461200,9.457461181640625,-1.0705085863411425,0.17152151878774166,-0.14179068965166805
1746476659544440300,9.4674404296875,-1.1418962447285652,0.1666138730019331,-0.0704340109243989
1746476659554420200,9.477420166015625,-1.1247748679272829,0.22027648960649965,-0.03334551250189543
1746476659564400000,9.487400146484376,-1.0259966599196195,0.2968383357614279,0.015554712006449698
1746476659574379300,9.497379150390625,-0.9469412433832883,0.21388532726466655,0.11371990268230438
1746476659584359200,9.507359130859374,-0.8017693868607282,-0.0023427637338638303,0.11039777252227068
1746476659594338300,9.51733837890625,-0.5776169326037168,0.2100707374125719,-0.5794707437768578
1746476659604318200,9.527318115234374,-0.26895430353581906,-0.2584814248383045,-0.8646201030492782
1746476659614297000,9.537297119140625,-0.178320677408576,-1.4511018946319818,0.07868453739732503
1746476659624277000,9.547277099609374,0.052536242923140526,-1.269599080055952,-0.21965777318626642
1746476659634257400,9.55725732421875,0.3933984293282032,-0.9642314008802175,-0.7204340426936745
1746476659644236300,9.567236328125,0.5634745716132223,-1.0334183343529701,-0.8162415643274784
1746476659654216200,9.57721630859375,0.6158319508381187,-1.180627249661088,-0.770193514379859
1746476659664195300,9.5871953125,0.6372336353071033,-1.1831202355206012,-0.7830252311632037
1746476659674175200,9.59717529296875,0.6787275290817022,-1.1139449924856424,-0.8540183372750878
1746476659684154400,9.607154296875,0.7456272284001112,-0.9930343015164136,-0.8571709560871124
1746476659694134300,9.61713427734375,0.7701087587058544,-0.867002029749751,-0.750396342498064
1746476659704114200,9.6271142578125,0.7480544555470346,-0.6943810252875089,-0.5519795102611184
1746476659714093300,9.63709326171875,0.6718664111405611,-0.5534866999536753,-0.2908674446582794
1746476659724073200,9.6470732421875,0.587913285690546,-0.4651169271051883,-0.05521452222168445
1746476659734052000,9.657052001953126,0.5089025850787758,-0.3900532105535269,0.18061083417236803
1746476659744032300,9.6670322265625,0.4614470064207911,-0.30587855130732056,0.38209523728638883
1746476659754011100,9.67701123046875,0.4250035279035568,-0.26419687987565993,0.5546428842514753
1746476659763991000,9.686990966796875,0.386281875321269,-0.28904841253757474,0.630355127839744
1746476659773971200,9.69697119140625,0.34298823864832517,-0.3411708139628172,0.5874272557392716
1746476659783950800,9.706950927734376,0.31345410112813116,-0.4189209931194782,0.5381640431374312
1746476659793930800,9.7169306640625,0.28070202447474,-0.5547194566190242,0.48298868388235566
1746476659803910000,9.726909912109376,0.31655835075378413,-0.7094272032499312,0.39443858603090043
1746476659813889800,9.736889892578125,0.3585995031476021,-0.8381120353519916,0.3297618234589696
1746476659823869700,9.74686962890625,0.4826736265838146,-0.924988939294219,0.23906682253330944
1746476659833848800,9.756848876953125,0.6335398953557014,-0.9504314235866069,0.11815583930313586
1746476659843828700,9.766828857421874,0.8232797924011945,-0.8612742997527122,-0.0007812135055661201
1746476659853807600,9.7768076171875,0.9429109649538994,-0.708344084188342,-0.09069500092566013
1746476659863787800,9.786787841796874,0.9730193952307105,-0.5748164882302284,-0.2595385326758027
1746476659873766700,9.7967666015625,0.9452738946929573,-0.4356739749997854,-0.4835594695076346
1746476659883746600,9.80674658203125,0.779635880985856,-0.318323022338748,-0.7404369662806392
1746476659893726700,9.816726806640625,0.5412924042910338,-0.26845804445147514,-0.9222291191920637
1746476659903705600,9.82670556640625,0.27947569755017754,-0.29649989758729933,-1.1037526842951775
1746476659913685800,9.836685791015626,0.11614449948072433,-0.3379401614785194,-1.2951558383777737
1746476659923665000,9.846664794921875,-0.007930208477377892,-0.38617549233734605,-1.5078300362870096
1746476659933644800,9.856644775390626,-0.16799568274915216,-0.38416765964627264,-1.6826973583713174
1746476659943623700,9.866623779296875,-0.29979777008891106,-0.5197825832724571,-1.8127455877810716
1746476659953603800,9.876603759765626,-0.3859598037600517,-0.6545096181482076,-2.0236720652401448
1746476659963583700,9.886583740234375,-0.4214385288983583,-0.686637279292941,-2.229944871674478
1746476659973562600,9.896562744140626,-0.47287236353754997,-0.6616711803406476,-2.361926114973426
1746476659983542800,9.906542724609375,-0.5345188185028732,-0.604463438475132,-2.2997531519159673
1746476659993521700,9.916521728515624,-0.6750871267527342,-0.6412520771682262,-2.161251566937566
1746476660003501600,9.92650146484375,-0.7231558688730001,-0.7488029358267784,-2.042537801490724
1746476660013480700,9.936480712890624,-0.6613591917820274,-0.8278057453930378,-2.0164935519129035
1746476660023460600,9.946460693359375,-0.5387333674579858,-0.8676590323537587,-1.9781343029022216
1746476660033440800,9.956440673828125,-0.3593044365465641,-0.7813923692643642,-1.9101307339951394
1746476660043419600,9.966419677734375,-0.15145970462039113,-0.6257879660546779,-1.843193040753901
1746476660053399800,9.97639990234375,0.02155833633542061,-0.28801088618338105,-1.8312562269836663
1746476660063378700,9.986378662109376,0.1425761409409344,0.12232698750793933,-1.9554057537436484
1746476660073358800,9.99635888671875,0.15561214812472463,0.46855859199166294,-2.0740999377071856
1746476660083338800,10.0063388671875,0.08565890645459294,0.7232499768972397,-2.1622595749363303
1746476660093317600,10.016317626953125,-0.029759178447723387,0.859314397856593,-2.256142558248341
1746476660103297800,10.0262978515625,-0.3131381670467555,0.7721978399395942,-2.300317215539515
1746476660113276700,10.036276611328125,-0.5710960064023732,0.44640755046010017,-2.408407295641303
1746476660123256600,10.046256591796874,-0.6998539037406444,0.12150281164348124,-2.538164725410938
1746476660133235700,10.056235595703125,-0.8177915702484547,-0.10245207421481609,-2.647446937906742
1746476660143215600,10.066215576171874,-0.9561028933517635,-0.21644202601015566,-2.605445240740478
1746476660153195500,10.076195556640625,-1.0839366615824402,-0.23617080883085725,-2.428726445570588
1746476660163174700,10.086174560546874,-1.2158316879026592,-0.29861586682796476,-2.100996127939224
1746476660173154600,10.096154541015625,-1.4195825746439397,-0.45588849551081656,-1.6988853998452424
1746476660183133700,10.1061337890625,-1.557213075876236,-0.623805267804861,-1.3832476710677146
1746476660193113900,10.11611376953125,-1.5673270581334828,-0.7435323019474744,-1.050548332852125
1746476660203092700,10.1260927734375,-1.4190700950771569,-0.810498052239418,-0.7038076098024845
1746476660213073000,10.136072998046876,-1.0683768350094556,-0.8143909680247307,-0.32313276070803404
1746476660223052800,10.146052734375,-0.7171539981096983,-0.7681821745574474,-0.01887128920853138
1746476660233031700,10.15603173828125,-0.3794458918213844,-0.6691776104480027,0.14137363328337668
1746476660243011800,10.16601171875,-0.0030773616187274454,-0.46271512666046616,0.2783411405622959
1746476660252990700,10.17599072265625,0.383903017360717,-0.21219547448158263,0.46439065865725276
1746476660262970600,10.185970703125,0.7645577004499733,0.05189502241015434,0.6377461148738861
1746476660272949800,10.19594970703125,1.103715128763765,0.2569599143594503,0.8274965333133936
1746476660282929700,10.2059296875,1.325754682520032,0.49874271785318847,0.8722802624136209
1746476660292909600,10.21590966796875,1.3845137454807757,0.6714712743431329,0.8810206182301044
1746476660302888700,10.225888671875,1.3590532871402798,0.7851186963111162,0.908535817143321
1746476660312868600,10.23586865234375,1.211062135413289,0.8766998324215411,0.935015243268013
1746476660322847500,10.245847412109375,0.9581794073648751,0.8849129494935274,0.7531067705005406
1746476660332828000,10.255827880859375,0.6808261087961495,0.8897147968173027,0.4804764088004827
1746476660342807800,10.265807861328126,0.4191946954943239,0.8791694374054669,0.3617921617090702
1746476660352786700,10.27578662109375,0.11859715332984924,0.6235410639107227,0.3928875571966171
1746476660362766800,10.285766845703124,-0.12047463763952254,0.3987386213123798,-0.18360358624756334
1746476660372745700,10.295745849609375,-0.19596110964789987,0.2795481782644987,-0.4527279856532812
1746476660382725600,10.3057255859375,-0.5279471850275993,-0.10754150630831717,-0.1462000305265188
1746476660392704800,10.315704833984375,-0.7114099014997481,-0.23027473652958869,-0.18894494727551936
1746476660402684700,10.3256845703125,-0.8528783734597265,-0.22257307611107824,0.04052256452441215
1746476660412664600,10.33566455078125,-1.009094186566025,-0.19518004227280616,0.33913726230859753
1746476660422643700,10.345643798828124,-1.0191637451596558,-0.05715045872032642,0.5375146393179893
1746476660432623600,10.35562353515625,-0.9073327249638735,0.11952128243744373,0.7575999902665614
1746476660442602800,10.365602783203125,-0.7602354533366859,0.3190127581685781,0.9638111296415328
1746476660452582700,10.375582763671876,-0.6625808425314724,0.3778559922814369,1.2331722604125737
1746476660462561500,10.3855615234375,-0.6623854660898446,0.49799160722494124,1.4376812720447778
1746476660472541700,10.395541748046876,-0.6240932909660041,0.6171551622658967,1.5149281778544186
1746476660482521900,10.40552197265625,-0.6802782656550407,0.7205927403867244,1.6205144584417341
1746476660492500700,10.415500732421876,-0.7337262165956199,0.7668243302077055,1.6729630230814219
1746476660502480600,10.425480712890625,-0.8079442761033773,0.7532838806331157,1.6671522909760474
1746476660512459800,10.435459716796874,-0.7618629084080457,0.6960293770164251,1.639148431763053
1746476660522439700,10.445439697265625,-0.7104127071559428,0.6127689100056887,1.597412984317541
1746476660532418800,10.455418701171874,-0.7169951542861759,0.4953606741994619,1.5734996092885731
1746476660542398700,10.465398681640625,-0.6980640977144241,0.35982524555027484,1.5212380916535853
1746476660552378600,10.475378662109375,-0.6733136873394251,0.2550274849921465,1.4336983398884533
1746476660562357800,10.485357666015625,-0.6234745745457708,0.19245324765741825,1.348815240111947
1746476660572337700,10.495337646484375,-0.5776235084749758,0.13970248520076273,1.3500158480733633
1746476660582316500,10.505316650390625,-0.5162367273591458,0.18741583801209927,1.3575474126219749
1746476660592296700,10.515296630859375,-0.4171241728305816,0.17160393637418747,1.3321253865957259
1746476660602275600,10.525275634765626,-0.2977135111607611,0.15618483344614506,1.3272341074228287
1746476660612255700,10.535255859375,-0.24710312173366544,0.17161036611497402,1.3666747219294308
1746476660622235600,10.545235595703126,-0.194498635879904,0.18769874660670757,1.447865981450677
1746476660632214800,10.55521484375,-0.11395531887337565,0.22655542374551296,1.4824164858281612
1746476660642194700,10.565194580078124,-0.024683044227212667,0.27041677730381486,1.4237024310529232
1746476660652173800,10.575173828125,0.03114683341383934,0.33229192645847794,1.3732880025893448
1746476660662153700,10.58515380859375,0.0914805983453989,0.38527299053966996,1.3705904340684414
1746476660672132600,10.595132568359375,0.15194471165835857,0.36884383378624913,1.336552555388212
1746476660682112800,10.60511279296875,0.19943769971728323,0.37605858747065063,1.2984721233189105
1746476660692092700,10.6150927734375,0.12270049699544906,0.38505087222158907,1.3192723347634077
1746476660702071600,10.625071533203124,0.03174699126407504,0.3392605964273214,1.3606623297721148
1746476660712051700,10.6350517578125,-0.06237798411026597,0.3245984493464231,1.3667647383004426
1746476660722030600,10.645030517578125,-0.14937471503987906,0.3971189111560583,1.344367028531432
1746476660732010500,10.655010498046876,-0.25185996087193485,0.4996382053881883,1.3913573277652262
1746476660741991000,10.664990966796875,-0.32172552425861356,0.5284639023780823,1.5037936203777789
1746476660751969800,10.6749697265625,-0.2423129648476839,0.5427846886754035,1.5022890610337256
1746476660761949700,10.68494970703125,-0.0710125414647162,0.5239402874737977,1.4663000482857227
1746476660771928800,10.6949287109375,0.08234919738471508,0.4861673139184713,1.381986272829771
1746476660781908700,10.70490869140625,0.2585392925053835,0.4413455908954143,1.2375070747464894
1746476660791888000,10.714887939453124,0.501365029180795,0.4230068011283874,1.0227969870954752
1746476660801867800,10.72486767578125,0.794549518609792,0.4817325463414192,0.8203922542661428
1746476660811847700,10.73484765625,0.9784243230141699,0.49076224049329753,0.6494809763312339
1746476660821826800,10.744826904296875,1.0014766972996294,0.4487672653287649,0.5575140557736158
1746476660831806700,10.754806640625,0.9725339498013258,0.36072014856338497,0.47392508746087547
1746476660841785600,10.76478564453125,0.8177497769333422,0.23512217656075954,0.29882629470825195
1746476660851765800,10.774765869140625,0.6003051497519016,0.10783844342827796,0.06682955669164657
1746476660861744600,10.78474462890625,0.3443151033379137,0.033633974054455756,-0.13460837693214417
1746476660871724800,10.794724853515625,0.1739858630746603,0.07016191598474979,-0.2905260838747024
1746476660881704700,10.80470458984375,0.10540347136631607,0.2672264568299055,-0.39277123734056946
1746476660891683800,10.814683837890625,0.09859905204847455,0.5680570770978928,-0.41753450719714164
1746476660901663700,10.824663818359374,0.11969970774427055,0.9669260467916726,-0.41795419391393657
1746476660911643000,10.834642822265625,0.14532266317009926,1.3878116179823874,-0.4216922113984823
1746476660921622800,10.844622802734374,0.10880758072137832,1.671211210978031,-0.29418577542603014
1746476660931601700,10.8546015625,-0.06554536210000515,1.8261586115837096,-0.10835516077876091
1746476660941581800,10.864581787109374,-0.32854514114558697,1.8388222783237695,0.10870528939068316
1746476660951561700,10.874561767578125,-0.6351693962536752,1.6548434290230274,0.3110504009872675
1746476660961540600,10.88454052734375,-0.8685153569221497,1.2629086425065994,0.38316578912734983
1746476660971520800,10.894520751953126,-0.9763299810834228,0.7676654572069644,0.29538813695311544
1746476660981499600,10.904499755859375,-1.0152233369708061,0.2760375397950411,0.20845570343136785
1746476660991479600,10.9144794921875,-0.8975070581287146,-0.17277707180678845,0.2339952183574438
1746476661001458700,10.924458740234375,-0.6200974993281066,-0.6251806478112936,0.32806934032738205
1746476661011438800,10.93443896484375,-0.20301658111736176,-0.9269330590993166,0.286472424569726
1746476661021418800,10.944418701171875,0.22140125585272907,-1.1259726994097232,0.2752256388902664
1746476661031398000,10.95439794921875,0.5810470531828701,-1.3455612067520617,0.1840156741797924
1746476661041377800,10.964377685546875,0.9184338185623288,-1.3857903412878512,-0.1001683471918106
1746476661051356700,10.974356689453124,1.2285055837757886,-1.0834738663762806,-0.04739420385956764
1746476661061336800,10.9843369140625,1.272602499655634,-0.739745184624195,0.29856033724844455
1746476661071315700,10.994315673828124,1.2838451936818658,-0.4770616319209337,0.35431612673997875
1746476661081295600,11.004295654296875,1.3297447750695048,-0.20878478925526142,0.04646715214252472
1746476661091275800,11.01427587890625,1.2137499131925404,0.23348200813829897,-0.08459785309433937
1746476661101254700,11.024254638671875,0.8775538189023733,0.5201923331171274,-0.0189835174113512
1746476661111234600,11.034234619140625,0.5100618381164967,0.7485492533266543,-0.04096270950734615
1746476661121213700,11.044213623046875,0.20482158471271394,0.9519745613753795,-0.12305939343571662
1746476661131193600,11.054193603515625,-0.12246771115288138,0.9391717784255742,-0.08428922553658486
1746476661141172700,11.0641728515625,-0.37826881086602804,0.9011901305556297,-0.08674655556082725
1746476661151153000,11.07415283203125,-0.6432951273031532,0.8436024494618177,0.014113865548372267
1746476661161132800,11.0841328125,-0.8004553816527128,0.7468138078361749,-0.006425064611434936
1746476661171112000,11.09411181640625,-0.8460118486911058,0.6606295623332261,0.00573123712837696
1746476661181091800,11.104091796875,-0.8996084143221378,0.5729530324459076,0.10192249738276005
1746476661191070700,11.11407080078125,-0.8651923499792814,0.4863736501455307,0.215796129322052
1746476661201051000,11.12405078125,-0.7883844201087952,0.35227906795442104,0.21988719802796838
1746476661211030800,11.13403076171875,-0.681295918264985,0.10267653062045573,0.1647439874768257
1746476661221009700,11.144009765625,-0.5337180235140025,-0.19149930793344974,0.060953358134627336
1746476661230989600,11.153989501953125,-0.37134427229985595,-0.4651572591155767,-0.07067804881334304
1746476661240968700,11.16396875,-0.16361761379539966,-0.7673597522586584,-0.20893968755602835
1746476661250948600,11.173948486328126,0.03837444657981395,-0.9569365676969289,-0.3477688970535993
1746476661260927700,11.183927734375,0.23208909247517584,-1.096989181509614,-0.4076531646519899
1746476661270907600,11.19390771484375,0.44337388185262677,-1.1972422843754291,-0.4468219764798879
1746476661280887800,11.2038876953125,0.6589082914985716,-1.2315285848587751,-0.4357406104952097
1746476661290867000,11.213866943359376,0.8366596445865928,-1.2486860558867454,-0.4307160603314638
1746476661300846800,11.223846923828125,0.9752437932819128,-1.1641378871530295,-0.4491588949948549
1746476661310825700,11.23382568359375,1.0634890629678964,-1.0277700993329286,-0.38041678268015383
1746476661320806000,11.243805908203125,1.0423990747965872,-0.8767501013040542,-0.2962228342115879
1746476661330784800,11.25378466796875,0.8902034571170806,-0.7177467033058404,-0.2260258469134569
1746476661340764700,11.2637646484375,0.6815782423377037,-0.5633066677004098,-0.1601385395079851
1746476661350744800,11.273744873046875,0.45481122166812415,-0.4504039266198873,-0.13976269095540045
1746476661360723700,11.2837236328125,0.18417539478614925,-0.30128304021060465,-0.13680851732492447
1746476661370703600,11.29370361328125,-0.05087050166800618,-0.13451368438601494,-0.04627367539703846
1746476661380682800,11.303682861328125,-0.194950909692049,-0.06951601929664611,0.12820493963062762
1746476661390662700,11.31366259765625,-0.4375036746449768,-0.04030804499089718,0.14058920490741728
1746476661400641800,11.323641845703126,-0.6612310353577137,-0.06730068133473396,0.08432020519673823
1746476661410621700,11.33362158203125,-0.7506215295560658,-0.1742693561911583,-0.05237549940347671
1746476661420601900,11.343601806640624,-0.7608306427508592,-0.3009749971747398,-0.18464169712364673
1746476661430580700,11.353580810546875,-0.7077684762574732,-0.38759997218251224,-0.21079028385877607
1746476661440561000,11.363560791015624,-0.600006897457689,-0.5429249739289284,-0.28045184910595417
1746476661450539800,11.373539794921875,-0.42986499646008014,-0.7310907535254955,-0.37367958337962626
1746476661460519700,11.383519775390624,-0.17542422531470656,-0.8765168770700693,-0.500918308326602
1746476661470498800,11.393498779296875,0.06147475166022777,-0.9351181191205978,-0.5861258177518844
1746476661480478700,11.403478759765624,0.24474223782122134,-0.9375462230503558,-0.6374053386121988
1746476661490458600,11.413458740234375,0.4138992194347083,-0.8801537722676992,-0.7007990756362676
1746476661500437800,11.423437744140625,0.5522685563355684,-0.7820522944778203,-0.8503361416310071
1746476661510417700,11.433417724609376,0.6507973196268081,-0.6666553984940051,-0.9512772267609834
1746476661520396800,11.443396728515625,0.6457626864604652,-0.5735597661674022,-1.0771125146508216
1746476661530376700,11.453376708984376,0.5700386063039302,-0.5480424630731344,-1.1895423775225877
1746476661540355600,11.46335546875,0.4042473017312586,-0.5382178191512823,-1.2829285172283649
1746476661550335700,11.473335693359376,0.281474177891016,-0.5829027640521526,-1.3531655442759394
1746476661560316000,11.48331591796875,0.17399755351245402,-0.6111380939334631,-1.3817562634661793
1746476661570294800,11.493294677734376,0.0491734884917736,-0.6202022748768329,-1.410903155234456
1746476661580275000,11.50327490234375,-0.06306757380962372,-0.655614949041605,-1.448494050221145
1746476661590253800,11.51325390625,-0.19626608394384382,-0.6991518929511308,-1.466310569679737
1746476661600233700,11.523233642578125,-0.31869302469491956,-0.7673124059855938,-1.494666018809378
1746476661610212900,11.533212890625,-0.3649612932644784,-0.7970037798941135,-1.603757969430089
1746476661620192800,11.54319287109375,-0.36180034501552577,-0.7771779664397239,-1.7269605707287787
1746476661630172700,11.553172607421875,-0.2822607982240617,-0.6426303797841072,-1.7993603287681936
1746476661640151800,11.56315185546875,-0.22293416450843215,-0.5244289477735757,-1.775853196452558
1746476661650131700,11.573131591796875,-0.19391674433872103,-0.4978168351799249,-1.7703952233076095
1746476661660110600,11.583110595703126,-0.13278759124577044,-0.5261018494218588,-1.7475424632474779
1746476661670090800,11.5930908203125,-0.07366495566964149,-0.5830611694842577,-1.7706632265940307
1746476661680069600,11.603069580078126,-0.08739946651160717,-0.6070137074798345,-1.8418401648402214
1746476661690049500,11.613049560546875,-0.11620119810402392,-0.5811877768278122,-1.9396070038482545
1746476661700030000,11.623030029296874,-0.17710311831235884,-0.45949733365774154,-1.9977543646514415
1746476661710008800,11.6330087890625,-0.1776233427941799,-0.2451443888813257,-2.028755067592859
1746476661719988700,11.64298876953125,-0.19954992792010307,0.004401449829339981,-2.0564605283811686
1746476661729967900,11.6529677734375,-0.25260990245640275,0.21594284431636332,-2.0551611362203954
1746476661739947800,11.66294775390625,-0.3786163821946829,0.37051965804398057,-2.072135067375004
1746476661749927700,11.672927734375,-0.5120628026753664,0.38037645066976544,-2.0557748842045664
1746476661759906800,11.68290673828125,-0.6620130525808781,0.24103636904060838,-1.9726815904542803
1746476661769886700,11.69288671875,-0.7501789003551006,-0.022321721923351287,-1.972732151597738
1746476661779865300,11.702865234375,-0.7681845126450061,-0.33523440965116025,-2.045429139018059
1746476661789845200,11.71284521484375,-0.7525508901834488,-0.6797738232642412,-2.079103445082903
1746476661799824100,11.72282421875,-0.6830885738354175,-0.9255138399511575,-2.0792752945184705
1746476661809804300,11.73280419921875,-0.6353320394694805,-1.0602543188303708,-2.0107669909596444
1746476661819784200,11.7427841796875,-0.6039378802310675,-1.1429238342106343,-1.8613231562063097
1746476661829763000,11.75276318359375,-0.6069060093216597,-1.174974338465929,-1.7068679230317472
1746476661839743200,11.7627431640625,-0.6377144045613706,-1.1796131041824818,-1.5271230580389499
1746476661849722000,11.77272216796875,-0.6186246502965689,-1.2590624884724617,-1.3998574450850485
1746476661859702000,11.782701904296875,-0.5253846410632134,-1.3032330541104078,-1.2814713041573762
1746476661869681200,11.79268115234375,-0.3091799309402704,-1.3033300847440956,-1.1098311274260282
1746476661879661300,11.802661376953125,-0.039998832911252974,-1.3102946630597114,-0.8288935406297445
1746476661889641200,11.81264111328125,0.21815306771174073,-1.224367022666335,-0.5961801787763834
1746476661899620400,11.822620361328125,0.44352249654307957,-1.0609469772696494,-0.46261809602677817
1746476661909600300,11.832600341796875,0.5947394784487784,-0.8855190986931324,-0.3598649930387735
1746476661919579400,11.842579345703125,0.6727643828935921,-0.6669447368294,-0.2088333045721054
1746476661929559300,11.852559326171875,0.7123464516974986,-0.38322190322875976,-0.08155132500529289
1746476661939538200,11.8625380859375,0.6697201928921044,-0.061141574183106416,0.07791033815443515
1746476661949518000,11.87251806640625,0.5179319869697093,0.2014092920511961,0.31645313681364057
1746476661959498200,11.882498291015626,0.3200901781417429,0.3695511052727699,0.4207856179475784
1746476661969477000,11.89247705078125,0.13222045888230205,0.514320226213336,0.48486675271391866
1746476661979457000,11.90245703125,-0.06237257728278636,0.6749766521155833,0.5153238502979278
1746476661989436200,11.912436279296875,-0.27212467720024286,0.7513397608280181,0.579421936199069
1746476661999416000,11.922416015625,-0.5442424132030457,0.7755015576601028,0.5539572400748729
1746476662009395200,11.932395263671875,-0.7491092252969741,0.7826894233375787,0.3900479498565197
1746476662019375400,11.942375244140624,-0.9109691817700862,0.7878203564852476,0.2260176636070013
1746476662029355300,11.952355224609375,-1.0280120913952588,0.8103010683625936,0.06283493409752845
1746476662039334400,11.96233447265625,-1.1091425606399774,0.8451414955973625,-0.054905894663929936
1746476662049314300,11.972314208984375,-1.1692220585495232,0.8346253622800112,-0.18268413331508634
1746476662059293200,11.982293212890625,-1.2262760711580514,0.8395891221672296,-0.2334159571647644
1746476662069273300,11.9922734375,-1.3545078987956047,0.7410492529600858,-0.19758125819563865
1746476662079252200,12.002252197265625,-1.5021912997476756,0.5383657031893729,-0.19213059157431125
1746476662089232100,12.012232177734376,-1.6078864475369452,0.2601075647354126,-0.12372516386806964
1746476662099212300,12.02221240234375,-1.6287866122245787,0.011582885766029357,-0.023764906468987462
1746476662109191200,12.032191162109376,-1.61751995280087,-0.14726210680007934,0.13282500064671038
1746476662119171000,12.042171142578125,-1.619438938164711,-0.19353461315333842,0.39796179172098634
1746476662129150200,12.052150146484376,-1.5837281578361988,-0.1869564038068056,0.7201414894878864
1746476662139130000,12.062130126953125,-1.5023673869669436,-0.10809914019107818,1.050347257322073
1746476662149109200,12.072109130859374,-1.3222545654445885,0.019385668471455574,1.3401654851883649
1746476662159089400,12.08208935546875,-1.1259124936550855,0.16459318082928656,1.578867273801565
1746476662169069300,12.0920693359375,-0.960731210739538,0.29383740037977696,1.802884703502059
1746476662179048200,12.102048095703125,-0.7521417248606681,0.4058154278308153,2.0277356614172457
1746476662189028400,12.1120283203125,-0.556682354189828,0.5301736289054155,2.2378946616351603
1746476662199007200,12.12200732421875,-0.3576571807961911,0.6471311983346939,2.4023422965139147
1746476662208987100,12.131987060546875,-0.19945523537397383,0.7114023027151822,2.4956886887311933
1746476662218966300,12.14196630859375,-0.13325696232318876,0.7427139713019132,2.569070151284337
1746476662228946200,12.1519462890625,-0.15697408412769437,0.8130015594929456,2.6589287013858556
1746476662238926000,12.161926025390626,-0.17733473511114717,0.7608394105792046,2.755719681099057
1746476662248905200,12.1719052734375,-0.26343758594095706,0.7091437101334332,2.7162200298815966
1746476662258885000,12.181885009765624,-0.353521176970005,0.6379249785721302,2.658269945216179
1746476662268864300,12.1918642578125,-0.39567353465333577,0.5454501084923744,2.590536133161187
1746476662278844200,12.20184423828125,-0.4249029901385307,0.5328980854332447,2.52454594990313
1746476662288823000,12.211822998046875,-0.34524493153393265,0.5730424642950296,2.468734630832076
1746476662298803200,12.22180322265625,-0.22214988226294516,0.6780985835283995,2.5133850889414546
1746476662308783400,12.231783447265625,-0.1452021785955876,0.7936112148463725,2.53426304179728
1746476662318762200,12.24176220703125,-0.055244186707586046,0.8644716344892979,2.4153064075052737
1746476662328742100,12.2517421875,0.056492287072539324,0.9227268395811319,2.291210072237253
1746476662338721300,12.26172119140625,0.11685644714236258,1.0105448237657546,2.1738450910508633
1746476662348701200,12.271701171875,0.10137421585023403,1.1236112309753894,2.1043015992254017
1746476662358680300,12.281680419921875,0.035253099688887596,1.2186048058778047,2.0841426082938908
1746476662368660200,12.29166015625,-0.08257657639980316,1.271227558040619,2.0105933879584073
1746476662378641200,12.30164111328125,-0.17222469862103462,1.297583650046587,1.8406880721956491
1746476662388620000,12.3116201171875,-0.1786858574591577,1.258064125084877,1.6710452067613601
1746476662398600200,12.32160009765625,-0.13165230360552668,1.2002940731614828,1.5267454568982124
1746476662408580400,12.331580322265625,-0.03919643048718571,1.1968681903660296,1.436212953057885
1746476662418559200,12.341559326171875,0.017050357391685245,1.2466250317037104,1.4402859015852212
1746476662428539400,12.351539306640625,0.13042100824490188,1.251937751159072,1.3902309540838003
1746476662438518300,12.361518310546876,0.20674027781561016,1.2683002724170684,1.2316811450719833
1746476662448498200,12.371498291015625,0.3394360991246998,1.1762211236566305,1.0914181033790111
1746476662458477300,12.381477294921876,0.40639425063207746,0.9817267255604266,1.0051578700304031
1746476662468457200,12.391457275390625,0.4490918211080134,0.7105506543219089,0.9406015189677477
1746476662478437000,12.40143701171875,0.5769178444236517,0.501419828107953,0.8186433647722006
1746476662488416300,12.411416259765625,0.6538463319338857,0.39342181020379063,0.5800444520115852
1746476662498396200,12.421396240234374,0.8093107421509921,0.39095863496065136,0.2644628373354673
1746476662508375000,12.431375,1.0809674365133046,0.5932394491493702,-0.07125438739657401
1746476662518355200,12.441355224609374,1.2824614842385054,1.0451672243356704,-0.3385737832069397
1746476662528334000,12.451333984375,1.29618386625126,1.660108802205324,-0.431200628978014
1746476662538314000,12.46131396484375,1.1857301257580517,2.1123510501682756,-0.4414157335221767
1746476662548294400,12.47129443359375,0.9226169494658708,2.3425410310238597,-0.32023557796180246
