time,seconds_elapsed,z,y,x
1746475879310142000,0.969141845703125,0.19959142897427082,-0.5707447087466716,0.10466518368702381
1746475879320139000,0.979138916015625,0.008254618126153945,-0.4570034710153937,0.23327866758592425
1746475879330135800,0.9891357421875,-0.17527181123197078,-0.4641653254687786,0.3341309784539044
1746475879340132900,0.9991328125,-0.27297055343985555,-0.5632072989791631,0.3698425625000149
1746475879350129000,1.00912890625,-0.1805342618048191,-0.6782353616505861,0.37238055654503405
1746475879360126000,1.0191259765625,-0.12624445321261882,-0.7687529601827263,0.34244638685658574
1746475879370123000,1.029123046875,-0.07782675152420997,-0.8375701835602521,0.2930230883222073
1746475879380120000,1.0391201171875,0.08035539321899414,-0.881976311519742,0.35391076080948114
1746475879390116900,1.049116943359375,0.26848960863351823,-0.9223422241777182,0.5338702914662659
1746475879400114000,1.059114013671875,0.4184329173415899,-1.0198948359131812,0.749328201809898
1746475879410111000,1.069111083984375,0.5046908126026391,-1.0080305028572678,0.9057649641904979
1746475879420107000,1.07910693359375,0.5716027868807315,-0.8816080627292394,1.0218915626883507
1746475879430104000,1.08910400390625,0.6653261957168579,-0.8316875552624463,1.160991186625138
1746475879440100900,1.099100830078125,0.6594710399478674,-0.847882026477158,1.3247978201866148
1746475879450098000,1.109097900390625,0.4739624968618154,-0.8592597450599074,1.4589865104019641
1746475879460095000,1.119094970703125,0.13685644811987877,-0.7445815187394619,1.563343249194324
1746475879470091800,1.129091796875,-0.22177637277543544,-0.5541673756942153,1.6438772138506172
1746475879480088800,1.1390888671875,-0.4833978492051363,-0.41868689210265875,1.8522127980336547
1746475879490084900,1.1490849609375,-0.5199614469707012,-0.6319497035548091,2.0378066813156006
1746475879500082000,1.15908203125,0.17631226019561289,-0.7444871184542775,2.0356755145058036
1746475879510079000,1.169078857421875,0.9124375007569789,-0.6432780300378799,2.0051532427310943
1746475879520076000,1.179075927734375,1.1470710170179605,-0.6053413903534413,2.087043444301933
1746475879530072800,1.18907275390625,0.9263327551186085,-0.4841641574025154,2.202832262212783
1746475879540070000,1.19906982421875,0.26369243748486043,-0.14671265622377394,2.140627442712337
1746475879550067000,1.20906689453125,-0.704507867026329,0.3649292906910181,1.828973961265385
1746475879560063000,1.21906298828125,-1.890315734195709,0.9279118410035967,1.4745491134539246
1746475879570060000,1.22906005859375,-3.0404157436460255,1.3786089053511619,1.2379168245911598
1746475879580056800,1.239056884765625,-3.8882290888011455,1.7663073694720863,1.070908691574633
1746475879590054100,1.24905419921875,-4.1501223679095505,2.0809575485169884,0.9366785003051161
1746475879600051000,1.259051025390625,-3.6182992182314395,2.245048917303979,0.8149203256610781
1746475879610048000,1.269048095703125,-2.385329786914587,2.1116838184311986,0.8570259946584701
1746475879620044000,1.2790439453125,-1.1219143639296292,1.668758557128906,1.1850750959154217
1746475879630040800,1.289040771484375,-0.2760527373641729,1.2816364315912128,1.3744248976647853
1746475879640038000,1.299037841796875,0.14055647168159485,1.1844023842856288,1.1323080399110912
1746475879650035000,1.309034912109375,0.31985154708027835,1.2545429652214048,0.6400726581253111
1746475879660032000,1.319031982421875,0.38383974286615846,1.301556060808897,0.28371114316284657
1746475879670028800,1.32902880859375,0.4119008852243423,1.2160381702601908,0.12755904294252396
1746475879680026000,1.339026123046875,0.4172638735622167,1.0596545993715525,-0.005178425551205873
1746475879690022000,1.34902197265625,0.34613457385003565,0.9323311187505722,-0.21298823229447006
1746475879700019000,1.35901904296875,0.21137948192358016,0.8905980093926191,-0.32943156859129663
1746475879710016000,1.36901611328125,0.08337152616977692,0.9405641095668077,-0.39065556036084886
1746475879720012800,1.3790126953125,0.016602759754657744,1.024906526595354,-0.35541020558699965
1746475879730010000,1.389010009765625,-0.07805413053929805,1.0380164757981896,-0.25297961255162954
1746475879740007000,1.3990068359375,-0.14648235459923745,1.0497972222238778,-0.16019465360939503
1746475879750004000,1.40900390625,-0.1370470022559166,1.1137988620132206,-0.13901099580526352
1746475879760000000,1.419,0.010133856001496314,1.1649524184063076,-0.1571672686122358
1746475879769996800,1.428996826171875,0.27518472235798835,1.1067667714193463,-0.22236045627370477
1746475879779994000,1.438994140625,0.49198330672085283,0.9698182611018419,-0.36190336699858305
1746475879789991000,1.448990966796875,0.5504349111676216,0.8240501922518014,-0.5397441519357263
1746475879799988000,1.458988037109375,0.3282020267963409,0.8682593363344668,-0.6174811793498695
1746475879809985000,1.468985107421875,0.027681787651777267,0.9290572116464376,-0.6308899653688073
1746475879819982000,1.478982177734375,-0.1282230598092079,0.869501153089106,-0.7574814784534275
1746475879829978000,1.48897802734375,-0.09705576812922954,0.7021791318178177,-0.9088859457552433
1746475879839975000,1.498974853515625,-0.005379354950785636,0.4746896420925855,-1.0380940710790454
1746475879849972000,1.508971923828125,0.11325637682378291,0.283665550455451,-1.1723211936086415
1746475879859969000,1.518968994140625,0.2321218257009983,0.13186580022573471,-1.2558251139864325
1746475879869966000,1.528966064453125,0.3600087854236364,-0.053635144075751304,-1.3345659116156399
1746475879879963000,1.538962890625,0.5178893168717622,-0.18926292718350887,-1.488976282735169
1746475879889960000,1.5489599609375,0.6872270618796348,-0.19397505039721727,-1.6311644472718239
1746475879899956000,1.5589560546875,0.8752554788321256,-0.15366700540632008,-1.740483923038095
1746475879909952800,1.568952880859375,0.9887234525799751,-0.1624506158426404,-1.8352343368344008
1746475879919950000,1.5789501953125,0.9763649062663317,-0.20268062716126442,-1.8373510367274284
1746475879929947000,1.58894677734375,0.8619804021954536,-0.23394816434532403,-1.8555659078538416
1746475879939944000,1.59894384765625,0.6102379302233457,-0.20275193883180617,-1.887195556348562
1746475879949941000,1.60894091796875,0.14533552265167235,-0.07209463761299847,-1.9706864711143075
1746475879959936800,1.618936767578125,-0.33957565372586246,0.10172317541837692,-2.0003591403223573
1746475879969934000,1.62893408203125,-0.757996296107769,0.18796061241328715,-1.9538243297711013
1746475879979931000,1.638930908203125,-1.1724597252964972,0.11495762778371572,-1.7270684150174258
1746475879989928000,1.648927978515625,-1.496467807534337,-0.15392390277683735,-1.4429526365764438
1746475879999925000,1.658925048828125,-1.501878142145276,-0.2638409060448408,-1.4010606833949684
1746475880009922000,1.668922119140625,-1.2312462607860564,-0.10117752423435449,-1.4440674659505486
1746475880019918800,1.6789189453125,-0.8524550334811211,-0.09068360274881124,-1.3658030536614358
1746475880029915000,1.688914794921875,-0.4193383417487144,-0.19235066406577825,-1.3395844704300164
1746475880039912000,1.698911865234375,-0.10348784700334071,-0.093694182741642,-1.3543993238545953
1746475880049909000,1.708908935546875,-0.28312311414182184,-0.011197393579781055,-1.2208286194071174
1746475880059906000,1.718906005859375,-1.133684881222248,0.06754442696273326,-0.958399479856342
1746475880069902800,1.72890283203125,-2.3470739982783795,0.3315484146147966,-0.6571111789487302
1746475880079900000,1.73889990234375,-3.5129818177133796,0.6594692863821983,-0.34379823985695834
1746475880089897000,1.74889697265625,-4.322956722861528,0.8988067425504326,-0.0932473157569766
1746475880099892700,1.758892822265625,-4.455261499026418,1.0514467429965735,0.10407952928617596
1746475880109890000,1.76889013671875,-3.752555712985992,1.0789610651269554,0.25509207466095685
1746475880119886800,1.778886962890625,-2.4141484696418045,0.923381211836636,0.3160796273261309
1746475880129884000,1.7888837890625,-0.9904881241649389,0.5641486714825034,0.23106223364546893
1746475880139881000,1.798880859375,0.2586421683579683,0.15966683034300802,-0.013758622369915246
1746475880149878000,1.8088779296875,1.1992998014271259,-0.2051926099821925,-0.3106606710173189
1746475880159874800,1.818874755859375,1.7446745065957308,-0.48449733487963675,-0.5982037935584783
1746475880169870800,1.828870849609375,1.8245792334377764,-0.6485401883497833,-0.8730269891276955
1746475880179868000,1.838867919921875,1.4318430674105882,-0.6737588007584214,-1.1308975885912775
1746475880189865000,1.848864990234375,0.8452303429245949,-0.5291378561168909,-1.3080847319252789
1746475880199862000,1.858862060546875,0.30656010383069515,-0.2624684486478567,-1.3501650472857056
1746475880209858800,1.86885888671875,-0.09122808488905429,-0.06836568021774292,-1.244796647232771
1746475880219856100,1.878856201171875,-0.2585515674650669,0.09277999050617218,-1.0156528144292534
1746475880229852000,1.888851806640625,-0.06804770030975342,0.3088707188606262,-0.7279220603615045
1746475880239849000,1.898848876953125,0.3091927904218435,0.466299999409914,-0.4971783911459148
1746475880249846000,1.908845947265625,0.7215887656867503,0.5247843370825052,-0.29271614126488565
1746475880259842800,1.9188427734375,1.0214560938805342,0.5364332738220692,-0.1335636901848018
1746475880269840100,1.928840087890625,1.1054641643881797,0.5159700392469764,-0.0802329358831048
1746475880279837000,1.9388369140625,1.0120926377296446,0.4494187149748206,-0.11313114300891756
1746475880289834000,1.948833984375,0.8775970735222101,0.35098435196876526,-0.20990195671692488
1746475880299830000,1.958830078125,0.7173176642388105,0.31839521079212424,-0.35062457874566316
1746475880309826800,1.968826904296875,0.5265431634485721,0.32744799355864523,-0.5313322974212468
1746475880319824000,1.978823974609375,0.340255452683568,0.3357385597810149,-0.7139306521490216
1746475880329821000,1.988821044921875,0.12684475719332694,0.3489060843899846,-0.8415832185938954
1746475880339818000,1.99881787109375,-0.11576046859920024,0.33525837504863737,-0.8579225051067769
1746475880349814800,2.008814697265625,-0.23010464065968989,0.3208408503785729,-0.7923916099235415
1746475880359812000,2.01881201171875,-0.17952596154510975,0.3189139739692211,-0.652371729336679
1746475880369808000,2.028807861328125,-0.05707213278710842,0.3403913540229201,-0.4615631801463663
1746475880379805000,2.038804931640625,0.09060323098897934,0.41351328885704275,-0.34098888152465223
1746475880389802000,2.048802001953125,0.11449147157669066,0.4588239644408226,-0.29134178417176004
1746475880399798800,2.058798828125,-0.04910977560579777,0.45097792711555956,-0.2827588108740747
1746475880409796000,2.068796142578125,-0.3497679619163275,0.395651761212945,-0.3018155396521091
1746475880419793000,2.07879296875,-0.6506412522822618,0.3841498317286372,-0.35250513179525733
1746475880429790000,2.0887900390625,-0.9535615383058785,0.3570531504884362,-0.35410409142449495
1746475880439786000,2.098785888671875,-1.1527502316981553,0.24430326188206672,-0.20280264610573648
1746475880449782800,2.10878271484375,-1.0578753147393465,0.10220482145547866,-0.047368777157366274
1746475880459780000,2.118780029296875,-0.7125900511950254,0.06982552363723515,0.030490707592666148
1746475880469777000,2.12877685546875,-0.4458388106614351,0.1999956258609891,-0.05373012888282537
1746475880479774000,2.13877392578125,-0.4494295286297798,0.39103199245780706,-0.2708522461116314
1746475880489771000,2.14877099609375,-0.9165747466921805,0.5151435252949595,-0.5183192327216267
1746475880499766800,2.158766845703125,-1.6479653599470854,0.682696724973619,-0.7043821948200464
1746475880509763800,2.168763916015625,-2.2592098368644713,0.9227268395811319,-0.6791711811959743
1746475880519761000,2.178760986328125,-2.541229373678565,1.05144352812618,-0.48200960971713064
1746475880529757700,2.1887578125,-2.4007225863575936,1.062277641351521,-0.1671466647043824
1746475880539754800,2.198754638671875,-1.8723370099127292,1.0641086561709643,0.114198041588068
1746475880549751800,2.208751708984375,-1.166954698139429,1.0013745520994066,0.2736532750070095
1746475880559748900,2.218748779296875,-0.5429483548045158,0.8361153085768223,0.25246611007153985
1746475880569745000,2.228744873046875,-0.11336100624203681,0.666912880386412,0.07985036630630493
1746475880579742000,2.238741943359375,0.0004898293435573578,0.49303456933945417,-0.1506818521156907
1746475880589738800,2.24873876953125,-0.12687982850670815,0.42992666351944203,-0.4644333287551999
1746475880599735800,2.25873583984375,-0.32231822945475574,0.5266226584255695,-0.8630161749839782
1746475880609732900,2.26873291015625,-0.5777466964632272,0.7478934197664261,-1.20476595787853
1746475880619729700,2.278729736328125,-0.9287906696647406,0.9333265595287084,-1.4104305692866443
1746475880629727000,2.28872705078125,-1.3558943847179412,1.1333443972215056,-1.4387085692659018
1746475880639722800,2.29872265625,-1.7716811714649199,1.323913438567519,-1.2926833107843994
1746475880649720000,2.308719970703125,-2.084105198892951,1.4408096331983804,-0.9823886966004967
1746475880659716900,2.318716796875,-2.1924293800115584,1.558152694813907,-0.6633895285658538
1746475880669713700,2.328713623046875,-1.9436399126261472,1.6841648005753755,-0.43091888942718504
1746475880679711000,2.3387109375,-1.3496756563335657,1.786049011774361,-0.2749253407694399
1746475880689707800,2.348707763671875,-0.6386673213720321,1.7747241924226282,-0.2339864505290985
1746475880699703800,2.358703857421875,-0.01862988166809082,1.6258508510336278,-0.24925854620188473
1746475880709700900,2.368700927734375,0.29638533129692074,1.4527420630544423,-0.35192806255966425
1746475880719698000,2.378697998046875,0.38363165307343006,1.3067851936340331,-0.5868623153328896
1746475880729694700,2.38869482421875,0.4605342754900455,1.1842816805154084,-0.8247872743546962
1746475880739691800,2.39869189453125,0.6167185244143009,1.0673042373418808,-1.014347869310528
1746475880749688800,2.408688720703125,0.7573585827261209,0.9548930791705846,-1.1393468525066972
1746475880759685600,2.418685546875,0.8363596387267113,0.8663491187989711,-1.2109003689803182
1746475880769682000,2.428681884765625,0.7971516639322042,0.7833867579519749,-1.322004097814858
1746475880779678700,2.4386787109375,0.6289905614882707,0.7114715685591101,-1.4160944402672349
1746475880789676000,2.448676025390625,0.35754268757104873,0.6303121654808521,-1.4605425076723098
1746475880799672800,2.4586728515625,0.05308218636810779,0.6101365156754851,-1.4630400235764682
1746475880809670000,2.468669921875,-0.2009504423677921,0.6201335935547948,-1.5081550304576754
1746475880819667000,2.4786669921875,-0.38684360085725783,0.6088382925584912,-1.5534360415555535
1746475880829663700,2.488663818359375,-0.5555407098740339,0.6195353354007005,-1.5466735616832972
1746475880839660000,2.498659912109375,-0.7039654307126999,0.6450777729362249,-1.5058458767324685
1746475880849656800,2.50865673828125,-0.7889467301666736,0.5763657634988427,-1.605535938888043
1746475880859654000,2.51865380859375,-0.9342921896904707,0.5236567943572997,-1.4588631762832402
1746475880869651000,2.52865087890625,-0.9871136792957782,0.5564087248802184,-1.4888498798765242
1746475880879648000,2.53864794921875,-0.9883066884726285,0.5601645702823996,-1.4269704929381608
1746475880889644800,2.548644775390625,-0.8569137664556503,0.5499681704387068,-1.4126611048176885
1746475880899641900,2.558641845703125,-0.65433718419075,0.5524053344577551,-1.3200167233899236
1746475880909638000,2.568637939453125,-0.4628711940050125,0.5684954685151576,-1.1942965863123536
1746475880919635000,2.578635009765625,-0.4252022653460502,0.6128714935973286,-1.0678639170512556
1746475880929632000,2.588632080078125,-0.4962076464176178,0.6884355608865619,-0.9491365614704788
1746475880939628800,2.59862890625,-0.5979512801021337,0.8225628763034939,-0.8596534205526113
1746475880949625900,2.6086259765625,-0.73494275277853,0.9584586626976728,-0.7835888563953339
1746475880959623000,2.618622802734375,-0.892092047342658,1.062732399381697,-0.6780063752003014
1746475880969619700,2.62861962890625,-1.0715046116411686,1.1371879209071396,-0.5965235853865742
1746475880979616000,2.638615966796875,-1.276432725468278,1.1854977783069014,-0.5882593226492404
1746475880989612800,2.64861279296875,-1.424955645984411,1.1947364390343427,-0.6737002024389803
1746475880999609900,2.65860986328125,-1.4619418530762194,1.1572592335551977,-0.761689013145864
1746475881009607000,2.66860693359375,-1.4202888232171536,1.1206845298737287,-0.7707200224719941
1746475881019604000,2.67860400390625,-1.282905720874667,1.0632213519424198,-0.7707572857424616
1746475881029600800,2.688600830078125,-1.0758727437227964,1.0335852153524756,-0.8069424055844545
1746475881039597800,2.698597900390625,-0.8148065630882978,0.9992734881669282,-0.8296177632510662
1746475881049593900,2.70859375,-0.6168535489708185,0.9443988654240966,-0.9102855834200978
1746475881059591000,2.7185908203125,-0.6843395237445831,0.9046572221443057,-0.9887886267706751
1746475881069588000,2.728587890625,-0.9602946459531784,0.970813994140923,-1.1011724585436284
1746475881079584800,2.738584716796875,-1.26313134534657,1.1188313032224775,-1.2301327465862035
1746475881089582000,2.74858203125,-1.410119895902276,1.295440792798996,-1.325306646491587
1746475881099579000,2.758578857421875,-1.373604813453555,1.531669761557877,-1.3705178072236477
1746475881109575700,2.76857568359375,-1.1642717426657676,1.6932172910809515,-1.300572894990444
1746475881119572000,2.778572021484375,-0.8496487438887357,1.7913646538391708,-1.1469703331224619
1746475881129568800,2.78856884765625,-0.5410001433461904,1.7941642214298248,-0.9630246554389595
1746475881139565800,2.79856591796875,-0.384021529173851,1.7033844648301601,-0.7877965372182428
1746475881149563000,2.80856298828125,-0.443116107699275,1.621559291319549,-0.6608636633500456
1746475881159560000,2.818559814453125,-0.5892085861980915,1.5881301921874285,-0.6013087738364935
1746475881169556700,2.828556640625,-0.6976841584861279,1.6199129854172467,-0.5785258641421794
1746475881179553800,2.8385537109375,-0.746826667317748,1.6567638756915926,-0.5762500281646847
1746475881189549800,2.8485498046875,-0.7786188128978013,1.7166531117260455,-0.5380152823165059
1746475881199547000,2.858546875,-0.8124117769062519,1.7550348648294805,-0.5047377204842866
1746475881209544000,2.8685439453125,-0.8954548017740249,1.6858856330186127,-0.5957746667154133
1746475881219540700,2.878540771484375,-0.996392379772663,1.5267828662991523,-0.7205649755969643
1746475881229538000,2.8885380859375,-0.9946084189653396,1.3126350887060165,-0.9036724488906562
1746475881239534800,2.898534912109375,-0.8930869035989045,1.0902043436750768,-0.981534856250137
1746475881249531600,2.90853173828125,-0.7299211252242326,0.8602835351496935,-1.062649251142889
1746475881259529000,2.918529052734375,-0.6446569171756505,0.6007014555931091,-1.0983584240362048
1746475881269524700,2.928524658203125,-0.5681061769366264,0.3767570911288261,-1.117177690796554
1746475881279522000,2.93852197265625,-0.4929641344517469,0.2165083692446351,-1.1136141530960797
1746475881289518800,2.948518798828125,-0.4081599451303482,0.05547872611582279,-1.0751425297521053
1746475881299516000,2.958515869140625,-0.30670681882500644,-0.1168517709672451,-1.123895308613777
1746475881309513000,2.968512939453125,-0.2584358321309089,-0.2265840653181076,-1.1618380857780575
1746475881319509800,2.978509765625,-0.10985153681635856,-0.34259383250325914,-1.128468607878685
1746475881329506800,2.9885068359375,0.07365034262239932,-0.3643859775945544,-1.1013254571482538
1746475881339502800,2.9985029296875,-0.07627776851654053,-0.2512339379280805,-1.1539384185694157
1746475881349500000,3.0085,-0.1511111834436655,-0.13680530245453118,-1.1607786398530007
1746475881359496700,3.01849658203125,0.025953940945863722,-0.03285422185361385,-1.0388488349691032
1746475881369494000,3.028493896484375,0.28403789089918136,0.015205167916417121,-0.8098240985006093
1746475881379490800,3.03849072265625,0.4356733904778957,0.12087240478545426,-0.5896706507518887
1746475881389487600,3.048487548828125,0.4608966790616512,0.26345366029292344,-0.4913201666370034
1746475881399485000,3.05848486328125,0.3361930255502462,0.4306099696084857,-0.4513165114201605
1746475881409480700,3.068480712890625,0.16060557249784468,0.5311012651443481,-0.40316622849628325
1746475881419478000,3.07847802734375,-0.06868775177896022,0.6211053611963987,-0.3703964700557291
1746475881429474800,3.088474853515625,-0.2818541171193123,0.7097101118445396,-0.33825551103800533
1746475881439471900,3.098471923828125,-0.40767303839623925,0.776375710146129,-0.320402458961308
1746475881449469000,3.108468994140625,-0.5031009130626917,0.81449472066015,-0.3275996039237827
1746475881459465700,3.1184658203125,-0.5582552295297384,0.8727434960111975,-0.27852358445711434
1746475881469462800,3.128462890625,-0.5163508552581072,0.8386118015676737,-0.19215886782072483
1746475881479459800,3.1384599609375,-0.44995968998372554,0.7478110021799802,-0.064824792740494
1746475881489455900,3.148455810546875,-0.33083179077804087,0.684462857863307,0.06738762896582484
1746475881499453000,3.158452880859375,-0.17663666984438894,0.6084568920254707,0.22676614388674496
1746475881509450000,3.168449951171875,-0.005885550907254219,0.5504641372621059,0.3850783447504043
1746475881519446800,3.17844677734375,0.13636311164498327,0.5116603593543172,0.473815051215142
1746475881529444000,3.188444091796875,0.246865221324563,0.5088309811472892,0.49306744869574903
1746475881539441000,3.19844091796875,0.2893979566276073,0.5046162860617042,0.4754764085561037
1746475881549438000,3.20843798828125,0.24894202759861944,0.504601673014462,0.4902462537951767
1746475881559434000,3.21843408203125,0.2047416513442993,0.502382243399322,0.5471466832771897
1746475881569430800,3.2284306640625,0.11528817491233348,0.510961271174252,0.6144692841827869
1746475881579427800,3.238427734375,0.017932547053694722,0.5016837397411466,0.6303459216199815
1746475881589425000,3.2484248046875,-0.08129939607083797,0.502824141947925,0.6308106165222823
1746475881599422000,3.258421875,-0.11662731456160545,0.5273746458366513,0.6526805030249059
1746475881609418800,3.268418701171875,-0.12399638202488422,0.5204068526506423,0.6404955597124994
1746475881619416000,3.278416015625,-0.1677279717236757,0.4837774961724877,0.6600272125259041
1746475881629412900,3.288412841796875,-0.2522369774907827,0.4593596787527203,0.6930142669789493
1746475881639409000,3.298408935546875,-0.2793435956031084,0.41861674947589633,0.7118475622646511
1746475881649406000,3.308406005859375,-0.2705669994294643,0.3416071595534682,0.6756413996346294
1746475881659402800,3.31840283203125,-0.1920581108599901,0.22554273957163093,0.7111245086871087
1746475881669400000,3.328400146484375,-0.10884382107853889,0.10393880564123391,0.8056286926373839
1746475881679396900,3.33839697265625,-0.06504734944999217,0.01296089612096548,0.8580905551500618
1746475881689394000,3.348393798828125,0.015806640940904615,-0.04238368222117424,0.8719679815940559
1746475881699391000,3.358390869140625,0.05532324329316616,-0.10565788451880216,0.8330087208636104
1746475881709388000,3.368387939453125,0.13798515988886356,-0.15228811826854943,0.8382720482192934
1746475881719384000,3.378384033203125,0.25502105525135993,-0.21358166814297436,0.8731672743812203
1746475881729380900,3.388380859375,0.4001291988879442,-0.28679303482621904,0.9132694215364754
1746475881739378000,3.3983779296875,0.5041413620263338,-0.36361060930788514,0.9606357144758104
1746475881749375000,3.408375,0.5850719247847795,-0.46210050189346075,0.9828620132006705
1746475881759372000,3.4183720703125,0.5977449438750744,-0.540294040903449,0.9592238018512725
1746475881769368800,3.428368896484375,0.6005033026725053,-0.6069304131105542,0.9216296919941902
1746475881779366100,3.4383662109375,0.6085024847328663,-0.7399848385989666,0.8880233365990221
1746475881789363000,3.448363037109375,0.5216606521040201,-0.8996995997369289,0.8059696150295436
1746475881799358700,3.458358642578125,0.35740123327374457,-0.985318028050661,0.6656412530153989
1746475881809356000,3.46835595703125,0.2650771698415279,-0.9965741660803555,0.5054189807467162
1746475881819352800,3.478352783203125,0.2669692671984434,-0.9835451731592416,0.4144363950513303
1746475881829350000,3.488349853515625,0.3622790684431791,-1.0002502242445945,0.4039852897942066
1746475881839347000,3.498346923828125,0.49083881286084646,-0.9938701678186654,0.417873237632215
1746475881849344000,3.508343994140625,0.5300333436518907,-1.0085255928978323,0.4619198846295476
1746475881859340800,3.5183408203125,0.41778292900025843,-1.0267170831486583,0.547206742901355
1746475881869338000,3.528338134765625,0.20947920126020908,-1.0351730690658092,0.5821519456848502
1746475881879334000,3.538333984375,0.003280336844921112,-0.9587073767617345,0.5269099509343504
1746475881889331000,3.5483310546875,-0.039808863297104834,-0.8349138238325715,0.43226139007732267
1746475881899328000,3.558327880859375,0.05326747980713844,-0.7356865568831562,0.3471083873182535
1746475881909324800,3.56832470703125,0.18341595472097397,-0.6848822523191571,0.3095344434663653
1746475881919322000,3.578322021484375,0.3027344080626964,-0.6447957411244511,0.21580928106456992
1746475881929319000,3.58831884765625,0.39110242734551426,-0.5785533366709947,0.12173968913927674
1746475881939316000,3.59831591796875,0.43918812060058116,-0.550790300476551,0.03856134745404124
1746475881949313000,3.60831298828125,0.4364461284160614,-0.5456736881151795,-0.03555909689813852
1746475881959308800,3.618308837890625,0.43275136555135246,-0.5407537673696875,-0.08667071384564042
1746475881969306000,3.62830615234375,0.4168471094548702,-0.49354573373198507,-0.08818974010646342
1746475881979303000,3.638302978515625,0.39051965902149677,-0.4029530241370201,-0.15015768211111424
1746475881989300000,3.648300048828125,0.38701603481471536,-0.27247780148684975,-0.2325276300229132
1746475881999297000,3.658297119140625,0.2917863130688667,-0.1980009449124336,-0.28642084051296113
1746475882009294000,3.668294189453125,0.055391047832369804,-0.16514409271031616,-0.3134660838268697
1746475882019291000,3.678290771484375,-0.21139234140515326,-0.08976824146956205,-0.3556785011343658
1746475882029288000,3.688287841796875,-0.5115946006417275,-0.00038490766435861584,-0.32388430972769855
1746475882039284000,3.698283935546875,-0.7891688484847545,0.08661679170131682,-0.2537707629293203
1746475882049280800,3.70828076171875,-1.008086324697733,0.17666034298092126,-0.16180997985154388
1746475882059278000,3.718278076171875,-1.2326292395770548,0.24219255333840845,-0.06854205969795585
1746475882069275000,3.72827490234375,-1.5453168863773346,0.33115415460020303,0.03164323862865567
1746475882079272000,3.73827197265625,-1.867514119800925,0.45487025837898254,0.13141527997925878
1746475882089269000,3.74826904296875,-2.21551507204473,0.5305372015208005,0.19615619382858276
1746475882099266000,3.75826611328125,-2.495073771703243,0.5597165342539548,0.2235636945836246
1746475882109262800,3.768262939453125,-2.5915923642158507,0.5873994909495115,0.1829497985139489
1746475882119259000,3.7782587890625,-2.4138053552925585,0.6116825760737061,0.07422375859618187
1746475882129256000,3.788255859375,-1.9641618916511534,0.5732642903521656,-0.0418169882491231
1746475882139253000,3.7982529296875,-1.334527187040448,0.42974049329757685,-0.09413900389969349
1746475882149250000,3.80825,-0.6908136881947518,0.2791796372130513,-0.11591945855319499
1746475882159246800,3.818246826171875,-0.15429273608922958,0.16495792248845098,-0.06997530737146734
1746475882169244200,3.828244140625,0.21555004560649393,0.14368600187897682,-0.008979717530310153
1746475882179241000,3.838240966796875,0.4875169749617576,0.148734225179255,0.04645560783520341
1746475882189237800,3.84823779296875,0.7118173132568597,0.19228227500468492,0.0944401788033545
1746475882199234000,3.858234130859375,0.9390595502227544,0.2819157841786742,0.0923629341378808
1746475882209230800,3.86823095703125,1.172725098234415,0.39398996548056603,0.053457887812703844
1746475882219228000,3.878227783203125,1.3710054446101188,0.4689803245350718,0.04308700818493962
1746475882229225000,3.888224853515625,1.4204858070939779,0.46135582100600003,0.06584127630665898
1746475882239222000,3.898221923828125,1.3540829513818025,0.4317141314581036,0.11390694968700409
1746475882249218800,3.90821875,1.1997691725045443,0.4521928558632731,0.15423253033459186
1746475882259216000,3.9182158203125,1.0458873553037642,0.5308689176931977,0.16932883104905486
1746475882269213000,3.928212890625,0.9346984324038028,0.6006207915723324,0.20295710601508615
1746475882279209700,3.938209716796875,0.7378934192776679,0.6144423961758613,0.3094227997854352
1746475882289206000,3.9482060546875,0.3962432973653078,0.6500166906431317,0.4482882496401667
1746475882299202800,3.958202880859375,0.06803308726251125,0.732788789615035,0.5029344704546034
1746475882309200100,3.9682001953125,-0.0959942763775587,0.8376426642745732,0.5587663939222693
1746475882319197000,3.978197021484375,-0.05818915411829948,0.9120870798841119,0.6162469613797962
1746475882329193700,3.98819384765625,0.13992168090939522,0.9216340759083628,0.7083576743222773
1746475882339191000,3.99819091796875,0.3400006011396646,0.8442258420571684,0.8125254664137959
1746475882349187800,4.008187744140625,0.5358218639254569,0.7136734625175595,0.8898742251627146
1746475882359185000,4.018184814453125,0.6546072333037853,0.5859165589153766,0.9225269330948591
1746475882369181000,4.028180908203125,0.6875526405721902,0.4589508056908846,0.8755211440309881
1746475882379178000,4.038177978515625,0.7055009697169065,0.35599808847755193,0.7701001370079815
1746475882389175000,4.048175048828125,0.7427420283526182,0.29531185684651134,0.7203392040170729
1746475882399171800,4.058171875,0.7854337536096573,0.20428017131239173,0.6969815631747245
1746475882409169000,4.0681689453125,0.8441139061152935,0.11834200952500104,0.7282510000549256
1746475882419166000,4.078166015625,0.8651596167534589,0.07103519168794155,0.7762003535792231
1746475882429163000,4.0881630859375,0.7623252652227878,0.04532587315291166,0.7988350869745016
1746475882439159800,4.098159912109375,0.5706120222777128,0.04906798229068517,0.8266136129990219
1746475882449157000,4.1081572265625,0.32146891914904113,0.05845774192661047,0.7934452106297015
1746475882459153000,4.11815283203125,0.06920096199810505,0.020755787780880927,0.7080316572383045
1746475882469150000,4.12814990234375,-0.0534825838625431,-0.03134264824688435,0.689715517694503
1746475882479147000,4.13814697265625,-0.06439443849921227,-0.08999532822370529,0.7473772869378328
1746475882489143800,4.148143798828125,0.013853753307461738,-0.14681553207635878,0.8717981779851018
1746475882499140900,4.158140869140625,0.11446750617921352,-0.19592443089932202,0.9872432970248162
1746475882509138000,4.168137939453125,0.16259294692277906,-0.20027911897748707,1.0645341881066561
1746475882519135200,4.17813525390625,0.22105273467600345,-0.18600684799700976,1.10319768076092
1746475882529132300,4.18813232421875,0.28354280085861683,-0.16230273180454968,1.0964427996732293
1746475882539129300,4.19812939453125,0.3611281448423862,-0.1871460811600089,1.085096645272523
1746475882549125400,4.20812548828125,0.4592757998615503,-0.2468874331563711,1.0610175582878292
1746475882559122400,4.218122314453125,0.6026145957380533,-0.27920886330753564,0.9682913437955081
1746475882569119500,4.228119384765625,0.7384609900325536,-0.31170389645993707,0.791127142945677
1746475882579116300,4.2381162109375,0.7451853298515081,-0.38423984809964895,0.6533157321885228
1746475882589113300,4.24811328125,0.5968962180912494,-0.4845929042086005,0.5815583637058734
1746475882599110400,4.2581103515625,0.4322743956893682,-0.5235977576464415,0.5516035165555775
1746475882609107200,4.268107177734375,0.2636620423465967,-0.5420493601381778,0.5697744024097919
1746475882619104500,4.2781044921875,0.18116905257701874,-0.5468576372027397,0.6322703138113022
1746475882629101300,4.288101318359375,0.16849194183349608,-0.5394374240741133,0.7329675071828067
1746475882639097300,4.298097412109375,0.17965163375139234,-0.4775058685570955,0.8278671201914548
1746475882649094400,4.308094482421875,0.1392383748203516,-0.3957183967083692,0.9241960353508591
1746475882659091200,4.31809130859375,0.07754501197338104,-0.3156815679192543,0.9731585114404558
1746475882669088300,4.328088134765625,0.09067804979085922,-0.26553952665627,1.0397611275084315
1746475882679085300,4.338085205078125,0.22754034312963484,-0.23960136780142782,1.1046641000516713
1746475882689082400,4.348082275390625,0.4802735797047615,-0.2670125218182802,1.14582247826159
1746475882699079200,4.3580791015625,0.7574550288379192,-0.30814941884875297,1.1906003621429204
1746475882709076500,4.368076416015625,0.9361959774851798,-0.35098961266577244,1.1693337022304535
1746475882719072300,4.378072265625,0.920412132897973,-0.4178633007600903,1.1295713084235788
1746475882729069600,4.388069580078125,0.7561456998050212,-0.4560176748484373,1.0701283548519014
1746475882739066400,4.39806640625,0.5448012891948223,-0.43321284558326,1.0347384770408272
1746475882749063200,4.408063232421875,0.3945879313737154,-0.3955941858068108,1.0879646019242704
1746475882759060500,4.418060546875,0.26103929262757297,-0.35507366710901256,1.1842737894698976
1746475882769057300,4.428057373046875,0.11992518706321716,-0.319374869479239,1.2820363906942307
1746475882779054300,4.438054443359375,-0.03892506619989872,-0.27886750252395864,1.3571798944838345
1746475882789051400,4.448051513671875,-0.19384733236432075,-0.27451193766295906,1.3559157197669147
1746475882799048400,4.45804833984375,-0.27648294547498226,-0.33048516929745675,1.3556955011449754
1746475882809045200,4.468045166015625,-0.2009983731627464,-0.4977765031695366,1.389087483137101
1746475882819041300,4.478041259765625,0.10180325491726398,-0.74794193508327,1.3642306897781789
1746475882829038300,4.488038330078125,0.47304245940744877,-0.9099138274982571,1.170651214569807
1746475882839035400,4.498035400390625,0.6149526837855577,-0.8824179178074002,0.9321513782694936
1746475882849032400,4.508032470703125,0.40708851650655264,-0.7350953129917382,0.6947947206549346
1746475882859029200,4.518029296875,-0.25028935055434703,-0.6111234808862209,0.4506247297637164
1746475882869026300,4.5280263671875,-1.1016074889600276,-0.4825915012583136,0.24843495485931633
1746475882879023400,4.5380234375,-1.9193419221937655,-0.25000059674084185,0.10712459607049822
1746475882889020400,4.5480205078125,-2.5386171453535553,0.06698650081902742,0.05781447558701038
1746475882899017200,4.558017333984375,-2.8896920982152223,0.3770753632977605,0.11509762077629565
1746475882909013200,4.56801318359375,-2.9437860919743772,0.6353466525167226,0.25055136249139903
1746475882919010300,4.57801025390625,-2.657868378677964,0.8091685572013259,0.35087899189814925
1746475882929007400,4.58800732421875,-2.112451003411412,0.924522490826249,0.3622561259590089
1746475882939004400,4.59800439453125,-1.4762345823228358,0.8940247689709067,0.2304841414965689
1746475882949001200,4.608001220703125,-0.9219231219828128,0.7239344520300627,-0.02305515076443553
1746475882958998500,4.61799853515625,-0.5560071583420038,0.5399310528099537,-0.40807723528295753
1746475882968995300,4.627995361328125,-0.41090193731486796,0.4226426439911127,-0.8524785604871808
1746475882978992400,4.637992431640625,-0.4681786527633667,0.3777686062589288,-1.2510386103622615
1746475882988989400,4.647989501953125,-0.6225596516579389,0.38199645308703184,-1.6051337878279388
1746475882998985200,4.657985107421875,-0.695285280650854,0.4694055642098188,-1.9512011416606605
1746475883008982500,4.667982421875,-0.6233984405696392,0.5914800382614135,-2.2109002717256545
1746475883018979300,4.677979248046875,-0.3618868542551994,0.686588763976097,-2.3734707145556806
1746475883028976400,4.687976318359375,0.04675765952169895,0.7246937459647655,-2.389181640037149
1746475883038973400,4.697973388671875,0.43941783770322795,0.6951259984359145,-2.3521498402379453
1746475883048970500,4.707970458984375,0.7750304330170155,0.650269788621366,-2.3262904457077385
1746475883058967300,4.71796728515625,1.030963926938176,0.6311953780561685,-2.3285721269041297
1746475883068964400,4.72796435546875,1.1276467701017856,0.6257312674313783,-2.3295726822488008
1746475883078961400,4.73796142578125,1.116606905171275,0.627434564217925,-2.345953323685378
1746475883088957200,4.747957275390625,1.0508902781575917,0.6085442780479788,-2.318152878089994
1746475883098954500,4.75795458984375,0.9630278703093528,0.5153291109949351,-2.144570188988745
1746475883108951300,4.767951416015625,0.8876496809810399,0.39163141965568066,-1.9041119120970367
1746475883118948400,4.7779482421875,0.794375184956193,0.24158377379029988,-1.662569785491377
1746475883128945400,4.7879453125,0.7138771683961153,0.1184834638223052,-1.4441887542426586
1746475883138942200,4.797942138671875,0.7351748079687357,0.027262685456871986,-1.3201290977232158
1746475883148939300,4.807939208984375,0.8111737595438957,-0.09624094461500644,-1.2666048666760326
1746475883158936300,4.817936279296875,0.9253098418116569,-0.26589637726992366,-1.2186574128478764
1746475883168933400,4.827933349609375,0.9434072240382433,-0.43176819973289965,-1.1568461227096616
1746475883178930200,4.83793017578125,0.8259604097872972,-0.5925649108886718,-1.1155309465028345
1746475883188926500,4.847926513671875,0.6334750134259461,-0.6989876423001289,-1.0510060134917496
1746475883198923300,4.85792333984375,0.4375403533935547,-0.701143359029293,-0.9556091184854507
1746475883208920300,4.86792041015625,0.2846060461759567,-0.6630579585239291,-0.8296785535275936
1746475883218917400,4.87791748046875,0.11759177567958831,-0.6306529417425394,-0.7177791442707181
1746475883228914200,4.8879140625,0.005157236632704735,-0.5881386188790202,-0.5821031381070614
1746475883238911500,4.897911376953125,-0.0847790548801422,-0.5193398079410195,-0.5012601075015962
1746475883248908300,4.907908203125,-0.15449790327250956,-0.4483686213999986,-0.4071434615641832
1746475883258905300,4.9179052734375,-0.23193536321818828,-0.40849458391219373,-0.3175407859198749
1746475883268902400,4.92790234375,-0.3226911544203758,-0.3373687913313508,-0.2823306485898793
1746475883278898200,4.937898193359375,-0.32075404887795445,-0.24280396323502063,-0.2984283814318478
1746475883288895500,4.9478955078125,-0.29013854586184024,-0.17720307155549525,-0.28303718942403794
1746475883298892300,4.957892333984375,-0.2336415826141834,-0.13847118984013795,-0.24111454884335398
1746475883308889300,4.967889404296875,-0.19751053104698657,-0.07399725636392832,-0.23139248851314187
1746475883318886400,4.977886474609375,-0.24936697501242158,-0.0017114800930023192,-0.24423604186475276
1746475883328883500,4.987883544921875,-0.3762140702933073,0.06377221494764089,-0.21605697221532463
1746475883338880300,4.99788037109375,-0.5647907687783241,0.11823591880202293,-0.16027970154434443
1746475883348877300,5.007877197265625,-0.6963947031974792,0.182507607704401,-0.10927914375588298
1746475883358874400,5.017874267578125,-0.6192962659478187,0.25914485718309876,-0.0702018096037209
1746475883368870100,5.0278701171875,-0.3956406552970409,0.2531725047752261,-0.10759995849728583
1746475883378867500,5.037867431640625,-0.043753217008709905,0.12125059044808148,-0.133195003002882
1746475883388864300,5.0478642578125,0.3022007395774126,-0.08330898232758045,-0.12370076007917523
1746475883398861300,5.057861328125,0.5964747778087854,-0.3142898212999105,-0.10485314400717616
1746475883408858400,5.0678583984375,0.8294085044145584,-0.5148331441715359,-0.14281214165389536
1746475883418855400,5.07785546875,0.9661462945908308,-0.7329460260033607,-0.21509031914025545
1746475883428852200,5.087852294921875,0.9662439097464084,-0.931723508246243,-0.2693732596002519
1746475883438849500,5.097849609375,0.8291670968741178,-1.1236816658630966,-0.28651977084279057
1746475883448846300,5.107846435546875,0.6918190658450126,-1.2469190462142228,-0.2610219031013548
1746475883458843400,5.117843505859375,0.5903846442401409,-1.3037132388427852,-0.19780425329655407
1746475883468839400,5.12783935546875,0.53609600469172,-1.3566691684827208,-0.12205927648246287
1746475883478836200,5.137836181640625,0.5139513929009437,-1.3792159313336014,-0.0814623315475881
1746475883488833500,5.14783349609375,0.5049029940485954,-1.3797680122584104,-0.11119535264074802
1746475883498830300,5.157830322265625,0.47860652327537534,-1.3534212726026773,-0.1300429687127471
1746475883508827400,5.167827392578125,0.45312078436315056,-1.2777291950196028,-0.11176862248405814
1746475883518824000,5.177823974609375,0.38093700716197487,-1.1813348134085535,-0.02512114338353276
1746475883528821000,5.187821044921875,0.3101367932736873,-1.0643734445869921,0.12213687176331876
1746475883538817800,5.19781787109375,0.21919512411057948,-0.915052067169547,0.2949690347582102
1746475883548815000,5.207815185546875,0.14088263489603994,-0.7830404287323355,0.36885946974679823
1746475883558812000,5.21781201171875,0.07180559153854847,-0.6715726888909935,0.38750133411362764
1746475883568808000,5.227807861328125,0.005340776506066322,-0.6325628670170903,0.40217064158767457
1746475883578805000,5.237804931640625,-0.08163608067929744,-0.6080243458271026,0.4270100454203784
1746475883588801800,5.2478017578125,-0.2023585556000471,-0.6133642455503344,0.5164392641939223
1746475883598799000,5.257799072265625,-0.44508594646751876,-0.7535726344466209,0.5717978710614144
1746475883608796000,5.2677958984375,-0.7921095781117677,-0.9777762343689799,0.5924160039372742
1746475883618793000,5.27779296875,-1.2236363703042268,-1.103574405118823,0.5806371572077274
1746475883628790000,5.2877900390625,-1.5353367596328258,-1.1347916734203696,0.5357037905037403
1746475883638787000,5.297787109375,-1.5859417422324418,-1.189036473827064,0.5383206950038671
1746475883648784000,5.307783935546875,-1.3470353709578513,-1.234967619396746,0.5306275101527571
1746475883658781000,5.317781005859375,-0.8484037122637033,-1.1360431347861886,0.43416824661195275
1746475883668777000,5.32777685546875,-0.29707039095163346,-0.9059846713557839,0.27327070543020965
1746475883678773800,5.337773681640625,0.0883037218749523,-0.6047086454078555,-0.05670870630219579
1746475883688771000,5.34777099609375,-0.06486439409852028,-0.26988193977475167,-0.2922527615368366
1746475883698768000,5.357767822265625,-0.8382534896492958,0.03423895421028137,-0.36065745859071613
1746475883708765000,5.367764892578125,-1.8622107526957987,0.44113662431985134,-0.2692364814780652
1746475883718762000,5.377761962890625,-2.7491391336649653,0.831725549185276,-0.024957477254420518
1746475883728759000,5.387759033203125,-3.3743642051398752,1.1136106459647417,0.269039205340296
1746475883738755800,5.397755859375,-3.611785890814662,1.3214417877569793,0.5267360556721687
1746475883748753000,5.4077529296875,-3.31722952851057,1.5275862916365266,0.6391760015465319
1746475883758750000,5.41775,-2.4894500866025684,1.6829937109693884,0.6508807601265609
1746475883768746000,5.42774609375,-1.3431366099536417,1.587228274911642,0.6123449855051935
1746475883778743000,5.437742919921875,-0.33501404489874836,1.3254060152128337,0.4407113846451044
1746475883788739800,5.44773974609375,0.5570230573862791,1.1548442813679576,0.09497048628777265
1746475883798737200,5.457737060546875,1.2758031953930855,1.061206797249615,-0.29221389083117244
1746475883808734000,5.46773388671875,1.8054308808535335,0.9451599129244684,-0.543581245880574
1746475883818730800,5.477730712890625,2.096093158328533,0.7927490450590848,-0.6509134933523834
1746475883828728000,5.48772802734375,1.9837831224441527,0.6814902717933058,-0.6658494889385997
1746475883838724900,5.497724853515625,1.4927859041512013,0.6575839110270142,-0.675989190158993
1746475883848722000,5.507721923828125,0.8304033606708049,0.8204296636670827,-0.6600979396745562
1746475883858719000,5.517718994140625,0.24436755928993223,1.0754334755226969,-0.6119885732829571
1746475883868715000,5.527715087890625,-0.1819020430266857,1.2917176806226371,-0.45061333158686756
1746475883878712000,5.537712158203125,-0.4504027575761079,1.461044027453661,-0.17993191199749708
1746475883888708900,5.547708984375,-0.5844441482752561,1.6033035036608576,0.1165223928824067
1746475883898706000,5.557705810546875,-0.5265162754416466,1.7376432927846908,0.3576939326100051
1746475883908703000,5.567702880859375,-0.2947966008007526,1.827873891068995,0.5505515232846141
1746475883918700000,5.577699951171875,0.014053075271844863,1.8068270113870502,0.7199730010531842
1746475883928696800,5.58769677734375,0.2715349676787853,1.6635425760462879,0.9024749096691608
1746475883938694000,5.59769384765625,0.4210165040940046,1.4614900176554917,1.0497063290700315
1746475883948691000,5.60769091796875,0.536153872358799,1.268193012650311,1.0854603640183806
1746475883958688000,5.61768798828125,0.6784025349110364,1.1268494822442532,1.05466526665166
1746475883968684000,5.62768408203125,0.8663438581019639,0.9673974636957049,0.9977053620673716
1746475883978680800,5.637680908203125,1.0722545532256365,0.8375845043465494,0.88191464446038
1746475883988678000,5.647677978515625,1.23043786701262,0.7239122401982545,0.6980861634157598
1746475883998675000,5.657675048828125,1.2724702515780926,0.5856041319653391,0.4527557504430413
1746475884008672000,5.667672119140625,1.1895067216873167,0.4308464087128639,0.18141615920588372
1746475884018668800,5.677668701171875,1.0438076264202594,0.26154841119349004,-0.038193244794011115
1746475884028666000,5.687666015625,0.8686223244279623,0.13302023095786572,-0.12910159620940684
1746475884038663000,5.697662841796875,0.653776043176651,0.017348609685897826,-0.09971943438053131
1746475884048660000,5.707659912109375,0.4686345798373222,-0.013047697621583938,0.010726122806221245
1746475884058657000,5.717656982421875,0.32018823168873783,0.01860240913927555,0.14506328158155082
1746475884068652800,5.72765283203125,0.23257833729684352,0.08375614157319068,0.2860990612126887
1746475884078650000,5.737650146484375,0.22008476642668245,0.13943009800016878,0.3969511533737182
1746475884088647000,5.74764697265625,0.18980302540957927,0.11306290007829665,0.5294288018874824
1746475884098644000,5.75764404296875,0.0880383489370346,0.027290450246632098,0.6760531953059137
1746475884108641000,5.76764111328125,-0.02985796264708042,-0.0721264940559864,0.7317363579526543
1746475884118638000,5.77763818359375,-0.07249298928081989,-0.13605097695589063,0.6977833810769021
1746475884128635000,5.787634765625,-0.029922260054945943,-0.19845950233489273,0.701245942620933
1746475884138632000,5.7976318359375,0.008186813586950302,-0.3357932125777006,0.7885339115820824
1746475884148629000,5.80762890625,0.028382044875621792,-0.41470892838239665,0.8611224701918662
1746475884158625800,5.817625732421875,0.0969265887916088,-0.44355888303071256,0.8433705404020846
1746475884168622800,5.827622802734375,0.1813145985275507,-0.4045093136683106,0.8451663377776741
1746475884178619000,5.837618896484375,0.26245208203494547,-0.3682601886793971,0.8407625498607755
1746475884188616000,5.847615966796875,0.3619862229764461,-0.3952069400548935,0.8263596382379531
1746475884198613000,5.857613037109375,0.4526958369493484,-0.4673316805452108,0.9311033305212855
1746475884208609800,5.86760986328125,0.566070287194848,-0.49536710394024847,1.03695264595896
1746475884218606800,5.87760693359375,0.6158797355026007,-0.4873892569288611,1.0617387121692299
1746475884228604000,5.88760400390625,0.6018745910257101,-0.49442514691501854,1.0387414290718733
1746475884238601000,5.89760107421875,0.5325321747303009,-0.5110533333718776,0.9790928699254989
1746475884248597800,5.90759765625,0.48537762484550473,-0.501498154041171,0.8365928629606961
1746475884258595000,5.917594970703125,0.5112023864537477,-0.4499865779906511,0.6531048659168184
1746475884268591900,5.927591796875,0.5723971521288156,-0.4201449819564819,0.5647219413258135
1746475884278588000,5.937587890625,0.5839075571805238,-0.3396709307938814,0.45511941083446145
1746475884288585000,5.9475849609375,0.5241717581421137,-0.20008739579766988,0.30497853372767564
1746475884298581800,5.957581787109375,0.41627369348108767,-0.03736760762482881,0.19593553681522607
1746475884308579000,5.9675791015625,0.3471212467998266,0.11230419066548347,0.212118317592144
1746475884318575900,5.977575927734375,0.2412976503252983,0.1752300179168582,0.31093086626082655
1746475884328573000,5.987572998046875,0.09140753310918807,0.13817396045923233,0.4810634149082005
1746475884338570000,5.997570068359375,-0.0335667540371418,0.04617576798051595,0.6686813513636589
1746475884348567000,6.007567138671875,-0.1265548343360424,-0.19398761761784553,0.8304697039052844
1746475884358563800,6.017563720703125,-0.01799333733022213,-0.4495154533475637,0.8103818785138428
1746475884368561200,6.02756103515625,0.27105741329491134,-0.5645061066180467,0.5847910620167851
1746475884378558000,6.037557861328125,0.35890053192079063,-0.5858291728928685,0.3191828540384769
1746475884388554000,6.047553955078125,-0.1486181975841522,-0.5917357665881514,0.11171586938351392
1746475884398551000,6.057551025390625,-1.0598562594234944,-0.42499154520481824,-0.07118234507367015
1746475884408547800,6.0675478515625,-2.164820657595992,-0.1879150197058916,-0.17569880447238684
1746475884418545000,6.077544921875,-3.187214909109473,0.058659694239497184,-0.22337153301239013
1746475884428542000,6.0875419921875,-3.9725381880819794,0.38741497100442646,-0.10092311108186841
1746475884438539000,6.0975390625,-4.462112680095434,0.7651625344753265,0.13635332090333102
1746475884448535800,6.107535888671875,-4.671203174299001,1.089846031756699,0.4616846145689487
1746475884458533000,6.117533203125,-4.4059968251198525,1.333721423615515,0.7955724319167434
1746475884468530000,6.127530029296875,-3.6381150948137044,1.5395479475870728,0.8617217512592673
1746475884478526700,6.137526611328125,-2.5751287206709383,1.5027277447119354,0.7708176376275718
1746475884488524000,6.14752392578125,-1.4915280130445956,1.3271432142689823,0.5812707789361476
1746475884498519800,6.157519775390625,-0.560376459467411,1.2778209649562835,0.2147086263462901
1746475884508517000,6.16751708984375,0.0954541781514883,1.2905831236347556,-0.291596489585191
1746475884518514200,6.17751416015625,0.5075917947411537,1.2130050861746071,-0.7687630431853234
1746475884528511200,6.18751123046875,0.8158756536245345,1.0250827599450945,-1.1394510435335337
1746475884538508300,6.19750830078125,1.1764356431901455,0.8587593943223357,-1.456174375590682
1746475884548505300,6.20750537109375,1.5294009398430586,0.7069877011433243,-1.773038723553717
1746475884558502100,6.217502197265625,1.8093886785686015,0.48275633643120525,-2.1395308796472845
1746475884568499200,6.227499267578125,2.0083985082626343,0.2000929487556219,-2.5820067897468806
1746475884578496300,6.237496337890625,2.1208517520099877,-0.06994651966840028,-2.9944007191851734
1746475884588493300,6.247493408203125,2.0786095240861178,-0.2476259765639901,-3.2126328434824942
1746475884598490000,6.257489990234375,1.846361441656947,-0.31821576257199047,-3.117109399487078
1746475884608486100,6.267486083984375,1.3539835826605557,-0.30720015529990197,-2.7191233501076697
1746475884618483200,6.277483154296875,0.6693477063179015,-0.06804243961274624,-2.102648863582313
1746475884628480300,6.287480224609375,0.053636897641420364,0.2887631658554077,-1.4458328681878745
1746475884638477300,6.297477294921875,-0.4366933811753988,0.5357718873038888,-0.8248812362484633
1746475884648474000,6.30747412109375,-0.680716072550416,0.6497489796176552,-0.24781273130774498
1746475884658471400,6.317471435546875,-0.6207873812884092,0.6474459633722901,0.17617226720303297
1746475884668468200,6.32746826171875,-0.27720541453063485,0.5202484472185372,0.39887656847834585
1746475884678465000,6.337465087890625,0.2665150936901569,0.2501253921642899,0.4402119106903672
1746475884688462300,6.34746240234375,0.6980921547651291,-0.12444938648939131,0.3343197790242731
1746475884698459100,6.357459228515625,0.9583739070236682,-0.44477235047370195,0.09095978934168815
1746475884708456200,6.367456298828125,1.039099302598834,-0.6608455431714654,-0.2686578048072755
1746475884718453200,6.377453369140625,0.9269821589380502,-0.7683718519106507,-0.5374534106500446
1746475884728449300,6.38744921875,0.7621376336961985,-0.780706432826817,-0.7019226728387177
1746475884738446300,6.3974462890625,0.6208154383391141,-0.6443932978034019,-0.7259621584653854
1746475884748443100,6.407443115234375,0.5013081844270229,-0.4827633506938815,-0.6826337427400052
1746475884758440200,6.417440185546875,0.4205892185926437,-0.36504648732990025,-0.5895211592786014
1746475884768437200,6.427437255859375,0.35323943741917607,-0.28730595278441906,-0.4596370343893766
1746475884778434300,6.437434326171875,0.32512627261281013,-0.21538111878037453,-0.2949146742224693
1746475884788431000,6.44743115234375,0.3195592861354351,-0.13189327275454998,-0.12076090723499655
1746475884798428400,6.457428466796875,0.3553618364006281,-0.05715308906883001,-0.06299158596396445
1746475884808425200,6.46742529296875,0.37049861525595185,0.0033726913034915922,-0.06882716024965048
1746475884818422300,6.47742236328125,0.3637017947226763,-0.027271453285217285,-0.06286752119287849
1746475884828419300,6.48741943359375,0.35691023488640783,-0.07059095505177974,-0.09657003043889999
1746475884838415000,6.4974150390625,0.40332594910264014,-0.10049772527664899,-0.14760770536735654
1746475884848412200,6.507412109375,0.5059983880698681,-0.12419687303304672,-0.22397329829782245
1746475884858409200,6.5174091796875,0.5633247878789901,-0.13920418028980494,-0.222403857024014
1746475884868406300,6.52740625,0.56216860358119,-0.1634957409814,-0.19293606273829936
1746475884878403000,6.537403076171875,0.56321314419806,-0.17083149069696663,-0.26533012168928977
1746475884888400400,6.547400390625,0.5774556045621633,-0.1573988854110241,-0.3662571782939136
1746475884898397200,6.557397216796875,0.5655483091473579,-0.24445143818110227,-0.3979096231423318
1746475884908394200,6.567394287109375,0.563625232130289,-0.4168181756213307,-0.3131593559652567
1746475884918391300,6.577391357421875,0.6192682088971138,-0.5432765638455749,-0.24162805132344364
1746475884928388000,6.58738818359375,0.6619207711875438,-0.6512699055746197,-0.223741973759979
1746475884938385200,6.59738525390625,0.683582567897439,-0.7464248085185885,-0.20279899284392594
1746475884948382200,6.60738232421875,0.661620326936245,-0.7987795573949813,-0.1874728288963437
1746475884958379300,6.617379150390625,0.6286649827957153,-0.7709013703882693,-0.22443317089453338
1746475884968375300,6.627375244140625,0.5629933639675379,-0.714860626475513,-0.24733064687922596
1746475884978372400,6.637372314453125,0.4698270044922828,-0.7506257673397659,-0.2150211994268
1746475884988369200,6.647369140625,0.40375966434478755,-0.7961550541102885,-0.27483094048425555
1746475884998366200,6.6573662109375,0.33068098413050173,-0.796564511694014,-0.4675666583448648
1746475885008363300,6.66736328125,0.22961071966290472,-0.730983493758738,-0.6696376291751861
1746475885018360000,6.677360107421875,0.09008066841959952,-0.6211734579965472,-0.7583341497600078
1746475885028357400,6.687357421875,-0.07565057652890682,-0.5615837894305586,-0.6322267669305205
1746475885038354200,6.697354248046875,-0.26504969731271266,-0.5789028807610272,-0.40733270052596926
1746475885048351200,6.707351318359375,-0.4769271918863058,-0.6603752953112125,-0.17443989045247435
1746475885058348300,6.717348388671875,-0.6486094541937112,-0.7129024781450629,0.017203648257255552
1746475885068345300,6.727345458984375,-0.7271686116456985,-0.763826317435503,0.11690043241456151
1746475885078342100,6.737342041015625,-0.7145721649229526,-0.8086708368122577,0.11202449694126844
1746475885088338200,6.747338134765625,-0.6687117465019226,-0.838857300761342,0.1125906063914299
1746475885098335200,6.757335205078125,-0.6229910288125277,-0.8859592436760664,0.12628376230970023
1746475885108332000,6.76733203125,-0.6325497152745724,-0.9209151139840484,0.16723127424791454
1746475885118329300,6.777329345703125,-0.6538789190292358,-0.9302218715116382,0.27463337208554145
1746475885128326100,6.787326171875,-0.6050391925364732,-0.9525231351688503,0.4802941841013729
1746475885138323200,6.7973232421875,-0.3768739955067634,-1.0045143114298583,0.6621148324549198
1746475885148320300,6.8073203125,-0.1493903510004282,-1.0169403700217603,0.7148902909614145
1746475885158317300,6.8173173828125,-0.19522095880508422,-0.9768857152700423,0.6880490457870065
1746475885168314000,6.827314208984375,-0.5719242739200592,-0.8427861646428704,0.499222902585566
1746475885178311200,6.837311279296875,-1.200841770172119,-0.6389329865708947,0.2266165062829852
1746475885188308200,6.84730810546875,-1.9217998367398976,-0.3624240298718214,-0.06155263920202851
1746475885198305000,6.857304931640625,-2.5644138499110936,-0.038162557394802565,-0.31773090166449547
1746475885208301300,6.86730126953125,-3.097129564514756,0.33056028036028146,-0.503660738902539
1746475885218298000,6.877298095703125,-3.3962288309454918,0.6637219753906131,-0.5631738351009786
1746475885228295400,6.88729541015625,-3.379735961306095,0.9876023395955562,-0.5570061062514782
1746475885238292200,6.897292236328125,-3.0356553973764178,1.2500807251155375,-0.509830075187236
1746475885248289300,6.907289306640625,-2.3782231697797775,1.4461246907413006,-0.42544075027704237
1746475885258286300,6.917286376953125,-1.3987439308851957,1.6473033889070152,-0.381214655059576
1746475885268283100,6.927283203125,-0.35894904723763466,1.7166294385895131,-0.34039778376370666
1746475885278280200,6.9372802734375,0.4478314457833767,1.6369690418973564,-0.27724180101826784
1746475885288277200,6.94727734375,0.8351286356270313,1.3538564491495488,-0.21453487721458075
1746475885298274300,6.9572744140625,0.9288356778502463,1.0154878331258892,-0.19898279555663465
1746475885308271000,6.96727099609375,0.9892653043717146,0.8128644891098141,-0.36852263900786636
1746475885318268400,6.977268310546875,1.1008335819780826,0.7155106148168444,-0.5967268528737127
1746475885328264200,6.98726416015625,1.2407108392238617,0.688455726891756,-0.7690208173386752
1746475885338261200,6.99726123046875,1.3332915077656506,0.7044274952664971,-0.8058107712060213
1746475885348258300,7.00725830078125,1.2686094844967126,0.7969833216279745,-0.7127880579851568
1746475885358255000,7.017255126953125,1.0173971738785506,0.947102279163897,-0.5775920904234051
1746475885368252200,7.027252197265625,0.6880243497371673,1.0884858493193983,-0.36274595530256626
1746475885378249200,7.037249267578125,0.43950960763990876,1.1678063465327024,-0.01971563107818365
1746475885388246300,7.047246337890625,0.2605494632840156,1.239003450784087,0.33210371040999886
1746475885398243000,7.0572431640625,0.1723988861441612,1.3099848664581775,0.5987865618824958
1746475885408240400,7.067240478515625,0.1702916847318411,1.4077286168515681,0.7606552861839533
1746475885418237200,7.0772373046875,0.23698680138885975,1.4232073410123587,0.8624006734341383
1746475885428234200,7.087234130859375,0.3643319093197584,1.4013476836428045,0.8721060748904943
1746475885438231300,7.097231201171875,0.5056844998151063,1.2848273365870118,0.9133496471658349
1746475885448227000,7.10722705078125,0.6483294682085514,1.1496607412502169,0.8899944905415177
1746475885458224400,7.117224365234375,0.787403592377901,1.0769538169577717,0.8293436224848032
1746475885468221200,7.12722119140625,0.8532154964596033,1.0778796996310354,0.766634945115447
1746475885478218200,7.13721826171875,0.8451490943819284,1.1675298676788806,0.6828881558924913
1746475885488215300,7.14721533203125,0.717771837747097,1.2698799428239465,0.5320397150382399
1746475885498212400,7.15721240234375,0.4323702572792768,1.3574480439007282,0.3365875778257847
1746475885508209200,7.167209228515625,0.05127835181653499,1.3624696714550255,0.08109130627810955
1746475885518206000,7.1772060546875,-0.31170448098182674,1.3785630203828214,-0.06843932997584343
1746475885528202800,7.18720263671875,-0.6723457190901041,1.4183637003734706,-0.14527341720089315
1746475885538199800,7.19719970703125,-1.114274078309536,1.3589984882131219,-0.15141045865118502
1746475885548196900,7.20719677734375,-1.577035966721177,1.2016741293430329,-0.10736527295857667
1746475885558192600,7.217192626953125,-1.8127865043133495,1.0370634128570555,-0.03348331353738904
1746475885568190000,7.22718994140625,-1.723030830064416,0.8514654379218817,0.08877630782276391
1746475885578186800,7.237186767578125,-1.2525164278298615,0.6081877196952701,0.26421120066195725
1746475885588183800,7.247183837890625,-0.5658206963479518,0.3537064704090357,0.38693025622740385
1746475885598180900,7.257180908203125,0.04751227728128433,0.15050152711272238,0.36969665122330186
1746475885608178000,7.267177978515625,0.4547095148593187,-0.07356938634067774,0.25443594883978365
1746475885618174700,7.2771748046875,0.6728209353864193,-0.2845107691079378,0.1382521402619779
1746475885628172000,7.287172119140625,0.7877455376833676,-0.47011342021822927,0.06737447722330689
1746475885638168800,7.2971689453125,0.7838800944268703,-0.6348796195268631,0.06485153461694718
1746475885648165600,7.30716552734375,0.7211310850471258,-0.7501867914006114,0.08873524516001344
1746475885658163000,7.317162841796875,0.6446271065592766,-0.7924804572507739,0.1506979264676571
1746475885668159700,7.32715966796875,0.6234487094521522,-0.7636758030489087,0.18733546625226735
1746475885678155800,7.33715576171875,0.662756052967906,-0.7027125080421567,0.23147329866439104
1746475885688152800,7.34715283203125,0.7545528776556253,-0.7143781036555766,0.288214299800992
1746475885698150000,7.35714990234375,0.9225865543276071,-0.7377429048910736,0.38238983631879087
1746475885708146700,7.367146728515625,0.9745154790073632,-0.8117147345528006,0.48873307275325056
1746475885718143700,7.377143798828125,0.8765168770700693,-0.862824451804161,0.5774221406839788
1746475885728140800,7.387140869140625,0.7023200015932322,-0.8519917998835443,0.6139296243481338
1746475885738137600,7.3971376953125,0.5827741692364216,-0.7748582913205028,0.6414766797043383
1746475885748135000,7.407135009765625,0.5504588765650987,-0.6995774248868226,0.6952355962902307
1746475885758131700,7.417131591796875,0.4740817393273115,-0.6681555739238858,0.7891698713980615
1746475885768128800,7.427128662109375,0.3913993644654751,-0.6071309041187167,0.8766897494189441
1746475885778125800,7.437125732421875,0.3643330783635378,-0.512471967998147,0.8573857678815722
1746475885788121600,7.44712158203125,0.3798994808077812,-0.447640599386394,0.7588890071637928
1746475885798119000,7.457118896484375,0.3114841162294149,-0.40780280225574966,0.6322117154918611
1746475885808115700,7.46711572265625,0.20434183837175368,-0.3678311496123671,0.5221428826630116
1746475885818112800,7.47711279296875,0.06280746156871318,-0.30448095946907994,0.48034167650490994
1746475885828109800,7.48710986328125,-0.1409241359502077,-0.2558674429476261,0.5674406987652182
1746475885838107000,7.49710693359375,-0.3525853574246168,-0.1721247453778982,0.6430221555806696
1746475885848103700,7.507103759765625,-0.48839200423061846,-0.01972469116747379,0.6657492434345186
1746475885858101000,7.51710107421875,-0.5923281795233488,0.09544277997463942,0.7311490595839917
1746475885868097800,7.527097900390625,-0.6257546483069658,0.15305062707364558,0.7962994310170411
1746475885878094800,7.5370947265625,-0.6235112532943486,0.14020838889628648,0.8719951618619263
1746475885888092000,7.547091796875,-0.5048562322974205,-0.0781590522184968,0.9575812953412532
1746475885898087700,7.557087646484375,-0.2199965036213398,-0.442254522433877,1.0513348070546984
1746475885908085000,7.5670849609375,0.23152678241729735,-0.6524065083891153,0.9611319735601543
1746475885918081800,7.577081787109375,0.6260141760259866,-0.700365652655065,0.6433071100018918
1746475885928078800,7.587078857421875,0.754523651561141,-0.7754267388582229,0.20715455770492552
1746475885938076000,7.597075927734375,0.35178514695763585,-0.8342831247135997,-0.2460975979529321
1746475885948073000,7.607072998046875,-0.4199316314667463,-0.7548308178141713,-0.5327914101883768
1746475885958069800,7.61706982421875,-1.3502514103949068,-0.44573651933073993,-0.5980277063392102
1746475885968066800,7.62706689453125,-2.310617952540517,-0.1164028581559658,-0.47124330103099343
1746475885978064000,7.63706396484375,-3.0535137101501224,0.16274550713598726,-0.24925723102763295
1746475885988060700,7.647060791015625,-3.5707799266874787,0.44821664570868014,-0.0776021489880979
1746475885998057000,7.657056884765625,-3.8173236609727144,0.7576984822049736,-0.01957534582465887
1746475886008053800,7.6670537109375,-3.7466707466006275,0.9788570153430104,-0.024807255128771064
1746475886018050800,7.67705078125,-3.2735657433509826,1.0674944992169737,-0.06975070483535528
1746475886028048000,7.6870478515625,-2.469191726949811,1.091897703589499,-0.17871055350899695
1746475886038045000,7.697044921875,-1.572681278643012,1.0724737489342688,-0.3002006518013775
1746475886048041700,7.707041748046875,-0.8373743687272072,1.0605939260482788,-0.4311084206499159
1746475886058038800,7.717038818359375,-0.25622809295356275,1.145945520119369,-0.70281830650419
1746475886068035800,7.727035888671875,0.20541911221444606,1.2432330511778593,-0.9978067766152322
1746475886078032600,7.73703271484375,0.6570873596817255,1.2781757697433231,-1.2535710514493286
1746475886088030000,7.747030029296875,1.1585264770120383,1.2727683577418327,-1.49337115669325
1746475886098026800,7.75702685546875,1.6785820320069789,1.1788315984159707,-1.7360126228429376
1746475886108023000,7.76702294921875,2.2024527613759037,1.0218214200615883,-1.9829811584115027
1746475886118019800,7.777019775390625,2.6435347328990697,0.7568544325962663,-2.150623789939284
1746475886128016600,7.7870166015625,2.946642065927386,0.45836949867159127,-2.2845772100940347
1746475886138014000,7.797013916015625,2.92404971036911,0.18622896631509064,-2.3715929379850627
1746475886148010800,7.8070107421875,2.564677469283342,-0.01045125138759613,-2.41724380530864
1746475886158007800,7.8170078125,1.9263561848700046,0.02824117510020733,-2.411776625943929
1746475886168004900,7.8270048828125,1.162648525378108,0.280897839307785,-2.206737891349196
1746475886178002000,7.837001953125,0.43124505264163016,0.4612058911412954,-1.8064330436334013
1746475886187998700,7.846998779296875,-0.24566519788503646,0.5726601869791745,-1.341921242814511
1746475886197995800,7.856995849609375,-0.8520318396329879,0.7108984448462724,-0.9356871511802076
1746475886207992800,7.866992919921875,-1.283118486842513,0.864549668161571,-0.5748221873186529
1746475886217988600,7.876988525390625,-1.4785960507571696,0.9295952640458941,-0.23698081003949045
1746475886227986000,7.88698583984375,-1.392853703802824,0.862861861205101,0.07849062226042151
1746475886237982700,7.896982666015625,-1.0103823266804217,0.7400935596704482,0.2644745277732611
1746475886247979800,7.906979736328125,-0.47659342988729475,0.541868158352375,0.26793445896878837
1746475886257976800,7.916976806640625,-0.01614683268070221,0.22039134815782307,0.06443140950873494
1746475886267974000,7.926973876953125,0.13807400721609592,-0.16953005270957947,-0.24213687762841582
1746475886277970700,7.936970703125,0.017927286356687545,-0.4542123789921403,-0.526600300463289
1746475886287968000,7.946968017578125,-0.18663667033314704,-0.6112655197054148,-0.7166349426716566
1746475886297964800,7.95696484375,-0.4002244759559631,-0.688340283818543,-0.8334357141040265
1746475886307961600,7.966961669921875,-0.4937608377873897,-0.7234758946076035,-0.8605356102146208
1746475886317958000,7.9769580078125,-0.42903555989861486,-0.6841212048187851,-0.8128118821397423
1746475886327954700,7.98695458984375,-0.2955383590787649,-0.6227876151949167,-0.7098480590105056
1746475886337952000,7.996951904296875,-0.13482698811888694,-0.5737272316887975,-0.5969250057943165
1746475886347948800,8.00694873046875,-0.022726211071014402,-0.5394415157273411,-0.5459036974787712
1746475886357945900,8.01694580078125,0.06983224563896656,-0.49382133580297227,-0.5148201385594904
1746475886367943000,8.02694287109375,0.09171557614505291,-0.4845554948076605,-0.45276101114004846
1746475886377939700,8.036939697265625,0.04627425991892815,-0.46898587749302384,-0.4275986589632928
1746475886387936800,8.046936767578124,0.029237784922122954,-0.418759080556035,-0.4311901075839996
1746475886397933800,8.056933837890625,0.08102057912945747,-0.3659650634795427,-0.35357729107141495
1746475886407931000,8.066930908203124,0.2014870334625244,-0.3368795465096831,-0.30660335845053194
1746475886417927700,8.076927734375,0.3624550095319748,-0.3276636821359396,-0.2988289250567555
1746475886427924000,8.086924072265624,0.5184878672868013,-0.3472285065665841,-0.26832784220054745
1746475886437920800,8.096920654296875,0.6085065763860941,-0.4126812219470739,-0.2628621241405606
1746475886447917800,8.106917724609374,0.6778542533785105,-0.4592877825602889,-0.28035847173407674
1746475886457915000,8.116914794921875,0.6477957997232675,-0.5486603027105331,-0.30025676590278744
1746475886467911700,8.12691162109375,0.5210124173283577,-0.6613014702454209,-0.24977920907512305
1746475886477908700,8.13690869140625,0.415383466643095,-0.7079723282665014,-0.2226227604717016
1746475886487905800,8.14690576171875,0.3700216453939676,-0.6747159553527832,-0.2378736672259867
1746475886497902800,8.15690283203125,0.3829401636779308,-0.6651856182023882,-0.22580007533356547
1746475886507899600,8.166899658203125,0.4109773406386375,-0.6845429373621941,-0.16939488202258943
1746475886517897000,8.17689697265625,0.45520577394366263,-0.741671768772602,-0.11878434646502137
1746475886527894000,8.18689404296875,0.43527357750535006,-0.8097396350875496,-0.15402239471524953
1746475886537890000,8.19689013671875,0.3828752817481756,-0.8519982296243309,-0.20956074206382036
1746475886547887000,8.20688720703125,0.24660744717121122,-0.9015127866387367,-0.3409536640807986
1746475886557884000,8.2168837890625,0.09756021052002906,-0.9093515174403786,-0.4130661296114325
1746475886567881000,8.226880859375,-0.014065350231528282,-0.9013590573817492,-0.45368017181158066
1746475886577878000,8.2368779296875,-0.07509002003669739,-0.8447758771553635,-0.44196679153367874
1746475886587874800,8.246874755859375,-0.05890694699883461,-0.7753741318881511,-0.41277196897044777
1746475886597872000,8.2568720703125,-0.008336451190710067,-0.6935857832565904,-0.4062392062008381
1746475886607869000,8.266868896484375,0.05472703096568584,-0.626341800545156,-0.3645997664757073
1746475886617866000,8.276865966796874,0.06881810016036033,-0.6010892858669161,-0.3172371267981827
1746475886627863000,8.286863037109375,0.023220132067799566,-0.6317889600351453,-0.2635162041351199
1746475886637860000,8.296860107421875,-0.08024491858184338,-0.6646408438012004,-0.20255685465112327
1746475886647855900,8.30685595703125,-0.23750468778312206,-0.7051204459667205,-0.1785211684167385
1746475886657853000,8.31685302734375,-0.33540275195538993,-0.7562056132987142,-0.18900296107307074
1746475886667850000,8.32685009765625,-0.3827612999796867,-0.8392118132874369,-0.15982231316566467
1746475886677846800,8.3368466796875,-0.41423195852041245,-0.9454241168186068,-0.12425795557051897
1746475886687844000,8.346843994140626,-0.5110147549271583,-1.107153432649374,-0.08605053612068295
1746475886697841000,8.3568408203125,-0.6503758793443442,-1.2612243426814675,-0.03430120579153299
1746475886707838000,8.366837890625,-0.6462696130692959,-1.3548121424391866,0.034353228239715095
1746475886717835000,8.3768349609375,-0.4536345791041851,-1.2886848887979983,0.09096943395286798
1746475886727832000,8.38683203125,-0.19821429540216923,-1.1771093046680092,0.17039835997670888
1746475886737828900,8.396828857421875,-0.1947591865122318,-1.0358441001951695,0.22448548560366033
1746475886747825000,8.406824951171876,-0.49094987201988693,-0.8043073809057474,0.19193419221937655
1746475886757822000,8.416822021484375,-1.02344054569602,-0.5321498974144458,0.09410027932450175
1746475886767819000,8.426819091796874,-1.5230658916026354,-0.28475714508444067,0.026529548876732586
1746475886777816000,8.436816162109375,-1.883144819653034,-0.04638648812174797,-0.008644201965630054
1746475886787812900,8.446812744140624,-2.1084218940258026,0.1472261587038636,-0.055174774733185765
1746475886797810200,8.45681005859375,-2.2399141847640274,0.434973425514996,-0.14241232868134976
1746475886807807000,8.466806884765624,-2.3986890347033736,0.7756906504914164,-0.20629209565669296
1746475886817803800,8.4768037109375,-2.5803987700283524,1.0717246841326356,-0.21113266755566
1746475886827801000,8.486801025390625,-2.6845313446760177,1.2963707671254872,-0.2140437326967716
1746475886837798000,8.4967978515625,-2.560711488261819,1.4948855067789553,-0.20760785443037746
1746475886847795000,8.506794921875,-2.2381273013472556,1.6769325112342834,-0.06940773661658167
1746475886857791000,8.516791015625,-1.7421107935875653,1.7780623969346283,0.16111892884746193
1746475886867788000,8.5267880859375,-1.0983733293443918,1.899551472313702,0.24906886884868143
1746475886877785000,8.53678515625,-0.4445306506723165,2.006672122861445,0.18366496104598043
1746475886887782100,8.5467822265625,0.16353110455572603,1.9845427086398004,0.03710807990580797
1746475886897779000,8.556779052734376,0.7139180849283934,1.8862439547121523,-0.19910013832598925
1746475886907776000,8.56677587890625,1.2764730574786662,1.7604212340429424,-0.4881641868241131
1746475886917773000,8.57677294921875,1.8273709099829196,1.5770686999469994,-0.7160965980112552
1746475886927769900,8.586769775390625,2.2164304333239793,1.3393839794218538,-0.8377262509047985
1746475886937767000,8.596766845703126,2.4671821406930685,1.1130138491153716,-0.9095014473050832
1746475886947764000,8.606763916015625,2.5339193429261444,0.8912631953030824,-0.9098536217436194
1746475886957761000,8.616760986328124,2.4906080244660376,0.7399263864099979,-0.847134130719304
1746475886967757000,8.626757080078125,2.3609248289763927,0.6656441756248473,-0.6741147745892405
1746475886977753900,8.63675390625,2.0933307078778745,0.6952484557718038,-0.4401020205751061
1746475886987751000,8.6467509765625,1.7027964358091354,0.8492512690037488,-0.2864981435328722
1746475886997748000,8.656748046875,1.1886498125970364,0.9997393521130085,-0.1725324493959546
1746475887007745000,8.6667451171875,0.6770616416960954,1.0670125609189272,-0.08877835364937782
1746475887017741800,8.676741943359374,0.2126063933700323,1.1545704328626394,-0.059169981849193566
1746475887027739100,8.6867392578125,-0.1789618979215622,1.3605793276637792,-0.08803118854388595
1746475887037736000,8.69673583984375,-0.48542906277179715,1.550019364979863,-0.12662468470185995
1746475887047733000,8.70673291015625,-0.7317717215269803,1.6093272939950227,-0.1622474944859743
1746475887057730000,8.71672998046875,-0.9203349760085344,1.595881829227507,-0.13551643168777228
1746475887067727000,8.72672705078125,-0.9743336926996707,1.5233184050589799,-0.12161211723685264
1746475887077723100,8.73672314453125,-0.9751385793417692,1.4287754965335129,-0.06412292808145284
1746475887087720000,8.746719970703126,-0.9241507349044084,1.2598346418887376,0.008125146527588367
1746475887097717000,8.756717041015625,-0.7410726338356732,1.0704115557074547,0.10417480635419488
1746475887107714000,8.766714111328126,-0.404974885353446,0.8517536072134971,0.17312836946249008
1746475887117711000,8.776711181640625,0.0514087001979351,0.6345373819604516,0.24062092010751365
1746475887127708000,8.7867080078125,0.44591129137575625,0.4134492837101221,0.25217910982370373
1746475887137705000,8.796705078125,0.7090589544594288,0.15641542733162642,0.2277554471850395
1746475887147702000,8.806701904296874,0.8441934010922908,-0.0638613545358181,0.1412063138924539
1746475887157698800,8.81669873046875,0.9100994131982326,-0.20881050821840763,0.04182911707833409
1746475887167696000,8.82669580078125,0.9086702571779489,-0.323225991949439,-0.017909166178107262
1746475887177693000,8.83669287109375,0.7803963439643382,-0.44236850420236584,-0.025898995888233182
1746475887187690000,8.84668994140625,0.5031751473426819,-0.5322513119623065,0.03429930609539151
1746475887197686000,8.85668603515625,0.23182722666859626,-0.4680088491544127,0.0758583740606904
1746475887207683000,8.86668310546875,0.07744155159890652,-0.3690481241866946,0.20131518402695656
1746475887217680000,8.876679931640625,-0.07324234634339809,-0.28503420846015215,0.41206572039723394
1746475887227677000,8.886677001953124,-0.25530337932407854,-0.2280550146535039,0.6389575364902615
1746475887237674000,8.896674072265625,-0.36714404413104057,-0.14917612372785805,0.7523233650378882
1746475887247670800,8.9066708984375,-0.32778584721088405,-0.05866846206784248,0.7627990202143788
1746475887257668000,8.916668212890626,-0.21474691253006456,-0.007266776132583618,0.6920597427330911
1746475887267665000,8.926664794921875,-0.12763678435385226,-0.06801759743243456,0.6653076371468604
1746475887277662000,8.936661865234376,-0.13752338759601115,-0.1372813955336809,0.6616619741208851
1746475887287659000,8.946658935546875,-0.13569324955940246,-0.17854396477043627,0.6456972200088202
1746475887297656000,8.956656005859376,-0.11176350791752337,-0.20073709187805652,0.6921105961374938
1746475887307652000,8.966652099609375,-0.07251987728774548,-0.23558073398321866,0.7767236468009651
1746475887317649000,8.97664892578125,0.0371089566886425,-0.2511541506901383,0.8143132266134023
1746475887327646000,8.98664599609375,0.16133739390373228,-0.2382233574464917,0.807998928900063
1746475887337643000,8.99664306640625,0.2872363946795463,-0.25305939978957176,0.7543263754233718
1746475887347640000,9.00664013671875,0.34398061068654057,-0.31664924390763044,0.7214936347492039
1746475887357636900,9.016636962890624,0.3428331942170858,-0.3610498189091682,0.6949775298759341
1746475887367634200,9.02663427734375,0.2666290754586458,-0.37722120150923727,0.7056159743987024
1746475887377631000,9.036630859375,0.1521305896192789,-0.40873219206035133,0.7753766161061822
1746475887387628000,9.0466279296875,0.026427403676509857,-0.4168795504197478,0.8645959915213286
1746475887397625000,9.056625,-0.0757119513273239,-0.3948994815409183,0.899547477915138
1746475887407622000,9.066621826171875,-0.11161211674809456,-0.4268067779332399,0.8780078462801874
1746475887417619000,9.076618896484375,-0.08342121053040027,-0.4984776371762156,0.8223555171631276
1746475887427615000,9.086614990234375,-0.037761283117532726,-0.6006295594006776,0.7397269183151424
1746475887437612000,9.096612060546875,0.021024667850136756,-0.6745873605370521,0.6899710998907684
1746475887447608800,9.10660888671875,0.018935002094507217,-0.7002978481158614,0.6797830294840037
1746475887457606100,9.116606201171875,-0.03188800716996193,-0.6982298096701502,0.6556212326519191
1746475887467603000,9.12660302734375,-0.22214111443459986,-0.7060854916065931,0.6683195323139429
1746475887477599700,9.136599853515625,-0.47749125550985333,-0.7335419460698962,0.6756226949341595
1746475887487597000,9.14659716796875,-0.6571762070089578,-0.8753846581697463,0.7712678656131029
1746475887497593900,9.15659375,-0.4680827911734581,-1.149558157658577,0.8891112779662013
1746475887507591000,9.1665908203125,0.04198270020484924,-1.1652049318626523,0.8017322697207331
1746475887517588000,9.176587890625,0.37119302726089953,-0.9353653718799352,0.6083377956904471
1746475887527585000,9.1865849609375,0.24554653994143008,-0.6200058755218982,0.3982221962228417
1746475887537581000,9.1965810546875,-0.17944880465567112,-0.3559223928928375,0.28499036931842564
1746475887547577900,9.206577880859374,-0.7139584169387817,-0.22458616949915886,0.36697657860964533
1746475887557575000,9.216574951171875,-1.1754454631090163,-0.025619302164018153,0.5596047444425523
1746475887567572000,9.226572021484374,-1.3525333838522433,0.19392448925375938,0.798484519971162
1746475887577569000,9.236569091796875,-1.2326572966277598,0.4610521618843078,0.9291635946303606
1746475887587565800,9.24656591796875,-0.9474532845586537,0.693713209028542,0.9385269046507775
1746475887597563100,9.256563232421875,-0.639650487190485,0.7955559191733598,0.8205527055248618
1746475887607560000,9.266559814453124,-0.4265852441370487,0.7843626172468066,0.5895968548633158
1746475887617557000,9.276556884765625,-0.3208341283768415,0.7251742229580879,0.27204204041808844
1746475887627554000,9.286553955078125,-0.22937165021002293,0.64410775886029,-0.09261047915816306
1746475887637550800,9.29655078125,-0.14544891989827155,0.6225155202552676,-0.4282188366882503
1746475887647548000,9.3065478515625,-0.03279927679598331,0.6563757042810321,-0.6722453274555504
1746475887657544000,9.3165439453125,0.0349959100574255,0.7379550863370299,-0.8753449106812476
1746475887667541000,9.326541015625,0.04290741383433342,0.8658516906708479,-1.0444530847169458
1746475887677537800,9.336537841796876,0.045375265252590176,0.9294412425279617,-1.1905384028226136
1746475887687535000,9.34653515625,0.04916764327287674,0.9420710069984197,-1.342014474055916
1746475887697532000,9.356531982421876,0.14211246895194052,0.9667699794471263,-1.496468830447644
1746475887707528700,9.36652880859375,0.297498260974884,0.932741745378077,-1.6486622561700641
1746475887717526000,9.376526123046874,0.5080833776503801,0.9004369741007685,-1.820325959907472
1746475887727522800,9.386522705078125,0.6727326725810766,0.9031801353290676,-1.9454544147022068
1746475887737519900,9.396519775390624,0.7096499060899019,0.8757093600794672,-1.9887999276928603
1746475887747517000,9.406516845703125,0.5425684155762195,0.8900196249827742,-1.9220039810098706
1746475887757514000,9.416513916015624,0.24338380894958972,0.9592875147372484,-1.807524638262391
1746475887767510800,9.4265107421875,0.030489830809831617,1.0631219832211731,-1.6736498363018035
1746475887777506800,9.4365068359375,0.00861468361020088,1.1265879086986184,-1.4424619304500519
1746475887787503900,9.44650390625,0.07098433828353881,1.0999185129597782,-1.1248841735206543
1746475887797501000,9.4565009765625,0.11112871714532374,1.0515504956319928,-0.8165593981049954
1746475887807498000,9.466498046875,0.11015607272088528,0.9935586176514625,-0.6755572284825145
1746475887817494800,9.476494873046875,0.021792729613184927,0.934942470292747,-0.6310682445451616
1746475887827492000,9.4864921875,-0.19323709151148796,0.777338125437498,-0.7221084056466818
1746475887837489000,9.496489013671875,-0.48594344203472134,0.5423106414228678,-0.954129693582654
1746475887847486000,9.50648583984375,-0.703099753794074,0.2891711621344089,-1.1313367106609047
1746475887857483000,9.51648291015625,-0.7616507269620895,0.028987609553337096,-1.1206373297311365
1746475887867480000,9.52647998046875,-0.7658113537728786,-0.2375105330020189,-0.9993255106151103
1746475887877476900,9.536476806640625,-0.8421084115117787,-0.43644992780834435,-0.8247285299047827
1746475887887473000,9.546472900390626,-0.8430763797610997,-0.47102761245369906,-0.744147657366842
1746475887897470000,9.556469970703125,-0.7330290281116962,-0.47367958826720713,-0.6812440419472754
1746475887907467000,9.566467041015626,-0.4926806413352489,-0.4804688100159168,-0.6105563485227525
1746475887917464000,9.576464111328125,-0.19404840789437292,-0.513132185472548,-0.5536570880845189
1746475887927460900,9.5864609375,0.06403788014650344,-0.5632409089878201,-0.5354720275744795
1746475887937458000,9.5964580078125,0.23013562031984328,-0.6172261816754937,-0.5785604970641434
1746475887947455000,9.606455078125,0.26977380322515965,-0.6789066850408911,-0.5952260929219424
1746475887957451800,9.61645166015625,0.244330734410882,-0.7326788994997739,-0.6013140345335006
1746475887967448800,9.62644873046875,0.19548691626489162,-0.7050117248952389,-0.6181919579677283
1746475887977446000,9.63644580078125,0.14317980592250823,-0.6254299463972449,-0.5408220103003084
1746475887987443000,9.64644287109375,0.1267079790711403,-0.47649523020982737,-0.4648733276076615
1746475887997439700,9.656439697265625,0.12816869927346705,-0.32670009780079123,-0.3808886379756033
1746475888007437000,9.66643701171875,0.15193652835190297,-0.21048983960747716,-0.289824803737551
1746475888017432800,9.676432861328125,0.1259527767896652,-0.1336886317387223,-0.21133315856382248
1746475888027430000,9.686429931640625,0.12956629111170767,-0.07839958297610282,-0.18144889243170617
1746475888037427000,9.696427001953126,0.1357306589603424,-0.04846300213485956,-0.17399711512103674
1746475888047423700,9.706423828125,0.09526128592789172,-0.02261339834630489,-0.2030290022075176
1746475888057421000,9.716421142578126,0.06218085410296917,-0.01796498801857233,-0.22025836942791938
1746475888067417900,9.72641796875,0.09995616574585438,-0.0715554161697626,-0.2222866603851318
1746475888077415000,9.736414794921876,0.17460136462450027,-0.17979981005042792,-0.2029324099652469
1746475888087412000,9.746411865234375,0.283646845754981,-0.29114918420910835,-0.20524872408360242
1746475888097409000,9.756408935546874,0.37467268607020376,-0.4120464311748743,-0.20732333840057252
1746475888107405800,9.76640576171875,0.42219139309227466,-0.5415542700976133,-0.20155133087038993
1746475888117403100,9.776403076171874,0.48002808051109314,-0.6067565178483725,-0.2102354264549911
1746475888127400000,9.78639990234375,0.47546822524964805,-0.6395490726426244,-0.2522095049619675
1746475888137396000,9.79639599609375,0.3994920700281858,-0.6991323114678263,-0.25751564854606984
1746475888147393000,9.80639306640625,0.24740824216008184,-0.7212786768242716,-0.25808190412670373
1746475888157389800,9.816389892578124,0.04423135591447353,-0.7366822899222374,-0.2603120012663305
1746475888167387100,9.82638720703125,-0.12399345941543578,-0.7255021397382021,-0.26190847667753697
1746475888177384000,9.836384033203124,-0.17761983566284179,-0.6659317603945731,-0.20560075239166617
1746475888187381000,9.846381103515625,-0.10120470450222492,-0.5940186168283224,-0.1751079989723861
1746475888197378000,9.8563779296875,0.024199790754914283,-0.49558250025659795,-0.12191183083578944
1746475888207375000,9.866375,0.13780863427817822,-0.41370355073213577,-0.0926850056990981
1746475888217372000,9.876371826171875,0.25984219179749485,-0.353295551520586,-0.08608853004351258
1746475888227368700,9.88636865234375,0.37708676147460934,-0.33654841485917564,-0.08372223930358887
1746475888237366000,9.896365966796875,0.39608606097698207,-0.35075755747556686,-0.13809168900325894
1746475888247362800,9.90636279296875,0.414687885594368,-0.38274084171354766,-0.2103022080808878
1746475888257359000,9.916359130859375,0.3932674964249134,-0.4271680124610662,-0.26878157731741664
1746475888267356000,9.92635595703125,0.3617670272678137,-0.4962526546031236,-0.3018035569533706
1746475888277353000,9.93635302734375,0.2456371408343315,-0.6190995743319392,-0.3086142598815262
1746475888287350000,9.94635009765625,0.12296528541147708,-0.7366533560886979,-0.2543202135056257
1746475888297346800,9.956346923828125,0.02709375863075256,-0.8342696807101369,-0.1715001837387681
1746475888307344000,9.96634375,-0.05324760606288909,-0.9951420874506235,-0.04530103097259998
1746475888317341000,9.9763408203125,-0.03662789517343044,-1.240283261461556,0.0941108007185161
1746475888327338000,9.986337890625,0.1679728863954544,-1.3921382490098475,0.09986234998255968
1746475888337334800,9.996334716796875,0.3868658126890659,-1.3401476572707294,-0.0046356969766318794
1746475888347332000,10.00633203125,0.3522334752470255,-1.1372262070909143,-0.10002484706789254
1746475888357329000,10.016328857421875,0.018842647635936734,-0.7932830058053135,-0.22501038626059888
1746475888367326000,10.026325927734375,-0.38583003990054127,-0.4077501952856779,-0.2669618145443499
1746475888377323000,10.036322998046876,-0.8217360700905323,-0.1405035724505782,-0.21987185432836412
1746475888387318800,10.04631884765625,-1.32810796764791,0.00585194089859724,-0.14516615743413566
1746475888397316000,10.056316162109376,-1.8406179295688867,0.18656302057504653,-0.15724062610939143
1746475888407313000,10.06631298828125,-2.2877958798795937,0.46631402793526644,-0.2445258185915649
1746475888417310000,10.07631005859375,-2.5076561899006364,0.7743716768473387,-0.4047974829599261
1746475888427307000,10.08630712890625,-2.438808279123902,1.0600456445157527,-0.520334664197266
1746475888437304000,10.096303955078126,-2.0739935547232626,1.2227981659144163,-0.5220312389820814
1746475888447300900,10.10630078125,-1.4568489138513803,1.2848805280789732,-0.4243763359159231
1746475888457298000,10.1162978515625,-0.7876970223665237,1.1465917090684175,-0.17486060008257626
1746475888467295000,10.126294921875,-0.28600188444852825,0.9493971121028065,0.012776625595241784
1746475888477291800,10.136291748046874,0.06835691238939762,0.8840943265870213,-0.01431114168614149
1746475888487288800,10.146288818359375,0.30136078162193297,0.925436390800774,-0.1895474432133138
1746475888497286000,10.156285888671874,0.46667409341931343,1.0005264108374714,-0.3808656954914331
1746475888507282000,10.166281982421875,0.642567251420021,1.0227645461305976,-0.5367493540339171
1746475888517279000,10.176279052734374,0.8157873908191919,1.0168822100937367,-0.6656007748745382
1746475888527276500,10.186276611328125,0.9717220488965511,0.9288087898433208,-0.6885415054790676
1746475888537273300,10.1962734375,1.0230646981209517,0.8271829373195767,-0.663883449562639
1746475888547270700,10.206270751953125,1.0199012656539679,0.738354022526741,-0.5544852094717323
1746475888557267500,10.216267333984375,0.9729051212012767,0.7275982352346182,-0.4114307834945619
1746475888567264300,10.22626416015625,0.873613556843996,0.7799655513316393,-0.24752865366935728
1746475888577261600,10.236261474609375,0.7937731274098158,0.8813768843218683,-0.1530325068950653
1746475888587258400,10.24625830078125,0.7740425910234451,0.9296385186657309,-0.07414820914193987
1746475888597255400,10.25625537109375,0.8166589129567146,0.9187871620446443,0.015912877794355153
1746475888607252500,10.26625244140625,0.8524006729453801,0.8576333129018545,0.05510273241028189
1746475888617249500,10.27624951171875,0.8541355339139699,0.7715183332428336,0.11516308722794055
1746475888627246300,10.286246337890624,0.7170926233112812,0.7075549796372652,0.22307255006581544
1746475888637242600,10.29624267578125,0.46068449761569497,0.7030860175296664,0.24421558359861373
1746475888647239400,10.306239501953126,0.16437047798931598,0.7538286550343036,0.2251448262952268
1746475888657236200,10.316236328125,-0.1037847841233015,0.8302253737553954,0.19841653997600078
1746475888667233500,10.326233642578124,-0.34953941385746,0.9510571542695164,0.1600115521274507
1746475888677230300,10.336230224609375,-0.5095914441257715,1.0653288456156849,0.12787483089342713
1746475888687227400,10.346227294921874,-0.6354501128911971,1.1236229214131832,0.14841522235795854
1746475888697224400,10.356224365234375,-0.652858343809843,1.1084554551586507,0.23653072818443177
1746475888707221500,10.366221435546874,-0.6989490638554096,1.0903770698934794,0.3553606673568487
1746475888717218300,10.37621826171875,-0.7456126153528689,1.0441428497239946,0.44164603514671325
1746475888727215600,10.386215576171875,-0.7598124056190252,0.9526464692875742,0.4996557410448789
1746475888737212400,10.39621240234375,-0.68790744535923,0.8367346095189452,0.5074854117572307
1746475888747209500,10.40620947265625,-0.4820832594752311,0.6334118850618601,0.5239065313346684
1746475888757206500,10.41620654296875,-0.2506342184692621,0.405748792335391,0.5081494286239147
1746475888767202300,10.426202392578125,-0.04175882832109928,0.19802081865668295,0.4911940560393035
1746475888777199600,10.43619970703125,0.13842588939368725,0.024969021561741828,0.44110535239875315
1746475888787196400,10.446196533203125,0.1826560762643814,-0.10829174015372992,0.35856384731233115
1746475888797193500,10.456193359375,0.15009411535561085,-0.19931465785950422,0.3237343798629939
1746475888807190500,10.4661904296875,0.057634442844986915,-0.23613836786597966,0.3139711107395589
1746475888817187600,10.4761875,-0.04727554591596126,-0.19124065699726342,0.26489757549092174
1746475888827184400,10.486184326171875,-0.14492168115377424,-0.1417754920825362,0.24192425779104232
1746475888837181400,10.496181396484374,-0.21975100442767143,-0.11362228752672672,0.15215294758155942
1746475888847178500,10.506178466796875,-0.27771979379355904,-0.11707622737288474,0.06716156512498855
1746475888857175300,10.51617529296875,-0.28780805708765983,-0.1185205809623003,0.061093058866262435
1746475888867172400,10.52617236328125,-0.1895575262159109,-0.14397972412854432,0.10892331605553626
1746475888877169400,10.53616943359375,-0.0457622187435627,-0.17205401822924613,0.16122648087516425
1746475888887165400,10.54616552734375,0.0794248343706131,-0.2077674289062619,0.2475571491114795
1746475888897162500,10.55616259765625,0.17983400458097457,-0.2089277048572898,0.2966993656821549
1746475888907159300,10.5661591796875,0.30701135472953317,-0.1746791060358286,0.30263635451570153
1746475888917156400,10.57615625,0.4456646231383085,-0.15372604211717844,0.31332039174586535
1746475888927153400,10.5861533203125,0.5103337869256734,-0.17567513133585452,0.3110816729083657
1746475888937150500,10.596150390625,0.503325953990221,-0.20738485932946205,0.31401363470703364
1746475888947147300,10.606147216796876,0.41562019800841804,-0.20425912852436304,0.3401718660533428
1746475888957144600,10.61614453125,0.32476445356309414,-0.1654082966044545,0.3513945402048528
1746475888967141400,10.626141357421876,0.266242706489563,-0.12373159360885619,0.35324586715996265
1746475888977138400,10.636138427734375,0.2277425877034664,-0.08262304589003323,0.3817958159483969
1746475888987135500,10.646135498046876,0.21954408367872236,-0.06371376275867223,0.44983080290704963
1746475888997132500,10.656132568359375,0.2158171721100807,-0.05785246950984001,0.49772521137371656
1746475889007129300,10.66612939453125,0.18948563002347946,-0.041863165478408335,0.4828564358048141
1746475889017126400,10.67612646484375,0.08458850074410439,-0.07693973955661058,0.47637014252543447
1746475889027122400,10.686122314453126,-0.05349485882222652,-0.0873038971826434,0.4527604266181588
1746475889037119500,10.696119384765625,-0.1722691222846508,-0.08551818280965089,0.34307445562705396
1746475889047116500,10.706116455078124,-0.2709861016243696,-0.09228957664072512,0.24580080696344375
1746475889057113300,10.71611328125,-0.3705494686603546,-0.12348171050101518,0.19002441307529805
1746475889067110700,10.726110595703124,-0.4456067554712295,-0.13334610191136598,0.14523396197333932
1746475889077107500,10.736107421875,-0.5039566531091928,-0.12904109819382428,0.128585609511286
1746475889087104300,10.746104248046874,-0.5655021319180726,-0.15680325760543345,0.1360769881799817
1746475889097101600,10.7561015625,-0.6281523570984602,-0.20591303321123122,0.13069573353305458
1746475889107098400,10.766098388671875,-0.6206190389841795,-0.26109160733669995,0.1022523138590157
1746475889117095400,10.776095458984376,-0.5938759934872389,-0.33651392806768415,0.10518588309288024
1746475889127092500,10.786092529296875,-0.5405453853160143,-0.3879316883549094,0.10476415054947137
1746475889137089500,10.796089599609376,-0.511326889616251,-0.48016135150194167,0.0790292591817677
1746475889147085300,10.806085205078125,-0.49563423044383526,-0.5592106305584311,0.07298457219004631
1746475889157082400,10.816082275390626,-0.3875514568656683,-0.6872296922281385,0.16051555612683296
1746475889167079400,10.826079345703125,-0.17885551493763924,-0.9769058812752366,0.3721097037144005
1746475889177076200,10.836076171875,0.18733458946943282,-1.2441291232347487,0.5249979798331856
1746475889187073500,10.846073486328125,0.6173480544894934,-1.2725956315234304,0.4723723050609231
1746475889197070300,10.8560703125,0.7993535578906535,-1.2585124533742666,0.2643506091326475
1746475889207067400,10.8660673828125,0.4955594116419553,-1.1096885040849447,0.046611821310222144
1746475889217064400,10.876064453125,-0.164665077021718,-0.8326756895169615,0.018125000885874033
1746475889227061500,10.8860615234375,-0.8371925824195146,-0.5677201002284884,0.2602463886842131
1746475889237058300,10.896058349609374,-1.2238976515889166,-0.3583174713358283,0.682253511250764
1746475889247055600,10.9060556640625,-1.1809656878352164,-0.1474503228485584,1.2235728035487234
1746475889257052400,10.916052490234375,-0.8096656930685043,0.04370762430131435,1.5941848160512744
1746475889267049500,10.926049560546875,-0.30563539020121094,0.13794132074713705,1.7360636223778128
1746475889277046500,10.936046630859375,0.10517127004563807,0.22059797664582728,1.7168804907411337
1746475889287042300,10.946042236328125,0.32147827149927616,0.293520297254622,1.5317532020576297
1746475889297039600,10.95603955078125,0.4047895919144153,0.36877515246421094,1.3315437873154878
1746475889307036400,10.966036376953125,0.4150117107212543,0.49886722101569175,1.120552574057132
1746475889317033500,10.976033447265625,0.42715749106705186,0.705278266876936,0.9240047505624591
1746475889327030500,10.986030517578126,0.3025929537653923,0.9124749101579189,0.7152111934788524
1746475889337027600,10.996027587890625,0.07573007150590419,1.078150625526905,0.4081923860952258
1746475889347024400,11.0060244140625,-0.2364876196950674,1.1698068727001547,0.06751388569399715
1746475889357021400,11.016021484375,-0.5742880804419517,1.206101298135519,-0.27302959015071393
1746475889367018500,11.0260185546875,-0.7788625585258007,1.2029022098332642,-0.6271010944798588
1746475889377015300,11.036015380859375,-0.7992273011624813,1.2307953021481632,-0.9544501577086746
1746475889387012600,11.0460126953125,-0.7386492060810327,1.2910510334074496,-1.2382701680734753
1746475889397009400,11.056009521484375,-0.6890659677445888,1.3305804952412843,-1.4124692355073987
1746475889407006500,11.06600634765625,-0.65457976077497,1.4057286752060054,-1.4590060918852685
1746475889417002500,11.07600244140625,-0.6561983018875122,1.5033172350376844,-1.3890626409567892
1746475889426999300,11.085999267578124,-0.6517424915224314,1.5582307284861803,-1.2484328117780388
1746475889436996400,11.095996337890625,-0.5751040729999541,1.5681646780014038,-1.0483063991442323
1746475889446993400,11.105993408203124,-0.3798164786994457,1.48514152687788,-0.9136120974943042
1746475889456990500,11.115990478515625,-0.033679566761851305,1.2856781081974507,-0.7294115682668983
1746475889466987300,11.1259873046875,0.4130313505589962,1.016898284445703,-0.5525716309353709
1746475889476984600,11.135984619140626,0.8407967443913221,0.7090124849691987,-0.5033078338116407
1746475889486981400,11.1459814453125,1.093701245880127,0.42712563462406394,-0.5694331877566874
1746475889496978400,11.155978515625,1.112235265958309,0.18459873476475477,-0.7036123794913292
1746475889506975500,11.1659755859375,0.8983177899897098,-0.07810966011881827,-0.812060040859133
1746475889516972500,11.17597265625,0.5207417836934328,-0.2731283743500709,-0.9012989977575838
1746475889526970400,11.185970458984375,0.08899521127045154,-0.3962044266596436,-0.8744114292234182
1746475889536967200,11.19596728515625,-0.20333412263393402,-0.38798195723742246,-0.7522250192299484
1746475889546963200,11.205963134765625,-0.30729660141170023,-0.336933907045424,-0.5315262125581502
1746475889556960300,11.215960205078124,-0.3068833444356918,-0.27947715885490176,-0.3260932179488241
1746475889566957300,11.225957275390625,-0.24427462030947206,-0.23508301359415054,-0.19590105002373456
1746475889576954400,11.235954345703124,-0.1749965014219284,-0.19030805232226847,-0.12803688958734274
1746475889586951200,11.245951171875,-0.16414602158367633,-0.1648316657602787,-0.1907321229532361
1746475889596948500,11.255948486328125,-0.1979588593363762,-0.17854104216098785,-0.31051760928481814
1746475889606945300,11.2659453125,-0.3484112866103649,-0.19699118334800003,-0.4238729164384305
1746475889616942300,11.2759423828125,-0.5651859055757522,-0.1719438358530402,-0.5630988701686263
1746475889626939400,11.285939453125,-0.73179101074934,-0.05574877522885799,-0.7529194312348961
1746475889636936400,11.2959365234375,-0.7973550775498152,0.1200342003956437,-0.8738423971638083
1746475889646933200,11.305933349609376,-0.752714556312561,0.27220833689570423,-0.869169144655764
1746475889656930300,11.315930419921875,-0.6332774450272322,0.37036008356809613,-0.8035330355323851
1746475889666927400,11.32592724609375,-0.5097866744369268,0.42673020556569097,-0.7913755647487938
1746475889676924200,11.335924072265625,-0.4435609288573265,0.42080490716993807,-0.8419298400744796
1746475889686920400,11.34592041015625,-0.3795762402027845,0.3643894847258925,-0.8826593253478408
1746475889696917200,11.355917236328125,-0.32517654149532316,0.2585316937208175,-0.9151647337637842
1746475889706914300,11.365914306640626,-0.1984726540774107,0.12967062826901674,-0.9512801493704318
1746475889716911400,11.375911376953125,-0.021339725148677824,-0.01776712735891342,-0.9950545552976429
1746475889726908200,11.385908203125,0.1844032121926546,-0.1989399793282151,-1.0837350015304983
1746475889736905200,11.3959052734375,0.4628998355776071,-0.3550190143123269,-1.1710237011440097
1746475889746902300,11.40590234375,0.7489449746459722,-0.4829597500488162,-1.2348786259390414
1746475889756899300,11.4158994140625,0.9814560919255018,-0.5963537817776203,-1.2410139138236642
1746475889766896000,11.425896240234374,1.029336033475399,-0.6708572340980172,-1.26576110932827
1746475889776893400,11.4358935546875,0.8862801461935043,-0.6720432290121913,-1.3202506782762706
1746475889786890200,11.44589013671875,0.5943611466556787,-0.5956520632490515,-1.3486783158592879
1746475889796887300,11.45588720703125,0.2566448570609093,-0.47508273306339976,-1.3253924250788987
1746475889806884400,11.46588427734375,-0.02944529019296169,-0.3942822264254093,-1.2278465353451669
1746475889816880000,11.475880126953125,-0.11565467013716697,-0.3542278639346361,-1.1352280190110207
1746475889826877400,11.48587744140625,-0.0028431144714355467,-0.34809506026804443,-1.1046534325271844
1746475889836874200,11.495874267578126,0.14481354460418225,-0.3902659765213728,-1.0979185713142157
1746475889846871300,11.505871337890625,0.20952713205516338,-0.43572482840418814,-1.0844150927491485
1746475889856868400,11.515868408203126,0.13389116857349873,-0.3696475513845682,-1.0351470578417181
1746475889866865400,11.525865478515625,-0.059572717431187625,-0.23342735534161327,-1.0017248268418013
1746475889876862200,11.5358623046875,-0.3037415392786264,-0.10512392377257347,-0.9550525075159967
1746475889886859500,11.545859619140625,-0.5035042331665754,-0.08236702530235052,-0.852814076051861
1746475889896856300,11.555856201171874,-0.6276935074150561,-0.10507774654328822,-0.7148873683519661
1746475889906853000,11.56585302734375,-0.7102367660671473,-0.19897505064159632,-0.5436686319030821
1746475889916850400,11.575850341796874,-0.7049351525276899,-0.3316463220313191,-0.42885991107076404
1746475889926847200,11.58584716796875,-0.5901935055822134,-0.49241293030977246,-0.40893399824276566
1746475889936844300,11.59584423828125,-0.37311844236552716,-0.6408084250539541,-0.4553329074546694
1746475889946840300,11.60584033203125,-0.1566267319947481,-0.7656348281621933,-0.5372901829123496
1746475889956837400,11.61583740234375,0.03568681493103504,-0.8315063534766435,-0.6391793625473976
1746475889966834400,11.62583447265625,0.14555822549164293,-0.8481111590579151,-0.7044616897970437
1746475889976831200,11.635831298828125,0.15871289061903954,-0.8248881043806672,-0.7083312247067689
1746475889986828300,11.645828369140625,0.10334230105280875,-0.7426628256365656,-0.6697944271720946
1746475889996825300,11.655825439453125,0.1902811643153429,-0.6468295850396156,-0.5397736702911555
1746475890006822400,11.665822509765626,0.4490186097413301,-0.5906619998767971,-0.33033070938810705
1746475890016819200,11.675819091796875,0.736544927278161,-0.5293184733808041,-0.18801716490611434
1746475890026816300,11.685816162109376,0.8225818732649087,-0.39470045183748004,-0.26831775919795037
1746475890036813300,11.695813232421875,0.6752934629797935,-0.06408990259468555,-0.4923376731164753
1746475890046810400,11.705810302734376,0.292401230096817,0.43128100073784587,-0.6834284002490342
1746475890056807200,11.71580712890625,-0.29735271502435207,0.9044885875791311,-0.8777895273543894
1746475890066804500,11.725804443359374,-0.8611042038828134,1.171322537960112,-1.0712491755753755
1746475890076801300,11.73580126953125,-1.369615451556444,1.3197671325430274,-1.1808077207945287
1746475890086797300,11.74579736328125,-1.8583809652745722,1.4405477673918008,-1.1858340245239436
1746475890096794400,11.75579443359375,-2.297454519584775,1.4798130253314972,-1.159715832927078
1746475890106791200,11.765791259765624,-2.6499972069114444,1.4714230903878807,-1.1593243493914605
1746475890116788500,11.77578857421875,-2.8314135122478006,1.409705762143433,-1.0871104693129658
1746475890126785300,11.785785400390624,-2.769122183507681,1.259507601891458,-0.9419302833534776
1746475890136782300,11.7957822265625,-2.3502625651866196,1.1325988395512103,-0.771446729311347
1746475890146779400,11.805779296875,-1.6394582283645867,1.0764157645583152,-0.6767875009298324
1746475890156776400,11.8157763671875,-0.9397738359719514,0.9723398885339498,-0.7103337967008352
1746475890166773200,11.825773193359375,-0.3878337809383869,0.8235168160274624,-0.8815677307188511
1746475890176770300,11.835770263671876,0.07148118188977241,0.7025242919936776,-1.1143775386840105
1746475890186767400,11.845767333984375,0.39463703121244903,0.5881003326952458,-1.3732894638940691
1746475890196764200,11.85576416015625,0.6391448757559061,0.4477466901093721,-1.605866924408078
1746475890206761500,11.865761474609375,0.8175947325021028,0.3022928017750382,-1.8085507664397358
1746475890216757200,11.87575732421875,0.9229775994718075,0.21178104846179485,-1.985491095405817
1746475890226754300,11.88575439453125,0.938968949329853,0.2164423182711005,-2.126456732410192
1746475890236751400,11.89575146484375,0.7912351333647966,0.28958880302459,-2.262253442344069
1746475890246748200,11.905748046875,0.5217945076167583,0.47335810122787947,-2.3299735181346533
1746475890256745200,11.9157451171875,0.1925292355030775,0.6897486893117427,-2.340795356400311
1746475890266742300,11.9257421875,-0.15461714573800564,0.8319374383702873,-2.3175746398106214
1746475890276739300,11.9357392578125,-0.45693829682469367,0.9806696177229285,-2.327563242122531
1746475890286736100,11.945736083984375,-0.8087479937016964,1.0758017243131994,-2.3352307080104944
1746475890296733400,11.9557333984375,-1.1825497421562672,1.1503642133444547,-2.3267770601809024
1746475890306730200,11.965730224609375,-1.5385487074166535,1.256803311368823,-2.328669157537818
1746475890316727300,11.975727294921874,-1.7848375901579856,1.3551082027763128,-2.346284016944468
1746475890326724400,11.985724365234375,-1.852866585767269,1.4507178637504576,-2.301489766450226
1746475890336721400,11.995721435546875,-1.644560519939661,1.4749699692144989,-2.1336539504379033
1746475890346718200,12.00571826171875,-1.172331715002656,1.373569449879229,-1.8573411008328198
1746475890356714200,12.01571435546875,-0.6043231532216071,1.1519143653959034,-1.6162261135980487
1746475890366711300,12.025711181640625,-0.222213595148921,0.9066907737985253,-1.4926140547156332
1746475890376708400,12.035708251953125,0.003387304350733757,0.7594692912697791,-1.5405521561935542
1746475890386705400,12.045705322265626,0.11436696841418742,0.71730918867141,-1.6184385289505123
1746475890396702200,12.0557021484375,0.2004109286636114,0.7175365676864981,-1.623424500669539
1746475890406699500,12.065699462890626,0.2079354789495468,0.7453837750330566,-1.5583350656434893
1746475890416696300,12.0756962890625,0.1295785660713911,0.8148810896292329,-1.433018248669803
1746475890426693000,12.085693115234376,-0.05512918202579021,0.9111158967643975,-1.2891156814306974
1746475890436690400,12.0956904296875,-0.227280815410614,1.042158105647564,-1.0984849730253219
1746475890446687200,12.105687255859374,-0.3412321887612343,1.2056637835010886,-0.8949319469437003
1746475890456684300,12.115684326171875,-0.4202192162364721,1.3700211097478865,-0.7361129656016826
1746475890466681300,12.125681396484374,-0.49026890401840206,1.5335419851705432,-0.6311638138741255
1746475890476678400,12.135678466796875,-0.6310755510687828,1.6628367658644914,-0.6240072201177478
1746475890486674400,12.14567431640625,-0.8274240525990724,1.7560180306479334,-0.6917698198758065
1746475890496671200,12.155671142578125,-1.093859651312232,1.793749795410037,-0.7416682616412639
1746475890506668300,12.165668212890624,-1.4187170438557863,1.794954495024681,-0.7371459619112313
1746475890516665300,12.175665283203125,-1.6650129408597945,1.7976731063336133,-0.6317091727972031
1746475890526661000,12.1856611328125,-1.819529548832774,1.7904738424792885,-0.5693960706166923
1746475890536658200,12.195658203125,-1.79797764223814,1.756248040011525,-0.47812458497732874
1746475890546655200,12.2056552734375,-1.5584966859459877,1.6402479174375533,-0.3645823769494891
1746475890556652000,12.215652099609375,-1.221287761351466,1.4954977934584022,-0.21730551097169518
1746475890566649000,12.225649169921875,-0.9517226324409246,1.3837848466843365,-0.08256634726673365
1746475890576646100,12.235646240234376,-0.8410854982048273,1.3441361423850058,-0.018107319098711012
1746475890586643000,12.245642822265625,-0.8726040875405072,1.3982204915329812,0.05793313353061676
1746475890596640000,12.255639892578126,-0.9551876782029867,1.48593384629935,0.0725065794147551
1746475890606637000,12.265636962890625,-1.0304489631533622,1.577644161747396,0.1451797475680709
1746475890616634000,12.275634033203126,-1.081938327372074,1.6606147059008478,0.302322173999995
1746475890626630100,12.285630126953125,-1.1245002887696027,1.7381734541386364,0.47030426661521196
1746475890636627000,12.295626953125,-1.1850637708038092,1.8074714467704296,0.6210952781938016
1746475890646624000,12.3056240234375,-1.218026129207015,1.8395628675580025,0.7460083366721868
1746475890656621000,12.31562109375,-1.2242390123724938,1.823505758987367,0.7963977768249809
1746475890666618000,12.3256181640625,-1.2061533205837012,1.7840546230867504,0.7893377753108739
1746475890676615000,12.335614990234374,-1.208143617618084,1.7285010781690477,0.7209025369882583
1746475890686612200,12.3456123046875,-1.2026812605589627,1.6819564768761395,0.692175478067249
1746475890696609000,12.355609130859374,-1.2387713955938815,1.6772607202753425,0.6682094960682093
1746475890706606000,12.365606201171875,-1.284196345207095,1.708783693525195,0.6360181220375001
1746475890716603100,12.37560302734375,-1.290463004386425,1.7259376574218273,0.6054036419346929
1746475890726600200,12.38560009765625,-1.3315192373961209,1.751427195726335,0.6080638010546565
1746475890736597000,12.395596923828125,-1.360275960803032,1.7343132715791463,0.6342839917212725
1746475890746594000,12.405593994140625,-1.3457505918443202,1.7005995102867484,0.6291201792173087
1746475890756590000,12.415590087890624,-1.2642688249439,1.6411796453297138,0.5955655540093779
1746475890766587100,12.425587158203125,-1.0926549516975879,1.572121598933637,0.523517532017082
1746475890776584200,12.435584228515625,-0.8713818522691726,1.5342235376939177,0.41566725202053784
1746475890786581000,12.4455810546875,-0.6384697529733181,1.511803616093099,0.29667160089239475
1746475890796578000,12.455578125,-0.46426644775569437,1.4924854598999022,0.21054127753376958
1746475890806575000,12.4655751953125,-0.4674865788459778,1.4831956535071134,0.14580533212050795
1746475890816572000,12.475572021484375,-0.6420949577331543,1.541837519828975,0.05693769275248051
1746475890826569000,12.48556884765625,-1.004505543601513,1.679061339956522,0.01555310457125306
1746475890836566000,12.49556591796875,-1.4761884050935505,1.9226064769476652,0.06165142340138554
1746475890846563000,12.50556298828125,-2.0003017110466956,2.1863643808841706,0.24166794494241475
1746475890856559900,12.515559814453125,-2.419410920214653,2.42374339646101,0.4570842811666429
1746475890866557200,12.52555712890625,-2.6448984224677083,2.64289088203758,0.697778120379895
1746475890876554000,12.535553955078125,-2.5166625031769274,2.698289236393571,0.9748787593618035
1746475890886551000,12.545551025390624,-2.1198206553965804,2.5961519272163507,1.2090743225969374
1746475890896547000,12.555547119140625,-1.5732944421052932,2.3944296236932274,1.345224814404547
1746475890906543900,12.5655439453125,-0.9754062903672456,2.1432161440312862,1.3198131636418402
1746475890916541200,12.575541259765625,-0.3996142351031303,1.8772718359664082,1.164862109774351
1746475890926538000,12.5855380859375,0.1551063905596733,1.5856696472927927,0.9599025778956711
1746475890936535000,12.59553515625,0.5915671320229768,1.2499141363769768,0.7568583781190216
1746475890946532000,12.605531982421875,0.8845359328746795,0.9517080193936824,0.5119112653754652
1746475890956529200,12.615529052734376,1.1122808586657047,0.7183695113793015,0.27119915985316034
1746475890966526000,12.62552587890625,1.2095786188572644,0.6317851606428623,0.010157821398973465
1746475890976523300,12.635523193359376,1.2039596099317074,0.6376558062419295,-0.1922863666579127
1746475890986520000,12.64552001953125,1.1448089173048734,0.6687324970290064,-0.3378235493615269
1746475890996516900,12.655516845703126,0.9874357508569955,0.6731143653750419,-0.352394803288579
1746475891006514200,12.66551416015625,0.7880892365545034,0.7045683650419116,-0.27635961135625836
1746475891016511000,12.675510986328124,0.570727173089981,0.7837588061347603,-0.1894178254842758
1746475891026508000,12.685508056640625,0.39939094774127004,0.8439122460633516,-0.1497914791472256
1746475891036504000,12.695504150390626,0.3337719358831644,0.8508353233247995,-0.12326207640096544
1746475891046501000,12.705501220703125,0.4023550582438707,0.7812439007043838,-0.13821604603528975
1746475891056498200,12.715498291015624,0.6122504390895366,0.6605676030129194,-0.22767273733764887
1746475891066495200,12.7254951171875,0.8613818517804145,0.5337321981698274,-0.3885572729073465
1746475891076492000,12.735491943359374,1.0218822103381155,0.4064584019094705,-0.5724401144877076
1746475891086489000,12.745489013671875,0.9742167883217334,0.26323621814996,-0.762847243270278
1746475891096486100,12.755486083984374,0.6864502322882413,0.09049977061450482,-0.9058018621347844
1746475891106483000,12.76548291015625,0.16161854893267152,-0.044917292352020737,-0.9419057334341108
1746475891116480000,12.77547998046875,-0.31504268549382686,-0.11665157222002744,-0.9176756936714052
1746475891126477000,12.78547705078125,-0.7004407637178898,-0.18328502181768416,-0.8672983823478221
1746475891136474000,12.79547412109375,-0.9169143539100885,-0.33615678519308567,-0.8296722699172794
1746475891146471000,12.805470947265626,-0.9948568407684564,-0.5764657167419791,-0.7437685949213803
1746475891156468200,12.81546826171875,-0.979860931688547,-0.820289378413558,-0.6676150373063982
1746475891166465000,12.825465087890626,-0.9574322422593832,-1.0313634476497768,-0.6838757056251168
1746475891176461000,12.8354609375,-0.9666127430588006,-1.216847440816462,-0.7504528949908912
1746475891186458000,12.8454580078125,-1.0328735599517822,-1.3125421497255563,-0.8147656465560197
1746475891196455000,12.855454833984375,-1.0960071847349404,-1.3328463943466544,-0.8770634050369263
1746475891206452200,12.8654521484375,-1.1164975995779036,-1.30707102483809,-0.9141180011898279
1746475891216449000,12.875448974609375,-1.1376052695363759,-1.2504647559970616,-0.9070052465751767
1746475891226446000,12.885446044921874,-1.1708873614132405,-1.1893228895530104,-0.88779873406291
1746475891236443100,12.895443115234375,-1.205914835652709,-1.0700783782303334,-0.8416187282986939
1746475891246440200,12.905440185546874,-1.1911451365441084,-0.9045955550849437,-0.7948395875975489
1746475891256437000,12.91543701171875,-1.1172966410011052,-0.7449693490132689,-0.7582526089563966
1746475891266434000,12.92543408203125,-0.9072335023730993,-0.5846545761555433,-0.7234006374143064
1746475891276431000,12.93543115234375,-0.5779851813942194,-0.410829164339602,-0.6565982609905302
1746475891286428000,12.945427978515625,-0.14471943657994268,-0.23227818530648944,-0.6083798812665044
1746475891296425200,12.95542529296875,0.2326087324351072,-0.06500526387393474,-0.5559329240620136
1746475891306421000,12.9654208984375,0.4853022215217352,0.10311521429866552,-0.5027946235924959
1746475891316418000,12.97541796875,0.6263561213314532,0.21899580214619635,-0.4476899914860725
1746475891326415000,12.9854150390625,0.7278840664386749,0.29063889659941194,-0.39635844817757604
1746475891336412000,12.995411865234376,0.8328104218125343,0.3989709687635302,-0.37759631843194363
1746475891346409000,13.005408935546875,0.9677607440501451,0.4791328852370381,-0.38152620522677894
1746475891356406000,13.015406005859376,1.1592477770239114,0.5321583729818463,-0.2662643337994814
1746475891366403000,13.025403076171875,1.2756728470116854,0.5926768468305468,-0.09905600203573703
1746475891376400000,13.03539990234375,1.2874439488261937,0.6305743235483765,0.038262364507466555
1746475891386397200,13.045397216796875,1.1460089407443999,0.6339063905805349,0.04617459893673658
1746475891396394000,13.05539404296875,0.9233908564478158,0.6019663609623909,0.020034926160424946
1746475891406391000,13.06539111328125,0.6839759511291981,0.5134393517255783,0.01585924791097641
1746475891416388000,13.07538818359375,0.5112883111715316,0.38586423443108797,0.045192456031590694
1746475891426385200,13.08538525390625,0.495285855397582,0.2586339850515127,0.07780468582287431
1746475891436381200,13.095381103515624,0.6785743843466043,0.10925327866226434,0.13581731433048844
1746475891446378000,13.1053779296875,0.948749169588089,-0.07472060220241546,0.20952757044658063
1746475891456375000,13.115375,1.1446019965559244,-0.22473463805913924,0.2938080281548202
1746475891466372000,13.1253720703125,1.1917968784511088,-0.2787301398798823,0.34962548470571636
1746475891476369200,13.135369140625,1.1168798768937587,-0.3125231038883328,0.3323448256894946
1746475891486366000,13.145365966796875,0.984467548701167,-0.318289412330091,0.32837519140616056
1746475891496363300,13.15536328125,0.9020838645249605,-0.3628913551226258,0.3307730463281274
1746475891506360000,13.165360107421876,0.8903191924512386,-0.40816374452263116,0.3297406345404684
1746475891516356900,13.17535693359375,0.9406640628099441,-0.46542497014105316,0.3484275070928037
1746475891526354200,13.185354248046876,0.9462012386709451,-0.5424857057288289,0.3998204251997173
1746475891536351200,13.195351318359375,0.8694406550735234,-0.542252481494844,0.4047564202971756
1746475891546348000,13.20534814453125,0.6669523356139659,-0.5127551688537001,0.34462796867936846
1746475891556345300,13.215345458984375,0.38770577064454553,-0.4597703053802252,0.2687600961379707
1746475891566342100,13.225342041015624,0.1319838736474514,-0.44153906764090056,0.24344591440036892
1746475891576338200,13.235338134765625,-0.02791033571064472,-0.41257805383354423,0.22164558600261805
1746475891586335200,13.245335205078124,-0.09740881935060024,-0.423244409276545,0.2563751002088189
1746475891596332000,13.25533203125,-0.16400924346148968,-0.4529974502444267,0.28056539248302576
1746475891606329000,13.2653291015625,-0.24533318945169447,-0.478278898756206,0.3015932752035558
1746475891616326100,13.275326171875,-0.35281975070238114,-0.5351596006244421,0.2578738143339753
1746475891626323200,13.2853232421875,-0.43295302560329435,-0.5992667466148733,0.177063663084805
1746475891636320000,13.295320068359375,-0.492682394900918,-0.6652756345734,0.06454071510210634
1746475891646317300,13.3053173828125,-0.491126982152462,-0.7629995112225413,-0.04597440018951893
1746475891656314000,13.315314208984375,-0.45585342419743535,-0.8638678233772515,-0.06904124139174819
1746475891666311200,13.325311279296875,-0.39426585981249807,-0.9568573649808764,-0.019204612816125153
1746475891676308200,13.33530810546875,-0.30006431207060813,-1.0346402773633598,-0.04132525920942425
1746475891686305300,13.34530517578125,-0.11268120728433131,-1.1018553262412547,-0.054904725620150564
1746475891696302000,13.355302001953126,0.11818389635384081,-1.2248194426089525,-0.0862729466997087
1746475891706299400,13.36529931640625,0.36152328163981434,-1.3439908886954188,-0.1722306899704039
1746475891716295200,13.375295166015626,0.5398281769573688,-1.4197840885654092,-0.28248189362883563
1746475891726292200,13.385292236328125,0.5203729503810406,-1.3807567310348152,-0.4528602337308228
1746475891736289300,13.395289306640626,0.26324235562980175,-1.1861711475238204,-0.6770806386575102
