time,seconds_elapsed,z,y,x
1746475953931972900,0.071972900390625,0.5310445665210485,-1.0682397646263242,-0.18210516438335178
1746475953941968600,0.08196875,0.38071138171255586,-1.0689666175961494,-0.2981484685119241
1746475953951965700,0.091965576171875,0.337741424036026,-1.0458791719973086,-0.3151647044382989
1746475953961961700,0.101961669921875,0.42350656734406944,-1.0248261548355222,-0.2177243209056556
1746475953971958500,0.11195849609375,0.5018079506427049,-1.0340314978152514,-0.1726337178133428
1746475953981954800,0.121954833984375,0.460686251181364,-1.0210857992634177,-0.3228833890568465
1746475953991951600,0.13195166015625,0.5014192435860634,-1.047392791430652,-0.4665284744035452
1746475954001949000,0.141948974609375,0.5731166985750198,-1.062322357276082,-0.46174029027894137
1746475954011944700,0.15194482421875,0.7017763962358236,-0.9166966195061802,-0.6910554610613733
1746475954021941800,0.161941650390625,0.71644205044806,-0.7770406037956475,-0.581745337645337
1746475954031937500,0.1719375,0.7940753252267837,-1.354326112487912,-0.36734650790058077
1746475954041934800,0.181934814453125,0.3422065867513418,-1.472545080155134,-0.23140885512605308
1746475954051930600,0.1919306640625,0.12730243783295153,-1.1048130070030688,-0.21001491557210683
1746475954061927700,0.201927734375,0.1408686063706875,-0.7234644964307546,-0.27433950370550153
1746475954071924700,0.2119248046875,0.282923207655549,-0.5321297314092517,-0.3139599317584187
1746475954081920500,0.22192041015625,0.45676761643290514,-0.48905485205352306,-0.3761712540648877
1746475954091917800,0.231917724609375,0.5980822130054235,-0.5051227742791176,-0.39349348720051347
1746475954101913600,0.24191357421875,0.42951077619493006,-0.5080024213686585,-0.40783502402491867
1746475954111911000,0.251910888671875,-0.04362228410542011,-0.4404527337089181,-0.44802053861469027
1746475954121906700,0.26190673828125,-0.4664776940643787,-0.34903935538083314,-0.41696269865855573
1746475954131903700,0.27190380859375,-0.7064765367507934,-0.329074717977643,-0.40684053309485313
1746475954141899800,0.281899658203125,-0.6626257045865058,-0.5382596124663949,-0.5333700137939303
1746475954151896800,0.291896728515625,-0.2491875267922878,-0.67733285985291,-0.6458270569335669
1746475954161893600,0.3018935546875,0.29306758505105973,-0.4811950784638524,-0.5984938625462353
1746475954171889700,0.3118896484375,0.6482552339285612,-0.17793021678626536,-0.5733292453471571
1746475954181886700,0.32188671875,0.5128764571458101,-0.11694792481809854,-0.6605422493759542
1746475954191882500,0.331882568359375,-0.02859831797480583,-0.1888534695997834,-0.7694173423755913
1746475954201879800,0.3418798828125,-0.4649748882859945,-0.30169279005527494,-0.4878835432518273
1746475954211875600,0.35187548828125,-1.1332815611183642,-0.11359569178074598,0.03241502671875059
1746475954221873000,0.361872802734375,-1.4850141011059284,0.1042404189363122,0.2363053219307214
1746475954231869700,0.37186962890625,-1.5309902548611163,0.2140525005251169,0.05770100527517497
1746475954241865700,0.38186572265625,-1.27605570884943,0.27305238650441166,-0.1539654768962413
1746475954251862800,0.39186279296875,-0.6902303353488445,0.35516543704569337,-0.3417698027692735
1746475954261858800,0.40185888671875,0.023888240587711333,0.4746002102434635,-0.4107069261994213
1746475954271855900,0.41185595703125,0.6232137316524982,0.5318830631718039,-0.5077528305217623
1746475954281851600,0.4218515625,0.4526309550195932,0.2908455250874162,-0.3784366417136043
1746475954291848700,0.4318486328125,-0.4916852005571127,0.003921557357907295,-0.2683009541936219
1746475954301845800,0.441845703125,-1.2499427779495715,0.07191957330703735,-0.3127108815453946
1746475954311841800,0.451841796875,-1.4776590621680021,0.3164686266437173,-0.3449033515546471
1746475954321838600,0.461838623046875,-1.3979279383271932,0.4994081960245967,-0.3791211899116635
1746475954331835000,0.4718349609375,-1.1322440347641707,0.5533677497491241,-0.4301145142417401
1746475954341831700,0.481831787109375,-0.5941524723410606,0.5029167886674404,-0.4756192510928958
1746475954351827700,0.49182763671875,0.1157750816464424,0.39702889478504655,-0.4851975921034813
1746475954361824800,0.50182470703125,0.9795189863830804,0.1679851613551378,-0.35767245143055915
1746475954371821600,0.511821533203125,1.6109931813806295,0.05394260258972645,-0.19735512128956614
1746475954381817900,0.52181787109375,1.683305553397536,-0.06290215411484242,0.019749094956368205
1746475954391814700,0.531814697265625,1.3244155428707598,-0.09368424586951732,0.15989632824994623
1746475954401810700,0.541810791015625,0.9487076685339212,0.02114127996712923,0.2438628977034241
1746475954411807700,0.551807861328125,0.6288531988441943,0.17695728010088205,0.22732618892230091
1746475954421803800,0.5618037109375,0.40705812136828895,0.2774231489345431,0.18281477395743131
1746475954431800600,0.571800537109375,0.14913900658786297,0.32170506599247456,0.2084189516175538
1746475954441797600,0.581797607421875,-0.010512041664123534,0.3579346094980836,0.20798582089729606
1746475954451793700,0.591793701171875,-0.09310498467683792,0.41520723329335446,0.17206337057948112
1746475954461790700,0.601790771484375,-0.279957928109169,0.4981576114416122,0.19293518595546483
1746475954471786800,0.611786865234375,-0.6462345417559147,0.5242950922608375,0.25253420687168837
1746475954481783600,0.621783447265625,-1.3113456334173679,0.573323327063024,0.2818393579415977
1746475954491779800,0.63177978515625,-1.9149369652330874,0.6970730408504605,0.29123145566508174
1746475954501776600,0.641776611328125,-2.240702120271325,0.8217676342725754,0.3087327716946602
1746475954511774000,0.65177392578125,-2.1857617388159034,0.8450929802805185,0.27541078619882464
1746475954521769700,0.661769775390625,-1.8206424785107373,0.8141641735315323,0.34083230272345244
1746475954531766500,0.6717666015625,-1.2621066784739494,0.7546227280214428,0.5034438812814652
1746475954541762800,0.6817626953125,-0.6628256110727787,0.6622983723282814,0.6370875048346817
1746475954551759600,0.691759521484375,-0.04876081603765487,0.5540905110657215,0.6139361271541566
1746475954561755600,0.701755615234375,0.4802583821356296,0.45130818198323247,0.48708596313335
1746475954571752700,0.711752685546875,0.8256804238021374,0.34626492223143573,0.37099816227592525
1746475954581748700,0.721748779296875,0.9691209264874457,0.3023445319622755,0.28563772731125353
1746475954591745000,0.7317451171875,1.0212100101649761,0.28123014000207186,0.20338037292845546
1746475954601742000,0.7417421875,1.051522146320343,0.25717180354446173,0.17851956098154187
1746475954611737900,0.75173779296875,1.0493068083584307,0.26253040796816346,0.18208682500906287
1746475954621735000,0.76173486328125,0.9596586861371993,0.30941110934764143,0.18872487478405237
1746475954631731000,0.77173095703125,0.7751812396645545,0.33523440965116025,0.1543482656687498
1746475954641728000,0.78172802734375,0.5004483527272939,0.49551732606589793,0.16670929620042443
1746475954651723800,0.791723876953125,0.0337321737319231,0.36591421007513997,0.278836084472388
1746475954661721000,0.80172119140625,-0.5663888516247272,0.1587201971426606,0.2919277673661709
1746475954671718000,0.8117177734375,-1.0185124416440725,0.3010579992830753,0.1343393507324159
1746475954681714200,0.821714111328125,-1.274680913364887,0.3779787418782711,-0.03340454921275377
1746475954691711000,0.8317109375,-1.2750713739871977,0.32484190271347757,-0.21932108857780694
1746475954701707000,0.84170703125,-0.9591694413155317,0.22018062801659105,-0.30877456500977274
1746475954711704000,0.8517041015625,-0.5512409668534993,0.11152969916164875,-0.2700356690317392
1746475954721699800,0.861699951171875,-0.13568857338428497,0.02900134581774473,-0.1681105413004756
1746475954731697200,0.871697265625,0.31109950082600113,-0.04619944111704826,-0.05882686749994755
1746475954741694000,0.88169384765625,0.5802087026625872,-0.06225041220784187,0.08211275828033686
1746475954751690000,0.89168994140625,0.6432493884652852,-0.03668897771090269,0.19045973575264213
1746475954761687000,0.90168701171875,0.5824024133145809,-0.018432313269376752,0.21529358662739395
1746475954771683000,0.91168310546875,0.4887912326812744,0.03939735988676548,0.21731807819232343
1746475954781679900,0.921679931640625,0.47936289460062975,0.04551847311556339,0.2526907126076519
1746475954791676200,0.93167626953125,0.473773111769557,-0.14039514364004135,0.16609803243428467
1746475954801673000,0.9416728515625,0.3588958557456732,-0.27490590541660787,0.06349895096421242
1746475954811669000,0.9516689453125,0.25001696335375306,-0.31062808392196894,0.07519727980345488
1746475954821666000,0.961666015625,0.13751812689900397,-0.2777881828546524,0.18076266373321412
1746475954831662800,0.971662841796875,0.11140344243347644,-0.17410013710409403,0.27847733416259285
1746475954841659100,0.9816591796875,0.11724456967711448,-0.06928659445494413,0.3400710360273719
1746475954851656000,0.991656005859375,0.18454583553373813,-0.0724620096206665,0.47320042644813654
1746475954861652000,1.00165185546875,0.2683200972855091,-0.1316585872158408,0.5432943917632103
1746475954871649000,1.01164892578125,0.3561094398975372,-0.20036592047810553,0.5958870410487055
1746475954881645000,1.02164501953125,0.4605664241939783,-0.2833732895106077,0.6279860606208443
1746475954891641900,1.031641845703125,0.5470774174332619,-0.3216051127493381,0.6246328046701848
1746475954901639000,1.041638916015625,0.5679039323627948,-0.33909546899348497,0.5727841056197881
1746475954911635000,1.051635009765625,0.5322685553580522,-0.3768082367941737,0.5523885294534265
1746475954921632000,1.061632080078125,0.5130260947495698,-0.43388826062679287,0.5263746750138699
1746475954931628000,1.0716279296875,0.5110685309410095,-0.49658437077552076,0.4763230885133147
1746475954941624800,1.081624755859375,0.3747369834780693,-0.501561574666202,0.45061128576025367
1746475954951621000,1.09162109375,0.21121172414124012,-0.5067953836664557,0.47580169498771424
1746475954961618000,1.101617919921875,0.062141691136360165,-0.5356786560624838,0.5178619904734194
1746475954971614000,1.111614013671875,0.04926701199412346,-0.5941016189366579,0.4752135198362171
1746475954981611000,1.121611083984375,0.21521862169504163,-0.6228130418971181,0.4596424412168562
1746475954991607800,1.13160791015625,0.37393326587975023,-0.6448208755657077,0.4957441205590963
1746475955001604000,1.14160400390625,0.41681496075093744,-0.7209595278725027,0.5601490804523229
1746475955011601000,1.151600830078125,0.39440205341279505,-0.7798886867031455,0.5677623319350182
1746475955021597000,1.161596923828125,0.5236994644552468,-0.7517825361594558,0.554487839820236
1746475955031594000,1.171593994140625,0.7575105584174394,-0.660654112252593,0.5143224181704222
1746475955041590000,1.181590087890625,0.8371358837962151,-0.5856026706606149,0.4964771110087633
1746475955051586800,1.1915869140625,0.6823509802758694,-0.6910831527858972,0.5054084593527018
1746475955061584000,1.201583984375,0.47864510172009467,-0.7760948473781347,0.4216749680027365
1746475955071580000,1.211579833984375,0.35415129156708713,-0.6430830919876694,0.33743674200102686
1746475955081577000,1.221576904296875,0.2651484815120697,-0.594698123525083,0.3348758054718375
1746475955091573000,1.231572998046875,0.19718845948576927,-0.6235127145990729,0.3464927396379411
1746475955101569800,1.24156982421875,0.11838906353712081,-0.6379357922270894,0.3730428929112851
1746475955111566000,1.251566162109375,0.024916414591670034,-0.6929319955229759,0.3873169174574315
1746475955121563000,1.26156298828125,-0.04533376419842243,-0.706895054423809,0.4140186080306768
1746475955131559000,1.271558837890625,-0.1460433786600828,-0.6840405407980084,0.4283148444086313
1746475955141556000,1.281555908203125,-0.26982933280467986,-0.6450172749206423,0.38531332255005835
1746475955151553000,1.291552978515625,-0.3448953874439001,-0.644695203359425,0.3237057382903993
1746475955161548800,1.301548828125,-0.3594160802274942,-0.7254647303372621,0.3184855194240808
1746475955171545900,1.3115458984375,-0.24244097514152527,-0.9684916886731981,0.3784763161368668
1746475955181542000,1.3215419921875,0.15019699120819568,-1.2060782095208764,0.37144510232582684
1746475955191539000,1.3315390625,0.5993734218597412,-1.0503390740156173,0.25944150204211475
1746475955201535000,1.341534912109375,0.7537070744812489,-0.6726411949053406,0.12627367930710315
1746475955211531800,1.35153173828125,0.5333329697191715,-0.4390110104680061,0.09861388429142534
1746475955221529000,1.361529052734375,0.00611819061934948,-0.4088441280022263,0.16059446658194065
1746475955231524900,1.37152490234375,-0.5603273596286773,-0.470703202804923,0.19516170289851725
1746475955241522200,1.381522216796875,-1.0690800148427486,-0.5040624515712261,0.22120134936645625
1746475955251518000,1.39151806640625,-1.3488275150716305,-0.3341851928591728,0.16560571887269615
1746475955261515000,1.401514892578125,-1.401437992274761,0.08067424990981817,0.06840783885903656
1746475955271511000,1.411510986328125,-1.3642208990365265,0.4829913142308592,-0.011937690553069114
1746475955281508000,1.421508056640625,-1.4179688558369874,0.6470765455380082,-0.010499547508731484
1746475955291503900,1.43150390625,-1.5380325745880603,0.597163636855781,-0.04755041733458638
1746475955301501000,1.4415009765625,-1.647356288138032,0.5408507980033755,-0.14221337204314768
1746475955311498000,1.451498046875,-1.5901239963531493,0.5700237009957433,-0.22413791427500546
1746475955321493800,1.46149365234375,-1.273228376469016,0.6124097213044762,-0.2523257517527789
1746475955331491000,1.471490966796875,-0.793069363054633,0.6631155339300632,-0.26179573701806363
1746475955341486800,1.48148681640625,-0.3197930948913097,0.7227750528618693,-0.2525057844948023
1746475955351484200,1.491484130859375,0.0967003788203001,0.7142699671059847,-0.22484489350058137
1746475955361480000,1.50147998046875,0.3967015625268221,0.7412842307597398,-0.24352241370268166
1746475955371477000,1.51147705078125,0.6431272233903408,0.7930056501686572,-0.3453341441873461
1746475955381474000,1.52147412109375,0.8679916253089904,0.859892782266438,-0.4838575756713748
1746475955391470000,1.531469970703125,1.0423767168343065,0.9301832930669188,-0.6015093379098921
1746475955401467100,1.541467041015625,1.19347328723073,0.9663391868144273,-0.7093968811769038
1746475955411463000,1.551462890625,1.2904711876928805,0.9598743747144937,-0.765037227595225
1746475955421460000,1.5614599609375,1.3928057730078696,0.9435574461638927,-0.7797336422719061
1746475955431455700,1.571455810546875,1.4704419703960419,0.924462869593501,-0.800981889744848
1746475955441453000,1.581453125,1.4136194284558294,0.9309072234272956,-0.873213963067159
1746475955451448800,1.59144873046875,1.229372868129611,0.9556690319791435,-0.9779789903994649
1746475955461446100,1.601446044921875,0.9246411487698555,0.9842872236981988,-1.0792736382074652
1746475955471443000,1.61144287109375,0.5783949312388896,0.9812155611678958,-1.1373679536491632
1746475955481439000,1.62143896484375,0.25566870550513265,0.9501070139378309,-1.1460340021204203
1746475955491436000,1.63143603515625,-0.11818564991950987,0.9257713218435645,-1.0265605043474584
1746475955501432000,1.64143212890625,-0.578394346717,0.8926666323602199,-0.7851184771154075
1746475955511429000,1.65142919921875,-1.054953874334693,0.8635109727635979,-0.5833387443166226
1746475955521425000,1.6614248046875,-1.3924293409109114,0.7738336244478822,-0.47628151439391075
1746475955531422000,1.671421875,-1.4468600192785261,0.7008534361720085,-0.4259269994240254
1746475955541418000,1.68141796875,-1.2619348290383816,0.5895689439430832,-0.43557263351716097
1746475955551415000,1.6914150390625,-0.9636527242094278,0.4539581119701266,-0.40328554402701555
1746475955561411800,1.701411865234375,-0.6048147361308336,0.3549970947414636,-0.2772567793916911
1746475955571408100,1.711408203125,-0.2912719338059425,0.27152210819721223,-0.23024624108746647
1746475955581405000,1.721405029296875,-0.07393383573889732,0.1319730599924922,-0.2446994215928018
1746475955591402000,1.731402099609375,0.13151157996058463,-0.03466945458203554,-0.26985293287597595
1746475955601399000,1.74139892578125,0.24774375772476195,-0.14056202463954687,-0.29860300734639167
1746475955611395000,1.75139501953125,0.29257717118561266,-0.20597849966287612,-0.30950550963282586
1746475955621392100,1.76139208984375,0.2988753945469856,-0.20274872396141289,-0.303225698710978
1746475955631388000,1.771387939453125,0.3238981921225786,-0.1683145394399762,-0.30305450686253604
1746475955641385000,1.781385009765625,0.4019675202310085,-0.10526946972310543,-0.2986987228058278
1746475955651382000,1.791382080078125,0.4409884480208158,0.012733517105877399,-0.25438392639160157
1746475955661377800,1.801377685546875,0.38602410116791724,0.10735358252078295,-0.2181584014739841
1746475955671375000,1.811375,0.3170551943600178,0.15892799467444418,-0.21836656433194873
1746475955681371000,1.821370849609375,0.15626023676991463,0.1480383518695831,-0.3291997325967997
1746475955691368200,1.8313681640625,-0.038166941308975216,0.10193214199393986,-0.49029243102446196
1746475955701364000,1.841364013671875,-0.1687210744142532,0.05897095214575529,-0.6421820514947175
1746475955711361000,1.851361083984375,-0.23583120161294935,-0.009656593878567219,-0.7607481520991772
1746475955721357000,1.861357177734375,-0.17593349001109598,-0.07032645889669656,-0.7857382164489477
1746475955731354000,1.87135400390625,-0.038998715957999225,-0.12214432441741227,-0.7595729708399623
1746475955741351200,1.88135107421875,0.09606091187298298,-0.13498656259477138,-0.6949062182053923
1746475955751347000,1.891346923828125,0.29084347926080223,-0.1466650176897645,-0.5135163624845445
1746475955761344000,1.901343994140625,0.40093876170516013,-0.10968991651386022,-0.32182671961076553
1746475955771339800,1.91133984375,0.31275895847082136,-0.04951280344873667,-0.3379993443198502
1746475955781337000,1.921337158203125,0.23456746528744696,-0.0065551207318902014,-0.30300716058947147
1746475955791332900,1.931332763671875,0.11088730960488319,0.0316103592723608,-0.1803702303495258
1746475955801330200,1.941330078125,-0.10292729051113128,0.07160831540077925,-0.09784618785455822
1746475955811326000,1.951325927734375,-0.32274902208745476,0.10085311458557844,-0.10457549610957503
1746475955821323000,1.961322998046875,-0.4324216952055692,0.08855945020169019,-0.13732479628399014
1746475955831320000,1.971320068359375,-0.33352819025516506,0.027682956695556638,-0.13688750084526835
1746475955841316000,1.981316162109375,-0.12399170584976672,-0.0896174348220229,-0.14196816511042415
1746475955851313200,1.991313232421875,0.1514502061396837,-0.29365386050641534,-0.16106120731085538
1746475955861309000,2.001308837890625,0.446989734262228,-0.48319355880469084,-0.25755875703543424
1746475955871306000,2.011305908203125,0.5351899957627058,-0.6108776894316077,-0.39152620571553703
1746475955881302000,2.021302001953125,0.49038288578689093,-0.6694353846013545,-0.45197629050314425
1746475955891299000,2.031299072265625,0.4440454975038767,-0.7146718259051442,-0.4502115458529442
1746475955901294800,2.041294921875,0.3471346908032894,-0.7661825251728296,-0.3253543822802603
1746475955911292200,2.051292236328125,0.1384405024409294,-0.8358286005899309,-0.15612068216875194
1746475955921289000,2.0612890625,-0.1204892506867647,-0.8812374758511781,-0.08029737942144274
1746475955931285000,2.071284912109375,-0.23840718958079812,-0.9025079351559281,-0.07268515085205435
1746475955941282000,2.081281982421875,-0.19110592470169066,-0.9351961527928709,-0.12182210672572255
1746475955951278000,2.091278076171875,-0.0623188012689352,-1.027420262981951,-0.15909765215292573
1746475955961275100,2.101275146484375,0.10018354476094245,-1.1679553996145724,-0.16941256380975245
1746475955971271000,2.11127099609375,0.18005670742094515,-1.2599573914855717,-0.16983590378835797
1746475955981268000,2.12126806640625,0.17815175058245658,-1.3216525078982113,-0.1800955781266093
1746475955991264000,2.131263916015625,0.11286124002635478,-1.3498758550807832,-0.19695260490328073
1746475956001261000,2.141260986328125,-0.01759293983578682,-1.2987132385984062,-0.2339493333891034
1746475956011258000,2.151258056640625,-0.17569266699254513,-1.1980997779875993,-0.33363398871719835
1746475956021254100,2.161254150390625,-0.32686931688785553,-1.0773328794032335,-0.48236456063464284
1746475956031251000,2.1712509765625,-0.4327636405110359,-0.9798881119564175,-0.670837068092823
1746475956041247000,2.1812470703125,-0.532263294661045,-0.9042916037023067,-0.7570046547219157
1746475956051244000,2.191244140625,-0.6381196243613958,-0.8353408170729875,-0.6801363729663192
1746475956061240000,2.201239990234375,-0.713974783551693,-0.7938090755060314,-0.5809468076787888
1746475956071237000,2.211237060546875,-0.6940326502412557,-0.7572761651396751,-0.5591537858046591
1746475956081233200,2.221233154296875,-0.6342138490945101,-0.7485603592425585,-0.537978603567928
1746475956091230000,2.23122998046875,-0.5591472099334002,-0.740922119449079,-0.5373609100610017
1746475956101227000,2.24122705078125,-0.47453123666048047,-0.6821274006530642,-0.5035276140421628
1746475956111223000,2.25122314453125,-0.4331733903557062,-0.6717913000777364,-0.5141518839091063
1746475956121220000,2.26122021484375,-0.3772334764689207,-0.760976480962336,-0.520781385051459
1746475956131216100,2.271216064453125,-0.30268121657073493,-0.8235305522918701,-0.5291463316842914
1746475956141213000,2.281212890625,-0.3143488580107689,-0.6972606723770499,-0.481025128724426
1746475956151209200,2.291209228515625,-0.5568330877721309,-0.47068654393106696,-0.49003524139299987
1746475956161206000,2.3012060546875,-0.9400865551829337,-0.2896411177337169,-0.6081409579440951
1746475956171202000,2.3112021484375,-1.3527601783454417,-0.19017039741724728,-0.6944558440893888
1746475956181199000,2.32119921875,-1.6125111847281455,-0.11697393604218959,-0.7279555242396891
1746475956191196000,2.33119580078125,-1.6972534147292375,-0.03964636621177196,-0.698674046306312
1746475956201192000,2.34119189453125,-1.7000550281465052,0.10043138204216956,-0.5914826686099172
1746475956211189000,2.35118896484375,-1.6880460259228944,0.2432014381200075,-0.4786002396650612
1746475956221185000,2.36118505859375,-1.7192524805694818,0.3305161489576101,-0.3986303386323154
1746475956231182000,2.37118212890625,-1.7545178552180527,0.45451194646060467,-0.34909371591657395
1746475956241178000,2.38117822265625,-1.6536510043680668,0.518141538067162,-0.21958660764619706
1746475956251175000,2.3911748046875,-1.4730530296772717,0.5824146882742643,-0.03179141492769122
1746475956261171200,2.401171142578125,-1.1826193002611398,0.7024518112793564,0.11000482768192886
1746475956271168000,2.41116796875,-0.7629395977288485,0.8552689218580722,0.1636731433749199
1746475956281165000,2.4211650390625,-0.21150106247663497,0.9764277423694729,0.1671601087078452
1746475956291161000,2.4311611328125,0.2831196070104837,1.0419973621279002,0.16095760080590843
1746475956301158000,2.441157958984375,0.6695312461912631,1.0932874043822287,0.2030262257285416
1746475956311154200,2.451154296875,1.0005056603103875,1.0946996092677115,0.17885434589385985
1746475956321151000,2.46115087890625,1.2223048294395207,1.0574462756723164,0.08773483594581484
1746475956331147000,2.47114697265625,1.3984452401995657,1.0470374021217226,0.036777751972898835
1746475956341144000,2.48114404296875,1.4982435850352047,1.041460186511278,0.07335077515393496
1746475956351140000,2.49114013671875,1.521041107776761,1.0678232927799225,0.16456950769275425
1746475956361137000,2.501136962890625,1.5287462753266094,1.078980354349315,0.29101781291440126
1746475956371134000,2.511134033203125,1.521772344660759,1.082559381879866,0.3563752512268722
1746475956381130000,2.5211298828125,1.3563099797815084,1.1160986633881926,0.4245831835996359
1746475956391127000,2.531126953125,1.0169704728990792,1.1637523949667812,0.49060003566890953
1746475956401123000,2.541123046875,0.5724696328431368,1.1688210765331983,0.5829130662504584
1746475956411119900,2.551119873046875,0.09318272608816623,1.16860334212929,0.7286942137777805
1746475956421116200,2.5611162109375,-0.3345645475655794,1.1987319384112953,0.8794785033546387
1746475956431113000,2.571113037109375,-0.7128525015234947,1.2158391405567526,1.075530944547802
1746475956441109000,2.58110888671875,-0.9829624048352241,1.2212354466423392,1.177861292079091
1746475956451106000,2.59110595703125,-1.0649725795239209,1.173112928508222,1.180567336167395
1746475956461102000,2.60110205078125,-0.8728238677710294,1.1484393827617168,1.1115075362056492
1746475956471099000,2.611098876953125,-0.5627151315480471,1.144464633911848,0.9972978041797875
1746475956481096000,2.621095947265625,-0.2617483176797628,1.079405594024062,0.9076790541835129
1746475956491092000,2.631092041015625,0.002689385214447975,0.9839686592683196,0.7563824311703443
1746475956501089000,2.641089111328125,0.19289222359657288,0.8532453070759772,0.5164265508428215
1746475956511085000,2.6510849609375,0.2755395271450281,0.7852268328607082,0.3944572907313704
1746475956521081900,2.661081787109375,0.26746260367333885,0.7442451263919472,0.3625200375922024
1746475956531078100,2.671078125,0.2740110024034977,0.6673924805968999,0.29815599423125383
1746475956541075000,2.681074951171875,0.3634422670036554,0.5756175754800439,0.1959831753492355
1746475956551071000,2.691071044921875,0.523018496453762,0.4581321827843785,0.10585793713554739
1746475956561068000,2.701068115234375,0.6414882240116596,0.3513824113756418,0.08269128882065414
1746475956571064800,2.71106494140625,0.7390133632183075,0.268068460611999,0.07792831220254301
1746475956581061000,2.72106103515625,0.6865168677836656,0.18773527922481298,0.10407602215483784
1746475956591057700,2.7310576171875,0.5454460168391466,0.1187643265902996,0.10440087019503116
1746475956601053700,2.7410537109375,0.4195604600667953,0.051146249869465824,0.1014253615155816
1746475956611050800,2.75105078125,0.37409342487752434,0.05656681361347437,0.0811848297804594
1746475956621046800,2.761046875,0.34394320128560063,0.050045302890241145,-0.024936142205446956
1746475956631043600,2.771043701171875,0.3088853319078684,-0.0799386291116476,-0.18658420949354768
1746475956641040000,2.781039794921875,0.21534604746699332,-0.17128186481297014,-0.22082404048666357
1746475956651036700,2.79103662109375,0.17407120327055453,-0.23146891475021839,-0.2771010773733258
1746475956661034000,2.801033935546875,0.09444529336988926,-0.2577130708143115,-0.215970462975651
1746475956671029800,2.81102978515625,0.035626609176397324,-0.18207301567941903,-0.0021313129402697087
1746475956681026800,2.82102685546875,-0.03453530680835247,-0.071185413813591,0.22609116723462938
1746475956691022800,2.83102294921875,-0.0990875662177801,-0.055829731510579586,0.3193326377727091
1746475956701019600,2.84101953125,-0.02590834823846817,-0.14768383934348822,0.23588044758215546
1746475956711015700,2.851015625,0.1306155079036951,-0.23247253883481026,0.24221637260541318
1746475956721012700,2.8610126953125,0.2809907782882452,-0.23534634070545435,0.296003492372483
1746475956731008800,2.8710087890625,0.3952309054523706,-0.2349026885911822,0.2535917531006038
1746475956741005600,2.881005615234375,0.38840778143405913,-0.24785978531986474,0.21979922748357056
1746475956751003000,2.8910029296875,0.36281390597224233,-0.2612666716426611,0.23651626126766204
1746475956760998700,2.90099853515625,0.33769407776296134,-0.3042278614908457,0.28046748506650326
1746475956770996000,2.910995849609375,0.34861411570608614,-0.38212300207614897,0.2839759315788746
1746475956780991700,2.92099169921875,0.4033060753583908,-0.4739420385956764,0.263538415966928
1746475956790988800,2.93098876953125,0.49880993787050243,-0.5449810296759009,0.17368644173666833
1746475956800984800,2.94098486328125,0.6226759715139866,-0.6128256086289883,0.06190671333670616
1746475956810981600,2.950981689453125,0.7206617139697075,-0.6740142368242145,-0.032292934709042306
1746475956820977700,2.960977783203125,0.7197042671144008,-0.7318982705160975,-0.08959390781596302
1746475956830974700,2.970974609375,0.6032686757326126,-0.8057362446650862,-0.026346593525260684
1746475956840970800,2.980970703125,0.42267537721693516,-0.8653338042765856,0.11077215879261493
1746475956850967600,2.990967529296875,0.160438983759284,-0.8821846935734152,0.2663845991782844
1746475956860964900,3.00096484375,-0.04033025682270527,-0.8856848106488585,0.349940395873785
1746475956870960600,3.010960693359375,-0.11828911029398441,-0.9068243370503186,0.406669268181175
1746475956880958000,3.0209580078125,-0.1362882928431034,-0.9439552133098245,0.5224019719906151
1746475956890953700,3.03095361328125,-0.1092395423978567,-0.9838441561058163,0.7047048509031534
1746475956900950800,3.04095068359375,-0.025689737051725385,-0.9650088149935007,0.8658322553180158
1746475956910946800,3.05094677734375,0.0545674564898014,-0.8779448640465736,0.9533976529810577
1746475956920943600,3.060943603515625,0.08667173675894736,-0.8086267054095864,1.0071426871720701
1746475956930939600,3.070939697265625,0.06630465603470802,-0.7505141236588359,1.0773263765972108
1746475956940936700,3.080936767578125,-0.013078092759847641,-0.741903239440918,1.1911351266067474
1746475956950933800,3.090933837890625,-0.05278934090137481,-0.7634697590827941,1.3135896129518747
1746475956960929800,3.1009296875,-0.09774959561228752,-0.7340878895148635,1.3613693089976906
1746475956970926800,3.1109267578125,-0.24840894363522528,-0.5794833109974861,1.2882292539849876
1746475956980922600,3.120922607421875,-0.36467911532223224,-0.47270752836465835,1.0899060183156282
1746475956990920000,3.130919921875,-0.3343728243857622,-0.5011977097898721,0.9197652132965624
1746475957000915700,3.140915771484375,-0.24492519317269323,-0.5851151794046163,0.8346108222980052
1746475957010912800,3.150912841796875,-0.21951544210612772,-0.6075467914432287,0.782557467520982
1746475957020908800,3.16090869140625,-0.19339315885603428,-0.5623039203986525,0.6990365229431539
1746475957030905600,3.170905517578125,-0.11643792946934699,-0.4957616562157869,0.6561588466599583
1746475957040901600,3.180901611328125,-0.013570260190963744,-0.4859700377807021,0.6363439199257641
1746475957050898700,3.190898681640625,0.09590893618166446,-0.5773308091387153,0.6809379716727882
1746475957060895700,3.200895751953125,0.24307751947939393,-0.7896168845131993,0.7053222521491348
1746475957070891800,3.210891845703125,0.4847983636528253,-1.1209691920340061,0.6784262080475688
1746475957080888800,3.220888916015625,0.7717612020879984,-1.2304834597200154,0.6154215434063226
1746475957090884600,3.230884521484375,0.8970043693035841,-0.9358113620817661,0.5230970415826887
1746475957100882000,3.2408818359375,0.7011901207804679,-0.4812962007507682,0.3647072454381734
1746475957110877700,3.250877685546875,0.1826946547091007,-0.16382833393663168,0.2425911972671747
1746475957120874800,3.260874755859375,-0.5811117889821529,-0.025410043327510356,0.11804025009945034
1746475957130870800,3.270870849609375,-1.3739566956311464,0.03481412374973297,-0.0039056291364133354
1746475957140867600,3.28086767578125,-1.92099319653213,0.17524404644221067,-0.018897300432622433
1746475957150865000,3.290864990234375,-2.2314187436193227,0.4146224191427231,0.08767872184440494
1746475957160860700,3.300860595703125,-2.3929490297466516,0.6923147404074669,0.23947737609557807
1746475957170857700,3.310857666015625,-2.3952181437224147,0.8733721493035554,0.34052126401290295
1746475957180853800,3.320853759765625,-2.257537519738078,0.9235355256155132,0.3661468497872352
1746475957190850800,3.330850830078125,-1.9483751244544982,0.9070183983176946,0.265640722008422
1746475957200846600,3.3408466796875,-1.4508745156168936,0.8688184315219522,0.07550897610113025
1746475957210844000,3.350843994140625,-0.7896861503571272,0.8758999142155051,-0.10419891788214444
1746475957220839700,3.360839599609375,-0.11392273177802562,0.9118339819058775,-0.2784831063162535
1746475957230837000,3.3708369140625,0.48557402420043944,0.9369166929751634,-0.4048554236922413
1746475957240832800,3.380832763671875,0.9404711705863475,0.9229030729308724,-0.47117578875273464
1746475957250829800,3.390829833984375,1.2933575567841529,0.8951330224737525,-0.4967513979054987
1746475957260827000,3.400826904296875,1.5135855310738087,0.8915510723337531,-0.48607386348135767
1746475957270822700,3.41082275390625,1.5858844590872525,0.9883289003044367,-0.46017457533217965
1746475957280819700,3.42081982421875,1.6071645630031823,1.1157073259830474,-0.4906436556149274
1746475957290815700,3.430815673828125,1.5227853210955857,1.2383525856599211,-0.6189566587299108
1746475957300812800,3.440812744140625,1.3080220419526098,1.302891108804941,-0.7682226526983081
1746475957310808600,3.45080859375,1.0403250450015067,1.4084174758985637,-0.8756723160047084
1746475957320806000,3.460805908203125,0.8388894494652748,1.5162480282813309,-0.7667875783938914
1746475957330801700,3.4708017578125,0.6644973436772823,1.5314306921049952,-0.6560056288596242
1746475957340799000,3.480799072265625,0.5175684143543243,1.4260013556450604,-0.6883798121113329
1746475957350795800,3.490795654296875,0.3193313225984573,1.2389651646003126,-0.8075628755703568
1746475957360791800,3.500791748046875,0.1860416270494461,1.077300146177411,-0.8927822946291416
1746475957370788900,3.510788818359375,0.18428747685849667,0.9392942357614635,-0.9327447410527616
1746475957380784600,3.52078466796875,0.13519640595316887,0.8429694122552871,-0.9365881916731595
1746475957390781700,3.53078173828125,-0.08994038316607475,0.7727668719992041,-0.847529925103858
1746475957400777700,3.54077783203125,-0.43920098008215425,0.7262900752454996,-0.6241515239592641
1746475957410774800,3.55077490234375,-0.8383616261988878,0.6848848826676607,-0.27994996399842204
1746475957420770600,3.5607705078125,-1.1474071171045304,0.651254415744543,0.051178690834343434
1746475957430767900,3.570767822265625,-1.3435206408351659,0.6830702344611287,0.25030973575524984
1746475957440763600,3.580763671875,-1.3264286362588404,0.6818044523090123,0.26127865434139963
1746475957450761000,3.590760986328125,-1.0709522384554147,0.6065650869295001,0.17464228115677832
1746475957460757800,3.6007578125,-0.7506190453380346,0.5069526200547814,0.075952847411111
1746475957470753800,3.61075390625,-0.47641456618905065,0.43485389078855513,-0.011059446413815021
1746475957480750800,3.620750732421875,-0.17820728016197682,0.42617315620481966,-0.0753222944226116
1746475957490746600,3.63074658203125,0.02141220586299896,0.4154030481263995,-0.0545526242468506
1746475957500744000,3.640743896484375,0.15191139391064643,0.3371455039694905,-0.05314246518798172
1746475957510739700,3.65073974609375,0.2838029130995273,0.23850392795354128,-0.007037862747535109
1746475957520736800,3.66073681640625,0.38911096126735206,0.2166211819693446,-0.03154854608252644
1746475957530732800,3.67073291015625,0.47213937308788295,0.1430748842433095,-0.1511124255526811
1746475957540729900,3.680729736328125,0.4842851534336805,0.016471534590423106,-0.2585409730058163
1746475957550726700,3.6907265625,0.39529169572889805,-0.09449293190389871,-0.38806832034662364
1746475957560723000,3.700722900390625,0.2683504924237728,-0.14079758696109054,-0.5149951298002153
1746475957570719700,3.7107197265625,0.15110124657154084,-0.1424187584221363,-0.6748674195874482
1746475957580715800,3.7207158203125,0.101911391466856,-0.126337392193079,-0.759327836972475
1746475957590712600,3.730712646484375,0.11635668092668056,-0.13922376177310944,-0.7715796349760145
1746475957600708600,3.74070849609375,0.14480068512260913,-0.16058716005831955,-0.660565045729652
1746475957610705700,3.75070556640625,0.18239070332646368,-0.15946926194429398,-0.5042371505510062
1746475957620701400,3.760701416015625,0.24760464151501654,-0.1260883858680725,-0.37841128807663915
1746475957630698800,3.77069873046875,0.28269992029368873,-0.0991051018744707,-0.29372414926365015
1746475957640694500,3.780694580078125,0.2919435494571924,-0.09275339476019144,-0.26372327101454135
1746475957650691600,3.790691650390625,0.25677403639852997,-0.09256780906021594,-0.2908743127904832
1746475957660688600,3.800688720703125,0.23818507126271724,-0.07155833877921104,-0.24100626616328955
1746475957670684700,3.8106845703125,0.15979308707118034,0.020968846009671686,0.2264742482680827
1746475957680681700,3.820681640625,0.1688257038325071,0.02729512642174959,-0.151994761345163
1746475957690677800,3.830677734375,0.08878653695583343,-0.06665449238568544,-0.5745226198501885
1746475957700674600,3.840674560546875,-0.04277180475592613,-0.23154636390060185,-0.6386664445891976
1746475957710670600,3.850670654296875,0.11748480817377567,-0.3666980539292097,-0.3078773969743401
1746475957720667600,3.860667724609375,0.029043723654747007,-0.2831315897092223,-0.17779928388297556
1746475957730663400,3.870663330078125,-0.13852525811493396,-0.2508034375563264,-0.2958659835979342
1746475957740660700,3.88066064453125,-0.26902386164069175,-0.3270347365826368,-0.3920322555415332
1746475957750656500,3.890656494140625,-0.3085352032959461,-0.42770343451201914,-0.37659152530357237
1746475957760653600,3.900653564453125,-0.2827981199711561,-0.481164098803699,-0.2631068926818669
1746475957770650600,3.910650634765625,-0.2597445766419172,-0.4486038914605975,-0.16486863676980137
1746475957780646700,3.920646728515625,-0.16773030981123446,-0.4160349162891507,-0.14523608086518944
1746475957790643700,3.930643798828125,-0.03985445600450039,-0.4416100870504975,-0.10044526443704963
1746475957800639700,3.9406396484375,0.050312137132883065,-0.5343903698176146,-0.0635352643866092
1746475957810636500,3.950636474609375,0.16171499504446982,-0.6211804722592235,-0.05884184587337076
1746475957820632600,3.960632568359375,0.2514157242357731,-0.6411325424417853,-0.05508154349178075
1746475957830629600,3.970629638671875,0.352269715604186,-0.6717793173789978,-0.030285175083205104
1746475957840625400,3.98062548828125,0.39706396609842776,-0.6937307446852325,-0.0015081395406275986
1746475957850622700,3.990622802734375,0.3559580487281084,-0.7129296584129333,0.06398753819875419
1746475957860618500,4.000618408203125,0.2181266180962324,-0.7066305582687258,0.12470248446762561
1746475957870615600,4.010615478515625,0.025901918497681618,-0.6369371365785599,0.056098684645071624
1746475957880612600,4.020612548828125,-0.02073825212419033,-0.522636219137907,-0.0871174346998334
1746475957890608600,4.030608642578125,0.007874678897857666,-0.4558221522763371,-0.25517704953067005
1746475957900605700,4.040605712890625,0.0750806676864624,-0.48229456413835287,-0.394959321969375
1746475957910601700,4.050601806640625,0.12865560600757597,-0.48637189657986163,-0.3917977891985327
1746475957920598500,4.0605986328125,0.1594149014085531,-0.4926034844458103,-0.35774347084015606
1746475957930594600,4.070594482421875,0.07654781762957573,-0.49382455067336556,-0.3672070263646543
1746475957940591600,4.080591552734375,-0.0962730933189392,-0.48453415975868697,-0.3930908977489918
1746475957950587400,4.09058740234375,-0.2733691973686218,-0.5002221427559852,-0.4529777226306498
1746475957960584700,4.100584716796875,-0.3856932617783546,-0.5169961674243212,-0.5480827950835228
1746475957970581500,4.11058154296875,-0.44375732821226116,-0.5267834019452333,-0.5772288100689649
1746475957980577800,4.120577880859375,-0.43385786548852917,-0.5212812973976135,-0.48787492155395445
1746475957990574600,4.13057470703125,-0.3962771996349096,-0.5286790064334869,-0.40568880577646194
1746475958000570600,4.140570556640625,-0.346340910077095,-0.5513993722856044,-0.329810484906286
1746475958010567700,4.150567626953125,-0.315917130240798,-0.6022939854815602,-0.28740181437432766
1746475958020563700,4.160563720703125,-0.27342531147003174,-0.643975364652276,-0.30389227286092935
1746475958030560500,4.170560546875,-0.18617548256218433,-0.7625143580541014,-0.3438930054683238
1746475958040556500,4.180556640625,-0.0795072519570589,-0.9786284672841429,-0.4299514326345175
1746475958050553600,4.1905537109375,0.05499240390360355,-1.1165732951626182,-0.45941908078975974
1746475958060549400,4.20054931640625,0.09355039035677909,-1.0164382657185196,-0.4368571203697473
1746475958070546700,4.210546630859375,-0.16235446199178694,-0.7512488676741719,-0.3843303028620779
1746475958080543500,4.22054345703125,-0.6877361804455518,-0.5139543155103922,-0.30363376805521547
1746475958090539800,4.230539794921875,-1.2925953402400017,-0.4534031084358692,-0.24631781657487153
1746475958100536600,4.24053662109375,-1.8243705591231583,-0.48435558832138775,-0.2869767208300531
1746475958110532600,4.25053271484375,-2.125150325986743,-0.4407704213559627,-0.38639271528460084
1746475958120529700,4.26052978515625,-2.1622826635509727,-0.3105529728591442,-0.47854332184605297
1746475958130525700,4.270525634765625,-1.99426944514513,-0.13908026164919138,-0.5823354855582118
1746475958140522500,4.2805224609375,-1.7045102539896964,0.006036357554793357,-0.624964886168763
1746475958150518500,4.2905185546875,-1.5022937372088432,0.1071224041134119,-0.6418981930520385
1746475958160515600,4.300515625,-1.4835294155061245,0.17016016730666159,-0.6676146719802171
1746475958170511400,4.310511474609375,-1.4958593202471733,0.18427257155030966,-0.6626276773478835
1746475958180508700,4.3205087890625,-1.4631746097415685,0.20803367862701413,-0.6234505360830574
1746475958190505500,4.33050537109375,-1.3013754435449838,0.28988252527415753,-0.6010944004334509
1746475958200501800,4.340501708984375,-0.939056627613306,0.39017186849713326,-0.6350741191856563
1746475958210498600,4.35049853515625,-0.40643619007766246,0.4723696747124195,-0.6598739947255701
1746475958220494600,4.36049462890625,0.16716040096879003,0.5181269250199199,-0.6098012923717498
1746475958230491600,4.37049169921875,0.6793523829817771,0.5946154136776923,-0.4139273495506495
1746475958240487700,4.38048779296875,1.0696458320319653,0.7064537403970956,-0.1499621595390141
1746475958250484700,4.390484619140625,1.2846744841128588,0.9053630323261022,0.12870076032355426
1746475958260480800,4.400480712890625,1.316890408062935,1.1180401528447865,0.38397272159606216
1746475958270477600,4.4104775390625,1.229051965612173,1.2896569487005471,0.6062993486654012
1746475958280473600,4.4204736328125,1.0812567748486994,1.4507444594964385,0.6843985604554415
1746475958290470700,4.430470703125,0.9075327775806188,1.5682885966420173,0.6562896334327757
1746475958300467500,4.440467529296875,0.7582792047023773,1.6898647657826542,0.5822081328514963
1746475958310463700,4.450463623046875,0.662884647783637,1.7693644189551472,0.4946118285935372
1746475958320460500,4.46046044921875,0.6018377661466598,1.7556071117594838,0.48320393406823275
1746475958330456600,4.47045654296875,0.6143406893670559,1.6592223747596144,0.5143413420666009
1746475958340453600,4.48045361328125,0.6168231538325548,1.5879077816084026,0.4869631404712796
1746475958350449700,4.49044970703125,0.48602176796793933,1.5507479715153574,0.3416199459698051
1746475958360446700,4.50044677734375,0.2184235552161932,1.543952904547751,0.224421261261031
1746475958370442800,4.51044287109375,-0.21747078453600405,1.536294791010022,0.2113608502883464
1746475958380439600,4.520439453125,-0.6239391233175993,1.4998668023228645,0.25571780534386634
1746475958390435600,4.530435546875,-0.8449877663403749,1.3650357225507497,0.3269474236253649
1746475958400432600,4.5404326171875,-0.7327057875066996,1.1646934752091764,0.4486876972865313
1746475958410429400,4.550429443359375,-0.3064928838133812,0.9803305950269102,0.545053145064041
1746475958420425700,4.56042578125,0.19220950202941894,0.8129138812094926,0.6052487436339259
1746475958430422500,4.570422607421875,0.5824585274159908,0.6633560646876693,0.6236249428018927
1746475958440418600,4.58041845703125,0.7968097186267376,0.5108242007911205,0.5111148543007672
1746475958450415600,4.59041552734375,0.8712795609384775,0.37354192847460505,0.3589374298650771
1746475958460411600,4.60041162109375,0.750340228396654,0.3146846658363938,0.29313699702546
1746475958470408700,4.61040869140625,0.49708267568647857,0.28842326637655497,0.3136416595894843
1746475958480404700,4.62040478515625,0.23311726647913456,0.28893618433475493,0.33153109815381465
1746475958490401500,4.630401611328125,0.13480536080896854,0.2861801636248827,0.292106631064415
1746475958500397600,4.6403974609375,0.2080009454011917,0.25814620153456924,0.2882251865211874
1746475958510394600,4.65039453125,0.3560562484055757,0.22098200752735137,0.31487061686255036
1746475958520391700,4.6603916015625,0.465068996310234,0.1801853022366762,0.346891968088597
1746475958530387700,4.6703876953125,0.6182809514254332,0.17972528350949285,0.2977715249583125
1746475958540384500,4.680384521484375,0.6623749446958304,0.14570347918123006,0.2261559760991484
1746475958550380800,4.690380859375,0.5913298161357641,0.08814122478961944,0.147555536788702
1746475958560377600,4.700377685546875,0.4143295736759901,0.050582478506863114,0.06290631883330643
1746475958570373600,4.71037353515625,0.14687281522154808,0.029516894124448297,-0.07753083731755614
1746475958580370700,4.72037060546875,-0.18061726391315458,0.0023892332240939137,-0.14607253168933093
1746475958590366500,4.730366455078125,-0.49939270619452,-0.04787000467777252,-0.11780804877877235
1746475958600363300,4.74036328125,-0.7606663920998573,-0.1252180327743292,-0.04857084642350673
1746475958610360300,4.7503603515625,-0.8673176715701818,-0.20097674585282801,0.07943718239553273
1746475958620356400,4.7603564453125,-0.8226941014677286,-0.25850714380145073,0.22831724578626453
1746475958630353400,4.770353515625,-0.6819663648724555,-0.266468331938982,0.3019172464609146
1746475958640349400,4.780349365234375,-0.4869143328934908,-0.25645459518581626,0.28108364420346915
1746475958650346200,4.79034619140625,-0.2735170814067125,-0.2511293085098266,0.22251352794356644
1746475958660342500,4.800342529296875,-0.1092050556063652,-0.23952070378065107,0.18132431620396672
1746475958670339300,4.81033935546875,0.01916004302203655,-0.22017156792730092,0.19852387280799447
1746475958680335400,4.82033544921875,0.07799801643788815,-0.17562077080011368,0.2526540338590741
1746475958690332400,4.83033251953125,0.0759825849622488,-0.18525807545632123,0.3014712562590837
1746475958700328400,4.840328369140625,0.08405366321504115,-0.21801409763246773,0.3348633843816817
1746475958710325200,4.8503251953125,0.15362287400364874,-0.22348259217143057,0.30974998591318725
1746475958720322300,4.860322265625,0.27022914577722545,-0.2152270972624421,0.25636801288090644
1746475958730318300,4.870318359375,0.39140228707492347,-0.21232728416770696,0.24697072752565144
1746475958740315400,4.8803154296875,0.4908896662652492,-0.2580281281128526,0.22748028350546956
1746475958750311400,4.8903115234375,0.5496697720140219,-0.2910787493214011,0.20173684350512922
1746475958760308200,4.90030810546875,0.5859989765018224,-0.34084874240159985,0.2550626293707639
1746475958770304500,4.910304443359375,0.5658563521832227,-0.3837318985775113,0.3476573995031416
1746475958780301300,4.92030126953125,0.43443011241853235,-0.4605179088771343,0.45108116829432543
1746475958790297300,4.93029736328125,0.30222353593111034,-0.5512982499986887,0.5116171047344803
1746475958800294400,4.94029443359375,0.24092998605668545,-0.6375906320512295,0.5301122541069984
1746475958810290400,4.95029052734375,0.26219547692537304,-0.7073813766360283,0.5287762562628835
1746475958820287200,4.960287353515625,0.3422363973677158,-0.803079008154571,0.5248229155272245
1746475958830284300,4.9702841796875,0.4723819496721029,-0.8787275388568639,0.5072857244666665
1746475958840280300,4.9802802734375,0.6566285099983215,-0.955589829263091,0.4986287360846996
1746475958850277400,4.99027734375,0.7773544920504093,-1.0236530194029212,0.5476368779469281
1746475958860273400,5.0002734375,0.8528507548004388,-1.053347900442779,0.6608057956829667
1746475958870270200,5.010270263671875,0.7719096706479788,-1.1038365631863474,0.7461177883960306
1746475958880266500,5.0202666015625,0.5869219365656375,-1.0716077797546981,0.8697014979667961
1746475958890263300,5.03026318359375,0.3629442543536424,-0.9737202369764446,0.9334935135934501
1746475958900259300,5.04025927734375,0.08149170377254486,-0.8760936832219361,0.9637190674439072
1746475958910256400,5.05025634765625,-0.20211597901582717,-0.8161372271701693,0.9012752515558153
1746475958920252400,5.06025244140625,-0.42249183734357354,-0.7783958177968859,0.747684087864682
1746475958930249500,5.07024951171875,-0.5482318481653928,-0.7275383217409253,0.6183509479217231
1746475958940245500,5.08024560546875,-0.6042822366893291,-0.6719400608986615,0.5432825551949441
1746475958950242300,5.0902421875,-0.5773837083697319,-0.5943734216153621,0.4973777861755341
1746475958960239400,5.1002392578125,-0.5554325733244418,-0.5508233259633183,0.5133501390721649
1746475958970235400,5.1102353515625,-0.5496697720140219,-0.5559907917290926,0.5589057293277233
1746475958980232200,5.120232177734375,-0.5035615163117647,-0.5935162202641368,0.5565722448788583
1746475958990228500,5.130228515625,-0.30456629966497417,-0.6426397321343421,0.47603477309122677
1746475959000225300,5.140225341796875,-0.01903495533764362,-0.6139475983962416,0.3134518361058086
1746475959010221300,5.15022119140625,0.09080606008470057,-0.4411418850168585,0.10970730604007839
1746475959020218400,5.16021826171875,-0.0950274771720171,-0.2709557064861059,-0.09676087683588266
1746475959030214400,5.17021435546875,-0.5160685311853885,-0.19679098460078237,-0.24678236534669995
1746475959040211500,5.18021142578125,-0.9320523018091916,-0.1741749559059739,-0.347403132481128
1746475959050207500,5.19020751953125,-1.0926058518588542,-0.09570610708594321,-0.41236916032321747
1746475959060204300,5.200204345703125,-0.933664997702837,0.053126025509834286,-0.46937995484452694
1746475959070201300,5.210201416015625,-0.6548498098880052,0.25841975777894255,-0.5133194882055744
1746475959080197400,5.220197265625,-0.3962427128434181,0.48438481441587206,-0.48983332561273124
1746475959090194200,5.230194091796875,-0.3157768449872732,0.6336427712082863,-0.4191176116701215
1746475959100190500,5.2401904296875,-0.4792565116167068,0.6970701182410121,-0.3246449188366532
1746475959110187300,5.250187255859375,-0.8359136485248804,0.732298375749588,-0.1860903615619987
1746475959120183300,5.260183349609375,-1.158181609097123,0.8205512442201376,0.0015720716223120688
1746475959130180400,5.270180419921875,-1.3060855209320783,0.9395824050530791,0.17069588161855936
1746475959140176400,5.28017626953125,-1.2611135757833718,1.0168813333109021,0.15721008484065532
1746475959150173400,5.29017333984375,-1.107474335166812,1.0281342564702034,0.044903117696195836
1746475959160169500,5.30016943359375,-0.9321452407896518,1.0178656681731342,-0.11477540308460593
1746475959170166300,5.310166259765625,-0.6495832676619291,1.0115729977697134,-0.2652771493930369
1746475959180163300,5.320163330078125,-0.3351888169437647,1.039281965689361,-0.35402474257797
1746475959190159400,5.330159423828125,-0.06828501619696617,1.0861895550757645,-0.395893680210039
1746475959200156400,5.340156494140625,0.1275087740600109,1.148155305123329,-0.3842144944626838
1746475959210152400,5.35015234375,0.2802846758455038,1.283569737741351,-0.4353127404719591
1746475959220149200,5.360149169921875,0.4511024302780628,1.4368904139280319,-0.5485138799771666
1746475959230145500,5.3701455078125,0.7260305475264788,1.501663622611761,-0.7007508525803685
1746475959240142300,5.380142333984375,1.0757657762169837,1.5233327258452771,-0.8464142189469188
1746475959250138400,5.390138427734375,1.4503583827883004,1.4700927185669541,-1.02911946811527
1746475959260135400,5.400135498046875,1.7778028692156076,1.3629486871436238,-1.187607171676308
1746475959270131500,5.41013134765625,1.972767807433009,1.208788637523353,-1.260728521988541
1746475959280128300,5.420128173828125,2.0065975963205096,1.0339058256089686,-1.2437217114776373
1746475959290125300,5.430125244140625,1.813593144521117,0.8235694229975342,-1.21507020201087
1746475959300121300,5.440121337890625,1.366885149809718,0.6824257990777493,-1.1851771680504084
1746475959310118400,5.450118408203125,0.7605132473647594,0.6610761370569467,-1.1919180936779825
1746475959320114400,5.460114501953125,0.18104221132695675,0.726397335012257,-1.100854917027056
1746475959330111200,5.470111328125,-0.30975685404539105,0.7830442281246185,-0.8590173146061598
1746475959340107500,5.480107421875,-0.7471259425252675,0.7789043518409132,-0.4596581137100234
1746475959350104300,5.490104248046875,-1.1416197658747433,0.7212012276738882,-0.030067294548824428
1746475959360100400,5.500100341796875,-1.4873837528467178,0.6672638857811689,0.26221655624601986
1746475959370097400,5.510097412109375,-1.6205565440177916,0.594313800382614,0.4074478878708556
1746475959380093400,5.520093505859375,-1.4975976883471012,0.4966919228032231,0.42463725187443196
1746475959390090200,5.53009033203125,-1.1599334212005137,0.33806057298779485,0.34793249011747535
1746475959400086500,5.54008642578125,-0.7417898421943188,0.13707505930662153,0.27374636011794207
1746475959410083300,5.550083251953125,-0.3641360944867134,-0.04141834432035684,0.24189262054376304
1746475959420080400,5.560080322265625,-0.0737473732560873,-0.1421811502739787,0.204774822961539
1746475959430076400,5.570076416015625,0.11140811860859394,-0.17356150018274782,0.15618417585901914
1746475959440073200,5.5800732421875,0.18671324270069597,-0.18138737150281667,0.09156783823743463
1746475959450069500,5.590069580078125,0.15515958205163477,-0.17909750699996949,-0.014240779863670467
1746475959460066300,5.60006640625,0.06286123758256434,-0.14012772487550973,-0.13043196803033352
1746475959470062300,5.610062255859375,-0.033417116433382035,-0.10397241564989089,-0.23433029553070664
1746475959480059400,5.620059326171875,-0.07908055097758769,-0.06468406909555197,-0.3304560162682086
1746475959490055400,5.630055419921875,-0.07485913389027118,0.014184300436079501,-0.4194982815507799
1746475959500052500,5.640052490234375,-0.016876315999031066,0.07888561292737722,-0.47857284020148216
1746475959510048500,5.650048583984375,0.07726502598822116,0.0877291368573904,-0.5176571886163205
1746475959520045300,5.66004541015625,0.14771920291781424,0.04532324280440807,-0.5385633446533232
1746475959530042400,5.67004248046875,0.16266835024654863,0.00840951642692089,-0.5284846529051661
1746475959540038400,5.680038330078125,0.1639250723093748,-0.015297814635932445,-0.46530521621890364
1746475959550035200,5.69003515625,0.14099486309885978,-0.04573211586624384,-0.42367264462597665
1746475959560031500,5.700031494140625,0.12935118705630302,-0.03053893064856529,-0.4764452535882592
1746475959570028300,5.7100283203125,0.14324936402738092,-0.055449792282283306,-0.6077539313878864
1746475959580024300,5.7200244140625,0.20557576408088207,-0.1106841882482171,-0.7340597593989223
1746475959590022100,5.730022216796875,0.26569500947892666,-0.1555316302344203,-0.7973003516878933
1746475959600018000,5.740017822265625,0.2855184848457575,-0.21791414438933132,-0.7961101920552551
1746475959610015000,5.750014892578125,0.18370646210014818,-0.26166473104953764,-0.7637638466585427
1746475959620011000,5.760010986328125,0.05489303518235683,-0.28874007724076506,-0.6586000292669981
1746475959630008000,5.770008056640625,-0.06124737264513969,-0.3088178196296096,-0.5366081919975578
1746475959640003800,5.78000390625,-0.09895897140204905,-0.3206786455541849,-0.42696715612672265
1746475959650001200,5.790001220703125,-0.11944354102611542,-0.34138124184310437,-0.35277759206108744
1746475959659998000,5.799998046875,-0.06564122368991375,-0.3746893449440598,-0.27525902970321475
1746475959669994200,5.809994140625,0.01576981606185436,-0.3895183730244636,-0.17702420785725115
1746475959679991000,5.819990966796875,0.07583937709927559,-0.40941491362750526,-0.055701282825320955
1746475959689987000,5.829987060546875,0.06328910760581492,-0.4224383535906672,0.08027531372010707
1746475959699984100,5.839984130859375,0.05288987866640091,-0.47346828360408544,0.1379099757608026
1746475959709980000,5.84997998046875,0.044971945148706435,-0.5581921011656522,0.13493052155859767
1746475959719977000,5.85997705078125,0.03871113118827343,-0.6409831970989703,0.1299471071228385
1746475959729973000,5.869972900390625,-0.05494564215242862,-0.7256093995049595,0.11795125664174556
1746475959739970000,5.879969970703125,-0.1479483354985714,-0.756767046573758,0.05733714039884507
1746475959749965800,5.8899658203125,-0.2027250508248806,-0.7585238271132111,0.009338029448688029
1746475959759963100,5.899963134765625,-0.2019499747991562,-0.738548083794117,-0.017326105593144892
1746475959769960000,5.9099599609375,-0.16870236971378325,-0.7155173368185758,-0.038246728546917436
1746475959779956200,5.919956298828125,-0.08892214603424071,-0.7359212424218654,-0.03972827234156429
1746475959789953000,5.929953125,-0.015524316868185997,-0.769896869520843,-0.0652007864460349
1746475959799949000,5.939948974609375,0.03464402787983417,-0.8003130505725741,-0.11735723627135157
1746475959809946000,5.949946044921875,0.022704583761096,-0.8330407234370708,-0.20803777028024195
1746475959819942000,5.95994189453125,-0.04665887532234192,-0.8330649810954928,-0.37315249076560136
1746475959829939200,5.969939208984375,-0.09638415247797966,-0.7931465199440717,-0.5371167991068214
1746475959839935000,5.97993505859375,-0.13893559248149395,-0.7356263511285185,-0.6760864399883896
1746475959849932000,5.98993212890625,-0.16345803931951522,-0.6949576561316847,-0.753093034236133
1746475959859927800,5.999927734375,-0.2075783360749483,-0.6590224193975329,-0.746696684262529
1746475959869925000,6.009925048828125,-0.2185363679409027,-0.6073080142512917,-0.7349325967106968
1746475959879921000,6.0199208984375,-0.20402561202943323,-0.5412108634874224,-0.6914145036321133
1746475959889918200,6.029918212890625,-0.1929518448293209,-0.5120847222462296,-0.5847027992114424
1746475959899915000,6.0399150390625,-0.20116613094508648,-0.4924252052694559,-0.4850169017743319
1746475959909911000,6.0499111328125,-0.22913959501981734,-0.49272477273792026,-0.42395336126349864
1746475959919908000,6.059908203125,-0.2124661081165075,-0.49853375127762556,-0.395711382445693
1746475959929903900,6.06990380859375,-0.14341010754704475,-0.49389673912674187,-0.4310056909278035
1746475959939901200,6.079901123046875,-0.0032476036190986633,-0.48499973144382236,-0.4725852171592414
1746475959949897000,6.08989697265625,0.17654080825448035,-0.5533344320014119,-0.48791086965017016
1746475959959894000,6.09989404296875,0.29990532211661336,-0.6528031064912676,-0.5044775351781398
1746475959969890000,6.10989013671875,0.38028468073308463,-0.6731015058934688,-0.5677084828559309
1746475959979887000,6.11988720703125,0.37096214111447334,-0.5342079989880323,-0.6700842769641429
1746475959989883000,6.1298828125,0.2019792008936405,-0.34184915161579843,-0.6584177315026521
1746475959999880200,6.139880126953125,-0.12401041055023669,-0.23581483500003814,-0.5490785281226038
1746475960009876000,6.1498759765625,-0.5610737940818071,-0.2743324894428253,-0.3999712318472564
1746475960019873000,6.159873046875,-0.8709615810304879,-0.305113119892776,-0.31996618643589314
1746475960029870000,6.1698701171875,-0.9204600636929273,-0.28270927264392376,-0.3653608870413154
1746475960039865900,6.179865966796875,-0.7541238385885953,-0.155748487855494,-0.5218291405387222
1746475960049863200,6.18986328125,-0.5885439848095179,0.027175007173418995,-0.6727743197657168
1746475960059859000,6.19985888671875,-0.7085258704960345,0.19509353303313254,-0.7338888598114252
1746475960069856000,6.20985595703125,-1.0531167220354078,0.31504677714705465,-0.7021749670993537
1746475960079852000,6.21985205078125,-1.4866718051850796,0.37639614886194467,-0.6062636928301304
1746475960089849000,6.22984912109375,-1.8356483244627713,0.436845941388607,-0.45760538243129845
1746475960099844900,6.239844970703125,-2.060651842591166,0.5006444598212838,-0.348065103521198
1746475960109842200,6.24984228515625,-2.0278408753573895,0.5724632031023502,-0.3728305653348565
1746475960119838000,6.259837890625,-1.6048410884916782,0.663246466833353,-0.49293870774954557
1746475960129835000,6.2698349609375,-0.9140425978660583,0.7170224806845188,-0.5585727710463106
1746475960139831000,6.2798310546875,-0.22437574161887167,0.7039636771470308,-0.5252445019401609
1746475960149827800,6.289827880859375,0.3198860338717699,0.66924804533571,-0.4701907232381403
1746475960159825200,6.2998251953125,0.7184604045331477,0.6651119684442878,-0.4854794047195464
1746475960169821000,6.309821044921875,1.1086965704381466,0.7028440254673362,-0.45062429137229915
1746475960179818000,6.31981787109375,1.4479267717272042,0.768652714678645,-0.30124585000537335
1746475960189814000,6.32981396484375,1.6515204220801591,0.8506018068298697,-0.08440583765357733
1746475960199811000,6.33981103515625,1.6207874301642178,0.944276700349152,0.11990721301510929
1746475960209806800,6.349806884765625,1.3565075481802225,1.1380515519991516,0.20748240141980348
1746475960219804200,6.35980419921875,0.9502911383330821,1.3420090672284364,0.18556261136084795
1746475960229800000,6.369800048828125,0.5087497326046229,1.5027344667136668,0.1574962083056569
1746475960239797000,6.379796875,0.17951310206353663,1.5665072661831974,0.2012076319992542
1746475960249793000,6.38979296875,-0.027622166419029235,1.5536939618393777,0.3417286670412868
1746475960259789800,6.399789794921875,-0.03964695073366165,1.519957404193282,0.49221835758574306
1746475960269787100,6.409787109375,0.0803308432996273,1.5011375529110431,0.6331054494611918
1746475960279783000,6.419782958984375,0.28504034593999383,1.465652105771005,0.6895416224323213
1746475960289780000,6.429780029296875,0.45101709008216856,1.3831740213096142,0.6915951208960265
1746475960299776000,6.43977587890625,0.4931330612778663,1.226980127774179,0.6651415598649532
1746475960309773000,6.44977294921875,0.42518531421124933,1.033423887310922,0.6355250047583133
1746475960319768800,6.459768798828125,0.3192278622239828,0.8446297466829419,0.5607879628777503
1746475960329766100,6.46976611328125,0.2953384525924921,0.682280837649107,0.46029432925432917
1746475960339762000,6.479761962890625,0.3580442073523998,0.547806316229701,0.3387463632948696
1746475960349759000,6.489759033203125,0.37169688512980936,0.4525432767361402,0.1472944016344845
1746475960359755000,6.499755126953125,0.3180681707948446,0.42313744177073237,-0.039960692857950925
1746475960369751800,6.509751708984375,0.16725918516814708,0.4218427257850766,-0.16974508369974792
1746475960379748000,6.519748046875,-0.062145198267698286,0.40667993570566174,-0.2022924315612763
1746475960389745000,6.529744873046875,-0.362745516911149,0.3695712712779641,-0.12324863239750265
1746475960399741000,6.539740966796875,-0.6560632773309946,0.27295097195655105,-0.0533738627910614
1746475960409738000,6.549738037109375,-0.809324916806817,0.2249646474227309,-0.10855813600495456
1746475960419735000,6.559735107421875,-0.8331085279762744,0.201754452227056,-0.1446877262674272
1746475960429730800,6.569730712890625,-0.8176479239940643,0.20910919890403745,-0.143184920489043
1746475960439728000,6.57972802734375,-0.8119383141756057,0.20983371378630397,-0.10751944060698151
1746475960449724000,6.589723876953125,-0.8161538860440254,0.15815759482383726,-0.03938318523094058
1746475960459721200,6.59972119140625,-0.7756435964792966,0.14407529345750808,-0.011466565909981727
1746475960469717000,6.609717041015625,-0.7107634202897548,0.09745558110177516,0.035022944194823505
1746475960479713800,6.6197138671875,-0.6333002413809299,0.09164075734317302,0.10437018279582261
1746475960489710000,6.6297099609375,-0.5629138689905405,0.12694997113347053,0.18049487964250147
1746475960499707000,6.639706787109375,-0.45622751820683477,0.15531535713523625,0.2211969654522836
1746475960509703000,6.649702880859375,-0.2831207760542631,0.17868951072096823,0.21763576583936808
1746475960519700000,6.659699951171875,-0.0941255598962307,0.19856734662353992,0.18593378276079892
1746475960529696000,6.669696044921875,0.0697603494465351,0.19218378306627273,0.12590594197325408
1746475960539693000,6.679693115234375,0.2639887900829315,0.15061258627176283,0.0715067547224462
1746475960549690000,6.689690185546875,0.4823772739857435,0.11149784271866083,0.05725757235661149
1746475960559686000,6.699685791015625,0.6266109728753566,0.06759703393280506,0.14703494698069988
1746475960569683200,6.70968310546875,0.6591372779488563,0.006500175674259662,0.3107115244217217
1746475960579679000,6.719678955078125,0.632168022480607,-0.02023585556000471,0.4158187893204391
1746475960589675300,6.72967529296875,0.5435235243439674,-0.00866699831932783,0.421722606536746
1746475960599671000,6.739671142578125,0.4471171600341797,-0.006437631832063198,0.35476533181220293
1746475960609668400,6.74966845703125,0.3700555476635694,-0.019622107575833797,0.25759075960889455
1746475960619664100,6.7596640625,0.2944312746196985,-0.02385346153527498,0.1646846585050225
1746475960629661400,6.769661376953125,0.27297055343985555,-0.04320698130279779,0.13187719840258358
1746475960639657200,6.7796572265625,0.2879261305093765,-0.06504734944999217,0.1477424376629293
1746475960649654300,6.789654296875,0.26455460727214813,-0.0924696093827486,0.18123729550763965
1746475960659650300,6.799650390625,0.22176234425008295,-0.14347615852057932,0.22531243794709443
1746475960669647000,6.809647216796875,0.15497662670016288,-0.17819062128812074,0.1767658491820097
1746475960679644200,6.81964404296875,0.13001754201054572,-0.19862170715928076,0.06767462921366095
1746475960689640200,6.82964013671875,0.11441139207780361,-0.2115147987410426,-0.08824746164306997
1746475960699637200,6.83963720703125,0.15674246732890604,-0.20774317124783992,-0.17705460299551487
1746475960709633000,6.849633056640625,0.23687165057659149,-0.2436287236213684,-0.203581229262799
1746475960719630300,6.85963037109375,0.29948680444359776,-0.3155184863120317,-0.2042716957449913
1746475960729626000,6.869626220703125,0.32196634727716444,-0.388204660077393,-0.21423048744052647
1746475960739623400,6.87962353515625,0.356503407651186,-0.4544216378286481,-0.15003931642845272
1746475960749619200,6.889619140625,0.3649883274018764,-0.46490416113734245,-0.036562574852257966
1746475960759616300,6.8996162109375,0.39274610289931294,-0.4471837955296039,0.06778159671947359
1746475960769612300,6.9096123046875,0.3421311834275722,-0.44150779571980237,0.2000179838232696
1746475960779609000,6.919609130859375,0.2504126846730709,-0.4551443991452455,0.3201075676679611
1746475960789605000,6.929605224609375,0.2035176625072956,-0.42644378983974457,0.37512642118707296
1746475960799602200,6.939602294921875,0.1512947233170271,-0.4505807444915175,0.4790471066497266
1746475960809599200,6.94959912109375,0.12152093182206153,-0.5181739790320397,0.5602488875649869
1746475960819595300,6.95959521484375,0.13189151918888092,-0.5245084427505732,0.6200749952353537
1746475960829592300,6.96959228515625,0.2083838072389364,-0.5039826643332839,0.6756229871951043
1746475960839588000,6.979588134765625,0.3213835789531469,-0.48878772554993627,0.730141343846172
1746475960849585400,6.98958544921875,0.40095980449318885,-0.4918108727633953,0.7186328384906053
1746475960859581200,6.999581298828125,0.4113865059614181,-0.5250616927191615,0.6554987753160297
1746475960869578200,7.009578125,0.3504676346182823,-0.5478396339774132,0.6065934362411499
1746475960879574300,7.01957421875,0.31436639366745944,-0.5606164057031273,0.5613115483604372
1746475960889571000,7.029571044921875,0.28487901789844033,-0.5701785992965102,0.5452756287083029
1746475960899567000,7.039567138671875,0.3048112143367529,-0.5895502392426133,0.5455687664359807
1746475960909564200,7.049564208984375,0.35080841087996956,-0.6357876742824912,0.5475698771253228
1746475960919560200,7.059560302734375,0.3357698317021131,-0.705026337942481,0.5359938594914972
1746475960929557200,7.06955712890625,0.2625029354393482,-0.7766834609210491,0.4903169809438288
1746475960939553300,7.07955322265625,0.18197393921911714,-0.7716875523298978,0.3342639571838081
1746475960949550000,7.089550048828125,0.1189040273219347,-0.7806015111476182,0.17097133755907415
1746475960959547400,7.09954736328125,0.09394494263231754,-0.7686319641515612,0.11345555265769362
1746475960969543200,7.109543212890625,0.06079436818063259,-0.752578362712264,0.06318403979614377
1746475960979540200,7.119540283203125,0.09267302300035953,-0.7943851218283176,0.08121683235391974
1746475960989536300,7.129536376953125,0.1282405954658985,-0.8839064027994871,0.09473828496709466
1746475960999533000,7.139532958984375,0.27137130154967304,-1.0884238899990915,0.093617245047912
1746475961009529000,7.149529052734375,0.607596475803852,-1.363819040237367,0.03697546650208532
1746475961019526100,7.159526123046875,0.9494307221114635,-1.350788293750584,-0.14728373410999773
1746475961029522200,7.169522216796875,0.9919903454214334,-0.8217001219943165,-0.3829893365819007
1746475961039519200,7.179519287109375,0.3844973299920559,-0.09881108736395836,-0.5245065430544317
1746475961049515300,7.189515380859375,-0.7983119398832321,0.36442397151738404,-0.4468986949779093
1746475961059512000,7.199511962890625,-1.977827428910136,0.5054276024445891,-0.09535444410406052
1746475961069508400,7.20950830078125,-2.919110500401258,0.616610095603764,0.244835688258335
1746475961079505200,7.219505126953125,-3.419235028001666,0.7608268433585762,0.3799908123530447
1746475961089501200,7.229501220703125,-3.2393057463526724,0.945349298016727,0.3951542600195855
1746475961099498200,7.239498291015625,-2.4824603738456963,1.07263975315094,0.3340419119309634
1746475961109495000,7.2494951171875,-1.5900737274706362,0.9634428808510302,0.24271701560392975
1746475961119491000,7.259490966796875,-0.8688321677863597,0.743818425412476,0.31409561390206214
1746475961129488100,7.269488037109375,-0.4502268164873123,0.5924772326052189,0.4267820088181644
1746475961139484200,7.279484130859375,-0.2056435686200857,0.5593479932025075,0.4949197254989296
1746475961149481200,7.289481201171875,-0.04101531647741794,0.6128375913277267,0.5176905063640326
1746475961159477200,7.299477294921875,0.04233282881677151,0.6743702106550336,0.4631246573094278
1746475961169474000,7.30947412109375,0.07177052022516726,0.711796270468831,0.29982750764004884
1746475961179470300,7.31947021484375,0.07745382655858993,0.7254813892111182,0.102959073888883
1746475961189467100,7.329467041015625,0.16831074004769325,0.7660340566128492,-0.09787263747006654
1746475961199463200,7.339463134765625,0.3675520404100418,0.8674804609164595,-0.2707708514384925
1746475961209460200,7.349460205078125,0.5745704045146703,1.0052399953559041,-0.3624705724272877
1746475961219456300,7.359456298828125,0.6929775882303715,1.1861007126361132,-0.38618214127384126
1746475961229453300,7.369453369140625,0.7515928588062525,1.3500301688596605,-0.3686714728940278
1746475961239450000,7.3794501953125,0.7471838101923465,1.4519915369480847,-0.3375572996407747
1746475961249446100,7.389446044921875,0.7471499079227447,1.4896797548294067,-0.3474810930881649
1746475961259443200,7.399443115234375,0.7662047370046376,1.4704215121299027,-0.40995128552652893
1746475961269439200,7.409439208984375,0.8353776419520378,1.4152175113022327,-0.4625288833733648
1746475961279436000,7.41943603515625,0.9521037407130002,1.32624334281981,-0.47209012711867687
1746475961289432300,7.429432373046875,1.086876952818036,1.2174746328040957,-0.5217946537472308
1746475961299429000,7.43942919921875,1.1701152079969643,1.1393500673770904,-0.575488688403368
1746475961309425200,7.449425048828125,1.064888408371806,1.0621575221031903,-0.5930214224845171
1746475961319422200,7.459422119140625,0.701445556846261,1.0118947770699858,-0.6392086617071181
1746475961329418200,7.469418212890625,0.19636545266509056,0.9851961552366614,-0.6878045695066451
1746475961339415300,7.479415283203125,-0.2570259653329849,0.9698132926657795,-0.6219356745406985
1746475961349411300,7.489411376953125,-0.5596861391156912,0.9740519531488419,-0.4341168817508965
1746475961359408000,7.499408203125,-0.7827046209067106,0.9361685049563646,-0.19040442536883054
1746475961369404400,7.509404296875,-0.9763993930578231,0.7946475721567868,0.0083481416285038
1746475961379401200,7.519401123046875,-1.104934003034234,0.669637921436131,0.10162994417697191
1746475961389398300,7.529398193359375,-1.1476578769952057,0.56905076431036,0.08477401337884366
1746475961399394300,7.539394287109375,-1.0509843861818313,0.430629843352735,0.019770430005341767
1746475961409391000,7.54939111328125,-0.9310422479838132,0.22289427088946104,-0.04160794860832393
1746475961419387100,7.55938720703125,-0.8126789034098386,0.049399990724027155,-0.06533493421971798
1746475961429384200,7.56938427734375,-0.753106185978651,-0.04887333650141954,-0.0376942822959274
1746475961439380200,7.579380126953125,-0.734068308031559,-0.10319558605849742,-0.05888115497045219
1746475961449377300,7.589377197265625,-0.6638344958543777,-0.10405571001917123,-0.11963036883510648
1746475961459373300,7.599373291015625,-0.5768319197058678,-0.07917348995804786,-0.1998646929576993
1746475961469370000,7.6093701171875,-0.5021089794158935,-0.09673106621950864,-0.17612075621150433
1746475961479366400,7.619366455078125,-0.4249743018090725,-0.10673282027393578,-0.08979673691168427
1746475961489363200,7.62936328125,-0.326129896697402,-0.021733692902326584,0.12145984928458928
1746475961499359200,7.639359130859375,-0.17987433659136295,0.06984831999093294,0.29250410594940185
1746475961509356300,7.649356201171875,0.004767360532283783,0.11277794565707444,0.28028423745408654
1746475961519352300,7.659352294921875,0.2499672789931297,0.1619376978844404,0.12778437613099813
1746475961529349400,7.669349365234375,0.42525370327234263,0.17362082915455102,-0.06501454315893351
1746475961539346200,7.67934619140625,0.44971652887761593,0.1552799935609102,-0.25578882475346326
1746475961549342200,7.68934228515625,0.4406862502038479,0.12713964848667383,-0.418833241770789
1746475961559339300,7.69933935546875,0.44896658729314803,0.11019055951237677,-0.5344659923370927
1746475961569335300,7.709335205078125,0.4146820403754711,0.08608575356453657,-0.589486745552346
1746475961579332000,7.71933203125,0.43778409902155396,0.08287175995409488,-0.5676932122215629
1746475961589328400,7.729328369140625,0.4944213475227356,0.07876169428676366,-0.46853579563796516
1746475961599325200,7.7393251953125,0.5088397489756346,0.019018296463787554,-0.3338734234962612
1746475961609321200,7.7493212890625,0.5101771350592375,-0.03717179279178381,-0.1948321056179702
1746475961619318000,7.759318115234375,0.5257692564666271,-0.09006868572086095,-0.17660693229325114
1746475961629314300,7.769314208984375,0.5306348166763782,-0.11889788984209299,-0.174338914296031
1746475961639311000,7.77931103515625,0.5108803148925304,-0.17416998746991155,-0.20632081029452382
1746475961649307100,7.78930712890625,0.4551356313169002,-0.2433808863401413,-0.3002018939103931
1746475961659304200,7.79930419921875,0.3934937063962221,-0.3144619629964232,-0.3821623111732304
1746475961669300000,7.809300048828125,0.36407530421018597,-0.32547289409339425,-0.4470228328142315
1746475961679297300,7.81929736328125,0.315458280557394,-0.2718374577566981,-0.4653189524833113
1746475961689294000,7.829294189453125,0.2203010395258665,-0.2523313777759671,-0.42566045744232833
1746475961699290000,7.8392900390625,0.06444996807873249,-0.2625061503097415,-0.36766098067723213
1746475961709287200,7.849287109375,-0.12483867806792258,-0.3325307036504149,-0.27477979481890796
1746475961719283200,7.859283203125,-0.3297071706622839,-0.41245325841009617,-0.15131678901836276
1746475961729280000,7.869280029296875,-0.46500820603370663,-0.46359366306066513,-0.09056092621721326
1746475961739276300,7.8792763671875,-0.47698915120661256,-0.508255227085948,-0.09329305459484458
1746475961749273000,7.889273193359375,-0.4089911352574825,-0.5882181138560175,-0.13163264905698596
1746475961759269000,7.89926904296875,-0.2936807485133409,-0.6680962449520826,-0.1730941749319434
1746475961769266200,7.90926611328125,-0.1585305197894573,-0.7467258372917771,-0.22854842419363558
1746475961779262000,7.919261962890625,-0.09221066618561743,-0.81025196852386,-0.3136745389457792
1746475961789259300,7.92925927734375,-0.03611936112940311,-0.8472779231041669,-0.3727386492677033
1746475961799255000,7.939255126953125,0.015217442876100539,-0.8639797593191265,-0.44073995315246284
1746475961809252000,7.949252197265625,0.041321021425724025,-0.8969064618870616,-0.4608700833156705
1746475961819248000,7.959248046875,0.09945698405206203,-0.9337564753785729,-0.5046383517630398
1746475961829245200,7.9692451171875,0.20504501820504664,-0.9164128341287374,-0.5801661056298762
1746475961839242000,7.979241943359375,0.2743295668333769,-0.8789248149946332,-0.5742896878771484
1746475961849238300,7.98923828125,0.28546120170056816,-0.8637181857734918,-0.5341119912676513
1746475961859235000,7.999235107421875,0.1926204209178686,-0.8186962640032172,-0.5135759837172925
1746475961869231000,8.009231201171875,0.0667851330280304,-0.7632245521500706,-0.45826428473144765
1746475961879228200,8.019228271484375,-0.06721534113883972,-0.6926105084836482,-0.4170722234476357
1746475961889224000,8.029223876953125,-0.16231412998139857,-0.6105795832678675,-0.35475612559244035
1746475961899221200,8.03922119140625,-0.2310235090702772,-0.5189662984535097,-0.22032208231389522
1746475961909217000,8.049217041015625,-0.2692617620497942,-0.4469210529401898,-0.07882643008604645
1746475961919214000,8.059214111328124,-0.2975602202951908,-0.43199177935570476,-0.0028663492165505885
1746475961929210000,8.069210205078125,-0.2881447416961193,-0.4450698721155524,-0.005524973966553807
1746475961939207200,8.079207275390624,-0.2382739185899496,-0.43790889444500203,-0.01862484016679227
1746475961949203000,8.089202880859375,-0.14824468809664249,-0.41070466117709875,-0.030054288936778903
1746475961959200300,8.0992001953125,-0.1260883858680725,-0.393495752222836,-0.05704575623683631
1746475961969196000,8.109196044921875,-0.16461305457353592,-0.3680322251424193,-0.060488005645200606
1746475961979193000,8.119193115234374,-0.2423690789490938,-0.3591454465925693,-0.0013888240098953247
1746475961989189000,8.129189208984375,-0.28385785815715786,-0.4412494370445609,0.02951280247122049
1746475961999186000,8.13918603515625,-0.13780863427817822,-0.7041849186822772,0.030778073166683316
1746475962009183200,8.149183349609375,0.24655425567924974,-0.9600897710308433,-0.02577997261844575
1746475962019179000,8.159178955078126,0.5621352858334779,-0.9039137103006243,-0.14692812560535967
1746475962029176000,8.169176025390625,0.529767970713973,-0.4832961423963308,-0.3178676067214459
1746475962039172000,8.179172119140626,-0.10474924524128436,0.02368891862332821,-0.4028796666398644
1746475962049169200,8.189169189453125,-1.070134492331743,0.3325850641861558,-0.31086729950532316
1746475962059165000,8.1991650390625,-1.9218775781512258,0.38676556718498467,-0.12981902376376092
1746475962069162200,8.209162353515625,-2.503082306113839,0.36001726099103687,0.014010551304370164
1746475962079158000,8.219157958984376,-2.7071079181432722,0.38373832831829785,0.07898074386492371
1746475962089155000,8.229155029296875,-2.2609470359206196,0.47026656495332714,-0.00642542993761599
1746475962099151000,8.239151123046875,-1.2049246555715798,0.5427034401327371,-0.1816238106071949
1746475962109148000,8.24914794921875,-0.1935176620185375,0.49286651929616926,-0.3477618097256869
1746475962119144200,8.259144287109375,0.3826140004634857,0.39254356606453655,-0.4755757772773504
1746475962129141000,8.26914111328125,0.6668225717544555,0.3538981935888529,-0.586212984578684
1746475962139137000,8.279136962890625,0.8341729423373937,0.3555769404560327,-0.695929862164706
1746475962149134000,8.289134033203124,0.8824848455637693,0.3647515960365534,-0.7298552934464066
1746475962159131100,8.299131103515625,0.7866910601943731,0.3665928399890661,-0.6990897144351154
1746475962169127000,8.309126953125,0.6085942546695471,0.4165346825048327,-0.6686858083430677
1746475962179124200,8.319124267578125,0.4571697674930095,0.49002018995434043,-0.6459197036530823
1746475962189120000,8.3291201171875,0.42094402337968345,0.5686372150734067,-0.609768778341636
1746475962199117000,8.339116943359375,0.48592649089992046,0.6078852296173572,-0.4929864924140274
1746475962209113000,8.349113037109374,0.5532838708579539,0.589289542479813,-0.3360118237644434
1746475962219110000,8.35910986328125,0.512609915164113,0.5574786921992898,-0.1441538385864347
1746475962229106200,8.369106201171874,0.37415889132916924,0.49535570576339955,0.02356660741791129
1746475962239103000,8.37910302734375,0.2528735218286514,0.4750646128848195,0.06103358376398682
1746475962249099000,8.38909912109375,0.2065536692023277,0.4795689385667443,0.08241575981490314
1746475962259096000,8.399095947265625,0.2225274834036827,0.46786593355238437,0.11271985879428684
1746475962269092000,8.409092041015626,0.20049919146895406,0.44090281556397676,0.13638729623816906
1746475962279089000,8.4190888671875,0.15546528699994086,0.418126920132339,0.18140424957238135
1746475962289085200,8.429085205078126,0.09953589450716972,0.41021278600692745,0.22736725158505142
1746475962299082000,8.43908203125,0.005296352842450142,0.4417851513564586,0.26765703026689586
1746475962309078000,8.449078125,-0.1142553247332573,0.5258867453664541,0.23235673043541608
1746475962319075000,8.459074951171875,-0.2217687739908695,0.610983487893641,0.137330641502887
1746475962329071900,8.46907177734375,-0.3477800029695034,0.6794450297012925,0.02435929216556251
1746475962339068200,8.479068115234375,-0.4198188187420368,0.7344026545524597,-0.038901466128602624
1746475962349065000,8.48906494140625,-0.4256231211066246,0.7538193026840686,-0.10318506466448306
1746475962359061000,8.49906103515625,-0.3880728503912687,0.7286065354943275,-0.15997743066214024
1746475962369058000,8.50905810546875,-0.28209084848463534,0.7136848606944084,-0.20246464632302522
1746475962379054000,8.51905419921875,-0.12606968116760253,0.7016095152363181,-0.20376301557049153
1746475962389051100,8.529051025390626,-0.038549218624830246,0.7181511924535036,-0.2106608122602105
1746475962399047200,8.539047119140625,-0.023712884020805357,0.7284466687574982,-0.14309431959614158
1746475962409044000,8.5490439453125,-0.07627835303843021,0.7618254990071058,-0.018351430052891374
1746475962419040300,8.559040283203124,-0.1411374864399433,0.816999396957457,0.09511442480310797
1746475962429037000,8.569037109375,-0.11689151845574378,0.8255962526500225,0.18695654993727803
1746475962439033000,8.579033203125,-0.02245440839231014,0.7868263770118356,0.31270905491448936
1746475962449030100,8.589030029296875,0.008804653224349021,0.7161787233367561,0.46656223054267465
1746475962459026200,8.599026123046874,-0.03044657618999481,0.685162238304317,0.59910271515958
1746475962469023000,8.60902294921875,-0.12835925340950488,0.6574278436824679,0.6363104560475796
1746475962479019300,8.619019287109374,-0.20954642127752302,0.6090878834053873,0.6170912301842123
1746475962489016000,8.62901611328125,-0.23432956487834453,0.49922465615123507,0.6014290392152964
1746475962499013000,8.63901318359375,-0.17224866401851177,0.3858414380773902,0.5810845356490463
1746475962509009200,8.649009033203125,-0.0705149672061205,0.2827618796139955,0.47719556049890816
1746475962519006000,8.659005859375,0.04636252272427082,0.2463973115518689,0.3704725309666246
1746475962529002200,8.669002197265625,0.11256839455962181,0.2449608490079641,0.2860023959051817
1746475962538999000,8.6789990234375,0.09660802436172962,0.2754220382452011,0.20371691140644252
1746475962548995000,8.6889951171875,-0.05867372276484966,0.23074995282590388,0.13542203140258788
1746475962558992100,8.6989921875,-0.2709428470045328,0.18317542396336792,-0.006956906465813517
1746475962568988200,8.70898828125,-0.43591245993077754,0.18509557837098836,-0.15223280788473784
1746475962578985000,8.71898486328125,-0.4957739311754703,0.1973249453470111,-0.22409034880623221
1746475962588981200,8.728981201171875,-0.40383974384367466,0.2099403890311718,-0.24011413962915537
1746475962598978600,8.738978515625,-0.2297206097781658,0.2065320418924093,-0.20458039636798203
1746475962608974300,8.748974365234375,-0.07001929264366627,0.17286416556835174,-0.0872181185953319
1746475962618971600,8.7589716796875,0.033355157113075254,0.13101970479041336,-0.040637276945263145
1746475962628967400,8.768967529296875,0.08869885867238045,0.09775544083118438,-0.050539808408916
1746475962638964500,8.778964599609376,0.18537702566087244,0.06964344506859779,-0.08864720155037939
1746475962648960300,8.788960205078125,0.2874871545702219,0.0811956434354186,-0.07745974484272301
1746475962658957600,8.79895751953125,0.3953898954063654,0.09735621238052844,-0.03525200371034443
1746475962668954400,8.808954345703125,0.4660334574282169,0.09741232648193836,0.050715676432475446
1746475962678950700,8.81895068359375,0.43618075547814367,0.10941811383515596,0.16045761539451778
1746475962688947500,8.828947509765625,0.40945056946277614,0.14566899238973854,0.21112134244404732
1746475962698943500,8.838943603515625,0.36939679149389265,0.1923442343249917,0.18775946381799877
1746475962708940500,8.8489404296875,0.3235895645648241,0.21379881802499293,0.15393500869274138
1746475962718936300,8.858936279296875,0.24596271952688692,0.24158698866069314,0.13482684198841452
1746475962728933600,8.86893359375,0.1372638598769903,0.23488281484693288,0.12940613211393356
1746475962738929400,8.878929443359375,0.060709612506628034,0.2007005592599511,0.20797398432902992
1746475962748926500,8.888926513671874,0.02369710192978382,0.1304521340355277,0.2522537824951112
1746475962758922500,8.898922607421875,-0.006292962664365768,0.05877542957365513,0.23661292657516894
1746475962768919600,8.90891943359375,-0.012004326048493384,-0.004681143553555011,0.18787001152038574
1746475962778915300,8.918915283203125,-0.014368132570385932,-0.0734820003181696,0.11527969934493303
1746475962788912600,8.92891259765625,-0.05723989056944847,-0.14380787469297646,0.07905738929770886
1746475962798908400,8.938908447265625,-0.12429916436374187,-0.223989080388844,0.10791560031771659
1746475962808905500,8.948905517578124,-0.1658031411409378,-0.29807956799417734,0.1369835085656494
1746475962818901500,8.958901611328125,-0.1724380491107702,-0.3613932255193591,0.15718378135561942
1746475962828898300,8.968898193359376,-0.15136486594378948,-0.41543636587411165,0.17368315380103885
1746475962838895600,8.9788955078125,-0.12526245643794537,-0.46449265772700304,0.21880824368484317
1746475962848891400,8.988891357421876,-0.07565875983536242,-0.5030792857527733,0.24607217125073075
1746475962858888400,8.998888427734375,-0.019267010527849196,-0.490026619695127,0.24118586051389573
1746475962868884500,9.008884521484376,0.0260638310611248,-0.4968105807468295,0.20048136355131863
1746475962878881500,9.018881591796875,0.08279752567410469,-0.5046282687604428,0.17695801075324416
1746475962888877300,9.028877197265626,0.14168576797246932,-0.478361024081707,0.2642961024664342
1746475962898874600,9.03887451171875,0.16934651283621788,-0.4135129965960979,0.37887240278236567
1746475962908870400,9.048870361328126,0.2324702007472515,-0.3343517815977335,0.47573600934036075
1746475962918867500,9.058867431640625,0.31229309452474113,-0.2454001172080636,0.5355988688245416
1746475962928863500,9.068863525390626,0.38780981554090976,-0.1742208408743143,0.5413851971410215
1746475962938860500,9.078860595703125,0.4424608586609363,-0.14141805694699286,0.4961369923342019
1746475962948856300,9.088856201171875,0.4479436739861965,-0.11850626017600298,0.46921676363945003
1746475962958853400,9.098853271484375,0.4316998106718063,-0.08980448182672261,0.4620134081318974
1746475962968849400,9.108849365234375,0.42198154973387714,-0.07973667679876088,0.43109446518979966
1746475962978846500,9.118846435546875,0.38253275192081926,-0.06039367842525244,0.3538207444384694
1746475962988842500,9.128842529296875,0.3450824344485998,-0.07538345002532004,0.28725268822722133
1746475962998839300,9.13883935546875,0.31221067693829535,-0.10990297474265098,0.23078348976932464
1746475963008836600,9.148836669921875,0.26506138775050636,-0.17072510771304367,0.19710180411562322
1746475963018832400,9.158832275390624,0.2157259866952896,-0.2616866506204009,0.1627274600226432
1746475963028829700,9.16882958984375,0.17684534415900707,-0.3353530675947666,0.042275910997763275
1746475963038825500,9.178825439453124,0.17533961577117443,-0.3989470033660531,-0.06197575998492538
1746475963048822500,9.188822509765625,0.20750351727306843,-0.4666624029815197,-0.07783150076456367
1746475963058818600,9.198818603515624,0.16985329331457613,-0.5681769040852784,-0.00918093919083476
1746475963068815400,9.2088154296875,0.12725333799421787,-0.6176403154343366,0.06347834656760096
1746475963078811400,9.218811279296874,0.10372691645622253,-0.6524731438845396,0.0713623047504574
1746475963088808400,9.228808349609375,0.055580432924628255,-0.7009168567970395,0.06453063209950924
1746475963098804500,9.238804443359374,0.027623919984698295,-0.8157865140363574,0.07616809759698807
1746475963108801300,9.24880126953125,0.09106909493505955,-1.0519894715711473,0.12663600981347262
1746475963118797600,9.258797607421876,0.374571563783288,-1.301264968907833,0.15230032016299663
1746475963128794400,9.26879443359375,0.6537567539542913,-1.207304536445439,0.09675744276978075
1746475963138790400,9.278790283203126,0.5351835660219192,-0.7905714087590575,-0.025057795823737978
1746475963148787500,9.288787353515625,-0.12123276253044604,-0.2636711024358868,-0.13542181220687924
1746475963158783500,9.298783447265626,-1.0442191298305987,0.0844651666253805,-0.1477661107994616
1746475963168780500,9.308780517578125,-1.8285913916885852,0.19425678994804618,0.02969926495403051
1746475963178776600,9.318776611328126,-2.2837153325676915,0.19875000971406698,0.28040201861485836
1746475963188773400,9.3287734375,-2.393054828208685,0.17138766327500343,0.4932524498738348
1746475963198770400,9.3387705078125,-2.122988764038682,0.18762305102199314,0.6333565746780484
1746475963208766500,9.348766357421875,-1.5715063896447419,0.1406418118774891,0.6568821924984455
1746475963218763300,9.35876318359375,-0.983544588637352,0.08326660449057817,0.6281868438899517
1746475963228759600,9.368759521484375,-0.6149199505597353,0.005097323139011859,0.6713672294467687
1746475963238756400,9.37875634765625,-0.45598435710072516,-0.0352004927188158,0.7640539887115358
1746475963248752400,9.38875244140625,-0.3659580492168665,-0.02466565470099449,0.8258968430317938
1746475963258749400,9.39874951171875,-0.23480653474032878,-0.004482990632951259,0.8959935117606073
1746475963268745500,9.408745361328124,-0.03946399538218975,0.06157675072997808,0.8775020156498998
1746475963278742500,9.418742431640625,0.13779928192794322,0.13297142338007686,0.8519269179537892
1746475963288738600,9.428738525390624,0.2518418406933546,0.2000052704721689,0.827194481626898
1746475963298735400,9.4387353515625,0.325445421564579,0.2518742816582322,0.8153821710191667
1746475963308731600,9.448731689453124,0.3963461732178926,0.3168994192764163,0.7265832860384136
1746475963318728400,9.458728515625,0.5032295078784227,0.33944062916934487,0.569373128132522
1746475963328724500,9.468724365234374,0.6466290940314531,0.3666092066019773,0.3953662222698331
1746475963338721500,9.478721435546875,0.7729962968409061,0.4109305788874626,0.2410696137230843
1746475963348717600,9.488717529296874,0.8097890271872281,0.462676255954802,0.03999269543141126
1746475963358714600,9.498714599609375,0.6812170078098774,0.5298951042249799,-0.14527692433223127
1746475963368710400,9.50871044921875,0.41777357665002346,0.6069499945938587,-0.29485059601031244
1746475963378707500,9.51870751953125,0.14433423665463924,0.6895069895103574,-0.401387528385967
1746475963388704500,9.52870458984375,-0.05625555570721626,0.7869567253932357,-0.4605178358118981
1746475963398700500,9.538700439453125,-0.13704057251513002,0.8733867623507976,-0.49055977672375733
1746475963408697300,9.548697265625,-0.05711480288505554,0.8989484891086816,-0.5957595422115176
1746475963418693600,9.558693603515625,0.1494564019739628,0.8910799476906657,-0.7090397383023053
1746475963428690400,9.5686904296875,0.32917700930833815,0.8316726499542594,-0.7685860061179846
1746475963438686500,9.5786865234375,0.4236655572980642,0.7971709531545639,-0.75768196946159
1746475963448683500,9.58868359375,0.371843015602231,0.7705489036887884,-0.7211532238136976
1746475963458679600,9.598679443359375,0.17449147450923919,0.779262956020236,-0.6209169990174472
1746475963468676600,9.608676513671876,-0.060571665340662,0.8507143272936344,-0.4581085827130824
1746475963478672400,9.61867236328125,-0.3031301293820143,0.9296133842244744,-0.23783077793233096
1746475963488669400,9.62866943359375,-0.5438216305077076,1.0021355995997785,-0.10701251399815082
1746475963498665500,9.63866552734375,-0.6552028611093759,1.0465107478991151,-0.09838972014673053
1746475963508662500,9.64866259765625,-0.6361936247348785,1.0643266828358173,-0.18615816610120237
1746475963518658300,9.658658203125,-0.5393067834317684,1.0222463674753903,-0.25744251024462284
1746475963528655600,9.668655517578125,-0.3511854274988174,0.9761322665542363,-0.29726364850141107
1746475963538651400,9.6786513671875,-0.1675672282040119,0.9190279850631952,-0.34139658554270863
1746475963548648400,9.6886484375,0.014768530064821242,0.8401715982303023,-0.42836226374693215
1746475963558644500,9.69864453125,0.17920739711523054,0.7187287000805139,-0.48187666751984504
1746475963568641500,9.7086416015625,0.26868834607601166,0.6034671209141612,-0.48001682846471666
1746475963578638600,9.718638671875,0.2896475474745035,0.5830769515752792,-0.44022849649898704
1746475963588634400,9.72863427734375,0.2698889540374279,0.5784998529180884,-0.37527821421530094
1746475963598631200,9.738631103515624,0.2702648016124964,0.5096773688435554,-0.30205179609339683
1746475963608627200,9.748627197265625,0.28461247591674327,0.4162307311221957,-0.2251312726939097
1746475963618624300,9.758624267578124,0.31448855874240395,0.32558746038377284,-0.14653024886157362
1746475963628620000,9.7686201171875,0.3533990118950605,0.2451417585328221,-0.08604421597775071
1746475963638617000,9.7786171875,0.3378454689323902,0.20783932509869335,-0.05348013617713004
1746475963648612900,9.78861279296875,0.25184417878091336,0.21127806737571952,-0.014650895034521817
1746475963658610200,9.798610107421876,0.08690671455860137,0.23265257157683372,0.09811046481393278
1746475963668606000,9.80860595703125,-0.13301964643597602,0.26688655735105277,0.22907354404628275
1746475963678603300,9.818603271484376,-0.36632103731036186,0.2527788292825222,0.3496361887628212
1746475963688599000,9.82859912109375,-0.5625888748198747,0.22950959737598894,0.42608949650935823
1746475963698596000,9.83859619140625,-0.6761667386829853,0.2414145547032356,0.4811843744067475
1746475963708592000,9.848592041015625,-0.7129857725143433,0.26392770754545924,0.49318322056252506
1746475963718589200,9.858589111328126,-0.6467302163183689,0.23523966546058653,0.47550815540123725
1746475963728585000,9.8685849609375,-0.43910628753602504,0.16148790829032658,0.4010264765212312
1746475963738582000,9.87858203125,-0.15943360610902307,0.062355626147985455,0.276246506370604
1746475963748578000,9.888578125,0.11373802286088466,-0.059042556077241896,0.1741525614110753
1746475963758575000,9.8985751953125,0.33348610467910766,-0.14090426220595836,0.08488784901686013
1746475963768572200,9.908572265625,0.46580023319423197,-0.1962491328090429,0.004068856874108314
1746475963778568000,9.91856787109375,0.49384208633005616,-0.18545593611598013,-0.06908073315192013
1746475963788565200,9.928565185546875,0.4144850564986467,-0.14357903437316416,-0.1524579584101215
1746475963798561000,9.93856103515625,0.2854296375185251,-0.06075199034363031,-0.3216885167164728
1746475963808558000,9.94855810546875,0.18185294318795203,0.03802139535844326,-0.46216750271506607
1746475963818554000,9.95855419921875,0.17127718863785266,0.11774784302413463,-0.5982828136114403
1746475963828551200,9.96855126953125,0.22472470118701457,0.15280746596753597,-0.7225945817284286
1746475963838547000,9.978546875,0.2762976520359516,0.16171937895864247,-0.8158796722125261
1746475963848544000,9.9885439453125,0.3407341761112213,0.12203677238970995,-0.8691567235656082
1746475963858540000,9.9985400390625,0.43638007744252677,0.07286182259321212,-0.9036715721078217
1746475963868537000,10.008537109375,0.5170259780406952,0.04681494266688824,-0.9269064633533358
1746475963878533000,10.018533203125,0.5816641621679067,0.02224631859958172,-1.0033818002685904
1746475963888530000,10.028530029296874,0.6059095456302166,-0.009808861830830573,-1.0574755017668007
1746475963898526200,10.038526123046875,0.519191631641984,-0.06123012924939394,-1.0387297386340797
1746475963908523000,10.04852294921875,0.3633773850739002,-0.10114216066002846,-0.9786144387587904
1746475963918519000,10.05851904296875,0.10595511389970778,-0.17111235346496104,-0.8550159700103104
1746475963928516000,10.06851611328125,-0.1899111619591713,-0.21717092480659483,-0.6760870975755154
1746475963938512100,10.07851220703125,-0.3492424767374992,-0.28429595731347795,-0.5237603277970105
1746475963948509000,10.088509033203126,-0.3964379431545734,-0.37711101913303136,-0.44624238649364556
1746475963958505200,10.098505126953125,-0.37142274436354633,-0.5160179700419306,-0.4036766987690702
1746475963968502000,10.108501953125,-0.3140431530624628,-0.6537044392451643,-0.37090580781735477
1746475963978498000,10.118498046875,-0.2388175239473581,-0.7637015220120549,-0.3638962943814695
1746475963988495000,10.1284951171875,-0.1798018558770418,-0.8450082246065139,-0.32979484894573685
1746475963998492000,10.138491943359375,-0.1865419777870178,-0.8810577353700995,-0.24363570135142654
1746475964008488200,10.14848828125,-0.25914602622687816,-0.8848758323535323,-0.16054772309707477
1746475964018485000,10.158485107421875,-0.3528822945445776,-0.8861144342377781,-0.10985018510948866
1746475964028481000,10.16848095703125,-0.4002046022117138,-0.898377118961513,-0.06200359783992171
1746475964038478000,10.17847802734375,-0.4555909738689661,-0.8970233662649989,-0.03176365013793111
1746475964048474000,10.18847412109375,-0.45169630451798437,-0.8926602026194334,0.02332614972554147
1746475964058471200,10.19847119140625,-0.3422767293781042,-0.8753916724324226,0.023895821105968204
1746475964068467200,10.20846728515625,-0.15855974588394164,-0.8492530225694179,0.016389336199685932
1746475964078464000,10.218464111328124,0.020297522619366643,-0.8417053836688398,0.04243292819038033
1746475964088460300,10.228460205078125,0.20857260780930517,-0.8358148643255233,0.02884504101118073
1746475964098457000,10.23845703125,0.3170277218312025,-0.8129621042653917,0.031910547795332964
1746475964108453000,10.248453125,0.38940322221219537,-0.7264625092029571,0.0679318736440502
1746475964118450200,10.2584501953125,0.34277474202811714,-0.6697860977351665,0.10209474867712706
1746475964128446200,10.2684462890625,0.22290333097875117,-0.6303118732199072,0.12905803106231614
1746475964138443000,10.278443115234374,0.07466741071045398,-0.5894195986002684,0.10675265748556703
1746475964148439300,10.288439208984375,-0.06141571494936943,-0.5645061066180467,0.03435271678306162
1746475964158436000,10.29843603515625,-0.11648176861107348,-0.5730421720340848,-0.03584509249897674
1746475964168431900,10.308431884765625,-0.0886789849281311,-0.5947039687439799,-0.08276112092016265
1746475964178429200,10.31842919921875,0.0029921675533056257,-0.6062783789426088,-0.1337044320960529
1746475964188425000,10.328425048828125,0.08527414492070674,-0.6114695178449153,-0.1621175296970643
1746475964198422300,10.33842236328125,0.08037526696324349,-0.5810428153991699,-0.16281345780566334
1746475964208419000,10.348419189453125,0.02235679323673248,-0.5817611928015947,-0.11759049703795463
1746475964218415000,10.3584150390625,-0.09526070140600204,-0.5864382447019219,-0.03752524587195366
1746475964228412200,10.368412109375,-0.15357494320869444,-0.5950514670073985,0.05089662248995155
1746475964238408200,10.378408203125,-0.14490940619409085,-0.6839575386896729,0.1397163310630247
1746475964248405000,10.388405029296875,0.017526888862252236,-0.9202268394589423,0.13649773434270174
1746475964258401300,10.3984013671875,0.40577743390798565,-1.1763982337892054,0.05951758971046656
1746475964268398000,10.408398193359375,0.7214344519078731,-1.130997249573469,-0.05634210147950798
1746475964278393900,10.418393798828125,0.73712477299273,-0.7806634704679251,-0.12601638007778673
1746475964288391200,10.42839111328125,0.3287655058979988,-0.37952421775460243,-0.21542444646544753
1746475964298387000,10.438386962890625,-0.40342648686766625,-0.1379968503266573,-0.3087630937676877
1746475964308384300,10.44838427734375,-1.1180927598148585,-0.06604658962041139,-0.38184944583177566
1746475964318380000,10.458380126953125,-1.5590625031352041,0.03440495842695236,-0.426789132678695
1746475964328377000,10.468377197265625,-1.8201608324736356,0.2872875403448939,-0.5158108300972729
1746475964338373000,10.478373046875,-1.8967267702817916,0.6070280282661319,-0.6583982230845838
1746475964348370200,10.4883701171875,-1.8571756811380384,0.8344061665713787,-0.8149661375641822
1746475964358366000,10.498365966796875,-1.7650053469628095,0.8835492599248885,-0.9929932388536632
1746475964368363300,10.50836328125,-1.5318331354260444,0.8049486014187336,-1.150386132915318
1746475964378359000,10.518359130859375,-1.1859843927800655,0.7322828859195113,-1.246804041532427
1746475964388356000,10.528356201171874,-0.7514496509432792,0.6989686453387141,-1.3154533609971404
1746475964398352100,10.53835205078125,-0.2555383571237326,0.6552259497240185,-1.3556003702074289
1746475964408349000,10.548348876953124,0.10893851362466811,0.595565261748433,-1.3690940580308437
1746475964418345000,10.558344970703125,0.3820300630956888,0.5277642296761273,-1.3087730064503849
1746475964428342000,10.568342041015624,0.59335167735219,0.46006052049845453,-1.2044888214375824
1746475964438339000,10.578339111328125,0.7492465879410505,0.3899748846203088,-1.0361751587804406
1746475964448335000,10.588335205078126,0.8154144658535718,0.3374059084713459,-0.8522732471734284
1746475964458332200,10.598332275390625,0.7818862902611493,0.3014075433731079,-0.6948512731477617
1746475964468328000,10.608327880859376,0.6816530611395836,0.30832156054526566,-0.611319661045447
1746475964478325200,10.6183251953125,0.5978770458221435,0.3652630526900291,-0.5225056515607983
1746475964488321000,10.628321044921876,0.4895224695652723,0.47335839348882436,-0.3600188684262335
1746475964498318000,10.638318115234375,0.29358313335776326,0.529359682174027,-0.30546164106950163
1746475964508314000,10.648314208984376,-0.05750117185413837,0.5774751860454678,-0.12951434172876178
1746475964518311000,10.658310791015625,-0.3285246828794479,0.6474184908434748,-0.010616817212849855
1746475964528307200,10.66830712890625,-0.4807242460817098,0.7532023398295045,0.1117393233243376
1746475964538304000,10.678303955078125,-0.5757984850049018,0.857637989076972,0.2388093406409025
1746475964548300000,10.688300048828125,-0.6618108810722827,0.9291162483572959,0.33290012148469683
1746475964558297000,10.698297119140625,-0.7176216156214476,0.9690820557817816,0.3806521258059889
1746475964568293000,10.708293212890625,-0.7512596813291311,1.0073796377331017,0.3816594762176275
1746475964578290000,10.7182900390625,-0.7879822690486907,1.045460946585238,0.39316016359291966
1746475964588286200,10.7282861328125,-0.7632119849294423,1.0820850423663855,0.4211638036102056
1746475964598282800,10.73828271484375,-0.6739058080136776,1.1180211558833717,0.46352892726138234
1746475964608279000,10.748279052734375,-0.5623977361619472,1.1594932762175798,0.48839763025380667
1746475964618275800,10.75827587890625,-0.4619026412338018,1.1822954751342534,0.4904534668050706
1746475964628271900,10.76827197265625,-0.31699440408349033,1.1810735321238637,0.44372488724738357
1746475964638269000,10.77826904296875,-0.13022504728138445,1.1801333286643028,0.32960707128867506
1746475964648265700,10.788265625,0.04627425991892815,1.1406760552838444,0.23217202151827512
1746475964658261800,10.79826171875,0.19229542674720287,1.0980141406431794,0.1685413339331746
1746475964668258800,10.8082587890625,0.3395826679885387,1.0567913188949227,0.03620316695533693
1746475964678254800,10.8182548828125,0.4325438602805137,1.009068613733351,-0.05158252239488065
1746475964688252000,10.828251953125,0.4560936626940965,0.9539783024132251,-0.14554814248904585
1746475964698248000,10.838248046875,0.3827139537066221,0.8830027319580316,-0.2534805478110909
1746475964708244700,10.84824462890625,0.3947270475834608,0.7949491854518651,-0.3571368101838976
1746475964718241000,10.858240966796876,0.5020306534826755,0.698418610240519,-0.44441528066433966
1746475964728237800,10.86823779296875,0.6975953111588955,0.5836532901585102,-0.5257951215602458
1746475964738233900,10.87823388671875,0.9835913503885269,0.45565380997210736,-0.6096879681903868
1746475964748231000,10.88823095703125,1.2053425887227058,0.35380613139122724,-0.7254374039389193
1746475964758227000,10.89822705078125,1.208676701581478,0.27284634253829715,-0.7950012079000472
1746475964768224000,10.90822412109375,0.8872241490453481,0.21804507729262113,-0.8357038782317191
1746475964778220000,10.918219970703126,0.3447451653182506,0.18632190529555082,-0.8367857551842928
1746475964788216800,10.928216796875,-0.1419429576039314,0.18881752150356768,-0.8623653829250484
1746475964798212900,10.938212890625,-0.45901218048930165,0.2154956850707531,-0.9040527534451335
1746475964808210000,10.9482099609375,-0.64001405980587,0.23948066403120755,-0.9337252034574747
1746475964818206000,10.9582060546875,-0.7577794384866953,0.2925119969949126,-0.997620606393367
1746475964828203000,10.968203125,-0.7658446715205908,0.32672873937338587,-1.0481010858304798
1746475964838198800,10.97819873046875,-0.6876490866839885,0.33258535644710063,-1.0241344462443143
1746475964848195800,10.98819580078125,-0.5884457851320505,0.34494974797964095,-0.9587888445001095
1746475964858192000,10.99819189453125,-0.429960273528099,0.33266718951165675,-0.9045805767115205
1746475964868189000,11.00818896484375,-0.2595049226671457,0.33223464331328867,-0.897425078933686
1746475964878184700,11.018184814453125,-0.16431085675656795,0.3066074501037597,-0.8993678835645318
1746475964888182000,11.02818212890625,-0.10548457377851009,0.31364743174314497,-0.9643099460091441
1746475964898177800,11.038177734375,-0.07463526200652122,0.33444150570780035,-1.0410674608666448
1746475964908175000,11.048175048828124,-0.09764905784726143,0.359205652347207,-1.045291142976284
1746475964918172000,11.058171875,-0.14264029221832752,0.376841262280941,-1.0056756833594291
1746475964928168000,11.06816796875,-0.16311726305782795,0.36298487862497564,-0.9426198730528355
1746475964938165000,11.0781650390625,-0.1335001234292984,0.324238676123321,-0.9019892450440674
1746475964948160800,11.088160888671876,-0.10814356385469436,0.2843453494131565,-0.8324021332725882
1746475964958157800,11.09815771484375,-0.027077976539731024,0.2510226332649588,-0.8063900323987007
1746475964968153900,11.10815380859375,0.08338263208568096,0.19550825131386518,-0.822170223724097
1746475964978151000,11.11815087890625,0.19838731388151645,0.14082681305557487,-0.8243093546446413
1746475964988146700,11.128146728515626,0.21760580909252167,0.054829322296380996,-0.7883468645773828
1746475964998144000,11.13814404296875,0.20305062951743602,0.0019207389295101164,-0.8154138813316821
1746475965008139800,11.148139892578126,0.1280447806328535,-0.01888210286349058,-0.8102638781573623
1746475965018137000,11.15813720703125,0.05494096597731113,-0.06639671823233366,-0.7893827104311436
1746475965028132900,11.1681328125,0.054902972054481504,-0.1017959483936429,-0.8300673336494714
1746475965038130000,11.1781298828125,0.0964350058823824,-0.1679977285757661,-0.9031541241049766
1746475965048126000,11.1881259765625,0.12250175955295561,-0.2124348361954093,-0.916441110375151
1746475965058122800,11.198122802734375,0.15971709922552108,-0.2370952301993966,-0.981412837305665
1746475965068118800,11.208118896484375,0.216344410854578,-0.25273762048929926,-1.04213041392304
1746475965078115800,11.21811572265625,0.2207891153037548,-0.27875761240869756,-1.0772273732021451
1746475965088111900,11.22811181640625,0.21368074460327624,-0.2867088636741042,-1.1046771056637168
1746475965098108700,11.238108642578124,0.17853811955153942,-0.27477146538197994,-1.1143117799714206
1746475965108105000,11.24810498046875,0.10966332076787948,-0.22067133414298296,-1.1137888520758599
1746475965118101800,11.258101806640624,-0.017942483925819395,-0.11007160930782556,-1.115655522730574
1746475965128097800,11.268097900390625,-0.16482932767271993,-0.004518938729166984,-1.1027096049830316
1746475965138094800,11.2780947265625,-0.3418056047350168,0.06577624824643134,-1.0801407033655792
1746475965148091000,11.2880908203125,-0.5132902986437082,0.14060527925938368,-1.047353263137862
1746475965158088000,11.298087890625,-0.6832908914744854,0.1839893706947565,-1.0172983896791934
1746475965168084000,11.308083984375,-0.7790197949141263,0.22618162199705838,-0.9581436784643679
1746475965178080800,11.318080810546874,-0.85607497754395,0.2953875524312258,-0.8960330400533973
1746475965188077800,11.328077880859375,-0.972872972497344,0.36892566685080525,-0.8091092282295227
1746475965198073900,11.338073974609374,-1.0287854138553143,0.44035015011727807,-0.7539420522809028
1746475965208071000,11.34807080078125,-1.0403986947596073,0.5148869201853871,-0.7253202073000371
1746475965218067000,11.35806689453125,-0.9561825344592332,0.558740674959123,-0.6922561420880258
1746475965228063700,11.368063720703125,-0.8524170395582914,0.602130319352448,-0.6525912903714924
1746475965238060000,11.37806005859375,-0.670057315891981,0.6718132196485996,-0.6525386834014206
1746475965248056800,11.388056884765625,-0.47376609750688076,0.7719853662326932,-0.6747016345664858
1746475965258052900,11.398052978515626,-0.32975159432590007,0.8783499377161263,-0.7344619104590266
1746475965268050000,11.4080498046875,-0.26724457700848575,0.9729200265094637,-0.7846566317573189
1746475965278046000,11.4180458984375,-0.274402047547698,1.0460647576972841,-0.7906822487223893
1746475965288042800,11.428042724609375,-0.2705021174997091,1.0967349144876002,-0.7958939920213073
1746475965298039000,11.4380390625,-0.27189503316283226,1.1077508140206336,-0.7820524406082928
1746475965308035800,11.448035888671875,-0.20098726724684238,1.0212722617462278,-0.7341461225081235
1746475965318032000,11.458031982421875,-0.01258008010983467,0.8717986163765191,-0.6687997170463204
1746475965328029000,11.46802880859375,0.23969138417243957,0.8695397315338254,-0.6406333607479929
1746475965338025000,11.47802490234375,0.24854104558229445,1.311106271703541,-0.7309216805689036
1746475965348022000,11.48802197265625,-0.37059564588963984,2.068713276232779,-0.8294008325647563
1746475965358018000,11.49801806640625,-1.5100912592172622,2.5959420838579534,-0.8769248733490705
1746475965368014800,11.508014892578124,-2.505274263200164,2.822590154322982,-0.8757464772194623
1746475965378011000,11.518010986328125,-3.332484380787611,2.859030417969823,-0.7291929570801555
1746475965388008000,11.528008056640624,-3.7971471343845127,2.833497917306423,-0.6751943134542554
1746475965398003700,11.538003662109375,-3.345257353121042,2.707069631959498,-0.8678259133532643
1746475965408001000,11.5480009765625,-1.931084966957569,2.4735429078966376,-1.0918035955652594
1746475965417996800,11.557996826171875,-0.2986152823060751,2.129066914908588,-1.1528643595971166
1746475965427993900,11.567993896484374,0.8350316049933433,1.847797319678962,-1.0339147395677863
1746475965437990000,11.577989990234375,1.4669301628828049,1.6760262100443244,-0.9224526988148689
1746475965447987000,11.587987060546874,1.5931500661760567,1.5997925729304552,-0.8023629688397049
1746475965457982700,11.597982666015625,1.2254454655528069,1.5809049171090126,-0.7112229275602847
1746475965467980000,11.60797998046875,0.4653314466387033,1.6337798904672265,-0.7528060339882969
1746475965477976800,11.617976806640625,-0.31228491121828555,1.8088006495475768,-0.9462284189388155
1746475965487972900,11.627972900390626,-0.8509662562280893,2.0306040564604104,-1.1749622827019541
1746475965497970000,11.637969970703125,-1.268897653788328,2.1985895100764927,-1.29537707991302
1746475965507965700,11.647965576171876,-1.6285487118154762,2.360760432194918,-1.3055316864416002
1746475965517963000,11.657962890625,-1.856009559968114,2.5030665240228176,-1.2585463556438683
1746475965527958800,11.667958740234376,-1.9648755928784607,2.623882230184972,-1.2216418354861438
1746475965537956000,11.6779560546875,-1.967920951923728,2.682016439245641,-1.2266444660790263
1746475965547951900,11.687951904296876,-1.805170768612623,2.6058003377884624,-1.2045509999535977
1746475965557949000,11.697948974609375,-1.474718332540989,2.442841334032267,-1.2188726630337536
1746475965567945000,11.707945068359376,-1.0848732117801905,2.2011033925935624,-1.2290399829134344
1746475965577942000,11.71794189453125,-0.7411340086340904,1.9566149834029376,-1.2418639547817407
1746475965587937800,11.727937744140625,-0.518380315259099,1.7610184692837296,-1.2101678899873047
1746475965597935600,11.737935546875,-0.368907546672225,1.6396026052713393,-1.1404002340171486
1746475965607931600,11.747931640625,-0.28789456632733346,1.5567846213310956,-1.092802981866151
1746475965617928700,11.7579287109375,-0.2809112833112478,1.4861924972355365,-1.0991346691057085
1746475965627924700,11.7679248046875,-0.31979251036942,1.412156370165944,-1.090759566405043
1746475965637921500,11.777921630859375,-0.38838381603658195,1.382767486335337,-1.066673538222909
1746475965647917800,11.787917724609375,-0.4328413819223642,1.3971809193521738,-1.0185594956561923
1746475965657914600,11.79791455078125,-0.40161154640018937,1.4387038930907845,-0.968428194982931
1746475965667910700,11.80791064453125,-0.29650749637186524,1.5303031493797898,-0.889831043608114
1746475965677907700,11.81790771484375,-0.15981939055621622,1.6571309554383158,-0.7609183210343122
1746475965687903700,11.82790380859375,-0.05354512770473957,1.7744979824513196,-0.5820241911193356
1746475965697900500,11.837900634765624,-0.03011456775665283,1.8463845302715896,-0.4558304817132652
1746475965707896800,11.847896728515625,0.020604981133341787,1.9201254737868905,-0.33980843956843015
1746475965717893600,11.8578935546875,0.10685410856604576,2.003076144196093,-0.20369214229136703
1746475965727889700,11.8678896484375,0.18565116642713544,2.03915108166188,-0.08608505944479257
1746475965737886700,11.87788671875,0.20890987693965435,1.987260735426843,-0.01128700809199363
1746475965747882500,11.887882568359375,0.19380057061314582,1.9052689731776713,0.09042162734437734
1746475965757879800,11.8978798828125,0.11216682802140712,1.8298460679247974,0.24226388327525927
1746475965767875600,11.90787548828125,-0.05729249753952026,1.787951630525291,0.3916867665721103
1746475965777872600,11.91787255859375,-0.257732652297616,1.7308917726978659,0.5133506505288183
1746475965787868700,11.92786865234375,-0.41119069112837314,1.683975415483117,0.6300842019438743
1746475965797865700,11.93786572265625,-0.47669279860854147,1.6555813879087566,0.7102421728946268
1746475965807862500,11.947862548828125,-0.427455597230792,1.5434426169380544,0.760841675601527
1746475965817858800,11.95785888671875,-0.32133506363630293,1.370686003397405,0.8170598949730395
1746475965827855600,11.967855712890625,-0.23354864363372324,1.1651710295930504,0.8293637154247612
1746475965837851600,11.9778515625,-0.2083142491340637,0.9270935103580356,0.8318289364945143
1746475965847848700,11.9878486328125,-0.23157003703713416,0.7350301388010382,0.8487237379983067
1746475965857844500,11.997844482421876,-0.2567471483916044,0.612921177957952,0.835624456319958
1746475965867841800,12.007841796875,-0.217752524086833,0.5237804207369685,0.7678719395644963
1746475965877837600,12.017837646484375,-0.08020283300578594,0.46496582819670434,0.668891779243946
1746475965887834600,12.027834716796875,0.08141922305822372,0.41763679852783675,0.5567870932059362
1746475965897830700,12.03783056640625,0.2034165402203798,0.40064737754315133,0.5113091347638518
1746475965907827700,12.04782763671875,0.2681044087082147,0.37645460105091333,0.44601738209873437
1746475965917823500,12.057823486328125,0.20267419742047785,0.3513885488554835,0.35941951429359614
1746475965927820800,12.06782080078125,0.07017243737876415,0.35205782641917466,0.30711839530058205
1746475965937816600,12.077816650390625,0.007827917146682739,0.39308834046572444,0.24297416870277375
1746475965947813600,12.087813720703124,-0.006783961051702499,0.4193687368869781,0.17898279457911848
1746475965957809700,12.0978095703125,0.0396317531645298,0.40548838783353564,0.16403293486433101
1746475965967806500,12.107806396484374,0.07314882284104823,0.4342211458429694,0.13110658848942255
1746475965977802800,12.117802734375,0.14126082055866718,0.45797874578833575,0.07526419842666945
1746475965987799600,12.127799560546874,0.19006839834749698,0.43117607905864713,0.03140941160647198
1746475965997795600,12.137795654296875,0.23468320062160491,0.3332736309722066,-0.056774099688604474
1746475966007792600,12.147792724609374,0.3020423341453075,0.1821113018631935,-0.1483015967824962
1746475966017788700,12.15778857421875,0.33362522088885305,0.044701019252836705,-0.23825356992166488
1746475966027785500,12.167785400390626,0.289251241633296,-0.04106967701315879,-0.31185159783493727
1746475966037781800,12.17778173828125,0.18097732939720151,-0.07132306871861219,-0.32470863172262904
1746475966047778600,12.187778564453126,-0.002211246308684349,-0.06889291896224022,-0.2770234455598518
1746475966057774600,12.197774658203125,-0.16743103460371495,-0.0486854127138853,-0.24521226648576555
1746475966067771600,12.207771728515626,-0.2272363917469978,-0.034928105518221855,-0.2609215662657283
1746475966077767700,12.217767578125,-0.2323433594971895,-0.053549511618912214,-0.31652463114727286
1746475966087764700,12.2277646484375,-0.20576865630447863,-0.08489420569241046,-0.3198717130854726
1746475966097760800,12.2377607421875,-0.13193302024304865,-0.1233151217624545,-0.30341380516160277
1746475966107757600,12.247757568359376,-0.03405424529314041,-0.1810825433373451,-0.21783658564109354
1746475966117753900,12.25775390625,0.09458440957963465,-0.2475970427304506,-0.10087966466578654
1746475966127750700,12.267750732421876,0.2502951957732439,-0.2710004224106669,0.030457873902143908
1746475966137746700,12.27774658203125,0.40179917792677877,-0.2875076128363609,0.1677087920991704
1746475966147743700,12.28774365234375,0.47643736254274843,-0.3071840809479356,0.3146824373466894
1746475966157739500,12.297739501953124,0.4556827438056469,-0.30312545320689677,0.46528515981156376
1746475966167736600,12.307736572265625,0.3882780175745487,-0.3351917395532131,0.6103604606244712
1746475966177732600,12.317732666015624,0.295198751860857,-0.38076778807491063,0.7152502833802252
1746475966187729700,12.327729736328125,0.233179810321331,-0.45099838538169856,0.79539239917472
1746475966197726700,12.337726806640624,0.2754828285217285,-0.4895332832202315,0.9173738611806184
1746475966207722800,12.34772265625,0.30175942555069923,-0.5073042099714279,1.063484094531834
1746475966217719600,12.357719482421874,0.32240590773820876,-0.535385518334806,1.189756677860394
1746475966227715800,12.3677158203125,0.3068646397352218,-0.5955889348849653,1.2942002912186086
1746475966237712600,12.377712646484374,0.2279699667185545,-0.6771794228568673,1.3622124818235635
1746475966247708700,12.387708740234375,0.21094342859387397,-0.7551037895366549,1.3805176615819335
1746475966257705700,12.397705810546874,0.23860125084817407,-0.8264484855651855,1.380825266226381
1746475966267701500,12.407701416015625,0.2948801874309778,-0.8857254349201917,1.4052753784805536
1746475966277698600,12.417698486328124,0.399644630241394,-0.9699237673029303,1.451642285118997
1746475966287694600,12.427694580078125,0.47536418035328387,-1.0497609818667173,1.441926508399099
1746475966297691600,12.437691650390626,0.559757450786233,-1.0980991885781288,1.407441616603732
1746475966307687400,12.4476875,0.5300526328742504,-1.163890926654637,1.367611856649071
1746475966317684700,12.457684814453126,0.454101027572155,-1.2072396545156836,1.3187933190748096
1746475966327680500,12.467680419921875,0.3153144881725311,-1.1586354903444647,1.3374933433696627
