time,seconds_elapsed,z,y,x
1744474941547372500,0.11837255859375,0.5451654463320971,-0.12488368625342845,-0.29287067423947155
1744474941557369300,0.128369384765625,0.4061287315636873,-0.0018885902255773544,-0.26194767617676407
1744474941567367700,0.13836767578125,0.3443856843560934,0.05086918649375438,-0.15982744599850848
1744474941577365800,0.14836572265625,0.24218846168518066,0.09799567932784557,-0.14271211534552275
1744474941587362600,0.158362548828125,0.2184662253141403,0.1605833606660366,-0.13885505632488057
1744474941597360600,0.168360595703125,0.32127661144733427,0.20803864706307648,-0.16084816734837368
1744474941607357400,0.178357421875,0.4336117817729711,0.1967223032787442,-0.18656398868942634
1744474941617355500,0.18835546875,0.556001313123107,0.10750935760438442,-0.16011588928475975
1744474941627353600,0.198353515625,0.7952022834300995,-0.00900251388400793,-0.0660806928194128
1744474941637350700,0.2083505859375,0.9491823003083467,-0.1546755979269743,-0.016021685630804857
1744474941647348700,0.2183486328125,0.7779542115092277,-0.26346476620882747,-0.07182888108259067
1744474941657345500,0.228345458984375,0.45484687750339503,-0.24744009860306976,-0.19201805284423754
1744474941667343600,0.238343505859375,0.1422960088253021,-0.21446926463246344,-0.29188281397959215
1744474941677341400,0.248341552734375,-0.07911269968152046,-0.25329145497977734,-0.3318539003673941
1744474941687338500,0.25833837890625,-0.2391840191721916,-0.30289193671196696,-0.28119738850994036
1744474941697336600,0.268336669921875,-0.27540274902284145,-0.3205520965650677,-0.23838408269984646
1744474941707333600,0.278333740234375,-0.2846510543614626,-0.31258886260092256,-0.2194284396761097
1744474941717331700,0.288331787109375,-0.33568682959377766,-0.38589433730840683,-0.19468160949768498
1744474941727329500,0.29832958984375,-0.37594986639916894,-0.45425563361197707,-0.07935207966165617
1744474941737326600,0.30832666015625,-0.3137725194275379,-0.47362990390658377,0.09673990711309015
1744474941747324400,0.318324462890625,-0.12490940521657466,-0.46961248495876784,0.2652004674276337
1744474941757321500,0.328321533203125,0.05567746355831623,-0.4731272150814533,0.46360272314995526
1744474941767319600,0.338319580078125,0.18294541459977626,-0.5166743881240486,0.6084700437679886
1744474941777316600,0.348316650390625,0.21440905887782571,-0.5559463680654764,0.6897782076671719
1744474941787314700,0.358314697265625,0.20521394503116608,-0.5801990580514073,0.773277671065554
1744474941797312500,0.3683125,0.34162381842732426,-0.681980393397808,0.9191259655449538
1744474941807309600,0.3783095703125,0.5573229171156883,-0.8767232132971287,1.0817558834772556
1744474941817307400,0.388307373046875,0.6815817494690418,-1.0811527299523354,1.1729705974280833
1744474941827304700,0.3983046875,0.7277239074409008,-1.140775716266036,1.1900250464729965
1744474941837302500,0.408302490234375,0.7843588178545237,-1.134980766251683,1.149049112157896
1744474941847300600,0.418300537109375,0.7650356932252645,-1.1555027452766895,1.1557117118522524
1744474941857297700,0.428297607421875,0.5633429080575705,-1.2402853072881699,1.1476895873077213
1744474941867295500,0.43829541015625,0.3193921128749847,-1.3223223699837923,1.1613265560593455
1744474941877292500,0.44829248046875,0.11413608226776123,-1.3789604952678083,1.1814231492791325
1744474941887290400,0.458290283203125,0.0627934330433607,-1.4004007581815123,1.1762325948987156
1744474941897288400,0.468288330078125,0.2072778918236494,-1.4266542665958404,1.160191633745283
1744474941907285500,0.478285400390625,0.3540682894587517,-1.487849616792798,1.1325814500249922
1744474941917283600,0.48828369140625,0.47686815517544745,-1.5477596033543348,1.114656428690627
1744474941927280600,0.49828076171875,0.44298342123031614,-1.6008482194632292,1.1203582935940473
1744474941937278500,0.508278564453125,0.23852292491495608,-1.650302862983942,1.130780245821923
1744474941947276500,0.518276611328125,0.013225392276048659,-1.6373022193744777,1.045366327104345
1744474941957273600,0.528273681640625,-0.23414427143931388,-1.5828817701399325,0.9183815038532018
1744474941967271700,0.538271728515625,-0.4622445865392685,-1.485988499096036,0.8180370694421232
1744474941977268500,0.5482685546875,-0.6386410178869962,-1.427562905873358,0.8293413574624806
1744474941987266600,0.5582666015625,-0.7420774269640446,-1.437986684732139,0.8800992656014859
1744474941997263600,0.568263671875,-0.8323205924689769,-1.466125860762596,0.9089543348163366
1744474942007261400,0.578261474609375,-0.9153472507238387,-1.483981543187797,0.9415108158323914
1744474942017259500,0.588259521484375,-1.0348194333225489,-1.4452534608647227,0.9434485058967024
1744474942027256600,0.598256591796875,-1.1662842515319585,-1.3180410394027828,0.9101179717682302
1744474942037254700,0.608254638671875,-1.2648387337863445,-1.2458753823801874,0.8320183215867728
1744474942047251500,0.61825146484375,-1.3369669814079999,-1.1980769816339014,0.705466848251596
1744474942057249500,0.62824951171875,-1.428120832017064,-1.1478642132222652,0.563157322357595
1744474942067247600,0.63824755859375,-1.4583850373774767,-1.0487211174249649,0.4462218186296522
1744474942077244400,0.648244384765625,-1.351249189260602,-0.9804606511473655,0.4376617147509008
1744474942087242500,0.658242431640625,-1.0994850899785757,-1.0040566307902337,0.5529060505215079
1744474942097239600,0.668239501953125,-0.7539362070620059,-1.058789799235761,0.698434538462013
1744474942107237600,0.678237548828125,-0.3426455626904964,-1.1261217524915932,0.8051471927307545
1744474942117235700,0.688235595703125,0.07349076814651488,-1.1585878518104553,0.8305230415277183
1744474942127232500,0.698232421875,0.304178761652112,-1.2106412796527146,0.7325072692599147
1744474942137230600,0.708230712890625,0.1940232734531164,-1.353584061948955,0.6215806505579501
1744474942147227600,0.7182275390625,-0.4481406578630209,-1.4898179942563174,0.44136173831261694
1744474942157225700,0.728225830078125,-1.42354051848948,-1.4307567334786058,0.2156700187243521
1744474942167223600,0.7382236328125,-2.295813182118535,-1.1089739260748028,-0.044858182575926185
1744474942177220600,0.748220703125,-2.802161698800325,-0.6727320880591869,-0.22491752034537493
1744474942187218700,0.75821875,-2.9804028812319037,-0.27502193301171063,-0.1834972397962585
1744474942197215500,0.768215576171875,-2.8453426688790318,0.036840368880331514,0.05001604026313871
1744474942207213600,0.778213623046875,-2.4363462729245424,0.3021697599172592,0.3633123935462907
1744474942217211400,0.78821142578125,-1.8505296672523022,0.5171054730176925,0.5825847110789268
1744474942227208400,0.79820849609375,-1.2424690810680388,0.6095329968243837,0.7002534244522451
1744474942237206500,0.80820654296875,-0.7445557997763157,0.6035027767494321,0.676654960591346
1744474942247203300,0.818203369140625,-0.34234336487352846,0.5921013850301504,0.524644234492071
1744474942257201400,0.828201416015625,0.020023381853103636,0.5465557316467166,0.36385972523074595
1744474942267198200,0.8381982421875,0.3454571129798889,0.5170201328217983,0.24405067536048589
1744474942277196300,0.8481962890625,0.6077712478488684,0.48955841766148805,0.16734536561425775
1744474942287194400,0.8581943359375,0.8229103745669126,0.45528088500648733,0.15549173661544918
1744474942297191400,0.86819140625,0.9791618435084819,0.4545967021346092,0.14533698395639658
1744474942307189500,0.878189453125,1.0198866526067256,0.39229309843480586,0.18012670391723512
1744474942317186300,0.888186279296875,0.939388636046648,0.3245794523850083,0.2517830231782049
1744474942327184400,0.898184326171875,0.889617181661725,0.3296493029952049,0.3029104952819645
1744474942337182500,0.908182373046875,0.8195359296977519,0.3703928167939186,0.29935820962786674
1744474942347179500,0.918179443359375,0.66136839800179,0.37016952943205833,0.36072124454192817
1744474942357177600,0.928177490234375,0.4883925887525081,0.3436170380711555,0.4154218989573419
1744474942367174400,0.93817431640625,0.3048585606098175,0.32264234684258697,0.3965943027600646
1744474942377172500,0.94817236328125,0.09993044678270817,0.35525253080725666,0.35507165781501676
1744474942387170300,0.95817041015625,-0.11428396630585193,0.429294503095746,0.284656753449887
1744474942397167400,0.96816748046875,-0.3250660668581724,0.5375853664666413,0.26047581352591515
1744474942407165400,0.97816552734375,-0.504685551905632,0.6640814563527703,0.27482009029667825
1744474942417162500,0.98816259765625,-0.6644295391380787,0.8059346898466349,0.3091785061681643
1744474942427160600,0.99816064453125,-0.8434779462993145,0.90362320292145,0.302145429193601
1744474942437158400,1.008158447265625,-0.9865408478438854,0.9314172187760472,0.29616189780458807
1744474942447155500,1.018155517578125,-0.9562018236815929,0.9180366359382868,0.3409818307293579
1744474942457153300,1.0281533203125,-0.6900415347784757,0.8496554658904671,0.4501203604381531
1744474942467150300,1.038150390625,-0.2903431285232305,0.713860801783204,0.6050942837245762
1744474942477148400,1.0481484375,0.012227028888463973,0.5458993135645985,0.7325443863999098
1744474942487145500,1.0581455078125,0.22102643119096754,0.4539133960455656,0.7693334634844213
1744474942497143600,1.0681435546875,0.30200609378814697,0.45646512635499237,0.6832531167473643
1744474942507141400,1.078141357421875,0.2622773099899292,0.510603251516819,0.508313460079208
1744474942517138400,1.088138427734375,0.1050835917621851,0.5405059300884604,0.32033666371610015
1744474942527136300,1.09813623046875,-0.02318155362308025,0.5717129692569375,0.1724947112014517
1744474942537133600,1.108133544921875,0.040135611033439635,0.6359861194640397,0.1422411003002897
1744474942547131600,1.118131591796875,0.24066052146553993,0.6696411363065242,0.2180024802599102
1744474942557129500,1.12812939453125,0.5010042330443859,0.6454410532906651,0.3570888063237071
1744474942567126500,1.13812646484375,0.780143245986104,0.6108312199413776,0.53676491692923
1744474942577124400,1.148124267578125,1.0753542728066443,0.6335825654536485,0.6384897728480399
1744474942587121400,1.158121337890625,1.353335932406783,0.640493367755413,0.6870484904423355
1744474942597119200,1.168119140625,1.5619132163912057,0.6081660923853516,0.7489039119832217
1744474942607117300,1.178117431640625,1.6884154437571763,0.5167214421361684,0.748683912556991
1744474942617114600,1.188114501953125,1.6920494163453579,0.4018932859510183,0.6753400055352599
1744474942627112400,1.198112548828125,1.537818639576435,0.2914265398457646,0.5445625850681215
1744474942637109500,1.208109619140625,1.3985411017894744,0.22194062342643736,0.4363982706863433
1744474942647107300,1.218107421875,1.373438809236884,0.1847407735839486,0.39277036055773495
1744474942657105400,1.22810546875,1.3509259486556053,0.13182897534668445,0.4382020321726799
1744474942667102500,1.2381025390625,1.2864806567519902,0.07638181341290473,0.51985637916103
1744474942677100500,1.2481005859375,1.1953805821567773,0.043504795205593104,0.5481891780674457
1744474942687097600,1.25809765625,1.110879759696126,0.028461832113564012,0.5189191713761538
1744474942697095400,1.268095458984375,1.1107803909748792,0.05197860904037952,0.45017333273440596
1744474942707093500,1.278093505859375,1.1622183172672986,0.04562690192610025,0.4382990628063678
1744474942717090300,1.28809033203125,1.2477432220786808,-0.0184825821518898,0.4854165686164051
1744474942727088400,1.29808837890625,1.2337398311674594,-0.10147592265903949,0.5034442466076463
1744474942737085400,1.30808544921875,1.1732102514028548,-0.12207038239836693,0.4180851998824626
1744474942747083500,1.31808349609375,1.0637111812859772,-0.0864607243567705,0.279408623663336
1744474942757081600,1.32808154296875,0.9030670303434133,-0.08925707707703114,0.13428674376234412
1744474942767078400,1.338078369140625,0.7978098355799913,-0.0658136576473713,0.05458280018940568
1744474942777076500,1.348076416015625,0.7154477787137031,-0.014871698178350925,0.03101473146677017
1744474942787073300,1.3580732421875,0.5833095912873745,0.04320259738862514,0.04081979390531778
1744474942797071400,1.3680712890625,0.3852309049636125,0.08728986865729094,0.06071297350749373
1744474942807069400,1.3780693359375,0.14265958144068716,0.12942834394574165,0.11988806992322205
1744474942817066500,1.38806640625,-0.019131985971331596,0.05356996988505125,0.18578363370038567
1744474942827064600,1.398064697265625,0.11408230625391005,-0.07074877596199512,0.20186763027794657
1744474942837061400,1.408061279296875,0.4613461763948202,-0.07453326293677091,0.06671820527166128
1744474942847059500,1.4180595703125,0.5261684849172831,-0.034351474674046034,-0.18007979603558777
1744474942857056300,1.42805615234375,0.12802432236671446,-0.020605565655231476,-0.45163807152472435
1744474942867054300,1.438054443359375,-0.6081599549055099,0.024974282258749005,-0.676467475195229
1744474942877052700,1.448052734375,-1.2553992897897959,0.17393588645309208,-0.7886978699721395
1744474942887049500,1.458049560546875,-1.4910896216273306,0.39124534294754265,-0.8236144311830401
1744474942897047600,1.468047607421875,-1.2267910349428652,0.5805822121500969,-0.7620650068514049
1744474942907044400,1.47804443359375,-0.6485363889575004,0.6700026630952954,-0.6202767283525318
1744474942917042400,1.48804248046875,-0.08179331706762313,0.6519698705375194,-0.43171551969759164
1744474942927040300,1.498040283203125,0.11455635350644588,0.5259954664379358,-0.4291089173957705
1744474942937037600,1.50803759765625,-0.041752398580312725,0.375765157482028,-0.5991484905300661
1744474942947035400,1.518035400390625,-0.4005927247464657,0.2922320110097527,-0.8489070586759596
1744474942957032400,1.528032470703125,-0.8930606001138687,0.23768881217837332,-1.0546588369108736
1744474942967030500,1.538030517578125,-1.3071177865892647,0.37043110297769305,-1.1472392131917177
1744474942977028400,1.5480283203125,-1.5079945791989564,0.5254223427250981,-1.1160749902516602
1744474942987025400,1.558025390625,-1.5972382122725248,0.6413537839770317,-0.9795991389472037
1744474942997023200,1.568023193359375,-1.506156257855892,0.7374696409076452,-0.8197508876226842
1744474943007020500,1.5780205078125,-1.2437480149626732,0.8048457255661488,-0.6949835212253034
1744474943017018400,1.588018310546875,-0.8467933544576167,0.774121209217608,-0.5826285136880353
1744474943027016400,1.598016357421875,-0.39985096646845336,0.6021025545626878,-0.48540674134213474
1744474943037013500,1.608013427734375,-0.006544891598820686,0.349895679949224,-0.47918446929380293
1744474943047011300,1.61801123046875,0.2904880899518728,0.12743921595513819,-0.5332969485577196
1744474943057008400,1.62800830078125,0.4487450534969568,-0.010599427686631678,-0.6641805328130722
1744474943067006500,1.63800634765625,0.4185410538911819,-0.05879968723207712,-0.8216601553101092
1744474943077004500,1.648004638671875,0.22836042734086512,-0.1163312542244792,-0.9541671760488301
1744474943087001300,1.65800146484375,-0.11492284873127936,-0.14714023398607967,-1.0324972739852964
1744474943096999400,1.66799951171875,-0.4631932655662298,-0.1256353814035654,-1.088244880170375
1744474943106996500,1.67799658203125,-0.7899322340726852,-0.09464783020466566,-1.1393903993874788
1744474943116994300,1.687994384765625,-1.0021861607432365,-0.04309241501241922,-1.1711109410360454
1744474943126992400,1.697992431640625,-1.0952344467967747,0.04119067304432392,-1.1689348391059786
1744474943136989400,1.707989501953125,-1.0375824682950974,0.14899521420300005,-1.0563858798991888
1744474943146987500,1.717987548828125,-0.8983183745115995,0.2633528302669525,-0.9409218369632959
1744474943156984300,1.727984375,-0.7719336360454558,0.3737859663635492,-0.8193115463573485
1744474943166982400,1.737982421875,-0.6738730747878551,0.5170215941265225,-0.6917402284551412
1744474943176980500,1.74798046875,-0.5623427911043167,0.5975391921699047,-0.5960762069452553
1744474943186977300,1.757977294921875,-0.4736550383478403,0.6261325417086482,-0.4703217657392844
1744474943196975400,1.767975341796875,-0.3113946843802929,0.6048322717875242,-0.399837668595463
1744474943206972400,1.777972412109375,-0.07690554502606392,0.522968227571249,-0.35094935372062025
1744474943216970000,1.787969970703125,0.13802724546492098,0.4399991447225213,-0.3777411337301135
1744474943226968000,1.797968017578125,0.29535248111784457,0.33471681551784277,-0.44716903635188937
1744474943236964900,1.80796484375,0.38598902985453604,0.22331980282515287,-0.5593521944535896
1744474943246963000,1.817962890625,0.3832277484476566,0.15024813687354324,-0.6934640565730631
1744474943256960000,1.8279599609375,0.39361411790549755,0.0887660786896944,-0.7853254709295928
1744474943266958000,1.8379580078125,0.38001346257627006,0.010027180756628513,-0.8032929431661963
1744474943276956200,1.8479560546875,0.39208033246695995,-0.032358255030214784,-0.7519830271676182
1744474943286953000,1.857952880859375,0.3906692966252565,-0.009564531680941582,-0.6960166636653244
1744474943296951000,1.867950927734375,0.4234703269869089,0.07821604310274123,-0.6472541671272367
1744474943306947800,1.87794775390625,0.45646834122538565,0.1825540771946311,-0.6067506360968574
1744474943316946000,1.88794580078125,0.373681921467185,0.24747107826322315,-0.5685135156285017
1744474943326944000,1.897944091796875,0.11765490404367446,0.2723749256342649,-0.5121096009591594
1744474943336941000,1.907941162109375,-0.36103111420869827,0.30405718109905716,-0.4889581136807799
1744474943346939100,1.917939208984375,-0.8440373337477445,0.3304743556424975,-0.5080374196168035
1744474943356936000,1.92793603515625,-1.259690264981985,0.3795303552344441,-0.49733895200248807
1744474943366934000,1.93793408203125,-1.4537918643683194,0.48235652345865965,-0.4512386238783598
1744474943376931800,1.947931884765625,-1.496409939867258,0.5704916107684374,-0.3312275120973587
1744474943386929200,1.95792919921875,-1.4334645311325787,0.613141250449419,-0.1594290395317599
1744474943396927200,1.96792724609375,-1.3658908780753611,0.607644991120696,-0.08753518518786876
1744474943406924000,1.977924072265625,-1.398015616610646,0.6301216113448143,-0.1426395250333473
1744474943416922000,1.987922119140625,-1.3605267206937073,0.6758133952006697,-0.2814356725115329
1744474943426920000,1.997919921875,-1.1394453444451094,0.7165218376860022,-0.3942714127704501
1744474943436917000,2.0079169921875,-0.7989812174469232,0.7112874441638588,-0.4543913157556206
1744474943446914800,2.017914794921875,-0.473704138186574,0.6652367638677358,-0.5023788823984563
1744474943456912100,2.027912109375,-0.31011107431054113,0.6184682906910777,-0.6131763948280364
1744474943466910200,2.03791015625,-0.37056115909814835,0.6062596742421388,-0.7121836623512208
1744474943476908000,2.047907958984375,-0.4793026888459921,0.6771124951004982,-0.7735773115992546
1744474943486905000,2.057905029296875,-0.44927287676334376,0.8555424781024455,-0.7689951714407652
1744474943496903000,2.06790283203125,-0.19735855535566807,1.0879282154366374,-0.7463963861417025
1744474943506900000,2.07789990234375,0.2613186940908432,1.2474638206154107,-0.6722098908159881
1744474943516897800,2.087897705078125,0.8117255482077598,1.2709233143970369,-0.6131241531841457
1744474943526895900,2.097895751953125,1.3270745329469442,1.1324442335113882,-0.6259811505392193
1744474943536893200,2.10789306640625,1.6550947734355925,0.814414348900318,-0.650884267257899
1744474943546891000,2.11789111328125,1.743025570344925,0.4082306722790003,-0.7433724352106451
1744474943556888000,2.12788818359375,1.614897203081846,0.09371960944384336,-0.9192399473134427
1744474943566886000,2.137885986328125,1.4823621252924204,0.02743278132677078,-1.15758371626921
1744474943576884000,2.147884033203125,1.4288772033423185,0.19945874250531195,-1.4750458109296858
1744474943586881000,2.157881103515625,1.3382979377508162,0.48202948346137997,-1.7438319182917474
1744474943596879000,2.167879150390625,1.175184766346216,0.7922501556262374,-1.9327189979001878
1744474943606876000,2.1778759765625,0.9124550364136695,0.9818506442010402,-2.062055571909249
1744474943616874000,2.1878740234375,0.5996247662723064,1.091287754997611,-2.166240169005096
1744474943626872000,2.1978720703125,0.21784137141406534,1.2376055666849017,-2.292775567988306
1744474943636868900,2.207868896484375,-0.16162556319534777,1.298810561493039,-2.317766801381856
1744474943646867000,2.217866943359375,-0.3847960206776857,1.3223232467666268,-2.1383820018731057
1744474943656864000,2.227864013671875,-0.31958266701102256,1.3552210155010223,-1.8080813953623174
1744474943666862000,2.237862060546875,-0.04578735318481922,1.3600193556934594,-1.3397421452097593
1744474943676860200,2.247860107421875,0.3997141883462667,1.3577496571958063,-0.9501258647687733
1744474943686857000,2.25785693359375,0.9275573284775018,1.2384978393495083,-0.7198698329396546
1744474943696855000,2.26785498046875,1.4377999299883841,0.903994666582346,-0.5776236546054482
1744474943706851800,2.277851806640625,1.8531699526280163,0.46097851212620733,-0.4816959771906957
1744474943716850000,2.287849853515625,2.1346669268727303,-0.019947686268389223,-0.42465142653025684
1744474943726848000,2.297847900390625,2.276974626135826,-0.5165650825306772,-0.49589419655427336
1744474943736845000,2.307844970703125,2.3763152903318403,-1.0102174915075302,-0.6259153187613934
1744474943746843100,2.317843017578125,2.466285484114289,-1.4779504463300108,-0.6668897187065332
1744474943756840000,2.32783984375,2.5123919862508775,-1.8943489352345466,-0.609071809053421
1744474943766838000,2.337838134765625,2.4078905782908198,-2.1934394338369367,-0.4325027976177633
1744474943776835800,2.3478359375,2.139744084006548,-2.3626515066385267,-0.21995916728563605
1744474943786833200,2.357833251953125,1.75286307374835,-2.4040365332111713,0.03703435708247125
1744474943796831200,2.367831298828125,1.2647808661192654,-2.34019125302732,0.28560967026054856
1744474943806828000,2.377828125,0.7531184609383345,-2.2208280837610364,0.5343256340183318
1744474943816826000,2.387826171875,0.2990677022486925,-2.144100525650382,0.7893726274285465
1744474943826824000,2.397823974609375,-0.074178750410676,-2.0927374181598424,1.0370873782545327
1744474943836821000,2.407821044921875,-0.3004465893864631,-2.0779013758167624,1.2653069358199833
1744474943846818800,2.41781884765625,-0.4134171350061893,-2.1306787340193987,1.423253956633061
1744474943856816000,2.427816162109375,-0.450706708958745,-2.2099042464256287,1.5242581701271236
1744474943866814000,2.43781396484375,-0.48840369466841216,-2.2447426278337836,1.5763399472810327
1744474943876812000,2.44781201171875,-0.5441407794594765,-2.2842007779970763,1.556117243463546
1744474943886809000,2.45780908203125,-0.6446738683104515,-2.3563722802385687,1.4943983077839016
1744474943896807000,2.467806884765625,-0.8272855209112167,-2.3847972874730825,1.4241662491723894
1744474943906804000,2.477803955078125,-1.0529466261655092,-2.424249884678423,1.3018113507442175
1744474943916802000,2.487802001953125,-1.3005658807277678,-2.4795360108315943,1.1650528831060976
1744474943926800100,2.497800048828125,-1.5781553261399268,-2.51342220608145,0.9902404330141842
1744474943936797000,2.507796875,-1.8978361928284166,-2.5469308001905677,0.87477872816585
1744474943946795000,2.517794921875,-2.2092367224276064,-2.4738348765805362,0.735017936906591
1744474943956792000,2.5277919921875,-2.416438041883707,-2.3047540289431807,0.5203365638934075
1744474943966790000,2.537789794921875,-2.4795231513500213,-2.0543129949584604,0.3215308054041117
1744474943976788000,2.5477880859375,-2.388575052446127,-1.8257132059037684,0.21694434950910507
1744474943986785000,2.557784912109375,-2.2109692453086374,-1.665927425356209,0.19061967555470763
1744474943996783000,2.567783203125,-2.036875830206275,-1.5200643716990947,0.2548197605255991
1744474944006780000,2.57777978515625,-1.93300395232141,-1.444954477918148,0.38586423443108797
1744474944016778000,2.587778076171875,-1.7677859175920485,-1.340167238754034,0.5581492849372327
1744474944026776000,2.597776123046875,-1.5570979250639676,-1.2427239326119421,0.6643581544023007
1744474944036772900,2.60777294921875,-1.5685621528863907,-1.143769052863121,0.7029362337954342
1744474944046771000,2.61777099609375,-1.8172960906922817,-0.9839373873472214,0.6374891444381326
1744474944056768000,2.62776806640625,-2.130176629716158,-0.7135971824109554,0.49039844868220384
1744474944066766000,2.63776611328125,-2.435239188465476,-0.41973757019937036,0.291698050263524
1744474944076764200,2.64776416015625,-2.703305603250861,-0.13722440464943647,0.15280644305422902
1744474944086761000,2.657760986328125,-2.998017448377609,0.15783318517506123,0.07980002435855567
1744474944096759000,2.667759033203125,-3.1268396431237457,0.42108489315509795,0.019321882520243524
1744474944106756000,2.677756103515625,-2.992353431266546,0.6290259250625968,0.014204831767454743
1744474944116754200,2.687754150390625,-2.6697493706077338,0.8035632845401763,0.08178031145557761
1744474944126752000,2.697751953125,-2.2704724046349525,0.9293144012778997,0.18080270348265767
1744474944136749000,2.7077490234375,-1.791384819844365,1.0756173076570033,0.26100341759659346
1744474944146747100,2.7177470703125,-1.2294535321503877,1.2162199565678835,0.31716040830016134
1744474944156744000,2.727743896484375,-0.6010059914976358,1.3324585640728472,0.3725863082502037
1744474944166742000,2.737741943359375,0.0028027824610471724,1.4052087429851292,0.41349100395999844
1744474944176739800,2.74773974609375,0.5691542246848345,1.3894731214538216,0.4607949722528457
1744474944186737200,2.757737060546875,1.0262480043321847,1.3630746516108512,0.44795477990210053
1744474944196735000,2.76773486328125,1.4127379694461821,1.3433429461807012,0.4299336777821183
1744474944206732000,2.77773193359375,1.6894781045526266,1.3206898003458976,0.4316200234338641
1744474944216730400,2.78773046875,1.9448457812845705,1.2996826681524514,0.45449294949918984
1744474944226728400,2.797728515625,2.1372440838843585,1.2567954203233123,0.5024360194131732
1744474944236725200,2.807725341796875,2.2243244014441967,1.1561366592660545,0.5881831886731088
1744474944246723300,2.817723388671875,2.1642899117201564,1.0139327126383781,0.6618341158173978
1744474944256720600,2.827720703125,1.9082810144752262,0.8743646674722433,0.6003466508060693
1744474944266718500,2.837718505859375,1.5840046366900205,0.8204428154096007,0.3935748088084161
1744474944276716500,2.847716552734375,1.2601596360594034,0.8118924292072653,0.17656959595754743
1744474944286713300,2.85771337890625,0.8286778520524501,0.7796200988948345,-0.05341667901948094
1744474944296711400,2.86771142578125,0.25359423731863495,0.7828621495559811,-0.30844898631721734
1744474944306708200,2.877708251953125,-0.337017785936594,0.8496092886611819,-0.556981117940694
1744474944316706300,2.887706298828125,-0.950569370752573,0.9248431010827421,-0.6667044983327388
1744474944326704400,2.897704345703125,-1.630809642484784,0.9475862632885574,-0.6656343848831952
1744474944336701400,2.907701416015625,-2.2777643152087927,0.9526806638181209,-0.5703652079097926
1744474944346699500,2.917699462890625,-2.697195595937967,1.0661173656448721,-0.4392052178658545
1744474944356696300,2.9276962890625,-2.7683652276605364,1.2839631209731102,-0.334777898055315
1744474944366694400,2.9376943359375,-2.470990885326266,1.5016659606993197,-0.19853329822346566
1744474944376692500,2.9476923828125,-1.9026152437984942,1.616445309306681,-0.03168035576865077
1744474944386689500,2.957689453125,-1.2350748791635036,1.57241444440037,0.09370674996227026
1744474944396687600,2.9676875,-0.6158972711592913,1.3455126914352178,0.09586568156182765
1744474944406684400,2.977684326171875,-0.08883505227267742,1.0358329942792655,0.08949234713762998
1744474944416682500,2.9876826171875,0.3836380828142166,0.8573498197853565,0.026327012041956185
1744474944426680300,2.997680419921875,0.8514081547766923,0.7226414896100759,0.0037555531412363052
1744474944436677400,3.007677490234375,1.2950801427930592,0.549563096769154,0.09469123095497488
1744474944446675500,3.017675537109375,1.6467092224061488,0.39449060847908257,0.2237494264140725
1744474944456672500,3.027672607421875,1.8566443507403134,0.2658013924628496,0.3414288803771138
1744474944466670600,3.037670654296875,1.9953724379509685,0.20927987929582595,0.41578298735469577
1744474944476668400,3.04766845703125,1.9907892018139361,0.21024930884987114,0.4403991038255393
1744474944486665500,3.05766552734375,1.870612085816264,0.2936044684067368,0.46204541070535776
1744474944496663300,3.067663330078125,1.6226918024808168,0.42149025908559556,0.45324484913423657
1744474944506661400,3.077661376953125,1.4057172770291566,0.5072881356194615,0.44691038541570305
1744474944516658400,3.087658447265625,1.2888847952842712,0.5779948260053992,0.4477791310742497
1744474944526656500,3.097656494140625,1.239270577287674,0.627526041893661,0.4887073537901044
1744474944536653600,3.107653564453125,1.2586223434895276,0.5763482278421521,0.6093788291759789
1744474944546651400,3.1176513671875,1.2762561998575925,0.4679027584314346,0.7529746685534715
1744474944556649500,3.1276494140625,1.1521528503268956,0.34127924277335403,0.8459263623647392
1744474944566646300,3.137646240234375,0.9293798677295446,0.2542109079122543,0.8662835062168538
1744474944576644400,3.147644287109375,0.7684843723744154,0.2599997204467654,0.798582573518157
1744474944586641700,3.1576416015625,0.6998842988789081,0.18275486046373843,0.792038266441226
1744474944596639500,3.167639404296875,0.6134849493205548,0.047262686434388156,0.8597077810883521
1744474944606637600,3.177637451171875,0.5480050536721944,-0.06680354546755551,0.9265222863413393
1744474944616634400,3.18763427734375,0.3945604588449001,-0.09503975213170052,0.9050573273777961
1744474944626632400,3.197632568359375,0.21824293795228003,-0.0743853788986802,0.8089101985260844
1744474944636629200,3.207629150390625,0.14019056097865104,-0.06193243229985237,0.7288390290759503
1744474944646627300,3.21762744140625,0.10859130762219428,-0.0838993494361639,0.7050958960473537
1744474944656625400,3.22762548828125,0.11541676972806453,-0.10148702857494353,0.6825279442779719
1744474944666622500,3.23762255859375,0.12656827833950518,-0.16076280888617037,0.6439661584325135
1744474944676620500,3.24762060546875,0.09794307235777377,-0.2366144609451294,0.5990275310315192
1744474944686617300,3.257617431640625,0.15065993254482746,-0.31463147434443234,0.5024382113702595
1744474944696615400,3.267615478515625,0.2852963665276766,-0.3718029758527875,0.4022244176015258
1744474944706613500,3.277613525390625,0.3440191891312599,-0.4327060651049018,0.3174265118904412
1744474944716610300,3.2876103515625,0.3479565285801887,-0.540271829071641,0.23864172898903488
1744474944726608600,3.297608642578125,0.34343349819779395,-0.6411164680898189,0.18094971073791383
1744474944736605400,3.30760546875,0.31150749710500236,-0.7215247605398297,0.0988067034497857
1744474944746603500,3.317603515625,0.2908499090015888,-0.8000152366697788,-0.0025400398716330526
1744474944756601300,3.327601318359375,0.22032851205468176,-0.9116045570641755,-0.144535166054219
1744474944766598400,3.337598388671875,0.17071604762375353,-1.0214736295372246,-0.3387276585943997
1744474944776596500,3.347596435546875,0.12251929520964622,-1.145154662002623,-0.524291438999027
1744474944786593500,3.357593505859375,0.08795885396003722,-1.2646011256381868,-0.6113080436728895
1744474944796591600,3.367591552734375,0.08620295020341873,-1.33783411963135,-0.5899952065311372
1744474944806589400,3.37758935546875,0.0934019217967987,-1.32497493031919,-0.4892791623286903
1744474944816586500,3.38758642578125,0.0007657236754894256,-1.226349428655207,-0.37082609364464875
1744474944826584300,3.397584228515625,-0.16552958489656447,-0.9997647788152098,-0.2745249432750046
1744474944836581400,3.407581298828125,-0.34110710107684133,-0.7369491241648792,-0.16199936494380235
1744474944846579200,3.4175791015625,-0.4789917232006788,-0.5424412820652127,0.008014671890437603
1744474944856577300,3.427577392578125,-0.6583744768828154,-0.3707648649767041,0.1668544037595391
1744474944866574600,3.43757470703125,-0.8373638473331928,-0.2113771438360214,0.27797975990399715
1744474944876572400,3.447572509765625,-0.9055138389736413,-0.0924845146909356,0.4165392125494778
1744474944886570500,3.457570556640625,-0.7488333309650421,-0.07466302679628134,0.5171877444736659
1744474944896567300,3.4675673828125,-0.4058405622720718,-0.1344499715000391,0.4793852525629103
1744474944906565400,3.4775654296875,-0.16273732382953165,-0.18808131618350743,0.3704369481965899
1744474944916562400,3.4875625,-0.13500409825146198,-0.13646744880229233,0.2102881795555353
1744474944926560500,3.497560546875,-0.23346739509105682,-0.053587505541741846,0.04604351990297437
1744474944936558600,3.50755859375,-0.44581952143907544,0.03483399749398231,-0.0657009910531342
1744474944946555400,3.517555419921875,-0.6667758100032806,0.1299459380790591,-0.11732406465411185
1744474944956553500,3.527553466796875,-0.7098451364010572,0.2563233700215816,-0.16343027452975512
1744474944966550300,3.53755029296875,-0.453075191655755,0.4086109037682414,-0.19325345812439917
1744474944976548400,3.54754833984375,-0.14456979897618294,0.47534722921848294,-0.1607771296724677
1744474944986546400,3.55754638671875,0.018173954594135282,0.44742344950437546,-0.10466565861105918
1744474944996543500,3.56754345703125,0.02083236014842987,0.43946167684495446,-0.06995704106241464
1744474945006541600,3.57754150390625,-0.06815466781556606,0.5455237582504749,-0.1258379182383418
1744474945016538400,3.587538330078125,-0.2256722111701965,0.6801084620460868,-0.23685879109501837
1744474945026536400,3.597536376953125,-0.38952538728713987,0.8142500982493162,-0.3661521104842424
1744474945036534500,3.607534423828125,-0.3908370544075966,0.9222893249467015,-0.45597573540285224
1744474945046531300,3.61753125,-0.18704466661214827,0.9829808172747492,-0.4511179201081395
1744474945056529400,3.627529296875,0.12999065400362014,1.0169979454278946,-0.3613772972978651
1744474945066526500,3.6375263671875,0.3854425018876791,0.9915408480882644,-0.22163988691419362
1744474945076524500,3.647524658203125,0.5697457608371973,0.9546119241416454,-0.16616949023529887
1744474945086522400,3.6575224609375,0.6786971339434384,0.92653499969244,-0.17455445674285291
1744474945096519400,3.66751953125,0.7418541396021843,0.8741481021121144,-0.23496420952007174
1744474945106517200,3.677517333984375,0.7551654565960169,0.7991866768911481,-0.3446400975085795
1744474945116514600,3.6875146484375,0.7214584173053502,0.7559729735866189,-0.49082566111832854
1744474945126512600,3.6975126953125,0.6644108344376087,0.7548983300924301,-0.7258370707809925
1744474945136510500,3.707510498046875,0.5652578017681836,0.788828656744957,-0.9641504445984959
1744474945146507500,3.717507568359375,0.42255204309821126,0.7381564541280269,-1.1161840035840869
1744474945156505300,3.72750537109375,0.3001239333033561,0.6755877697512507,-1.1959544365219772
1744474945166503400,3.73750341796875,0.266399358355999,0.5954205925807357,-1.1998327392600476
1744474945176500200,3.747500244140625,0.19566928709447381,0.4385261495605111,-1.104275831386447
1744474945186498300,3.757498291015625,0.05904021798968315,0.28122137217372656,-1.0248610800184308
1744474945196495600,3.76749560546875,-0.08251870873272418,0.24730975022166965,-1.014026236140728
1744474945206493400,3.777493408203125,-0.21733868258893488,0.29977146660387516,-1.0888947223812342
1744474945216491800,3.78749169921875,-0.4523638285160064,0.34796880353987214,-1.192787058532238
1744474945226488600,3.797488525390625,-0.8210854972273111,0.34396424407362935,-1.2266184548549353
1744474945236486700,3.807486572265625,-1.1865940491110085,0.422030357311666,-1.2181892108142376
1744474945246483500,3.8174833984375,-1.4764695601224898,0.5137549935460091,-1.1559637869171797
1744474945256481500,3.8274814453125,-1.6221721625208854,0.7133318094730376,-1.0096332618787884
1744474945266479600,3.837479736328125,-1.5146820941388606,0.9755667416259646,-0.8045476194024086
1744474945276476700,3.8474765625,-1.2211217571347952,1.1645645881325006,-0.5700871216207742
1744474945286474800,3.857474853515625,-0.7743570638000965,1.2355313907593488,-0.32465134857743977
1744474945296471600,3.867471435546875,-0.2369669276446104,1.1676192995280026,-0.14352774257734416
1744474945306469600,3.8774697265625,0.26988603142797946,1.0538821534499525,-0.05122647549882531
1744474945316467500,3.887467529296875,0.6918155587136745,0.9259276814490556,-0.05342573910877108
1744474945326464800,3.89746484375,1.0685136131316422,0.7887114601060747,-0.16639350824952123
1744474945336462800,3.907462890625,1.3591279598116874,0.6609945962533355,-0.31774419953748584
1744474945346460700,3.917460693359375,1.5307511854082345,0.44634208400845526,-0.4780972585789859
1744474945356457700,3.927457763671875,1.5443044944643973,0.2086889276653528,-0.6318719621434807
1744474945366455600,3.93745556640625,1.4798305609881877,-0.02602934426963329,-0.7323064129255712
1744474945376452600,3.94745263671875,1.3992735077172518,-0.18384002535194158,-0.8001334562219679
1744474945386450400,3.957450439453125,1.2622428720742462,-0.23887919100672006,-0.8584789699457586
1744474945396448500,3.967448486328125,1.0490718305587767,-0.26433336573690175,-0.8919367106504738
1744474945406445800,3.97744580078125,0.8541448862642049,-0.20825433564037082,-0.9142074330389499
1744474945416443600,3.987443603515625,0.7776064209848642,-0.11671265475749969,-0.9303818843789398
1744474945426440700,3.997440673828125,0.8362982639282941,-0.11579729347825049,-0.9070835725083947
1744474945436438500,4.0074384765625,0.9920499666541814,-0.18970774834156034,-0.8408813539348542
1744474945446436600,4.0174365234375,1.2054051325649022,-0.3150269034028053,-0.7785306962229311
1744474945456433400,4.027433349609375,1.3403788356781006,-0.4755614564910531,-0.7534197819724678
1744474945466431700,4.037431640625,1.3020306925833225,-0.6507347757846117,-0.7144041879449039
1744474945476429800,4.047429931640625,1.0790846915066241,-0.8068319309473038,-0.6876399535294622
1744474945486426600,4.057426513671875,0.8573135794281959,-0.8683230492204427,-0.6559440348654985
1744474945496424700,4.0674248046875,0.7901677963942288,-0.8620484989956021,-0.5733529184836894
1744474945506421500,4.07742138671875,0.7867308076828717,-0.9074766634792089,-0.4482436067808419
1744474945516419600,4.087419677734375,0.8123024713128805,-0.9709788293138146,-0.3301718655645847
1744474945526417700,4.097417724609375,0.7696025627493858,-1.0409876005634664,-0.2407253303300589
1744474945536414700,4.107414794921875,0.665243778130412,-1.1056263692125678,-0.11844612748660147
1744474945546412800,4.117412841796875,0.5107447058141231,-1.1233768376976252,-0.0032842823676764964
1744474945556409600,4.12740966796875,0.3564104686707258,-1.1186053855121134,0.09412417165674268
1744474945566407700,4.13740771484375,0.22335691996514795,-1.078165530835092,0.21374906059913337
1744474945576405500,4.147405517578125,0.10445756881833076,-1.0437862913712859,0.31335232125408946
1744474945586402600,4.157402587890625,0.011490531307458876,-1.0167392944917082,0.40214937960393726
1744474945596400600,4.167400634765625,-0.06401274570524693,-0.973437912903726,0.41819611291103065
1744474945606397700,4.177397705078125,-0.11526947021186351,-0.9281240224495529,0.40653680090792477
1744474945616395800,4.187395751953125,-0.15579671091139316,-0.8789502416968346,0.3791726278379559
1744474945626393600,4.1973935546875,-0.20332652384936808,-0.8576409116864204,0.33211087080314755
1744474945636390700,4.207390625,-0.28338030377328394,-0.8212158456087112,0.24802242853567003
1744474945646388500,4.217388427734375,-0.3205716780483723,-0.755967128367722,0.15997845357544718
1744474945656386600,4.227386474609375,-0.30731647515594956,-0.6462193441867828,0.11876038106754422
1744474945666383600,4.237383544921875,-0.24750468827188013,-0.54298722551018,0.08763912048637866
1744474945676381700,4.247381591796875,-0.09955284564197063,-0.444143697181344,0.056752253182977434
1744474945686378800,4.257378662109375,0.10277589934170246,-0.3801303669542074,0.026577333541214464
1744474945696376600,4.26737646484375,0.2869593313038349,-0.39444793838113545,0.018438998738490045
1744474945706374700,4.277374755859375,0.3967600147157907,-0.5172749843657016,0.07799761457908898
1744474945716371500,4.287371337890625,0.40117198593914505,-0.6020978783875703,0.12095964467748999
1744474945726369500,4.29736962890625,0.44454292563199993,-0.5160553794428706,0.03629354865252971
1744474945736366800,4.307366943359375,0.6053367141783237,-0.32319033611416814,-0.09717621617112308
1744474945746364700,4.31736474609375,0.7312339613884687,-0.14171031789183616,-0.2147436976596713
1744474945756362800,4.32736279296875,0.8065157046049832,-0.10061755226403474,-0.30723778389655054
1744474945766359600,4.337359619140625,0.7355921565979718,-0.2020776928320527,-0.37122904842235144
1744474945776357600,4.347357666015625,0.5953086566388607,-0.39643355924040075,-0.4199499343084171
1744474945786355700,4.357355712890625,0.42277123880684375,-0.47126434381902216,-0.3751482676927
1744474945796352500,4.3673525390625,0.23957974049150943,-0.4608548857465386,-0.2646993860376999
1744474945806350600,4.3773505859375,0.005159574720263481,-0.3881269186660647,-0.0944699163544923
1744474945816347600,4.38734765625,-0.2929647091984749,-0.3364493383988738,0.10225059682596474
1744474945826345700,4.397345703125,-0.49460897904932494,-0.27382512444257734,0.23045681509822605
1744474945836343600,4.407343505859375,-0.5170931980580091,-0.2574611418798566,0.35630211292542513
1744474945846340600,4.417340576171875,-0.41490649678111075,-0.3571683013007045,0.5308084927428514
1744474945856338700,4.427338623046875,-0.30732933463752266,-0.605946078248322,0.7320345371816307
1744474945866335700,4.437335693359375,-0.32879414747059343,-0.9045540540307759,0.9091006114192306
1744474945876333800,4.447333740234375,-0.543494298249483,-1.1353478459984063,1.0431335996162145
1744474945886331600,4.45733154296875,-1.0004588985592127,-1.1763573172569275,1.0368443632788955
1744474945896328700,4.46732861328125,-1.668062976080179,-0.9595093407943844,0.935499081262201
1744474945906326500,4.477326416015625,-2.316704578977823,-0.6542360619038343,0.8064336523447185
1744474945916324600,4.48732470703125,-2.7299638930737973,-0.33361440723389385,0.6826443371992558
1744474945926321700,4.49732177734375,-2.8701702361434696,-0.1001028807401657,0.5508178460706025
1744474945936319500,4.507319580078125,-2.8846126029938457,-0.05635141729712486,0.6028752559682354
1744474945946316800,4.51731689453125,-2.790256741473079,-0.17689707434624433,0.7353966340258717
1744474945956314600,4.527314697265625,-2.61567057441771,-0.32637890302240846,0.763070822893083
1744474945966312700,4.537312744140625,-2.467100892150402,-0.47499330121427774,0.8038027193192392
1744474945976309500,4.5473095703125,-2.3639427154928443,-0.5346323618799448,0.8340641482006758
1744474945986307600,4.5573076171875,-2.2026982605695724,-0.45206689139604567,0.8139218892082571
1744474945996305700,4.5673056640625,-1.9022633616209028,-0.30299656613022086,0.8146983534734695
1744474946006302700,4.577302734375,-1.492055251789093,-0.12722352737784384,0.9083348877437413
1744474946016300800,4.58730078125,-1.0229816960126161,-0.02189151381254196,1.0827807695455849
1744474946026297600,4.597297607421875,-0.5819897408604622,-0.03962561568468809,1.2744599640905856
1744474946036295700,4.607295654296875,-0.2813514282941818,-0.13541443261802197,1.4023545225977896
1744474946046293800,4.617293701171875,-0.23146014692187308,-0.22673282613903284,1.393312261225283
1744474946056290600,4.62729052734375,-0.4996270994722843,-0.2912912230283022,1.2114553725145756
1744474946066288600,4.63728857421875,-0.9294073402583598,-0.3226344557970762,0.9563662204630672
1744474946076285700,4.64728564453125,-1.428067056003213,-0.30008740068525075,0.7258036069028079
1744474946086283800,4.65728369140625,-1.8688135119616984,-0.18014467796534298,0.5419349765108898
1744474946096281600,4.667281494140625,-2.1200135476201774,-0.017459376583993432,0.43722902242206035
1744474946106278700,4.677278564453125,-2.133594329205155,0.1746332210674882,0.43206382167860863
1744474946116276700,4.68727685546875,-2.0258827270269393,0.3413242509588599,0.45098128811642524
1744474946126273500,4.6972734375,-1.809874416258931,0.5015843710198998,0.3656149348676204
1744474946136271600,4.707271728515625,-1.6473843451887369,0.620075433626771,0.2449628217693418
1744474946146269400,4.71726953125,-1.6272896516650914,0.6897194632172584,0.06893352496726438
1744474946156266800,4.727266845703125,-1.6902274616152047,0.7357073074102402,-0.12776397266378625
1744474946166264600,4.7372646484375,-1.6930875272214412,0.7694023640021681,-0.2900029915823601
1744474946176262700,4.7472626953125,-1.634614295464754,0.8472901980638503,-0.41618798795901235
1744474946186259700,4.757259765625,-1.4614309809446333,0.9650774963155389,-0.5229246806904674
1744474946196257500,4.767257568359375,-1.1020996563911438,1.1845666349366306,-0.5650584798038005
1744474946206254800,4.7772548828125,-0.6257493876099586,1.3863243020340799,-0.47679004843793804
1744474946216252200,4.787252197265625,-0.08435060033500194,1.5451801082551477,-0.3672259502608329
1744474946226250200,4.797250244140625,0.423199693351984,1.6465508169740437,-0.25759138066340237
1744474946236247000,4.8072470703125,0.8495639882147311,1.737460045172274,-0.17377013796474783
1744474946246245000,4.8172451171875,1.258293257665634,1.7745742625579237,-0.13015139752328395
1744474946256243200,4.8272431640625,1.61528181848526,1.7234569465219973,-0.10770254208892584
1744474946266240000,4.837239990234375,1.8351871366918087,1.6000100150734184,-0.11808547748066484
1744474946276238000,4.847238037109375,1.9454472543090582,1.4520137487798928,-0.16068046436496078
1744474946286235100,4.857235107421875,1.9764654929071663,1.3239029171735048,-0.23997809215933083
1744474946296233200,4.867233154296875,1.8633154990673064,1.2668664402216672,-0.38425351129882035
1744474946306231000,4.87723095703125,1.7160042924284935,1.287822134488821,-0.4804930676743388
1744474946316228000,4.88722802734375,1.6016928535938262,1.3427449802875517,-0.5289174913644791
1744474946326226200,4.89722607421875,1.5433675058752296,1.4012024299532175,-0.5737772083103656
1744474946336223200,4.90722314453125,1.530826588732004,1.386292445591092,-0.5395300707936287
1744474946346221300,4.91722119140625,1.5719962189882992,1.3387427589088678,-0.5147992419019342
1744474946356219100,4.92721923828125,1.6265397100806236,1.268079323142767,-0.4635323613274842
1744474946366216200,4.93721630859375,1.7064835998892782,1.200601531675458,-0.40145540599040686
1744474946376214000,4.947214111328125,1.8339234003663063,1.1201216352939605,-0.31535591616146263
1744474946386212000,4.957212158203125,1.9388100082516668,1.0320651661783455,-0.2233504902243614
1744474946396209200,4.967209228515625,2.0823831974059344,0.95945234991014,-0.21633264735154806
1744474946406207000,4.97720703125,2.167259867441654,0.8779372652620077,-0.28637239826135336
1744474946416204300,4.987204345703125,2.1415221995949745,0.9778706346541642,-0.34241876819729805
1744474946426202000,4.9972021484375,2.195944110134244,1.1504372785806656,-0.4099362340878695
1744474946436200200,5.0072001953125,2.2540637061476705,1.1603957780152558,-0.5069429754436016
1744474946446197000,5.017197021484375,2.2347458422154185,0.9259159910112619,-0.5224008029468358
1744474946456195000,5.027195068359375,2.1925264106452462,0.6764286044895649,-0.48063233001455663
1744474946466192100,5.037192138671875,2.1720681445062158,0.4532476256132126,-0.4001134898621589
1744474946476190200,5.047190185546875,2.0086913537293674,0.4110404690027237,-0.39837417191416025
1744474946486188300,5.057188232421875,1.7965011399447917,0.4744079025417566,-0.5580823571808636
1744474946496185000,5.06718505859375,1.6775263854742049,0.5625362678498029,-0.6363038801763207
1744474946506183200,5.07718310546875,1.7015408827900886,0.625194676336646,-0.7093644402120262
1744474946516181200,5.08718115234375,1.7954080840110778,0.7630658544570207,-0.8411318215645849
1744474946526178000,5.097177978515625,1.839574557995796,0.6615449236124754,-0.8154901614382862
1744474946536176000,5.107176025390625,1.8812731805622576,0.4992705411195755,-0.7962452896770089
1744474946546173200,5.117173095703125,1.7885107257127761,0.4031412401854992,-0.7432651023786515
1744474946556171300,5.127171142578125,1.3816156859517097,0.3931827407509088,-0.5962450607061386
1744474946566169000,5.137169189453125,0.840860457277298,0.52110126465559,-0.3965876538235694
1744474946576166100,5.147166259765625,0.4654764080673456,0.6866331876397133,-0.3314302681278437
1744474946586164200,5.157164306640625,0.3383762148082256,0.8582628429770469,-0.4877226536016911
1744474946596161000,5.1671611328125,0.24928046577274798,1.0238377283200621,-0.7176575637176632
1744474946606159000,5.1771591796875,0.06983166111707687,1.1342512829333544,-0.9516970596082508
1744474946616157000,5.187156982421875,-0.15307459247112273,1.1622288386613129,-1.1160316625665874
1744474946626154200,5.197154296875,-0.40968087108731266,1.1346169013753533,-1.2026092913012951
1744474946636152000,5.207152099609375,-0.6729635587275028,1.1230687946617604,-1.1355128273017703
1744474946646150100,5.217150146484375,-0.974918799111247,0.9836465877071022,-1.1035102538414299
1744474946656147200,5.227147216796875,-1.1752449721008538,0.8547957513883709,-1.135458320635557
1744474946666145000,5.23714501953125,-1.294347736865282,0.7783265519529581,-1.120958816770464
1744474946676142300,5.247142333984375,-1.3263836280733345,0.6618517976045608,-1.097057424440235
1744474946686140200,5.25714013671875,-1.295259591013193,0.5489239220827817,-1.0615091411970554
1744474946696138200,5.26713818359375,-1.3348136027663946,0.5389432108163833,-0.9976265977427363
1744474946706135000,5.277135009765625,-1.4921078587591647,0.5525426971018313,-0.9918336935549974
1744474946716133000,5.287133056640625,-1.8370318877756595,0.5332751020520925,-1.024590081057325
1744474946726130200,5.297130126953125,-2.2891806122362612,0.47099955540299415,-0.9470661849372088
1744474946736128000,5.3071279296875,-2.63844237819612,0.3720309393897652,-0.7779103723675013
1744474946746126000,5.3171259765625,-2.9040163916438817,0.39308424881249665,-0.6506150949276983
1744474946756123100,5.327123046875,-2.9792081184893844,0.4545575391680002,-0.5611712631069123
1744474946766121200,5.337121337890625,-2.8536171607494354,0.4191398965671658,-0.5560672544987872
1744474946776119300,5.347119384765625,-2.6821236990123984,0.23044395561665296,-0.5453074486186728
1744474946786116000,5.3571162109375,-2.444517888942361,-0.0011205284625291825,-0.5364389729104936
1744474946796114200,5.3671142578125,-2.0766420234054324,-0.15759090085178612,-0.5038900176137685
1744474946806111000,5.377111083984375,-1.6265063923329115,-0.23816022908240556,-0.5486976390462368
1744474946816109000,5.387109130859375,-1.255712009000778,-0.2077756122127175,-0.644130993605405
1744474946826107100,5.397107177734375,-0.9443763613313436,-0.14180091878473758,-0.7026327208042145
1744474946836104200,5.407104248046875,-0.68790744535923,-0.14847820459157227,-0.6896247706711292
1744474946846102300,5.417102294921875,-0.45672202372550963,-0.18646335959285495,-0.7281590839877724
1744474946856099000,5.42709912109375,-0.2782861955046654,-0.23010142578929663,-0.8066398424413055
1744474946866097200,5.43709716796875,-0.25161679976582524,-0.2275529103502631,-0.9078868517152965
1744474946876095000,5.447094970703125,-0.3387210827231407,-0.20303192481696605,-0.9702994687475264
1744474946886092300,5.45709228515625,-0.4565490052461624,-0.14386866496950387,-0.9559184766955673
1744474946896090000,5.467090087890625,-0.48479368747770785,-0.07657002946138382,-0.835904880696535
1744474946906088200,5.477088134765625,-0.4192454027682543,0.01059153664112091,-0.6397822968766093
1744474946916085200,5.487085205078125,-0.28983459447920323,0.05219692796617746,-0.40150538261197505
1744474946926083000,5.4970830078125,-0.08020634013712406,0.03549509175121784,-0.16458960063271225
1744474946936080100,5.507080078125,0.1445756441950798,-0.019938918440043925,0.011981383564323185
1744474946946078000,5.517077880859375,0.33543022448420523,-0.13976532130390404,0.11697853915207088
1744474946956076000,5.527075927734375,0.4406295515805483,-0.2863113887891173,0.16291231507025658
1744474946966073000,5.537072998046875,0.46797991532087324,-0.4076192623823881,0.22133104016073046
1744474946976071200,5.5470712890625,0.404055432420969,-0.46696606210321184,0.25831863549202677
1744474946986069200,5.5570693359375,0.35409167033433914,-0.5208199634961783,0.2438421471763402
1744474946996066000,5.567066162109375,0.38724049122035503,-0.5772853625617921,0.2289179150931537
1744474947006064000,5.577064208984375,0.4041103774785995,-0.632228666626662,0.28419257000423964
1744474947016061200,5.587061279296875,0.2759317413330078,-0.6238483762942254,0.330827333798632
1744474947026059300,5.597059326171875,0.066793316334486,-0.5753180080115795,0.32737646269239484
1744474947036057300,5.607057373046875,-0.09728899236321449,-0.5865129173733293,0.33105259392187
1744474947046054100,5.61705419921875,-0.1813619448006153,-0.5905203994490206,0.3552011659462005
1744474947056052200,5.62705224609375,-0.18166648070514202,-0.5964430674962699,0.45331484563052654
1744474947066050000,5.637050048828125,-0.14437281509935854,-0.6863029327720404,0.5952074612867087
1744474947076047000,5.647047119140625,-0.15117957250475883,-0.8212368883967399,0.7323741443995386
1744474947086045000,5.657044921875,-0.1620201154708862,-0.970369026852399,0.8012727624502033
1744474947096042200,5.667042236328125,-0.13753273994624615,-1.0519206441186368,0.8578967861436307
1744474947106040300,5.677040283203125,-0.13462474354505538,-1.126553129646182,0.9190447900675237
1744474947116038100,5.6870380859375,-0.09841945769786835,-1.163442890626192,0.924837182798609
1744474947126035200,5.69703515625,0.0531254409879446,-1.1142954133585095,0.9285238354220986
1744474947136033000,5.707032958984375,0.1940881553828716,-1.0491846432834864,0.9520319906510412
1744474947146031000,5.717031005859375,0.4029635455310345,-1.0901346394397318,1.0064850269809364
1744474947156028200,5.727028076171875,0.6193751764029264,-1.2308275969825684,1.0662019751884042
1744474947166026200,5.737026123046875,0.8427379415869712,-1.4171739060670137,1.067236432802677
1744474947176023300,5.747023193359375,0.964422539538145,-1.609390130098164,1.077323015596345
1744474947186021000,5.757021240234375,0.9817816706180572,-1.7866992923766374,1.0891663058642298
1744474947196019200,5.767019287109375,0.8095943813979625,-1.9146843056462703,1.0497720877826213
1744474947206016000,5.77701611328125,0.5379658902168274,-1.968037417910248,0.9808332838520407
1744474947216014000,5.78701416015625,0.2949988453745842,-1.9810292936913667,0.9730532975003122
1744474947226012000,5.797011962890625,0.19424656081497668,-1.9676852434717118,0.9920751741606741
1744474947236009200,5.80700927734375,0.12246668823957442,-1.9626376046933232,1.0413172709092497
1744474947246007000,5.817007080078125,-0.02468085227012634,-1.9142878536745904,1.1204317972216755
1744474947256004000,5.827004150390625,-0.3028407910466194,-1.795667757860571,1.1516145787317305
1744474947266002000,5.837001953125,-0.6081015027165413,-1.636025915828347,1.1591123871412128
1744474947276000000,5.847,-0.8743360258996487,-1.4802477634869515,1.1514465286884457
1744474947285997000,5.8569970703125,-1.0600614266067743,-1.3113098314516245,1.0612903838798402
1744474947295995000,5.866994873046875,-1.088352286067605,-1.1907060144744812,0.9854502030629664
1744474947305993000,5.876992919921875,-0.9991355410009622,-1.1343171877764164,0.8604646638702601
1744474947315990000,5.886989990234375,-0.8439017246693372,-1.134312219340354,0.6574064355682582
1744474947325988000,5.896988037109375,-0.5832733509302139,-1.2524373712442816,0.5117018604084849
1744474947335985000,5.90698486328125,-0.2556365568011999,-1.4180444052912293,0.39588863870874047
1744474947345983000,5.91698291015625,-0.05266717582643032,-1.5251412365719674,0.28740912089794873
1744474947355981000,5.92698095703125,-0.19996844559311866,-1.5666018125988541,0.13679974949657916
1744474947365978000,5.93697802734375,-0.7828262014597653,-1.5739236799195409,-0.09074833854809403
1744474947375976200,5.94697607421875,-1.6021125403106211,-1.4279868303738534,-0.2071963510200381
1744474947385974300,5.956974365234375,-2.4834634134083986,-1.20426210000962,-0.07938106829412281
1744474947395971000,5.96697119140625,-3.3135569774776696,-0.9530211478188634,0.10550868530645965
1744474947405969200,5.97696923828125,-3.908428411743045,-0.6933275707118213,0.2004075676627457
1744474947415967000,5.986967041015625,-4.12185021314919,-0.47022404098585247,0.16477080241851508
1744474947425964000,5.996964111328125,-4.088922926059365,-0.37269875564873217,0.025840178373083472
1744474947435961900,6.0069619140625,-3.844066121947765,-0.4431520557954907,-0.0011090572204440832
1744474947445959200,6.016959228515625,-3.4285686735361813,-0.5636455442659557,0.08120558030754327
1744474947455957200,6.026957275390625,-2.9992642335683106,-0.6724759213410317,0.23342297142744062
1744474947465955000,6.036955078125,-2.6530501647412774,-0.7387374688863754,0.4461487533934414
1744474947475952000,6.0469521484375,-2.3616747705608603,-0.6399601376615465,0.5975695142429321
1744474947485950000,6.056949951171875,-2.0366005203962323,-0.36250118676126003,0.5772897464759648
1744474947495948000,6.066947998046875,-1.6046873592346906,-0.022681202885508536,0.43006665651202197
1744474947505945000,6.076945068359375,-1.1762497652292252,0.19639760136902332,0.27235278686769304
1744474947515943200,6.086943115234375,-0.8494570207089185,0.31450726344287394,0.10754610941819846
1744474947525940000,6.09693994140625,-0.6265887610435485,0.3800798058107495,-0.019536621249467135
1744474947535938000,6.10693798828125,-0.4728104042172432,0.3551993393152952,-0.03278400616161525
1744474947545936100,6.11693603515625,-0.4721335278689861,0.28187282181978224,0.016846870708838103
1744474947555933000,6.126932861328125,-0.5540607004493474,0.2731424028754234,0.09386581298150122
1744474947565931000,6.136930908203125,-0.6995218953073025,0.36449966710209847,0.14705978916101156
1744474947575929000,6.14692919921875,-0.9059376173436641,0.5419859395131469,0.2211232426289469
1744474947585926100,6.156926025390625,-1.0740069498509168,0.749536510798335,0.26089031261093915
1744474947595924200,6.16692431640625,-1.1475310357451438,0.9278615721210837,0.2637937059022486
1744474947605921000,6.176921142578125,-1.2043652681231498,1.052389284543693,0.24755334971919654
1744474947615919000,6.186919189453125,-1.3093950838714836,1.1853890572354198,0.1956928141005337
1744474947625917000,6.1969169921875,-1.4411848962515592,1.363224581475556,0.10879778997972607
1744474947635914000,6.2069140625,-1.5790215875804423,1.477489550819993,-0.03901983181126416
1744474947645912000,6.216912109375,-1.6482856779426336,1.4947931523203848,-0.23701726959235964
1744474947655910000,6.226909912109375,-1.6643308038145304,1.4824644166231153,-0.43348859378471966
1744474947665907200,6.2369072265625,-1.6450293064951895,1.4896180877700447,-0.5900932600781321
1744474947675905000,6.246905029296875,-1.5127613552093504,1.598559816265106,-0.6605963176507502
1744474947685902000,6.256902099609375,-1.268095689755678,1.7332976647958158,-0.6672218002051115
1744474947695900000,6.26689990234375,-0.9753355632185935,1.9057669858276842,-0.5536984430082142
1744474947705898000,6.27689794921875,-0.6899900968521833,2.068196266621351,-0.3607072890818119
1744474947715895000,6.28689501953125,-0.4316968880623579,2.2549615317702294,-0.17991598377600312
1744474947725893000,6.29689306640625,-0.14619769243896005,2.435969840827584,-0.05740516413375735
1744474947735891200,6.30689111328125,0.1612193204820156,2.548146605721116,0.03614033085219562
1744474947745888000,6.316887939453125,0.45180093393623827,2.651784674850106,0.1261722282266244
1744474947755886000,6.326885986328125,0.7473018836140632,2.676183203047514,0.149873056483455
1744474947765883000,6.3368828125,0.9934007967412471,2.6550416308194396,0.08309943123012781
1744474947775881000,6.346880859375,1.2208821031600237,2.5977006179630755,0.014752419180236755
1744474947785879000,6.356879150390625,1.4502619366765022,2.549381115952134,-0.04773468786031008
1744474947795876000,6.3668759765625,1.6801695934593677,2.512204354724288,-0.10699066749252378
1744474947805874200,6.376874267578125,1.8968197092622519,2.4875217488884926,-0.11262909350460394
1744474947815872000,6.3868720703125,2.0450790104061363,2.447915130165219,-0.08544060579510405
1744474947825869000,6.396869140625,2.1799393162727356,2.46074480112195,-0.049249969527777285
1744474947835867100,6.4068671875,2.323150101855397,2.5543746864557266,-0.008661326630366966
1744474947845864000,6.416864013671875,2.453455813157558,2.65522750878036,0.044212843010248616
1744474947855862000,6.426862060546875,2.5399007554233073,2.718435952365398,0.07960236462829634
1744474947865860000,6.436860107421875,2.6568887199908495,2.7320336850851774,0.11556523828804492
1744474947875857200,6.446857177734375,2.7947347636699673,2.7147335907161234,0.1265006929960102
1744474947885855000,6.45685498046875,2.887219570621848,2.6436189040511846,0.044196987853990864
1744474947895853000,6.46685302734375,2.885622656819224,2.5296499950438736,-0.09509986655479297
1744474947905850000,6.47685009765625,2.823195719000697,2.3866624968230723,-0.20532635589707643
1744474947915848000,6.486847900390625,2.7356378470569847,2.3393641545534134,-0.27135515413247047
1744474947925845200,6.49684521484375,2.665032278957963,2.407299626660347,-0.24321216044342145
1744474947935843000,6.506843017578125,2.583682029482722,2.411833178436756,-0.16503612055750563
1744474947945841200,6.516841064453125,2.489906598198414,2.357762565553188,-0.10161582432007417
1744474947955838000,6.526837890625,2.359099367114901,2.2367454916000367,-0.08978483641133643
1744474947965836000,6.5368359375,2.171935458037257,2.0947610329419373,-0.15311423949492162
1744474947975834000,6.546834228515625,1.9357108731925485,1.9311919344633817,-0.17140251378426327
1744474947985831000,6.556830810546875,1.7076035438299177,1.8196195652037859,-0.10145452367798424
1744474947995829000,6.5668291015625,1.5048171182066201,1.7209511011809109,-0.05681079670349136
1744474948005826000,6.576825927734375,1.3829402125537396,1.644907141420245,-0.08603676332365721
1744474948015824100,6.58682421875,1.2533014407277105,1.5427566805005073,-0.05904070204687305
1744474948025822200,6.596822265625,1.0787748949050904,1.4378946225345133,-0.17932536093909293
1744474948035819000,6.606819091796875,0.9126935213446616,1.3880039256840944,-0.2923205112771131
1744474948045817000,6.616817138671875,0.7379366738975047,1.411964646986127,-0.33670400727968663
1744474948055815000,6.62681494140625,0.6514017152607441,1.495609729400277,-0.3231793397961184
1744474948065812200,6.636812255859375,0.6857026287913323,1.5445263205215334,-0.26977471654061225
1744474948075810000,6.64681005859375,0.7742080107182264,1.4616121827304362,-0.22361098605776206
1744474948085808000,6.65680810546875,0.8466063074529171,1.3101233981460332,-0.31852409786880015
1744474948095805200,6.66680517578125,0.8508505208939313,1.2336889777630566,-0.6720050889588892
1744474948105803000,6.676802978515625,0.6794891611039638,1.2272563143670558,-1.08373149439916
1744474948115800000,6.686800048828125,0.22787702773809432,1.1070645853221417,-1.4241064818091689
1744474948125798000,6.6967978515625,-0.420402171587944,0.958838601925969,-1.6413026871874927
1744474948135796000,6.7067958984375,-1.1177812096476554,0.8852209925293922,-1.709833494839072
1744474948145793000,6.71679296875,-1.7279244473248718,0.7906085258990526,-1.682223164988309
1744474948155791000,6.726791015625,-2.183444694045186,0.7724626283556223,-1.6727058334499596
1744474948165789200,6.7367890625,-2.3082500543653963,0.858699188567698,-1.6719446398191153
1744474948175786000,6.746785888671875,-1.9904922646939753,0.926876360476017,-1.6563007882244885
1744474948185784000,6.7567841796875,-1.4729776263535022,0.8701730610013008,-1.6676628708466887
1744474948195781000,6.766781005859375,-1.0042337409228086,0.7108464223980904,-1.591459921132028
1744474948205779200,6.776779296875,-0.7267892569392919,0.5686334156811237,-1.473189953929931
1744474948215777300,6.78677734375,-0.7157341944396496,0.5331745642870664,-1.3843028792090712
1744474948225774300,6.7967744140625,-0.8782581677794455,0.6000915070012212,-1.21258737221919
1744474948235772200,6.806772216796875,-1.0907938340008259,0.7459694659665227,-1.0100899926703422
1744474948245770200,6.816770263671875,-1.3948428317934274,0.8600193312555551,-0.9162548670880496
1744474948255767000,6.82676708984375,-1.6926824535518883,0.91082217451483,-0.959079790270701
1744474948265765000,6.83676513671875,-1.9399539175897835,0.9520496724382043,-1.0382562759034335
1744474948275763200,6.84676318359375,-2.1525597264379264,0.9029102323465049,-1.0874541681841015
1744474948285760300,6.85676025390625,-2.4460768088221547,0.7938323102511465,-1.1118405675522982
1744474948295758300,6.86675830078125,-2.7871529302388427,0.6536429183162749,-0.9769621415071189
1744474948305755100,6.876755126953125,-3.121581284204125,0.3976197002850473,-0.6751449944198131
1744474948315753200,6.886753173828125,-3.3232869288533924,0.1260007075846195,-0.37993287162072953
1744474948325751000,6.8967509765625,-3.2074294296205044,-0.10329641608446836,-0.16244572047181427
1744474948335748000,6.906748046875,-2.714469386821985,-0.22763898119851944,-0.053490109581872815
1744474948345746200,6.91674609375,-2.04740306943953,-0.27764431740455325,0.02585515674650669
1744474948355744000,6.926743896484375,-1.3763158259779213,-0.2541342624794692,0.09028817369043826
1744474948365741300,6.9367412109375,-0.907196677494049,-0.19152773031033574,0.17864172605648634
1744474948375739100,6.9467392578125,-0.6670651483386755,-0.09049933222308755,0.25660043339729305
1744474948385737200,6.9567373046875,-0.6289496449559927,0.006016337680071592,0.34167956720255316
1744474948395734000,6.966734130859375,-0.7493675839722156,0.05950469369627535,0.4026425699483603
1744474948405732000,6.976732177734375,-0.9070733433753252,0.014752601843327284,0.4938911131035536
1744474948415729400,6.9867294921875,-0.9909341143667697,-0.185901926317811,0.6810353676326573
1744474948425727200,6.996727294921875,-0.9775678523153066,-0.4109717146154493,0.8361581248052418
1744474948435725300,7.006725341796875,-0.9519973577290772,-0.5466754125036299,0.9838879952475428
1744474948445722000,7.01672216796875,-0.8441413786441088,-0.5707820450823754,1.158940172379464
1744474948455720200,7.02672021484375,-0.5876999352008104,-0.6592313859730958,1.3071755081258714
1744474948465718300,7.03671826171875,-0.24811376008093355,-0.872904824052751,1.374481596288085
1744474948475715000,7.046715087890625,0.08797346700727939,-1.0861100600987672,1.4433750997722148
1744474948485713200,7.056713134765625,0.35339316667616366,-1.2941371628545224,1.5362429146923124
1744474948495710200,7.066710205078125,0.4838906011581421,-1.466756559881568,1.6593981697179376
1744474948505708300,7.076708251953125,0.4190875818580389,-1.6187277211554347,1.849653176678717
1744474948515706000,7.0867060546875,0.12499649897813796,-1.6560269397191703,2.0578003986828026
1744474948525703200,7.096703125,-0.26146424004137514,-1.559187883080542,2.182278572875261
1744474948535701200,7.106701171875,-0.6218307528614998,-1.4688656609900295,2.2952890121139586
1744474948545699000,7.116698974609375,-0.9177420369058847,-1.4313465160652994,2.2639190374687312
1744474948555696000,7.126696044921875,-1.1557225255072117,-1.3997377642281352,2.1867918125160037
1744474948565694200,7.136694091796875,-1.2241910815775394,-1.4236518699094651,2.1146293703638017
1744474948575691300,7.146691162109375,-1.1422931350916623,-1.4794323554508386,1.9733046907886862
1744474948585689000,7.156689208984375,-1.038884783065319,-1.5817540812842548,1.8082127666570245
1744474948595687200,7.166687255859375,-1.0285685562342404,-1.6919124920926987,1.6821455697074532
1744474948605684200,7.176684326171875,-1.0835317340433597,-1.7481765233673154,1.574423446135223
1744474948615682000,7.18668212890625,-1.1478227121680975,-1.7496100633017717,1.4621851603128015
1744474948625680100,7.19668017578125,-1.132931432506442,-1.7813116079889237,1.379290311744064
1744474948635677200,7.20667724609375,-1.0247241557657718,-1.7624186914704738,1.287966657526046
1744474948645675300,7.21667529296875,-0.8021101631224155,-1.717095156405121,1.1926676699362695
1744474948655673300,7.22667333984375,-0.5042874924987554,-1.7177486518777907,1.1363425561241804
1744474948665670100,7.236670166015625,-0.1628267556786537,-1.707827123452723,1.1025130594976247
1744474948675668200,7.246668212890625,0.1508586699873209,-1.697393261591345,1.0279787736475468
1744474948685665000,7.2566650390625,0.3400146296650171,-1.6894763509869575,0.9449411556072532
1744474948695663000,7.2666630859375,0.4281675448924303,-1.6853778296269475,0.9042582859545946
1744474948705661200,7.2766611328125,0.40344168443679806,-1.6780331659525631,0.9463340712703764
1744474948715658200,7.286658203125,0.32367315119504925,-1.6676177165307104,1.0184791238963604
1744474948725656300,7.29665625,0.206610952347517,-1.6975906838595867,1.0583214510716497
1744474948735654100,7.306654052734375,0.1600514457464218,-1.7340972907409071,1.0623752565070985
1744474948745651200,7.316651123046875,0.09957447295188904,-1.784543867908418,1.039861080751568
1744474948755649000,7.32664892578125,-0.04711947857141494,-1.8490689470499753,1.0219305795244873
1744474948765646300,7.336646240234375,-0.2545563603490591,-1.870231562066078,0.9754515908136964
1744474948775644200,7.34664404296875,-0.5316594835489988,-1.8399474829614162,0.963521791306138
1744474948785642200,7.356642333984375,-0.8414005555033683,-1.726879614447057,0.9951081851810216
1744474948795639300,7.366639404296875,-1.1455033293098211,-1.5606372051060198,1.052603073424846
1744474948805637000,7.37663720703125,-1.3069891917735337,-1.4097992856457828,1.1240332557797432
1744474948815634200,7.38663427734375,-1.3513427127629518,-1.343664140959084,1.1553583683699369
1744474948825632000,7.396632080078125,-1.269307988154888,-1.3342230895273386,1.0804090719781816
1744474948835630000,7.406630126953125,-1.150753504922986,-1.2930397230066357,0.932790991347283
1744474948845627100,7.416627197265625,-1.035721935120225,-1.2777926156446338,0.7567457115247845
1744474948855625200,7.426625244140625,-1.058245317095518,-1.2664835783839226,0.6206491418614983
1744474948865623300,7.436623291015625,-1.1222136391371489,-1.2475091210618614,0.5031918062165379
1744474948875620000,7.4466201171875,-1.2156190680652856,-1.1484434744149445,0.39908144340068097
1744474948885618200,7.4566181640625,-1.2872300138145685,-1.0093716883331536,0.31484263287708164
1744474948895615000,7.466614990234375,-1.3515151467204094,-0.840413078835979,0.29159955832511186
1744474948905613000,7.476613037109375,-1.4314321485221384,-0.6916239085990935,0.25565672280639407
1744474948915611400,7.486611328125,-1.5141267983436584,-0.5550869016919284,0.1667125110708177
1744474948925608200,7.496608154296875,-1.5691262165099382,-0.4177950578294694,0.034000761540234084
1744474948935606300,7.506606201171875,-1.703699522128701,-0.36062947460524736,-0.1268923957273364
1744474948945603000,7.51660302734375,-1.9762761078149078,-0.3753784962520003,-0.33777386500090356
1744474948955601200,7.52660107421875,-2.185741865071654,-0.38112719597183164,-0.5781105613395572
1744474948965599200,7.53659912109375,-2.2922353236317634,-0.3358616747040301,-0.7807002222817391
1744474948975596300,7.54659619140625,-2.3424358170837163,-0.27012429716326297,-0.9464527292139827
1744474948985594400,7.556594482421875,-2.3788328261107203,-0.1602884693726897,-1.1632835353460163
1744474948995592200,7.56659228515625,-2.4930682770997286,0.0820334094338119,-1.404043498598039
1744474949005589200,7.57658935546875,-2.671109553045034,0.3057160542219877,-1.5942504286333918
1744474949015587000,7.586587158203125,-2.942994064813852,0.4253317369446158,-1.6952365219488739
1744474949025584000,7.596584228515625,-3.251893425247073,0.49591231673285363,-1.6425605782940982
1744474949035582000,7.60658203125,-3.480173188567161,0.5964291851013899,-1.4949100566983222
1744474949045580000,7.616580078125,-3.4978099675446748,0.6784189015239477,-1.3129178511701523
1744474949055577300,7.626577392578125,-3.180491153812408,0.7841624184995889,-1.113126588774845
1744474949065575200,7.6365751953125,-2.555947634860873,0.8562197928421199,-0.9141926738612354
1744474949075572200,7.646572265625,-1.7360341040223837,0.9844324773877858,-0.8626436884097755
1744474949085570000,7.656570068359375,-0.9602397008955478,1.1024546073086559,-0.9581083879552781
1744474949095568100,7.666568115234375,-0.36735739462077616,1.1270051111973822,-1.0188603782989085
1744474949105565200,7.676565185546875,-0.10251461805701255,1.0827984513327478,-1.0059858452871442
1744474949115563300,7.686563232421875,-0.09171206901371479,1.10784170717448,-1.0020952675893902
1744474949125560300,7.696560302734375,-0.21936989615559577,1.1998267479106783,-0.9878190510861575
1744474949135558100,7.70655810546875,-0.35555765123367306,1.308541974173486,-0.9425680698003619
1744474949145556200,7.71655615234375,-0.43403322205543515,1.4372960721194743,-0.8555691469136625
1744474949155553000,7.726552978515625,-0.5567845724552869,1.5592323067441582,-0.7309653005149215
1744474949165551000,7.736551025390625,-0.7225427054107189,1.7069287133082747,-0.6205372059196234
1744474949175548200,7.746548095703125,-0.889488586845994,1.8481693678617477,-0.6168749570850283
1744474949185546200,7.756546142578125,-0.9935627093046903,1.9538702147394418,-0.6852084885988384
1744474949195544300,7.76654443359375,-1.0237252078562975,2.044104320155084,-0.8692613529838621
1744474949205541000,7.776541015625,-1.0225117404133082,2.0909823911860586,-1.0247694562122225
1744474949215538700,7.78653857421875,-1.0314578479349612,2.1346701417431233,-1.0729749764546752
1744474949225535700,7.79653564453125,-1.0628139401853085,2.209258349737525,-1.1256471207171679
1744474949235533800,7.806533935546875,-1.0799462767720223,2.323118537673354,-1.222769962733239
1744474949245531600,7.81653173828125,-1.0324339994907379,2.392576689302921,-1.3282222416773437
1744474949255528700,7.82652880859375,-0.9084878863483666,2.4220827697724103,-1.3964780317798255
1744474949265526500,7.836526611328125,-0.8048094852089881,2.412315993517637,-1.4376213585510849
1744474949275523600,7.846523681640625,-0.7541998264342546,2.419235855908692,-1.403955089662224
1744474949285521700,7.856521728515625,-0.7217980245232581,2.42184136223197,-1.2796093096777796
1744474949295519500,7.86651953125,-0.7360106742709874,2.412730419537425,-1.1180544736310838
1744474949305516800,7.876516845703125,-0.626162644585967,2.4388193850398063,-0.922404548824206
1744474949315514600,7.8865146484375,-0.30765725141763683,2.4711598121523854,-0.6982631274178623
1744474949325511700,7.89651171875,0.15017127224504948,2.4996195984393355,-0.5494629608629271
1744474949335509500,7.906509521484375,0.658815206387639,2.4929320834994315,-0.5402124270346015
1744474949345507600,7.916507568359375,1.1031243232637644,2.42948749307096,-0.6614130408611149
1744474949355504600,7.926504638671875,1.4579261876940726,2.315503971016407,-0.8558277247846126
1744474949365502700,7.936502685546875,1.7645774769395588,2.1900813555806873,-1.0484748875789345
1744474949375499800,7.946499755859375,1.9098831889748573,2.048328367590904,-1.2086389268543571
1744474949385497600,7.95649755859375,1.9476392113953829,1.9132249006181954,-1.3047211007110773
1744474949395495700,7.96649560546875,1.9321289230525494,1.8270973537385462,-1.3163053016513586
1744474949405492500,7.976492431640625,1.868928078252077,1.809188187560439,-1.2747168614611029
1744474949415490600,7.986490478515625,1.7736603625833987,1.867477294921875,-1.137771273753047
1744474949425488000,7.99648779296875,1.6648486902087927,1.981498226377368,-0.9534127774849533
1744474949435485700,8.006485595703126,1.595715532749891,2.107559139716625,-0.7945534641325473
1744474949445483800,8.01648388671875,1.5786585994869469,2.1747809105962514,-0.6908330504823476
1744474949455480600,8.02648046875,1.5704676942467688,2.224346028754115,-0.6590447042945772
1744474949465478700,8.036478759765625,1.5630243925035,2.228915236365795,-0.7231141486231237
1744474949475475500,8.046475341796874,1.600498090851307,2.197588370209932,-0.8465361648261547
1744474949485473500,8.0564736328125,1.702933213931322,2.1081465842157603,-0.9422156761661171
1744474949495471600,8.0664716796875,1.7399270198076962,1.9708727874666452,-0.9867023950811475
1744474949505468700,8.07646875,1.7327654576152562,1.8727859227240085,-1.0159117576263845
1744474949515466800,8.086466796875,1.716982197549939,1.796961158671975,-1.0228114540122448
1744474949525463600,8.096463623046875,1.7287269958794116,1.7730998060911893,-1.0307339175745844
1744474949535461600,8.106461669921876,1.7182558707475661,1.7553320942103863,-1.0323195062655954
1744474949545459700,8.116459716796875,1.6697767942607402,1.7504618578255176,-0.9782530581004917
1744474949555456500,8.12645654296875,1.539758083206415,1.7898937045037746,-0.9055141312345862
1744474949565454800,8.136454833984375,1.3379641757518053,1.8274778774887321,-0.8250809966042637
1744474949575451600,8.14645166015625,1.146411676326394,1.8784931944549084,-0.82394088665843
1744474949585449700,8.15644970703125,1.044390394744277,1.9067916527003048,-0.8911017211310565
1744474949595446500,8.166446533203125,0.9211422007381915,1.8713100049525497,-0.9552498567190021
1744474949605444600,8.176444580078124,0.7014122390985489,1.7596628168910742,-0.9604506402324885
1744474949615442700,8.186442626953125,0.44866555851995943,1.6686895835459232,-0.8912494590386748
1744474949625439700,8.196439697265625,0.22822364921867846,1.625705012822151,-0.8213591265369207
1744474949635437800,8.206437744140626,0.15033903002738952,1.6555927860856055,-0.7713353778913616
1744474949645434600,8.2164345703125,0.24032675946652887,1.6890005501687526,-0.7623616517104208
1744474949655432700,8.2264326171875,0.41804479480683804,1.681492951017618,-0.8290502655614167
1744474949665430500,8.236430419921875,0.626347353503108,1.6596885309666394,-0.9496968257017433
1744474949675427600,8.246427490234375,0.7531418418139219,1.648327763518691,-1.1077663038507104
1744474949685425700,8.25642578125,0.7225602410674095,1.635847052130103,-1.2841172886215149
1744474949695422700,8.266422607421875,0.5713952816098928,1.6158248393207788,-1.3863893300943075
1744474949705420800,8.2764208984375,0.4557698375672102,1.6385235778629779,-1.3853575028285383
1744474949715418600,8.286418701171876,0.35444238346815105,1.7283189996004105,-1.2869357070431113
1744474949725415700,8.296415771484375,0.21231705503463744,1.8826073517754673,-1.195697612216696
1744474949735413500,8.30641357421875,0.08141980758011341,2.050550135293603,-1.0913866122622042
1744474949745410600,8.31641064453125,-0.05699672946333885,2.1920009254664183,-1.0235336308069527
1744474949755408600,8.32640869140625,-0.26655717926621436,2.3054595468640326,-1.075689276914671
1744474949765406700,8.33640673828125,-0.5638941121995449,2.40828220795691,-1.2454568647071718
1744474949775403800,8.34640380859375,-0.9294973566293716,2.5239342477455735,-1.4615779881998896
1744474949785401600,8.356401611328126,-1.2693705319970845,2.5668141890510916,-1.7231661468818782
1744474949795398700,8.366398681640625,-1.4989198768615721,2.5584566950723526,-1.993358613910526
1744474949805396500,8.376396484375,-1.589203374376893,2.5905600985586643,-2.211315720658749
1744474949815393800,8.386393798828125,-1.64961663428545,2.6591040579527614,-2.326011044244468
1744474949825391600,8.3963916015625,-1.8643162005424498,2.801748734085262,-2.3406702687159178
1744474949835389700,8.4063896484375,-2.1511901916503904,3.0247534796118734,-2.2795561670616267
1744474949845386800,8.41638671875,-2.441667760208249,3.3131562877222893,-2.088019741988182
1744474949855384600,8.426384521484374,-2.5743261721163986,3.5933614685907957,-1.7392518970251083
1744474949865381600,8.436381591796875,-2.5737965952843425,3.829334416761994,-1.3444897781282663
1744474949875379500,8.44637939453125,-2.5769652884483336,3.998326124811172,-1.0436590847950429
1744474949885377500,8.45637744140625,-2.586340435037017,4.028556135641038,-0.8744479618415236
1744474949895374600,8.46637451171875,-2.660608617296815,3.967834248174727,-0.8830719978019594
1744474949905372700,8.47637255859375,-2.866460275709629,3.8362896427273747,-0.8742340268298983
1744474949915369700,8.48636962890625,-3.1425586057811974,3.6304514283180236,-0.7572880017079412
1744474949925367600,8.496367431640625,-3.3650440036088227,3.4976024622738358,-0.5517686439894139
1744474949935365600,8.50636572265625,-3.4357302357286215,3.4659687221258877,-0.30981866723522544
1744474949945362700,8.51636279296875,-3.237324217146635,3.5206627276048064,-0.09506284074634314
1744474949955360800,8.52636083984375,-2.7894220442146063,3.613126784029603,0.058565732345730065
1744474949965357600,8.536357666015626,-2.1936714890271425,3.592167582631111,0.14705562444254755
1744474949975355600,8.546355712890625,-1.589130309140682,3.475151561012864,0.18106588446348904
1744474949985352700,8.556352783203126,-1.14183136279881,3.3539982934594152,0.12876286577433346
1744474949995350500,8.5663505859375,-0.8125590764224528,3.225267868649959,0.010724223110079764
1744474950005348600,8.5763486328125,-0.6941214975684881,3.0180133577018973,-0.07465835062116384
1744474950015345700,8.586345703125,-0.7384802792549133,2.8126813392490146,-0.09387728422358632
1744474950025343700,8.59634375,-0.9113993898808955,2.6146795175537467,-0.07940218414738774
1744474950035340500,8.606340576171876,-1.1527245127350092,2.5050264259189365,-0.04235723260566592
1744474950045338600,8.616338623046875,-1.399420222711563,2.498020638810098,-0.0335600320354104
1744474950055336700,8.626336669921875,-1.5692641636759042,2.501275256691873,-0.032279636836051936
1744474950065333500,8.63633349609375,-1.7031074014544485,2.4723373314991592,-0.004524053295701742
1744474950075331600,8.64633154296875,-1.8567939883440732,2.405352291984856,-0.04480462575778365
1744474950085328600,8.65632861328125,-2.071810365465283,2.359362255834788,-0.16669482928365467
1744474950095326700,8.66632666015625,-2.2942735514611003,2.278322095222026,-0.23613982917070386
1744474950105324800,8.67632470703125,-2.5108114390611647,2.1639077805347737,-0.1940995535597205
1744474950115321600,8.686321533203126,-2.601488904330134,2.0168806515343487,-0.06844912071749568
1744474950125319700,8.696319580078125,-2.5048440550893543,1.895048461806029,0.15337868998423218
1744474950135316700,8.706316650390624,-2.246892207083106,1.8481627919904886,0.40452991806492206
1744474950145314800,8.716314697265625,-1.9132582183659075,1.839796384052932,0.5356824554547667
1744474950155312600,8.726312744140625,-1.5487772559642792,1.864282590533793,0.5713200244165957
1744474950165309700,8.736309814453126,-1.2284715353757143,1.8663706488542258,0.5433930298320949
1744474950175307800,8.746307861328125,-0.9428092581450939,1.817789427167177,0.4744432661160826
1744474950185304600,8.7563046875,-0.7405214296936988,1.793353051177412,0.36730712573826313
1744474950195302700,8.766302734375,-0.5534738404721021,1.80315752909407,0.3544983514390886
1744474950205300500,8.776300537109375,-0.405787955302,1.7753449546694755,0.4887596684992313
1744474950215297800,8.7862978515625,-0.35531799725890156,1.7362486235558985,0.6758056502856313
1744474950225296100,8.796296142578125,-0.3785895672529936,1.6596153195999561,0.9300085210219025
1744474950235293200,8.806293212890624,-0.4478203398674726,1.5516951892375945,1.1738605320051312
1744474950245291000,8.816291015625,-0.4790256254702806,1.4354906301327048,1.466681741079688
1744474950255288000,8.8262880859375,-0.4668500345081091,1.3275687462046741,1.827937019433081
1744474950265286000,8.836285888671876,-0.427425786614418,1.1727769745521246,2.1721882637545464
1744474950275284000,8.846283935546875,-0.35597616890668865,1.0643430494487285,2.4718273361504077
1744474950285281000,8.856281005859374,-0.2997165215462446,0.9364518519423901,2.7103198659271
1744474950295279000,8.866279052734376,-0.22969255272746084,0.7711166205741464,2.8727465163722634
1744474950305276200,8.876276123046875,-0.20526304486989974,0.5858537228122354,3.0270784154281016
1744474950315274000,8.88627392578125,-0.2563888364732265,0.38634237333685156,3.2194507068037983
1744474950325272000,8.89627197265625,-0.26686113064885136,0.2005595433540642,3.3640909406676887
1744474950335268900,8.906268798828124,-0.2820043392449617,0.04156104072667658,3.554298455224931
1744474950345267000,8.916266845703126,-0.293576119095087,-0.1306912034884095,3.786219205395877
1744474950355264000,8.926263916015625,-0.35711423302590845,-0.2728029417879879,3.9863425492897626
1744474950365262000,8.936261962890624,-0.4007704194009304,-0.41075142292827366,4.141922402580082
1744474950375260200,8.94626025390625,-0.4640238711714744,-0.5024407686535268,4.266287617917358
1744474950385257000,8.956257080078124,-0.5028314484715461,-0.5691412921380251,4.317247405304014
1744474950395255000,8.966255126953126,-0.5875099655866622,-0.6852823575526475,4.2316801226556295
1744474950405252000,8.976252197265625,-0.7365373284935951,-0.8257065080914646,3.965213544282317
1744474950415250200,8.986250244140624,-0.9533061022400855,-0.9745566878005861,3.6470287613704797
1744474950425248300,8.996248291015625,-1.127798745793104,-1.0976101629521697,3.4811394032508134
1744474950435245000,9.0062451171875,-1.3060405127465724,-1.2239697669770568,3.432606843011081
1744474950445243100,9.0162431640625,-1.468360487946868,-1.3138888881593942,3.476153431531787
1744474950455240000,9.026239990234375,-1.5888719504654407,-1.3601184321537614,3.5689714159607884
1744474950465238000,9.036238037109374,-1.6537217315167188,-1.326105103392899,3.5813755549818276
1744474950475235000,9.046235107421875,-1.6232926909834144,-1.2641161186002194,3.4999814663648605
1744474950485233200,9.056233154296875,-1.5514847613573073,-1.2367206005439162,3.339142085111141
1744474950495231200,9.066231201171876,-1.4131173241525887,-1.2776042534656822,3.109825087697804
1744474950505228000,9.07622802734375,-1.1776882735997438,-1.3633973076939583,2.872842670223117
1744474950515226000,9.08622607421875,-0.8730471551328897,-1.4583029120519757,2.676106046158075
1744474950525223000,9.096222900390625,-0.5840712233096361,-1.5892523280851543,2.574937289752066
1744474950535221000,9.106220947265625,-0.3775771753400564,-1.7307687308400868,2.534852824383974
1744474950545219000,9.116218994140626,-0.198638073772192,-1.8990686572328208,2.6460209967568513
1744474950555216100,9.126216064453125,-0.029183424386382103,-2.063582050824165,2.795559524056315
1744474950565214200,9.136214111328124,0.1921054571330547,-2.167164444243163,2.8268039726257324
1744474950575211000,9.1462109375,0.3534720771312713,-2.259434585531056,2.815541697116196
1744474950585209000,9.156208984375,0.4278051413208246,-2.373945054069161,2.759291109845042
1744474950595207000,9.16620703125,0.3833066589027643,-2.5080659397453067,2.6198481523633004
1744474950605204200,9.176204345703125,0.25287585991621014,-2.6671529243737457,2.3903292026370764
1744474950615202000,9.1862021484375,0.1105424416899681,-2.8079133941948413,2.1166665752798317
1744474950625199000,9.19619921875,-0.004131985238194465,-2.8706296703487633,1.7724425112262367
1744474950635197200,9.206197265625,-0.1408206755757332,-2.896537141804397,1.6348451816111802
1744474950645195000,9.216195068359376,-0.28954876327514645,-2.806220911063254,1.7216574958845972
1744474950655192000,9.226192138671875,-0.5453045625418425,-2.5326938927844167,1.8033539284490048
1744474950665190000,9.23618994140625,-0.8335124326020479,-2.229242276363075,1.820760551932454
1744474950675187200,9.246187255859375,-1.1594587894260882,-1.9985380623750388,1.7849657465822995
1744474950685185000,9.25618505859375,-1.4261615146428346,-1.8181255272537469,1.6429896173611283
1744474950695183000,9.26618310546875,-1.6237398502290248,-1.7050367620818316,1.444679021977633
1744474950705180200,9.27618017578125,-1.661824958473444,-1.6524167863979935,1.158631106430292
1744474950715178000,9.286177978515624,-1.5192928028047084,-1.6582032608449457,0.814384830544889
1744474950725175000,9.296175048828125,-1.3141150981307028,-1.6433207490116357,0.4727756251648068
1744474950735172900,9.3061728515625,-1.1314128446370362,-1.58927439378649,0.2690624400854111
1744474950745171000,9.3161708984375,-0.9361895477443933,-1.4663501710377633,0.1878258801177144
1744474950755168000,9.32616796875,-0.7485013225317001,-1.274985887660831,0.16105360852628944
1744474950765166000,9.336166015625,-0.6093243225097655,-1.0530465794086457,0.10447978065013885
1744474950775163100,9.3461630859375,-0.5246487280040979,-0.8956780891358852,-0.08443725570514797
1744474950785161000,9.356160888671875,-0.48841246249675746,-0.8084783829800785,-0.3329121041834354
1744474950795158300,9.366158203125,-0.5511550421357154,-0.764089352285862,-0.5895695284649729
1744474950805156000,9.376156005859375,-0.7448428000241517,-0.7592705538272857,-0.7784814502537251
1744474950815154200,9.386154296875,-1.047907462954521,-0.7870335900217295,-0.8801933736257255
1744474950825151000,9.39615087890625,-1.4788310285568236,-0.7337963592223823,-0.9177189482912421
1744474950835149000,9.406149169921875,-2.040195914539695,-0.6654077365204691,-0.8493377782434225
1744474950845145900,9.416145751953126,-2.7014614366889,-0.5412722382858395,-0.7701854772038758
1744474950855144000,9.42614404296875,-3.2376293375730514,-0.3532999354347586,-0.7071810317583381
1744474950865142000,9.43614208984375,-3.487987661710381,-0.15181816266924142,-0.7169375788800418
1744474950875139000,9.44613916015625,-3.3974434674322604,0.1267708151742816,-0.8151683821380138
1744474950885137200,9.45613720703125,-2.920407554474473,0.3237009159848094,-0.955371802598238
1744474950895134000,9.466134033203126,-2.2790619538038968,0.291886558572948,-1.0312190707430242
1744474950905132000,9.476132080078125,-1.9284277304470538,0.20596125626713035,-1.1590595609754324
1744474950915130000,9.486130126953125,-1.9787159021824596,0.17633067263513802,-1.3133759702011942
1744474950925127000,9.496126953125,-2.369101705691218,0.2279971469864249,-1.4607874223440884
1744474950935125000,9.506125,-2.876486579683423,0.4115282525196671,-1.5502645719125867
1744474950945122000,9.5161220703125,-3.1943145119816063,0.6424158602505922,-1.5387312243767082
1744474950955120000,9.5261201171875,-3.2518104231387377,0.9280392667755484,-1.4527251119196414
1744474950965118200,9.5361181640625,-3.0018454822331666,1.2426187186717987,-1.3669389258235691
1744474950975115000,9.546114990234376,-2.4952245783507823,1.5230655993416904,-1.2795362444415688
1744474950985113000,9.556113037109375,-1.739839926046133,1.6645605209171772,-1.1772555812709034
1744474950995110100,9.566110107421874,-0.9443050496608019,1.6873177116483449,-1.1099189518399537
1744474951005108200,9.576108154296875,-0.25986966432631015,1.7381673166587948,-1.185293853232637
1744474951015106000,9.58610595703125,0.33541736500263214,1.7575488934770225,-1.1901742456853388
1744474951025103000,9.59610302734375,0.8238555464625358,1.749021303628385,-1.0865529815606771
1744474951035101200,9.60610107421875,1.234852176323533,1.6998320330455898,-0.9341798153571784
1744474951045098000,9.616097900390624,1.4911667785167693,1.690486112551391,-0.7680278607785701
1744474951055096000,9.626095947265625,1.5189759919404984,1.6650281384289263,-0.5915118216391653
1744474951065094000,9.636093994140625,1.3586609268218277,1.6592969013005494,-0.45480913930889216
1744474951075091200,9.64609130859375,1.165309853541851,1.6653656998202204,-0.39897710624337196
1744474951085089000,9.656089111328125,0.9916004693210124,1.6234966891229152,-0.42678540635164824
1744474951095086000,9.666086181640624,0.8623983353465795,1.474098739337921,-0.42017683839946984
1744474951105084000,9.676083984375,0.6721469816476107,1.2993676108539103,-0.42534470602404323
1744474951115082000,9.68608203125,0.45075230166614055,1.2236334476947783,-0.4576225892944261
1744474951125079000,9.6960791015625,0.23756021736264227,1.2022384852275252,-0.4205972557686269
1744474951135077000,9.7060771484375,0.0512649078130722,1.196847147578001,-0.27822679346762597
1744474951145074200,9.71607421875,-0.08628361422419548,1.267813950204849,-0.1003573304252699
1744474951155072000,9.726072021484375,-0.15511340482234953,1.4124053764909505,0.07631589030353352
1744474951165070000,9.736070068359375,-0.1365372991681099,1.5539835924357175,0.2665070747804828
1744474951175067000,9.74606689453125,0.00047989247143268585,1.6098025102913378,0.3976339480061084
1744474951185065000,9.75606494140625,0.32786534218788144,1.566079103899002,0.4336081285111606
1744474951195062300,9.766062255859374,0.6733318075180054,1.441138719022274,0.3694369773738086
1744474951205060000,9.77606005859375,0.9569716390103101,1.2733861973792313,0.1974932876512408
1744474951215058200,9.78605810546875,1.1685913594305515,1.1107920814126728,-0.0014350697378395125
1744474951225055200,9.79605517578125,1.362618140015006,0.9969541053086519,-0.0888577116290573
1744474951235053300,9.80605322265625,1.5686889941364526,0.8894564381420612,-0.046601710908161474
1744474951245050000,9.816050048828124,1.6777549335330724,0.7562912457555532,0.16445786401182413
1744474951255048200,9.826048095703126,1.7315157498151064,0.7366472186088562,0.32687026673592623
1744474951265045500,9.83604541015625,1.7114754168272017,0.8402291736364365,0.3626738764470443
1744474951275043300,9.846043212890624,1.7228151414871216,0.9399614674985408,0.31748269905708726
1744474951285041400,9.85604150390625,1.7069751827985047,0.9284797040194273,0.20683529915530233
1744474951295038200,9.8660380859375,1.6479682825565338,0.8298024721682071,0.06290916837751866
1744474951305036300,9.876036376953126,1.576511650586128,0.7403449040830135,-0.128000594431255
1744474951315033000,9.886033203125,1.5726766024678944,0.6776145994037389,-0.2756373249636963
1744474951325031200,9.89603125,1.6170932518213987,0.6164677645236253,-0.3125686235304922
1744474951335029200,9.906029296875,1.6350269679188727,0.5564905579447746,-0.2297084078837186
1744474951345026300,9.9160263671875,1.597030707001686,0.5342109215974807,-0.11729816302787512
1744474951355024400,9.9260244140625,1.4764251364588736,0.5893611464112997,-0.04090283254627138
1744474951365021200,9.936021240234375,1.3604910648584365,0.6554144580334424,-0.018613770783506334
1744474951375019300,9.946019287109374,1.3457406549721955,0.6702396867215633,0.014033859114721417
1744474951385017300,9.956017333984375,1.3668582618027925,0.6336392640769481,0.02010576290693134
1744474951395014400,9.966014404296875,1.4187269807279108,0.6064712711662054,-0.09392777230180799
1744474951405012500,9.976012451171876,1.5295143370896578,0.5972410860061645,-0.2275825383035466
1744474951415009300,9.98600927734375,1.6662632331818341,0.5464671765804291,-0.34566301081553097
1744474951425007400,9.99600732421875,1.740335600608587,0.4544423883557319,-0.39482542992401864
1744474951435005200,10.006005126953125,1.7120856576800345,0.36138825708329675,-0.44524720144383606
1744474951445002200,10.016002197265625,1.6610399455755949,0.30949674180448056,-0.5032643599960953
1744474951455000300,10.026000244140626,1.6658236727207898,0.29055647901296616,-0.5132553003955632
1744474951464997400,10.035997314453125,1.7762684992551803,0.26526772397756576,-0.45072124894075094
1744474951474995500,10.045995361328124,2.004605545720458,0.2038753899037838,-0.3927438378769904
1744474951484993300,10.0559931640625,2.162457435595989,0.13990414525270461,-0.3673475673465058
1744474951494990300,10.065990234375,2.1373685870468617,-0.013272154027223586,-0.2953954434767365
1744474951504988200,10.07598828125,1.9480448695868253,-0.19937924752831457,-0.2894242966452613
1744474951514985200,10.085985107421875,1.6522148340851068,-0.2632014390975237,-0.3111434860982001
1744474951524983300,10.0959833984375,1.308939741319418,-0.28410218830704687,-0.30214393135625867
1744474951534981400,10.1059814453125,0.9354588953822851,-0.26286943066418167,-0.270623369259201
1744474951544978400,10.115978515625,0.6168161395698786,-0.2389057867527008,-0.27788028158489614
1744474951554976300,10.125976318359376,0.3429249641537666,-0.19377777425944803,-0.36330888641495257
1744474951564973300,10.135973388671875,0.15865034677684306,-0.11595336082279681,-0.4492135843241587
1744474951574971100,10.14597119140625,0.09742284787595272,-0.055148471248149866,-0.5082841974521055
1744474951584969200,10.15596923828125,0.15679448977708815,-0.021781623697280882,-0.4971886202789843
1744474951594966500,10.165966552734375,0.33630583827495575,-0.03471767763793468,-0.4581697383157909
1744474951604964400,10.17596435546875,0.6756669724673032,0.041708559438586236,-0.5311306008366867
1744474951614961400,10.18596142578125,0.9431564641475677,0.27829087167978284,-0.6539608982242644
1744474951624959200,10.195959228515624,0.9435533545106649,0.43546763877272604,-0.7630654160656034
1744474951634957300,10.205957275390626,0.793642194506526,0.6871645180374384,-0.7782127893801778
1744474951644954000,10.2159541015625,0.4559282429993152,1.0338649090766907,-0.7629182626798748
1744474951654952200,10.2259521484375,-0.12388298477828502,1.3725579347491264,-0.7815556700672954
1744474951664949500,10.235949462890625,-0.7510562677115201,1.7047221431747077,-0.8194704632461071
1744474951674947300,10.245947265625,-1.2368985874593257,2.059556448569894,-0.7266445147063583
1744474951684945400,10.2559453125,-1.535467108014226,2.292330600699782,-0.5326240542648359
1744474951694942200,10.265942138671875,-1.7060446239501237,2.447023734283447,-0.3828136877540499
1744474951704940300,10.275940185546874,-1.868135466569662,2.3951424481377006,-0.2872996326414868
1744474951714937000,10.28593701171875,-2.0364719255805013,2.180557740432024,-0.3231637403681874
1744474951724935200,10.29593505859375,-2.1291139689207075,1.8728394064769147,-0.39342133527975526
1744474951734933500,10.30593359375,-2.130502792930603,1.5345283658593891,-0.39547870620097964
1744474951744930300,10.315930419921875,-2.05933900642693,1.3252911566615104,-0.3525460848601535
1744474951754928400,10.325928466796874,-1.9112229131460188,1.241508419342339,-0.3263599425936118
1744474951764925200,10.33592529296875,-1.5967244175314903,1.2690820704445243,-0.2791331311902031
1744474951774923300,10.34592333984375,-1.1333172169536352,1.3408712953701614,-0.23357282822690903
1744474951784921300,10.35592138671875,-0.6742746413260698,1.4099582755997777,-0.2076485517669469
1744474951794918400,10.36591845703125,-0.26876959461867805,1.4492042443171143,-0.2109335282543674
1744474951804916500,10.37591650390625,0.031717326778173446,1.4681506445884704,-0.3479585744068026
1744474951814913300,10.385913330078125,0.24844167686104773,1.475484640738368,-0.6391838925920427
1744474951824911400,10.395911376953125,0.35415596774220465,1.3675143876239657,-0.9845748084679246
1744474951834909200,10.4059091796875,0.2798603129535913,1.197389876152575,-1.2099603116512299
1744474951844906200,10.41590625,0.09601473464369774,1.060140337061882,-1.3418763807594776
1744474951854904300,10.425904296875,-0.13147709316909312,0.9680012748077511,-1.424732066361606
1744474951864901400,10.4359013671875,-0.31390988207161424,0.932077728511393,-1.443956406791508
1744474951874899500,10.4458994140625,-0.48056642517149445,0.995568203908205,-1.4383552257835863
1744474951884897300,10.455897216796876,-0.6204933667778968,1.1300915329053998,-1.3862059363514183
1744474951894894300,10.465894287109375,-0.7768640781849623,1.2920616717547178,-1.2875111688435077
1744474951904892200,10.47589208984375,-0.9753443310469389,1.4466820323631167,-1.1442546444229782
1744474951914889200,10.48588916015625,-1.0952204182714222,1.5340920202687383,-0.9915815454248338
1744474951924887300,10.49588720703125,-1.1267851848363877,1.540104266295582,-0.8375919570006429
1744474951934885400,10.505885498046876,-0.9970745168179272,1.4859066660314797,-0.7236131841864436
1744474951944882400,10.51588232421875,-0.7469505859583616,1.3471591434679924,-0.6062395813021808
1744474951954880300,10.52588037109375,-0.49682431701123714,1.1403883243836461,-0.5378138414602727
1744474951964877300,10.535877197265625,-0.24189269360899923,0.9067851740837096,-0.524099788884446
1744474951974875100,10.545875244140625,0.038618776729702944,0.6516527674123644,-0.5179383436452597
1744474951984873200,10.555873291015626,0.2591390119642019,0.4151647093258798,-0.48264133174940943
1744474951994870500,10.56587060546875,0.36693653886020183,0.20420812898948787,-0.5295338696971535
1744474952004868400,10.575868408203124,0.3832710030674934,-0.009396043246239423,-0.5224130779065191
1744474952014866400,10.585866455078126,0.33767595758438107,-0.2515852355837822,-0.39605172031596303
1744474952024863200,10.59586328125,0.2158832230836153,-0.4569831588797271,-0.2725868878845125
1744474952034861300,10.605861328125,0.02293430086374283,-0.6259136382609606,-0.12142222068794072
1744474952044858000,10.615858154296875,-0.2373328383475542,-0.7325571728162467,0.08581497379913926
1744474952054856200,10.625856201171874,-0.47269642244875426,-0.8303867017969488,0.300216068566218
1744474952064854300,10.635854248046876,-0.6266314311414957,-0.8845774339288472,0.49267055833265183
1744474952074851300,10.645851318359375,-0.7031517762422561,-0.9682574415259063,0.6463491080462932
1744474952084849400,10.655849365234374,-0.6461497860819101,-1.124436283622682,0.7357844642996788
1744474952094846200,10.66584619140625,-0.6007564006507397,-1.352136785750091,0.7965475605592132
1744474952104844300,10.67584423828125,-0.6076899993062019,-1.6077847407281398,0.9036712798468768
1744474952114842400,10.68584228515625,-0.6848474732667207,-1.8394298888280987,1.0199264000952244
1744474952124839400,10.69583935546875,-0.791717363923788,-1.9852321522086858,1.1208651471376418
1744474952134837500,10.70583740234375,-0.8738882821321486,-2.0525451085031032,1.1892189907871187
1744474952144834300,10.715834228515625,-0.8932014698892832,-2.0796134404316544,1.2868335618428886
1744474952154832400,10.725832275390625,-0.919569252333045,-2.0927954319573936,1.4297108776874838
1744474952164830200,10.735830322265626,-0.8924614651769399,-2.1106039142400026,1.5744702078863977
1744474952174827300,10.7458271484375,-0.7345546302437782,-2.0760919883072373,1.7592830237932502
1744474952184825300,10.755825439453124,-0.5379921937018632,-2.011067142949998,1.9412141467839479
1744474952194822400,10.765822509765625,-0.384178181040287,-1.9583019135765731,2.0590198574751613
1744474952204820500,10.775820556640625,-0.29743747069835663,-1.9631261188626288,2.121360870575905
1744474952214818300,10.785818359375,-0.23816169038712978,-1.968305713457614,2.074714562474191
1744474952224815400,10.7958154296875,-0.15592647477090357,-1.9920554223574696,1.9858267571009693
1744474952234813400,10.8058134765625,-0.03038520139157772,-2.0332997252851723,1.9045051491983234
1744474952244810200,10.815810302734375,0.06738368344306946,-2.047026345081627,1.7849601936243473
1744474952254808300,10.825808349609375,0.06866787803471087,-2.029979056429863,1.6331198191232978
1744474952264806100,10.83580615234375,0.0009486790269613265,-2.0313655423521992,1.551394160464406
1744474952274803500,10.845803466796875,-0.06347732365429401,-2.039975257526338,1.5432729594595729
1744474952284801500,10.855801513671874,-0.0797036513119936,-2.012037157025933,1.5618777066864071
1744474952294798300,10.86579833984375,-0.05616203220486641,-1.9941040254503488,1.5520881340779362
1744474952304796400,10.87579638671875,0.025942835029959678,-2.0304612869888543,1.5438197796873747
1744474952314794200,10.885794189453126,0.1585661756247282,-2.131184929975867,1.505816942898929
1744474952324791600,10.89579150390625,0.21380232515633105,-2.2363959475100037,1.395861215055734
1744474952334789400,10.905789306640624,0.16893734751343725,-2.3196619674786922,1.2322900707505642
1744474952344786400,10.915786376953125,0.016540800434350966,-2.39268584876582,1.0992163560397923
1744474952354784500,10.925784423828125,-0.15447802952826023,-2.459855451066792,1.0833151686832307
1744474952364782300,10.9357822265625,-0.30331600734293457,-2.4768594850987196,1.1731835095264016
1744474952374779400,10.945779296875,-0.3992670291006565,-2.4487992195233703,1.2939135832317172
1744474952384777200,10.955777099609374,-0.40522856785357,-2.445413084216416,1.4205071421429514
1744474952394774500,10.9657744140625,-0.400329105374217,-2.431910774695128,1.5476510284133254
1744474952404772400,10.9757724609375,-0.4423229114949703,-2.4544454087167975,1.6834841248348353
1744474952414770400,10.9857705078125,-0.5509720867842436,-2.434693391150981,1.7623641848042606
1744474952424767500,10.995767578125,-0.7217039164990187,-2.357001079661399,1.8128578159838913
1744474952434765300,11.005765380859375,-0.9707856448292732,-2.205971875412762,1.8510652354337274
1744474952444763400,11.015763427734376,-1.2431295908033848,-2.0058437092132864,1.9105556814089417
1744474952454760200,11.02576025390625,-1.4154080654382706,-1.7554492908492683,1.9841851273737847
1744474952464758300,11.03575830078125,-1.3658955542504787,-1.4421131170123815,2.05478908803761
1744474952474755300,11.04575537109375,-1.2921306453377008,-1.1995841713264583,2.104471402834356
1744474952484753400,11.05575341796875,-1.4999205783367155,-1.0141285274714231,2.056558728058636
1744474952494751500,11.06575146484375,-2.180351988726854,-0.8731251888051629,1.8618068480700254
1744474952504748300,11.075748291015625,-3.1658038722902533,-0.6827066618457436,1.4753271120890974
1744474952514746400,11.085746337890624,-4.132417784392834,-0.47345505879633126,1.0003154715005307
1744474952524743400,11.095743408203125,-4.809660043352842,-0.2145554450785741,0.7108576013792306
1744474952534741500,11.105741455078125,-5.1215521558612584,0.02220616925228387,0.50343029114753
1744474952544739600,11.115739501953126,-5.24866696216762,0.2528204764671624,0.31401918766498566
1744474952554736400,11.125736328125,-5.297264696598052,0.31106844810061157,0.2512000356584787
1744474952564734500,11.135734375,-5.18695489462018,0.25800368779134003,0.2758510407796129
1744474952574731300,11.145731201171875,-5.015843125677108,0.11295027001667766,0.4657806517109275
1744474952584729300,11.155729248046875,-4.728463523134589,0.03112922469191253,0.6658993924949318
1744474952594727200,11.16572705078125,-4.199301117098331,0.1650470620766282,0.6957849738012999
1744474952604724500,11.175724365234375,-3.2314877660781143,0.49321204479821024,0.5480327819293365
1744474952614722600,11.18572265625,-2.0202070194780823,0.731457248750329,0.2927187533470802
1744474952624719400,11.19571923828125,-0.8487041565150022,0.8646258752029389,-0.030741750611132008
1744474952634717400,11.205717529296875,0.16598843457996845,0.9628840779244899,-0.4067412374388426
1744474952644715300,11.21571533203125,1.013666170656681,0.940052652913332,-0.7708626458130776
1744474952654712300,11.22571240234375,1.5782254687666892,0.816817464519292,-1.0658026006072758
1744474952664710400,11.23571044921875,1.708190988329053,0.6130674545608461,-1.1964587327823042
1744474952674707500,11.24570751953125,1.4264730648100374,0.45224780092090366,-1.2300029827266932
1744474952684705500,11.25570556640625,0.8710469212263822,0.47590091757848857,-1.19552013675794
1744474952694703400,11.265703369140626,0.16736381458640098,0.6762424342676997,-1.0156817482627927
1744474952704700400,11.275700439453125,-0.4869055650651455,0.9447842114798725,-0.7587441918656229
1744474952714698200,11.2856982421875,-1.1181693321824073,1.1920616668671369,-0.45169564693085845
1744474952724696300,11.2956962890625,-1.6588731229305267,1.4993784342840313,-0.30221157149868083
1744474952734693400,11.305693359375,-1.9710031358480453,1.8044950613081454,-0.278959802183602
1744474952744691500,11.31569140625,-2.0060195041716096,2.017201407921314,-0.3397621527412906
1744474952754688500,11.3256884765625,-1.8802707255214453,2.104702581241727,-0.4214716274503618
1744474952764686300,11.335686279296874,-1.7051088044047356,2.093790434344113,-0.4532896015914157
1744474952774684400,11.345684326171876,-1.660000665655732,2.0187819551110264,-0.4612137821868062
1744474952784681200,11.35568115234375,-1.727761950239539,2.063998522670567,-0.5106948387904092
1744474952794679300,11.36567919921875,-1.7656845613986252,2.187829192739725,-0.5236758278513327
1744474952804676400,11.37567626953125,-1.6716741523146628,2.2867183137759564,-0.4871139471188187
1744474952814674400,11.38567431640625,-1.4032079245567322,2.3738477311745285,-0.36125882201734927
1744474952824672500,11.395672607421876,-1.051156820139289,2.42357563867867,-0.20179089351361618
1744474952834669300,11.40566943359375,-0.6567594429016113,2.46399912674278,-0.10147227853038347
1744474952844667400,11.41566748046875,-0.2518096919894218,2.4658181588634847,-0.165530114619527
1744474952854664400,11.42566455078125,0.11672551423907279,2.370311958263814,-0.3523517313318327
1744474952864662500,11.43566259765625,0.37607086243033405,2.2162138679638503,-0.48368510518129915
1744474952874660600,11.44566064453125,0.5229173741668462,2.084919437885284,-0.4940207673652097
1744474952884657400,11.455657470703125,0.6030962417751551,2.0227531968295573,-0.49865686620064076
1744474952894655500,11.465655517578124,0.6583575257480144,2.0099509984016417,-0.40262872408609834
1744474952904652300,11.47565234375,0.6789630914032458,2.018182527913153,-0.1763494869334623
1744474952914650400,11.485650390625,0.7204834347933531,2.111518398736417,-0.021834632526151834
1744474952924648200,11.495648193359376,0.8403414018392562,2.278074696332216,0.07835023654219694
1744474952934645500,11.5056455078125,1.0319418320596216,2.4271885684788224,0.1290608258076012
1744474952944643600,11.5156435546875,1.3029980763107538,2.51775731267631,0.17960927418069914
1744474952954640400,11.525640380859375,1.5901818640202283,2.4919530093342064,0.19482494522482155
1744474952964638500,11.535638427734375,1.8534855944484472,2.386767126241326,0.17288944614008067
1744474952974636300,11.54563623046875,2.012213098114729,2.1975725881189105,0.154381948742643
1744474952984633300,11.55563330078125,2.130949952176213,2.0311790798693896,0.12993793743569404
1744474952994631200,11.565631103515624,2.1856629546165465,1.8805349294155835,0.10721607374623417
1744474953004629200,11.575629150390625,2.228949138635397,1.7350100216716526,0.13178650617813692
1744474953014626600,11.58562646484375,2.2803905720591544,1.6200865884184836,0.2080401083678007
1744474953024624400,11.595624267578126,2.333572127148509,1.5200959358811377,0.2657560920163989
1744474953034621400,11.605621337890625,2.4422610499262807,1.4216805698364972,0.27584214508710425
1744474953044619300,11.615619384765624,2.5422283215880395,1.2673720516562461,0.1832976803698577
1744474953054617300,11.625617431640626,2.5928794814169405,1.091367834496498,0.017718465911597012
1744474953064614400,11.635614501953125,2.6252795297622677,0.8728110082894563,-0.05841046871878206
1744474953074612500,11.645612548828124,2.5902853732705116,0.6025538054615259,-0.021063611621037124
1744474953084609500,11.655609619140625,2.4775907219827173,0.4225806846708059,0.06837327900230884
1744474953094607400,11.665607421875,2.330201773932576,0.3239583978772163,0.13192549452371893
1744474953104605400,11.67560546875,2.21100197853446,0.3506944291114807,0.09974329018015414
1744474953114602200,11.685602294921875,2.155304056710005,0.40357261734008787,-0.017289719105511903
1744474953124600300,11.695600341796874,2.149411491540074,0.3865484173029661,-0.18904906523711978
1744474953134597400,11.705597412109375,2.146558440196514,0.3139630735635757,-0.22641557688340544
1744474953144595500,11.715595458984374,2.086238119268417,0.2421685879409313,-0.18788959300369024
1744474953154593500,11.725593505859376,1.902496585854888,0.21564415363073347,-0.11920772297624498
1744474953164590300,11.73559033203125,1.6281816320687532,0.22998832080364226,-0.013755626695230602
1744474953174588400,11.74558837890625,1.3681430409163235,0.3235626765578985,0.07087879554983229
1744474953184585200,11.755585205078125,1.1898732169121504,0.4623427862167358,0.1167569505569525
1744474953194583300,11.765583251953124,1.1257751310110091,0.4704904368370771,0.14634362198198214
1744474953204581400,11.775581298828126,1.2333458634138106,0.35774960831999775,0.04078581857047975
1744474953214578400,11.785578369140625,1.4808517207294702,0.26012919204533097,-0.285341557376273
1744474953224576000,11.795575927734374,1.6212065323591232,0.24805647693574426,-0.7253383274786174
1744474953234574000,11.805573974609375,1.381206520628929,0.14676877032518387,-1.1068559110075236
1744474953244571000,11.81557080078125,0.6852694980710744,0.006043956339359283,-1.3407643278643488
1744474953254569000,11.82556884765625,-0.17741174587011335,-0.007384849554300308,-1.395158765874803
1744474953264566000,11.83556591796875,-0.8959972380876541,0.14301029457449912,-1.2090865975566207
1744474953274564000,11.845564208984374,-1.308726975351572,0.4155319352030754,-0.8776148283746092
1744474953284562200,11.855562255859375,-1.4168424821555614,0.7801631197303533,-0.5165624521821737
1744474953294559000,11.86555908203125,-1.2914876712590455,1.1291142123058437,-0.20430006332295014
1744474953304557000,11.87555712890625,-1.0768009644836187,1.4034601457521318,-0.02590674080327153
1744474953314553900,11.885553955078125,-0.9219856658250093,1.5893290465831755,-0.013192531186062843
1744474953324552000,11.895552001953124,-0.9322913712620735,1.6015268493771553,-0.22232629827577619
1744474953334550000,11.905550048828125,-1.1830343108028172,1.4319120409935713,-0.44674270069859917
1744474953344547000,11.915547119140625,-1.3533908774644137,1.2154092247068882,-0.5626663605028763
1744474953354545200,11.925545166015626,-1.292450963333249,1.1042448517262935,-0.6314224648103117
1744474953364542000,11.9355419921875,-1.06437753624022,1.0677616257205604,-0.6292185980904847
1744474953374540000,11.9455400390625,-0.7370692434132099,1.0559396705016493,-0.4977422721063718
1744474953384537900,11.955537841796875,-0.2960831334799528,1.136074114446342,-0.41167555203586814
1744474953394535200,11.96553515625,0.1759282293140888,1.1927893966197967,-0.43252380387317385
1744474953404533000,11.975532958984376,0.5559855310320854,1.1835194639712572,-0.5410761311918497
1744474953414530000,11.985530029296875,0.8409054654628038,1.118748301114142,-0.7032517294853925
1744474953424528100,11.995528076171874,0.9970604882925749,0.9880863237202167,-0.8513979256436228
1744474953434526000,12.00552587890625,1.0138754294931889,0.8517550685182214,-1.0058512591220439
1744474953444523000,12.01552294921875,0.9315770855128764,0.7050906353503466,-1.1551961635455488
1744474953454520800,12.025520751953126,0.7106921086192131,0.6152236096814274,-1.2638687197104095
1744474953464518100,12.03551806640625,0.3230091343283653,0.5979623860180378,-1.3215963937968014
1744474953474516000,12.045515869140624,-0.166709150069952,0.5937386308431625,-1.2668040425099432
1744474953484514000,12.05551416015625,-0.619980156558752,0.6172630065545439,-1.159777938377857
1744474953494511000,12.065510986328125,-1.0686515602976083,0.7375836226761341,-1.099821043934673
1744474953504509000,12.075509033203126,-1.4028601340323685,0.8313698676154017,-1.0788839082375168
1744474953514507000,12.085507080078125,-1.6234773999005556,0.8647069045498966,-1.043315312858671
1744474953524504000,12.095504150390624,-1.7699942412912844,0.8903633238539099,-1.069594101844728
1744474953534502100,12.105502197265626,-1.8754016581803559,0.9520628241807222,-1.1085926716722547
1744474953544499000,12.1154990234375,-1.8439175556361673,0.9400532374352216,-1.1093704511117188
1744474953554497000,12.1254970703125,-1.677382593089342,0.8510603642523288,-1.058734269656241
1744474953564495000,12.1354951171875,-1.51942022857666,0.6430152874484658,-0.8711634602781385
1744474953574492000,12.145491943359374,-1.2572387801766396,0.45640492060035465,-0.6541548864264041
1744474953584490000,12.155489990234376,-0.8746265332788229,0.40419688671827314,-0.49855669376179573
1744474953594487000,12.165487060546875,-0.4619903195172548,0.373389076000452,-0.42970209751594807
1744474953604485000,12.175485107421874,-0.12860884425640107,0.3380561890736222,-0.4606123456949368
1744474953614483200,12.185483154296875,0.10999182206988334,0.28443331995755433,-0.5623141860643401
1744474953624480000,12.19547998046875,0.26839257799983024,0.22894451083913445,-0.6922163945995271
1744474953634478000,12.20547802734375,0.39335225209891794,0.12944003438353538,-0.8362116085581481
1744474953644475000,12.215474853515625,0.5244008907228708,-0.001746697536855936,-0.9729439188417046
1744474953654473000,12.225472900390624,0.6527934618800878,-0.15485226966813206,-1.0959023361209779
1744474953664470800,12.235470703125,0.6345341670900583,-0.3069876815930009,-1.2036820350993425
1744474953674468000,12.245468017578125,0.4208522534430027,-0.3995573903493583,-1.2180539670620112
1744474953684466200,12.255466064453126,0.04698854566812515,-0.39827801806330676,-1.10029275309965
1744474953694463000,12.265462890625,-0.3632429450392723,-0.3560940961979329,-0.8887608570933342
1744474953704461000,12.2754609375,-0.5859311719626188,-0.3245543179437518,-0.6767043526910245
1744474953714459000,12.285458984375,-0.6290700564652681,-0.309086553568393,-0.5039824086049571
1744474953724456200,12.295456298828125,-0.5965875905334949,-0.3641853404559195,-0.3670198332294822
1744474953734454000,12.3054541015625,-0.5312316135257482,-0.4964119368180632,-0.27554606648366897
1744474953744452000,12.3154521484375,-0.39590427466928957,-0.6639115066133439,-0.2375185701780021
1744474953754449200,12.32544921875,-0.22309973033368585,-0.8507233873829245,-0.19620569552611558
1744474953764447000,12.335447021484375,-0.08594692961573601,-1.0247020900644361,-0.12431056254059075
1744474953774444000,12.345444091796875,-0.007893968120217323,-1.113557746733725,-0.11244918862674384
1744474953784441900,12.35544189453125,0.03820727331936359,-1.153807193405181,-0.07753416178580373
1744474953794440000,12.36543994140625,0.010364157626032829,-1.2068880645990372,0.07216105391271412
1744474953804437000,12.37543701171875,-0.1384229667842388,-1.220389789598435,0.28385427796058355
1744474953814435000,12.38543505859375,-0.3136941934943199,-1.1808340242795645,0.50859764731545
1744474953824431900,12.395431884765625,-0.4572340649008751,-1.175007948474586,0.694251115297526
1744474953834430000,12.405429931640626,-0.5337140779912471,-1.229899376221746,0.7932402626421302
1744474953844428000,12.415427978515625,-0.6153928287684917,-1.3055118126973508,0.8637930045753717
1744474953854424800,12.4254248046875,-0.7195604747295379,-1.3851302699439227,0.8978583557844162
1744474953864423000,12.4354228515625,-0.7844815674513578,-1.4664195830121636,0.876424595676735
1744474953874420000,12.445419921875,-0.8148790438026189,-1.5403049034342169,0.8117373117107898
1744474953884418000,12.45541796875,-0.802681825530529,-1.6157912293121217,0.7846330316860228
1744474953894416100,12.465416015625,-0.7896843967914581,-1.631435227037221,0.6778850138429552
1744474953904413000,12.475412841796874,-0.7685013235092163,-1.5661495387867093,0.6407449313636869
1744474953914411000,12.485410888671876,-0.6990636301457882,-1.5056170364126562,0.6399725587517022
1744474953924408000,12.495407958984375,-0.639749271389842,-1.491301803073287,0.6490417811963707
1744474953934406100,12.50540625,-0.5921826335728169,-1.4885913750708102,0.639249870500341
1744474953944404200,12.515404296875,-0.4891436993807554,-1.5362038978561758,0.7033651267319917
1744474953954401000,12.525401123046874,-0.3308791370511055,-1.5546093231186269,0.7761149403180927
1744474953964399000,12.535399169921876,-0.19101357024312018,-1.5622244742974638,0.8253039917051792
1744474953974396000,12.54539599609375,-0.12591595191061497,-1.5847858501955865,0.9409540587324648
1744474953984394000,12.55539404296875,-0.07640811689794064,-1.6063070693910122,1.0412350725185124
1744474953994391800,12.565391845703125,-0.0491997919768095,-1.630632532352209,1.0844380352333187
1744474954004389000,12.57538916015625,0.03486205454468727,-1.6848786479331552,1.0706039364743978
1744474954014387200,12.58538720703125,0.13043430611789225,-1.7186080451861023,1.103849568798393
1744474954024385000,12.595385009765625,0.22489947323203086,-1.7281741843022405,1.104240467812121
1744474954034382000,12.605382080078124,0.28966449860930443,-1.6727508416354655,1.0739897795204072
