time,seconds_elapsed,z,y,x
1745437814241092000,0.047092041015625,-1.5378443585395811,1.002597079631686,-0.3152030636873096
1745437814251064300,0.057064208984375,-0.9873130012601613,2.2053981671780347,-0.4020150856997817
1745437814261036300,0.067036376953125,-0.7839584203600883,2.1620207977443933,-1.2282137612223625
1745437814271009300,0.07700927734375,-0.5219686951398849,1.0986430861964822,-1.784951425796002
1745437814280981200,0.086981201171875,0.5739215852171182,0.28716712883561846,-2.168952935095131
1745437814290953500,0.096953369140625,3.2619232363522053,0.6059434478998184,-2.494208971567452
1745437814300925200,0.10692529296875,5.025787596586347,1.173646596993506,-2.6598142520487307
1745437814310898200,0.116898193359375,4.2350674270063635,0.5068649417713285,-3.182726073257625
1745437814320870400,0.126870361328125,2.8525895712673663,-0.5256976525351404,-3.335338893435895
1745437814330842400,0.13684228515625,2.008749805918336,-0.7109297167673707,-2.1883318815648556
1745437814340815400,0.1468154296875,1.3427566707253455,-0.9169844965368509,0.47263000614903866
1745437814350787300,0.156787353515625,0.5571364546328783,-1.41396341958791,4.295110392297804
1745437814360759300,0.16675927734375,1.4802484941393137,-1.2360422628909349,5.838887355756759
1745437814370731300,0.176731201171875,3.3505607202261682,-0.206375974547863,1.0375421362847088
1745437814380704500,0.18670458984375,3.5619746889412403,0.6905395474284887,-1.4588283972308038
1745437814390676200,0.19667626953125,3.7048113805145024,1.3746210047587752,0.3631417496871203
1745437814400648400,0.2066484375,2.8191590108305213,1.2605378217220307,1.7964862346366046
1745437814410620200,0.2166201171875,1.7791145363360643,1.3415309283226728,1.2271607450380921
1745437814420593200,0.22659326171875,1.8432213900655507,1.8573489918783306,-0.0641067989305593
1745437814430565400,0.2365654296875,1.7364643121331929,1.6609858773007988,-0.964857131563127
1745437814440537000,0.246537109375,1.0126169538646936,1.653307305496931,-0.8560317229241132
1745437814450510300,0.25651025390625,2.4847131212085483,3.5127599916562438,-0.4341939290424809
1745437814460482300,0.266482421875,2.6511212425053117,2.695361073987186,-0.595812003051117
1745437814470454300,0.276454345703125,4.98057307485342,2.394412380297482,-2.8735712767586112
1745437814480427300,0.28642724609375,5.909619765105843,2.218445280277729,-3.0439141071558
1745437814490399500,0.2963994140625,5.109356106632948,1.493287716193497,-1.914962538065761
1745437814500371200,0.30637109375,4.179344370740652,0.9500909395858644,-2.0953496464848516
1745437814510343400,0.316343505859375,2.8819927758842705,1.1645067204654216,-2.504570791105926
1745437814520316400,0.32631640625,1.9072925879597662,1.4619099966332316,-0.6780022835470736
1745437814530288000,0.3362880859375,1.6615911497175693,1.054645831298828,1.4605493758045136
1745437814540260400,0.34626025390625,2.2481606195837256,2.469894322261214,0.005090601137280464
1745437814550232300,0.356232421875,1.9665514171361922,3.058495590215921,0.35404344727844
1745437814560205300,0.366205322265625,1.995938839662075,2.631200444243848,0.8273264374434948
1745437814570177300,0.37617724609375,1.3207622810602186,3.100086953015625,-0.4268181761100888
1745437814580149500,0.3861494140625,-1.016610991936922,2.9901278641715643,-2.259611403402686
1745437814590122200,0.396122314453125,-2.6863573910593983,1.9036863801613448,-3.52231575550884
1745437814600094200,0.40609423828125,-2.4804589708954095,1.5720201843857764,-4.242638154521584
1745437814610066400,0.41606640625,-1.9491659825712442,1.6321926212757825,-2.8841987614959477
1745437814620039200,0.4260390625,-1.9335481422007084,1.4052362155139446,-1.0108958291605115
1745437814630011400,0.436011474609375,-2.0954560294687745,1.288284783564508,0.7236462827384471
1745437814639983400,0.4459833984375,-1.5340829601794481,1.208257307125628,1.3317068689227103
1745437814649955300,0.455955322265625,-0.9732564188569783,1.035856082893908,2.1343284886986016
1745437814659928300,0.46592822265625,-0.5784679964751005,1.189300969982147,2.2262533236801625
1745437814669900500,0.475900634765625,-0.3167781309843063,1.3249366441354156,1.9910937377184628
1745437814679872300,0.485872314453125,-0.1897235304325819,1.3200561786174774,1.7118565250992774
1745437814689845200,0.49584521484375,-0.36322190225124357,1.6733645896196365,1.2681047498449682
1745437814699817500,0.5058173828125,-0.22970716577470301,1.8223074891135096,0.7870218995839356
1745437814709789200,0.5157890625,0.7634019545435905,1.5400243329271672,0.14081833748817443
1745437814719762400,0.525762451171875,2.239147876566648,1.3538774919375776,0.18955168099701403
1745437814729734400,0.535734375,3.566253389173746,1.334159084380418,0.2140694516599178
1745437814739706400,0.545706298828125,4.570808617135882,1.0827608958013355,0.07441372821033
1745437814749678300,0.55567822265625,5.115698753657937,0.978699194432795,0.2429536008387804
1745437814759651300,0.5656513671875,5.378734773060679,1.1669057444311677,0.557060466787219
1745437814769623300,0.575623291015625,5.233199928444623,1.6742622691117226,0.9554700022757053
1745437814779595300,0.58559521484375,4.657558679828047,2.5020833582043647,1.5038783760517835
1745437814789568500,0.595568603515625,3.8679409185320135,3.421273255831003,1.4880594601511954
1745437814799540200,0.605540283203125,2.551913849300146,4.3411347691088915,0.9914677828520536
1745437814809512400,0.615512451171875,1.2547037087410688,5.358322099629044,-1.4650994403243065
1745437814819484200,0.625484130859375,2.5785411594629286,4.563187328477204,-3.8075948786407707
1745437814829457400,0.63545751953125,0.5495400081545114,2.752434960339963,-3.07300751517117
1745437814839429400,0.645429443359375,-1.3337392515331505,3.3619597738578912,-3.3496050269365307
1745437814849401300,0.6554013671875,-1.7606863147199152,3.9753728269860145,-4.85209399445653
1745437814859374300,0.665374267578125,-2.3162062740668654,3.7892899911433457,-5.857811251935362
1745437814869346300,0.67534619140625,-2.646682383275032,3.7736014236241577,-5.281578467166423
1745437814879318300,0.685318359375,-2.820980381038785,3.1457696767821908,-3.908412045130133
1745437814889291300,0.695291259765625,-2.9559178437948224,1.9914450353741644,-2.1543173837602136
1745437814899263500,0.705263427734375,-2.9225919127762316,0.9855126738399267,-3.2085201474666594
1745437814909235200,0.715235107421875,-3.2000916340783236,0.5917945110380649,-5.978719604817033
1745437814919207400,0.72520751953125,-4.237012423594296,-0.036572073332965374,-7.571779654622078
1745437814929180400,0.735180419921875,-5.661124896752834,-0.9516834694743156,-8.188862336173653
1745437814939152100,0.745152099609375,-6.641012716448307,-1.5132000388875604,-7.8910250525027505
1745437814949124400,0.755124267578125,-6.685275636544823,-2.1165236596778034,-6.85863489215374
1745437814959097300,0.765097412109375,-6.126631699958443,-2.5774969111070036,-6.187790225276351
1745437814969069300,0.7750693359375,-5.923140925458073,-3.1002626018434762,-7.129726792240143
1745437814979041300,0.785041259765625,-5.642116244900226,-3.4100393296331166,-6.944298913174867
1745437814989014300,0.79501416015625,-5.034225170063972,-3.258931653320789,-5.88905511598289
1745437814998986200,0.804986328125,-4.560482453432679,-2.917884173476696,-5.370263881835341
1745437815008958500,0.81495849609375,-4.47396210784316,-2.7651296067401767,-5.503973264101147
1745437815018930200,0.82493017578125,-4.217257629549503,-2.836711910916865,-4.938892572465539
1745437815028903200,0.834903076171875,-3.5010353593319654,-2.652467688678205,-3.643365854948759
1745437815038875400,0.84487548828125,-2.7863626566439867,-2.6282889407113195,-2.40501882224679
1745437815048847000,0.85484716796875,-2.2321295222371815,-2.8157807665690777,-1.3126970480263231
1745437815058820400,0.8648203125,-1.836443274232745,-3.095995592048764,-0.33312077849805355
1745437815068792300,0.874792236328125,-1.433402571812272,-3.40805604686141,0.48158992300033565
1745437815078763300,0.88476318359375,-1.1510142016857863,-3.662301441565156,0.7809200755774974
1745437815088736300,0.894736328125,-1.0717056871712207,-3.852686650776863,0.44080023197233675
1745437815098708200,0.904708251953125,-1.2786620919555425,-4.178672170567512,0.10542553706765175
1745437815108680200,0.91468017578125,-1.4644208104103802,-4.53961151483953,0.2751438058257103
1745437815118652400,0.92465234375,-1.3713193328648805,-4.649483509922027,0.7358534378826618
1745437815128625200,0.934625244140625,-1.2399275798916816,-4.719740118452906,1.3959838185220956
1745437815138597400,0.944597412109375,-1.0221803165018557,-4.812105682939291,1.8056378016024828
1745437815148569300,0.9545693359375,-0.731595195916295,-4.766995790624618,2.0034797565609215
1745437815158542000,0.9645419921875,-0.5042834739107638,-4.6326370045393706,2.1452672313421965
1745437815168514300,0.974514404296875,-0.38075171372294425,-4.447994138371945,1.860806146594882
1745437815178486300,0.984486328125,-0.4665168204983696,-4.185789893618225,0.9566969137221574
1745437815188458200,0.994458251953125,-0.8996095833659171,-3.8154490992724894,-0.10390578015446662
1745437815198431200,1.00443115234375,-1.3055337322682141,-3.472946744444966,-0.8324462646752595
1745437815208403500,1.014403564453125,-1.649051401618123,-3.2010294994503257,-1.1179290936857462
1745437815218375200,1.024375244140625,-1.8454355589836835,-3.002320698529482,-1.3501894510746002
1745437815228348200,1.03434814453125,-1.8391870199829339,-2.902230677270889,-1.4316449144899843
1745437815238320400,1.0443203125,-1.6698808391571045,-2.897387913414836,-1.3596037606298923
1745437815248292000,1.0542919921875,-1.4540098910331725,-2.838303856283426,-1.5855448518693447
1745437815258265300,1.064265380859375,-1.4810954663574696,-2.6858833438068626,-2.3798738595962523
1745437815268237300,1.0742373046875,-1.6606845562666654,-2.590386787818372,-3.278350055018067
1745437815278209300,1.084209228515625,-1.763956130170822,-2.4381086064219475,-3.9036353322476147
1745437815288182300,1.094182373046875,-1.9432009366869925,-2.0586320272013543,-4.408773304095864
1745437815298154200,1.104154296875,-2.1039105540812013,-1.7810577793583273,-4.617206211173534
1745437815308126200,1.114126220703125,-1.9305559746474026,-1.4153613036870956,-4.59819171410203
1745437815318098400,1.124098388671875,-1.7562439483582972,-1.0562880455479025,-4.602570952099561
1745437815328071400,1.134071533203125,-1.5418372275680303,-0.7044511684030293,-4.55706592298746
1745437815338043100,1.144043212890625,-1.1360931114077568,-0.3919634280890226,-4.353831169074773
1745437815348015400,1.154015380859375,-0.7559609908878803,-0.13105711419135332,-4.140884583964944
1745437815357988400,1.16398828125,-0.5172661434721202,0.1609393344968557,-4.2553760555416345
1745437815367960300,1.173960205078125,-0.4161269784867763,0.7263298227339983,-4.5665234871625895
1745437815377932300,1.183932373046875,-0.3516997336965054,1.3964675103858113,-4.591367421039939
1745437815387904300,1.193904296875,-0.22626663339938968,2.1291157224863766,-4.162719983676076
1745437815397877200,1.203877197265625,-0.1441840145289898,2.761007266113162,-3.463099888691306
1745437815407849200,1.21384912109375,-0.07303655810561031,3.156593560874462,-2.705779884409904
1745437815417821200,1.2238212890625,-0.04927227269113064,3.3093627406582233,-2.015290021342039
1745437815427794200,1.233794189453125,-0.20212182423472402,3.273633840151131,-1.8170476688891648
1745437815437766400,1.243766357421875,-0.4416857461025938,2.942854071821272,-2.1730723531126976
1745437815447738000,1.253738037109375,-0.7090221295803785,2.3425448304161427,-2.3353426439523695
1745437815457711000,1.263711181640625,-0.7384527336608618,1.6522566274002193,-2.5836890437453985
1745437815467683300,1.273683349609375,-0.5494453156083822,1.0512564811214804,-2.1941531350642443
1745437815477655300,1.2836552734375,-0.1018107806365937,0.7809877339862287,-1.6688678627222775
1745437815487628300,1.293628173828125,0.2734750688958913,0.6528954609498381,-1.2312018371224402
1745437815497600300,1.303600341796875,0.5531413205821066,0.7060946978263557,-0.9105150082617998
1745437815507572200,1.313572265625,0.6777735893577337,0.979282839539647,-0.8324456801533698
1745437815517544200,1.323544189453125,0.7162626752931625,1.371058928363025,-0.7485258724510669
1745437815527517400,1.333517333984375,0.8716840500861406,1.8353446653410792,-0.8178028222948313
1745437815537489200,1.3434892578125,1.0461739171601832,2.3344284517169,-0.8173287750422954
1745437815547461400,1.35346142578125,1.2216910814553499,2.8106466185510155,-0.6163391697078943
1745437815557434400,1.363434326171875,1.3107786471843719,3.3249630453720687,-0.2223755077123642
1745437815567406000,1.373406005859375,1.3381167359650135,3.647405485728383,0.31741993601918217
1745437815577378300,1.38337841796875,1.3283360773153603,3.7730458355680105,0.9164531661391258
1745437815587351300,1.393351318359375,1.4062696502149103,3.9057244134813547,1.4831488917559383
1745437815597323300,1.4033232421875,1.5861884104698896,3.9659745917826887,1.992977067247033
1745437815607295200,1.413295166015625,1.7703792950861155,3.977498148576915,2.4621219346940517
1745437815617267500,1.423267333984375,1.9497971200816333,3.995642877076566,2.6726719800561667
1745437815627240200,1.433240234375,2.1363399746514857,4.054930932347476,2.8152088119000194
1745437815637212200,1.443212158203125,2.400796236115694,4.216446020905673,3.1671015108853577
1745437815647184400,1.453184326171875,2.608915839460492,4.301149380201101,3.5984605452954765
1745437815657157000,1.4631572265625,2.7426450954705475,4.361368578842282,4.060283691552281
1745437815667129300,1.47312939453125,2.850804441416263,4.396792651183903,4.521721637883783
1745437815677101300,1.483101318359375,2.922524108237028,4.331799077747762,5.005592949819564
1745437815687074300,1.49307421875,2.964382305279374,4.280452629131078,5.361415973991155
1745437815697046300,1.50304638671875,2.9484967538833615,4.268294573825598,5.522708359709382
1745437815707018500,1.5130185546875,2.896042928546667,4.248419076010585,5.491887689509987
1745437815716991200,1.5229912109375,2.8472943874686956,4.2705514128416775,5.280151064711809
1745437815726963200,1.532963134765625,2.7986031295359135,4.278198128202558,5.189624990612268
1745437815736935400,1.542935302734375,2.712561507374048,4.371604726174474,5.031434078040719
1745437815746907100,1.5529072265625,2.561983992415666,4.3876060129046435,4.879665307471156
1745437815756880400,1.56288037109375,2.410505144703388,4.173057545556127,4.8085798469007015
1745437815766852400,1.572852294921875,2.250165968056768,4.012456356972455,4.757759760245681
1745437815776824300,1.58282421875,2.117585735951364,3.9018376351758834,4.626533426967263
1745437815786797300,1.59279736328125,2.013026898715645,3.7753193334579467,4.316030722990631
1745437815796769300,1.602769287109375,1.9762135639727114,3.7612744414925574,3.882781929311156
1745437815806741200,1.6127412109375,1.9032054647766052,3.8387276835292576,3.2324294308423993
1745437815816714200,1.62271435546875,1.8347078287422656,3.864902573749423,2.6513889535307884
1745437815826686500,1.6326865234375,1.7359021482057868,3.8485771696314215,2.073865544429421
1745437815836658200,1.642658203125,1.6670920852214097,3.791802558486163,1.6256541594177483
1745437815846630400,1.65263037109375,1.5700930157154798,3.7314229085862634,1.126471296581626
1745437815856603400,1.662603271484375,1.3085763148345053,3.7435344944015143,0.6193775144904852
1745437815866575400,1.672575439453125,1.103634757003933,3.7983506649553775,-0.0736690473228693
1745437815876547300,1.68254736328125,0.9562859948337078,3.7630122250705957,-0.8518103058367967
1745437815886520300,1.692520263671875,0.8515713094491512,3.595315233007073,-1.6932015089899302
1745437815896492300,1.7024921875,0.6759457894086838,3.3559751464903353,-2.6091426339536903
1745437815906464300,1.71246435546875,0.49227315651290116,2.9785215975299475,-3.2612282398253676
1745437815916437200,1.722437255859375,0.4750147093284875,2.761288421142101,-3.5131238565325735
1745437815926409200,1.7324091796875,0.5040946002751588,2.7554890872135758,-3.5716432655185457
1745437815936381400,1.74238134765625,0.4059674035221338,2.7303198669046163,-3.511086213225126
1745437815946354200,1.752354248046875,0.20756730322428046,2.5144369360819456,-3.4230899498641487
1745437815956326100,1.762326171875,-0.06994268374349921,1.9763209698699413,-3.3438989242494106
1745437815966298400,1.77229833984375,-0.14475158528387547,1.520722981738299,-3.566639173620939
1745437815976270000,1.78227001953125,-0.2740046091953292,1.2258955474078654,-3.8756437479943036
1745437815986243300,1.792243408203125,-0.4774853372257203,0.9329907517030834,-3.689823070219159
1745437815996215300,1.80221533203125,-0.6074667119443417,0.7976809485033154,-3.4236972681075333
1745437816006187300,1.812187255859375,-0.6326449923425912,0.7339841368794441,-3.4802094289243217
1745437816016160300,1.82216015625,-0.7701192800998687,0.5479042236462235,-3.489360703629255
1745437816026132200,1.83213232421875,-0.9635060092151164,0.2716360899657011,-3.300182532119751
1745437816036104200,1.842104248046875,-1.1235177074730396,-0.06712970868200063,-3.096270317336917
1745437816046077200,1.8520771484375,-1.1480442459642886,-0.5186524101987481,-2.9249346765100954
1745437816056049400,1.86204931640625,-0.9886474647343159,-1.0148796380996703,-2.7773960908561945
1745437816066021000,1.872021240234375,-0.7579448581814765,-1.4116104267209768,-2.737128962397575
1745437816075994400,1.881994384765625,-0.6554290710806846,-1.638484122635424,-3.225992675793171
1745437816085966800,1.891966796875,-0.7130876254536211,-1.8521698356747627,-4.035979271379113
1745437816095938800,1.901938720703125,-0.9795592453282326,-2.1615140172660348,-4.273632427722215
1745437816105910800,1.911910888671875,-1.3398995277285575,-2.3433266284435987,-4.085988041651249
1745437816115883800,1.9218837890625,-1.5929121657669543,-2.4735446614623067,-3.617949674141407
1745437816125856000,1.93185595703125,-1.782633942633867,-2.7102719351321456,-3.1707945201843977
1745437816135827700,1.94182763671875,-1.8751345316767691,-3.042221916285157,-2.7667443484604357
1745437816145800700,1.95180078125,-1.7714811188481747,-3.4644045415490865,-2.6000936505794523
1745437816155773000,1.96177294921875,-1.630582263469696,-3.9134582226037975,-2.8185692282438275
1745437816165745000,1.971744873046875,-1.5356031554840504,-4.346818659964203,-2.913165328261256
1745437816175718000,1.9817177734375,-1.4462697983004151,-4.653867424094677,-2.926226469886303
1745437816185689900,1.99168994140625,-1.4822680172681808,-4.898403910210728,-2.8146903409838675
1745437816195661800,2.001661865234375,-1.5559037468433379,-4.990817990013957,-2.268501981344819
1745437816205634800,2.011634765625,-1.6060826129853725,-4.9787820997834205,-1.6614970416933297
1745437816215607000,2.02160693359375,-1.6246844376027583,-4.8656636701256035,-1.0578431660354137
1745437816225578800,2.031578857421875,-1.5832498727999627,-4.702796582436561,-0.5017343008846045
1745437816235551000,2.041551025390625,-1.5638449151061475,-4.564118179586529,-0.06796002202630043
1745437816245524000,2.05152392578125,-1.5480103632450102,-4.421342862811684,0.1040899045497179
1745437816255495700,2.06149560546875,-1.470922447389364,-4.249623191103339,0.18377952733635902
1745437816265468000,2.071468017578125,-1.4424164838731288,-4.067482663145661,0.2477677231222391
1745437816275441000,2.08144091796875,-1.380970519915968,-3.917188056781888,0.0934627120733261
1745437816285412900,2.091412841796875,-1.369571027892828,-3.8698879609465595,-0.07363339148759841
1745437816295384800,2.101384765625,-1.3549579806506633,-3.7746775284230707,0.04890285485684871
1745437816305357800,2.11135791015625,-1.3579590621627866,-3.54737216309309,0.21008125880658626
1745437816315329800,2.121329833984375,-1.4735295611478387,-3.287456906059384,0.38530572376549244
1745437816325301800,2.1313017578125,-1.5721837043844162,-3.0348353131651877,0.485121604257822
1745437816335275000,2.14127490234375,-1.568976140514761,-2.944576950091123,0.3788894269824028
1745437816345246700,2.151246826171875,-1.501904445630312,-2.9555817437082528,0.03093114483654499
1745437816355219000,2.161218994140625,-1.4126912076950073,-2.9187480968296526,-0.5038046774178743
1745437816365192000,2.17119189453125,-1.2985294064640998,-2.8586656763106584,-1.2770593329340219
1745437816375164000,2.181163818359375,-1.2021394087672232,-2.8643296934217215,-2.0760925728291273
1745437816385135900,2.191135986328125,-1.2107575995087623,-2.7652397891163822,-2.6164029803454874
1745437816395108900,2.20110888671875,-1.2983971583865581,-2.4661469524264334,-3.011550299167633
1745437816405080800,2.211080810546875,-1.3803728462837637,-2.0709300754994153,-3.150841865479946
1745437816415052800,2.221052734375,-1.330280635511875,-1.6967524794697761,-3.2744869498491287
1745437816425026000,2.231026123046875,-1.3438026726469396,-1.3537503584265709,-3.447157054150104
1745437816434997800,2.240997802734375,-1.4768880777955053,-1.0276029260724782,-3.8440614457726476
1745437816444970000,2.250969970703125,-1.6394062059164047,-0.8763368443280458,-4.4071185226261615
1745437816454942000,2.26094189453125,-1.7161679585576057,-0.783548670515418,-4.80494587431252
1745437816464914700,2.270914794921875,-1.6764602175474166,-0.6624415801912545,-5.136474415183067
1745437816474887000,2.280886962890625,-1.6183353608369826,-0.5969821428090334,-5.287528315481543
1745437816484859000,2.29085888671875,-1.5902596054315565,-0.4553016355335712,-5.2427375721186396
1745437816494831900,2.300831787109375,-1.6230676500558852,-0.331417189450562,-4.911632809618115
1745437816504803800,2.310803955078125,-1.6429272196494042,-0.3459200543165207,-4.374174868923426
1745437816514776000,2.320776123046875,-1.6185387744545936,-0.5375070405334234,-3.876720437315106
1745437816524748800,2.330748779296875,-1.4024679198443888,-0.7298769938215613,-3.4007565375030038
1745437816534721000,2.340720947265625,-0.992125369977951,-0.7395511233568192,-2.8086171585500237
1745437816544693000,2.35069287109375,-0.7873849607426673,-0.8666241363480687,-2.165695102342963
1745437816554665700,2.360665771484375,-0.599491568346694,-1.0445929315790534,-1.6273603788137434
1745437816564638000,2.370637939453125,-0.18071904378719628,-0.7435323019474744,-1.4883072974324225
1745437816574610000,2.38060986328125,0.30696400845646854,0.12235738264620304,-1.684924679031968
1745437816584583000,2.3905830078125,0.5043826965015381,1.0421221575513482,-1.718923979267478
1745437816594555000,2.400554931640625,0.352004927188158,1.6309689246997237,-1.5002005643218754
1745437816604527000,2.410527099609375,-0.05915712236762046,1.7086705885395406,-1.0443640912592411
1745437816614499800,2.420499755859375,-0.41016726636476813,1.500169584661722,-0.6258803205132484
1745437816624471800,2.430471923828125,-0.5399135536858811,1.4986577187940477,-0.6371592548966407
1745437816634444000,2.440444091796875,-0.40999998350646344,1.748888909420371,-0.9043436261504888
1745437816644416800,2.450416748046875,-0.18673136287927627,2.1450763849452135,-1.0721253738880157
1745437816654389000,2.460388916015625,-0.02377959258146584,2.64142694696486,-1.2399924618214369
1745437816664361000,2.47036083984375,0.04064414507746696,3.207897631654143,-1.344980776515603
1745437816674333000,2.4803330078125,-0.013629917956329882,3.6453862548604605,-1.347341660428047
1745437816684306000,2.490305908203125,-0.264131413424015,3.969148545643687,-1.0663573118805885
1745437816694278000,2.50027783203125,-0.5835013144671917,4.166543341356515,-0.5734305868297815
1745437816704249900,2.510249755859375,-0.9433528635025024,4.049316891857981,0.044668578287959095
1745437816714222800,2.520222900390625,-1.23291799339056,3.629473523196578,0.5945797578424215
1745437816724195000,2.530195068359375,-1.3289409113407133,3.092916330733895,1.0149415974199771
1745437816734166800,2.540166748046875,-1.1658721635997296,2.58319190787822,1.375322723287344
1745437816744140000,2.55014013671875,-0.8177414474964141,2.0975335663951933,1.746548483774066
1745437816754112000,2.560112060546875,-0.38022798210978503,1.7397592620253561,2.2181237932384015
1745437816764084000,2.570083984375,0.014485621470212935,1.5712850019790232,2.6974726593136786
1745437816774057000,2.580056884765625,0.4284580522716045,1.5731751996397971,3.2428286597818134
1745437816784029000,2.59002880859375,0.8088689897328615,1.6399673469305038,3.8383980131834745
1745437816794001000,2.6000009765625,1.0248229399651287,1.7904270807281135,4.378317960077524
1745437816803974000,2.609973876953125,1.1733213105618954,2.0802619674682616,4.90733423564136
1745437816813946000,2.619946044921875,1.2680115186035632,2.3731642789550125,5.335564324375987
1745437816823917800,2.629917724609375,1.3759586831033228,2.7104136816903948,5.581069947785139
1745437816833890800,2.639890869140625,1.4586147544801233,3.0923487599790094,5.730698199194669
1745437816843863000,2.649863037109375,1.4988444735378026,3.4994828691929576,5.7321174183428285
1745437816853834800,2.659834716796875,1.4103572117894887,3.9083088770166037,5.656633430552482
1745437816863808000,2.66980810546875,1.3457429930597542,4.181682750560343,5.483489863520861
1745437816873779700,2.67977978515625,1.195343757277727,4.252825202015042,5.275644985464215
1745437816883752000,2.689751953125,1.0157090746611357,4.170954143536091,5.275827356293798
1745437816893725000,2.699724853515625,0.8733113590270281,4.1062820571392775,5.252113887751102
1745437816903697000,2.70969677734375,0.8013327490091323,3.988139369578659,5.137086994123458
1745437816913668900,2.7196689453125,0.813875419718027,3.794899355457723,4.932184014737606
1745437816923641900,2.729641845703125,0.814479815351963,3.617437632966041,4.694465391942859
1745437816933613800,2.73961376953125,0.801676447880268,3.481278227199614,4.580326971587539
1745437816943585800,2.749585693359375,0.7914595897704363,3.41774478944391,4.27888435690105
1745437816953559000,2.75955908203125,0.602536854326725,3.4332135767325758,3.7178602471798654
1745437816963530800,2.76953076171875,0.3679857556521892,3.4563773024380207,2.9836972466021776
1745437816973503000,2.7795029296875,0.22839257604479787,3.562663547988236,2.1711837628871202
1745437816983476000,2.78947607421875,0.16783610827326773,3.555387419505417,1.4591227040022612
1745437816993447700,2.79944775390625,0.09461073133097961,3.5013895795971153,1.0444868408560752
1745437817003420000,2.809419921875,0.02589081258177757,3.546140867732465,0.6944295406043529
1745437817013392000,2.819391845703125,-0.02797171050906181,3.5969542323857544,0.3459083638787269
1745437817023364900,2.82936474609375,-0.20436518271472304,3.6018905197441575,-0.2978910596847534
1745437817033336800,2.8393369140625,-0.44351299806237215,3.369666987234354,-1.5062006815195084
1745437817043309000,2.84930908203125,-0.6402034448981285,2.8730875848948956,-2.8304344380825754
1745437817053281800,2.85928173828125,-0.5345534879574552,2.4995401034623383,-3.8612276846289633
1745437817063253800,2.869253662109375,-0.1615676955282688,2.4037404728740452,-4.083528958061337
1745437817073226000,2.87922607421875,0.5297404616525396,2.5474016325727105,-3.6512259207993742
1745437817083202800,2.889202880859375,1.1441185969531535,2.5766408787995574,-2.6264181784033775
1745437817093174800,2.8991748046875,1.7384768209993837,2.445926586696505,-1.593449925905466
1745437817103146800,2.909146728515625,2.0933786386728284,2.381228489075601,-1.0644646300017833
1745437817113119700,2.91911962890625,1.9352993697822092,2.1928063966304063,-1.2781003664195536
1745437817123091700,2.929091796875,1.2990917165219784,1.7685270913481712,-2.1536726561158894
1745437817133063700,2.939063720703125,0.41450551476478575,1.1082950038999317,-3.413436570855975
1745437817143037000,2.949036865234375,-0.3668739950180053,0.5545923231080174,-4.380042299652099
1745437817153008600,2.959008544921875,-1.032528692036867,0.058219841517508024,-4.895014267772436
1745437817162980900,2.96898095703125,-1.2517571338951587,-0.09471475796103476,-5.285629788383841
1745437817172953900,2.978953857421875,-1.2211527367949484,0.06650602382570504,-5.470633889079093
1745437817182925800,2.98892578125,-1.3268869014203548,-0.0566480621561408,-5.281956068307161
1745437817192897800,2.998897705078125,-1.6132243014335632,-0.3382575568646192,-4.7316649495244025
1745437817202870800,3.008870849609375,-1.8581459874749182,-0.6104968734204769,-3.897760302734375
1745437817212842800,3.0188427734375,-2.0277789160370827,-0.9066749917075038,-3.176078598067164
1745437817222814700,3.028814697265625,-2.229256597149372,-1.2812231746152043,-3.082430008032918
1745437817232788000,3.0387880859375,-2.3696809668838976,-1.8340116631716488,-3.351176806297898
1745437817242759700,3.048759765625,-2.4408465069532395,-2.3557366126835344,-3.6274224358856677
1745437817252732000,3.05873193359375,-2.490377722841501,-2.947319234536588,-3.676668989613652
1745437817262705000,3.068704833984375,-2.3684651613533494,-3.50891588344872,-3.0881489702016114
1745437817272676600,3.078676513671875,-1.9891198072969913,-3.9822599561512466,-2.169041490161419
1745437817282648800,3.08864892578125,-1.5101719232380388,-4.378331988602876,-1.2292138781756161
1745437817292621800,3.098621826171875,-1.0353940183401107,-4.62939232352972,-0.4515162717759609
1745437817302593800,3.10859375,-0.6209001940131187,-4.792098667699098,0.2096428673893213
1745437817312565800,3.118565673828125,-0.3592459843575954,-4.860080901557207,0.7231850949674844
1745437817322538800,3.128538818359375,-0.2017746182322502,-4.730391276326776,0.9574316577374935
1745437817332510700,3.1385107421875,-0.19398644857406616,-4.54475706103444,1.0318594144731759
1745437817342482700,3.148482666015625,-0.27592005089521404,-4.341691233947873,1.2587363252580166
1745437817352456000,3.1584560546875,-0.30483517973423,-4.072880722796917,1.4348551087081431
1745437817362427600,3.168427734375,-0.35495793177485463,-3.757530578789115,1.4771931982219217
1745437817372399900,3.17839990234375,-0.5129951150894164,-3.478395072978735,1.5789859317451715
1745437817382372900,3.188372802734375,-0.6342635334551334,-3.2124557333499193,1.6925684717833995
1745437817392344800,3.1983447265625,-0.603857289275527,-3.07004223562479,1.672061690327525
1745437817402316800,3.20831689453125,-0.4854939447015524,-3.0746558669000863,1.5510405247211456
1745437817412289800,3.218289794921875,-0.4022597811758518,-3.0913837143391367,1.2630962740331888
1745437817422261800,3.22826171875,-0.3430512208819389,-3.0836276933848854,0.876439135658741
1745437817432233700,3.238233642578125,-0.29844986261129375,-3.0785517052948475,0.5315308887332677
1745437817442207000,3.24820703125,-0.35368484309911724,-2.990818476784229,0.025471125864982604
1745437817452178700,3.2581787109375,-0.7069926695793867,-2.9158167195528746,-0.5261281529068946
1745437817462151000,3.26815087890625,-1.2041098320573567,-2.975310526528954,-0.9736036248594522
1745437817472124000,3.2781240234375,-1.466834885814786,-3.041360915541649,-1.4487667296826838
1745437817482095600,3.288095703125,-1.3907085084676742,-3.1017689147531984,-1.8927315631657837
1745437817492067800,3.29806787109375,-1.2504279311180113,-3.1372499779790637,-2.5867192052215335
1745437817502040800,3.308040771484375,-1.2356921342790126,-3.028710108283162,-3.350864087086916
1745437817512012800,3.3180126953125,-1.2101461896121501,-2.968106878760457,-4.21155737208128
1745437817521984800,3.32798486328125,-1.2524480387687682,-2.8558061952263114,-4.881288524758816
1745437817531957800,3.337957763671875,-1.4095581703662872,-2.797095647582412,-5.478247286692262
1745437817541929700,3.3479296875,-1.527251652854681,-2.7597867844074964,-6.119304133549332
1745437817551902700,3.35790283203125,-1.5587199733078478,-2.595991475957632,-6.718589292603731
1745437817561875000,3.367875,-1.6887562200188635,-2.4234400296002625,-6.9406398061454295
1745437817571846700,3.3778466796875,-1.7756021443009375,-2.198081122162938,-6.85563044964075
1745437817581819600,3.387819580078125,-1.6502689607143401,-1.7338935848623513,-6.493461271312833
1745437817591791900,3.3977919921875,-1.58969378824234,-1.1735603800147771,-6.104575935494899
1745437817601763800,3.407763916015625,-1.6224503949403761,-0.8925847992956638,-5.84213203676641
1745437817611736800,3.41773681640625,-1.6817863810062408,-0.8933587062776088,-5.721794761770964
1745437817621708800,3.427708740234375,-1.7564777571141719,-0.774264709341526,-5.752188730990887
1745437817631680800,3.4376806640625,-1.7978724282979963,-0.4369704445511102,-5.787375779706239
1745437817641653800,3.44765380859375,-1.951779379940033,-0.1820335604518652,-5.774395886623859
1745437817651626000,3.4576259765625,-2.266235789978504,-0.2550914901390672,-5.566162301510572
1745437817661597700,3.46759765625,-2.3107634984910486,-0.4308031540930271,-4.95623533693254
1745437817671570700,3.47757080078125,-2.0283926640212533,-0.4062441746369004,-4.192323094779253
1745437817681543000,3.48754296875,-1.7079180166065693,-0.24772417624145746,-3.5677363212078808
1745437817691514600,3.4975146484375,-1.5066589466810225,0.04829524435251951,-3.241693518272042
1745437817701487900,3.50748779296875,-1.2447288426935672,0.4991521754369139,-2.8317250624150034
1745437817711459800,3.5174599609375,-0.9448714513719081,0.9105439420953393,-2.2194752078473567
1745437817721431800,3.527431884765625,-0.7525906376719474,1.3146847147122025,-1.6198767450600862
1745437817731404800,3.53740478515625,-0.5605132375895977,1.7080647316008806,-1.2916507528662682
1745437817741376800,3.547376708984375,-0.7390028418242931,2.255681370477378,-1.6615858890205621
1745437817751348700,3.5573486328125,-1.143828674095869,2.687932385291159,-2.052882962155342
1745437817761321700,3.56732177734375,-1.588960797792673,2.927805555771291,-2.169298095270991
1745437817771294000,3.5772939453125,-1.7955349252611397,3.1076141336500642,-1.8519219983935356
1745437817781265700,3.587265625,-1.551895680245757,3.2344547991901633,-1.170790915301442
1745437817791239000,3.597239013671875,-0.9023837242543696,3.3152412773028015,-0.3644441375225782
1745437817801211000,3.6072109375,-0.16295706752743572,3.3989871897429227,0.47675884958207604
1745437817811182800,3.617182861328125,0.40768060064818706,3.486832061934471,1.3911737878918646
1745437817821155800,3.62715576171875,0.9228693898569792,3.6397365585356947,2.321380169573426
1745437817831127800,3.6371279296875,1.332145844861865,3.7391795140624042,2.9715818613946436
1745437817841099800,3.647099853515625,1.4631447991251945,3.787868726168573,3.4725393326878544
1745437817851072800,3.65707275390625,1.4921142884999512,3.925283100432157,3.910255627170205
1745437817861045000,3.667044921875,1.4202742101699113,4.112067654803395,4.35542282218039
1745437817871016700,3.6770166015625,1.1763509605813771,4.310964671772719,4.669644838941097
1745437817880989700,3.68698974609375,0.9879304025061428,4.457665053036808,4.876333532699943
1745437817890962000,3.6969619140625,1.007342301397398,4.592867596469819,5.093248436918854
1745437817900934700,3.7069345703125,1.045505004922673,4.739052721688151,5.36899839194417
1745437817910907000,3.716906982421875,1.1246084253191948,4.866624331851304,5.64373069435954
1745437817920878600,3.726878662109375,1.2046226038850842,4.932252988320589,5.756314871010184
1745437817930851600,3.7368515625,1.355387604239583,4.979065008378028,5.922628884282708
1745437817940823800,3.74682373046875,1.4742419472008943,4.987879013952613,5.953693300110102
1745437817950795800,3.756795654296875,1.4020599235653877,4.9017806931674475,5.907424300888181
1745437817960768800,3.766768798828125,1.287014325237274,4.769013560187816,5.878932365897297
1745437817970740700,3.77674072265625,1.1641823108166456,4.721893789355456,5.767744612041115
1745437817980712700,3.786712646484375,1.025184174492955,4.713324406191706,5.611497234752774
1745437817990685700,3.796685791015625,1.0405103384405374,4.800355623912811,5.381543985262513
1745437818000658000,3.806657958984375,1.0316600925087929,4.870633275231719,5.113430808725953
1745437818010629600,3.816629638671875,1.041538512444496,5.0750160301357505,4.702310260224342
1745437818020602600,3.8266025390625,1.119869121837616,5.259249146458506,4.358116299048066
1745437818030574800,3.836574951171875,1.3380566763408481,5.381090980798006,4.009927715277672
1745437818040546600,3.846546630859375,1.3864128571003675,5.350006691226363,3.6099715348690746
1745437818050519800,3.856519775390625,1.2557944265872238,5.412001667368411,3.3113287800341844
1745437818060491800,3.86649169921875,1.0576737277526407,5.617182294651865,2.976407674115896
1745437818070463700,3.876463623046875,0.6769247905086726,5.6961763363897795,2.7361621631920334
1745437818080436700,3.886436767578125,0.16180851854681969,5.574294170039892,2.2354840933620928
1745437818090405000,3.896405029296875,-0.09866437236964702,5.243093545949459,1.3161930734485388
1745437818100377000,3.906377197265625,0.15080489397346972,5.030142869186401,0.1963712978839874
1745437818110350000,3.91635009765625,0.6759399441897869,4.813103461804986,-0.7516723537832498
1745437818120322300,3.926322265625,1.1530372319459914,4.478939311733842,-0.9632669397622347
1745437818130295000,3.936294921875,1.5621932023763656,4.190461684821546,-0.7975725196927785
1745437818140267000,3.94626708984375,1.8692869746923446,4.150432164511084,-0.581180762565136
1745437818150239200,3.9562392578125,1.9493968687176704,4.465764188340306,-0.621416326841712
1745437818160212000,3.9662119140625,1.7210346878111362,4.612997361306846,-0.7559434552311897
1745437818170184200,3.97618408203125,1.2545230914771557,4.464076089122891,-0.9536433713704348
1745437818180156200,3.98615625,0.6262533185441047,4.020500839479268,-1.2766519211769103
1745437818190129200,3.996129150390625,0.11070610781908034,3.3968332265794277,-1.9181074119627475
1745437818200101000,4.00610107421875,-0.0024117373168468475,2.900093665242195,-2.602071088132262
1745437818210073300,4.0160732421875,0.2830265949647873,2.596216809146106,-3.104274760094285
1745437818220046000,4.026046142578125,0.7162007159728556,2.4720199361130595,-3.2193256191194055
1745437818230018000,4.03601806640625,1.0058639724731444,2.5020073703587054,-3.0371704781144855
1745437818239990300,4.045990234375,1.0683248125612734,2.572547764267027,-2.8006074550956486
1745437818249963000,4.055962890625,0.867581144811958,2.7561072191119194,-2.6921932576060295
1745437818259935200,4.065935302734375,0.4615161261342466,2.8500708664447068,-2.7008681469708677
1745437818269907200,4.0759072265625,-0.21888488911762832,2.65864053209424,-2.8455899216383695
1745437818279880000,4.0858798828125,-0.9651251348495483,2.0953724428385496,-3.0842092926651237
1745437818289852200,4.09585205078125,-1.435514595530182,1.2093281512275338,-3.541657292577624
1745437818299824000,4.10582421875,-1.4842610907815397,0.20202654716670512,-4.135225243028998
1745437818309797000,4.115797119140625,-1.271405398825556,-0.9275976604878902,-4.47508029821813
1745437818319769000,4.12576904296875,-1.0357026458978653,-1.9809277330130337,-4.586837960916757
1745437818329742000,4.1357421875,-0.8650316064596175,-2.898174095356464,-4.20517848469913
1745437818339714000,4.145714111328125,-0.6698902887620032,-3.532939148592949,-3.5685423768937587
1745437818349686300,4.155686279296875,-0.681653207270056,-3.9003906512379642,-3.0639731448441743
1745437818359659300,4.1656591796875,-0.9031564621925353,-4.076593021318316,-2.7060814977049827
1745437818369631000,4.175630859375,-1.1535225312449038,-4.202372779628634,-2.4459230795651674
1745437818379603200,4.185603271484375,-1.276230042503029,-4.158061928737164,-2.3125953900933265
1745437818389576200,4.195576171875,-1.3335504509627818,-4.008214481619,-2.0748370198100803
1745437818399548200,4.205548095703125,-1.4679321795322,-3.7413907603710888,-1.8094447926700115
1745437818409520000,4.21552001953125,-1.5443582704782486,-3.4029134232759475,-1.6065502304971218
1745437818419493000,4.2254931640625,-1.4671440978944301,-3.163663353130221,-1.411706872832775
1745437818429465000,4.235465087890625,-1.3529146382547914,-3.1393770531356333,-1.3454367035895585
1745437818439437000,4.24543701171875,-1.2049090196110308,-3.039539545333385,-1.2492080339342355
1745437818449410300,4.255410400390625,-1.0464287687040865,-2.8622721763700247,-1.2390846993267535
1745437818459382000,4.265382080078125,-1.2439864998936652,-2.80985517591238,-1.3205688043147326
1745437818469355000,4.27535498046875,-1.559087053054571,-2.778274627256393,-1.5259481690406798
1745437818479327200,4.2853271484375,-1.6334814920425413,-2.6555583481699228,-1.8410434615045785
1745437818489299000,4.295298828125,-1.7486499860979616,-2.7347148869931694,-2.361243393406272
1745437818499272200,4.305272216796875,-1.8679998574912546,-2.9560873551428317,-2.7004940529614685
1745437818509244200,4.315244140625,-1.8784381032668054,-3.187469176131487,-3.167780140799284
1745437818519216000,4.325216064453125,-1.622562623143196,-3.4229917501866813,-3.689409228721261
1745437818529189000,4.335189208984375,-1.2777496532857417,-3.6134529472440478,-4.005978685390949
1745437818539161000,4.3451611328125,-0.9241771114546805,-3.7055472935736176,-4.26702090062797
1745437818549133000,4.355133056640625,-0.5870609797101467,-3.7616292462795973,-4.506642142173647
1745437818559106000,4.36510595703125,-0.2995780629236251,-3.767713534629345,-4.811087445807456
1745437818569078300,4.375078369140625,-0.10223989276885986,-3.721136492371559,-5.310029485625028
1745437818579050000,4.385050048828125,-0.1102642823357135,-3.6718396697610616,-5.776361633738875
1745437818589023200,4.395023193359375,-0.3238017460107803,-3.593892506727576,-6.104893330881
1745437818598995200,4.4049951171875,-0.43348976282849905,-3.411605263775587,-6.374074428910017
1745437818608967200,4.41496728515625,-0.4307341805100441,-3.1932693868428466,-6.562534223017096
1745437818618940200,4.424940185546875,-0.30914317912645634,-2.991988105085492,-6.608187720689177
1745437818628912000,4.434912109375,-0.20878077066726983,-2.688846285265684,-6.658915452885627
1745437818638885400,4.444885498046875,-0.22219547497034073,-2.3862989242076873,-6.529941282448172
1745437818648857000,4.454857177734375,-0.19351283971294758,-2.155271908006072,-6.278650645896792
1745437818658829300,4.464829345703125,-0.03815744282826781,-1.803910539418459,-6.187392165869474
1745437818668802300,4.47480224609375,0.22906141521707177,-1.3635475298196076,-6.023885026711225
1745437818678774000,4.48477392578125,0.2017361859180033,-1.4460498719394206,-5.656374487355351
1745437818688746200,4.494746337890625,-0.16214973319992423,-1.971248050519824,-5.307946834132075
1745437818698719000,4.504718994140625,-0.6113524673365056,-2.594257199510932,-5.107092837876081
1745437818708691200,4.514691162109375,-0.812300571616739,-3.0993478250861166,-4.864873396530747
1745437818718663200,4.5246630859375,-0.6223311035990715,-3.1891350635170936,-4.5737768192917105
1745437818728636000,4.534635986328125,-0.5381893237091601,-2.874823030385375,-4.468396290409565
1745437818738608000,4.544608154296875,-0.5631599527060985,-2.3312474835932253,-4.300295393720269
1745437818748581000,4.5545810546875,-0.7501391528666019,-1.5572031390041112,-4.146567305776476
1745437818758553000,4.564552978515625,-1.0986463741321115,-0.7870271602809429,-4.027473308840394
1745437818768525000,4.574525146484375,-1.4136112451493739,-0.09770049577355384,-3.9306431661605834
1745437818778498000,4.584498046875,-1.6779893268108368,0.4084592203378677,-3.7170208737462755
1745437818788470000,4.594469970703125,-1.9485516500651836,0.8536690854460001,-3.346363853058219
1745437818798442200,4.604442138671875,-1.3797440468609332,1.226996786648035,-3.0267806015253065
1745437818808415200,4.614415283203125,-1.393875448065996,1.179852758157253,-2.2531278866022824
1745437818818387000,4.624386962890625,-1.3387456815183163,1.497016089066863,-1.6196838528364896
1745437818828359200,4.634359130859375,-1.0241771163422613,1.6075632069319485,-0.954338367897272
1745437818838332200,4.644332275390625,-0.5248773491282016,1.6189301118597388,-0.31019816807210443
1745437818848304000,4.65430419921875,-0.2525030080158263,1.691426316010952,0.1510205825507641
1745437818858277000,4.664277099609375,-0.22028774165287612,1.776217061328888,0.5403694442272186
1745437818868249000,4.6742490234375,-0.21715576377008108,1.8933467724546789,0.8725333603918551
1745437818878221000,4.684220947265625,-0.18870942148659378,1.9873034055247902,1.2126841836571693
1745437818888194000,4.694194091796875,-0.1702384932398796,2.0484555011019108,1.5700369016140698
1745437818898166300,4.704166259765625,-0.07898881757352501,2.327408051560819,1.7041308992832898
1745437818908138000,4.714137939453125,-0.38432087744660676,2.450028469057381,1.895747111594677
1745437818918111000,4.724111083984375,-0.39178047273755073,2.4753408972293136,2.141422246351838
1745437818928083200,4.734083251953125,-0.4325590578496456,2.8917390938729044,2.2274504245102404
1745437818938055000,4.744054931640625,-0.6336579687774181,3.1227073656246063,2.466091422846913
1745437818948028200,4.754028076171875,-0.6254454362273216,3.2779075719475745,2.7761890531539914
1745437818958000000,4.764000244140625,-0.5511842682301998,3.412909332111478,3.077641604712605
1745437818967973000,4.77397314453125,-0.5116272973349317,3.577317804023623,3.3176913008034226
1745437818977945000,4.783945068359375,-0.48474867929220194,3.6698359287232156,3.5077672979354855
1745437818987917300,4.793917236328125,-0.597411766397953,3.6744945681840178,3.68668769480288
1745437818997890300,4.803890380859375,-0.6816109755635261,3.6605353086754677,3.809556534102559
1745437819007862000,4.813862060546875,-0.7550491367399692,3.6694250098347663,3.838314426553249
1745437819017834200,4.823834228515625,-0.6966963164925575,3.6505654110640284,3.7634745818853377
1745437819027807200,4.83380712890625,-0.5004758252561092,3.6623429426193237,3.7752836776226757
1745437819037779200,4.843779296875,-0.3267909909546375,3.8902725773274898,3.845014216452837
1745437819047751200,4.853751220703125,-0.15813304490447044,4.2176112652927635,3.8522880068480965
1745437819057724200,4.86372412109375,-0.2138444107323885,4.755354744930565,3.7014749295681715
1745437819067696000,4.873696044921875,-0.1798375117123127,5.140412339153886,3.622724048936367
1745437819077669000,4.883669189453125,-0.08343407001197338,5.50723255815804,3.5347184332251547
1745437819087640800,4.893640869140625,-0.059841597500443454,5.751787748974562,3.340962286275625
1745437819097612800,4.90361279296875,-0.0760281594033353,5.821061776208877,3.13294906591475
1745437819107585800,4.913585693359375,0.0692857176721096,5.819701593771576,3.0425387271493674
1745437819117557800,4.923557861328125,0.214281614839565,5.84444382084012,2.8960025965362783
1745437819127530000,4.933530029296875,0.23556465963125228,5.969341535618901,2.6544991945058105
1745437819137502700,4.943502685546875,0.29300971738398074,6.1599640607178205,2.375064413487911
1745437819147474700,4.953474609375,0.39976504175066946,6.327417307153344,2.041251561072469
1745437819157448000,4.963447998046875,0.597385462912917,6.363632529872656,1.7807161263138054
1745437819167419600,4.973419677734375,0.8238444405466318,6.3655941853344435,1.5273808321923017
1745437819177391900,4.983391845703125,1.047363273075223,6.347519599461555,1.3179203356325626
1745437819187364900,4.99336474609375,1.207580138516426,6.224698106434941,1.165949320489168
1745437819197336600,5.003336669921875,1.2782663706362247,5.9124190404355526,1.1275474013805389
1745437819207308800,5.013308837890625,1.2220903099060059,5.4704374897241586,1.0794874270886181
1745437819217281800,5.02328173828125,1.1453308953523635,4.976064072996378,0.9995055433571338
1745437819227253800,5.033253662109375,1.089226730814576,4.454822230826318,0.7894330523788928
1745437819237225700,5.043225830078125,1.1207838985949754,4.038794621060789,0.510946365866065
1745437819247198700,5.05319873046875,1.2629752780020236,3.691386374013126,0.23694880746603011
1745437819257170700,5.063170654296875,1.312309510013461,3.495989474119246,-0.032681203374266624
1745437819267143700,5.073143798828125,1.1900263616472482,3.3021436030596494,-0.11937690553069114
1745437819277116000,5.083115966796875,1.167370877724886,3.1021786645978686,-0.00008534019589424133
1745437819287087600,5.093087646484375,1.102056401771307,2.997032528993487,0.30341420702040195
1745437819297060600,5.103060546875,0.980054992955923,2.987998743188381,0.5222551108658313
1745437819307032800,5.11303271484375,0.7918132255136966,2.8328943984553216,0.6162181736767292
1745437819317004800,5.1230048828125,0.5490507633328437,2.6003976019620896,0.5759136358171701
1745437819326977800,5.132977783203125,0.21206107097957283,2.20201320091486,0.46699850306808943
1745437819336949800,5.14294970703125,-0.03813070095181465,1.715285038243234,0.38628888958394525
1745437819346922800,5.1529228515625,-0.19805125032756477,1.18354196806401,0.074893036159873
1745437819356894700,5.162894775390625,-0.26122524365372957,0.5018664028316736,-0.24484277558624742
1745437819366867000,5.172866943359375,-0.1840332463691011,-0.20540245334058999,-0.5639835440486669
1745437819376840000,5.18283984375,0.017236344950459895,-0.8446735858246683,-0.7227385202437638
1745437819386811600,5.192811767578125,0.18408939700312912,-1.2864432473510503,-0.666055094513297
1745437819396783900,5.202783935546875,0.27601591248512264,-1.5382020859360694,-0.5572498518794775
1745437819406756900,5.2127568359375,0.16732512654382733,-1.706376047861576,-0.39907238331139083
1745437819416728800,5.222728759765625,-0.10570150446482002,-1.829986645439267,-0.2271586503356695
1745437819426701800,5.232701904296875,-0.3499930028438568,-1.921663058617711,-0.1247422319561243
1745437819436673800,5.242673828125,-0.5974631312590092,-1.9322288762956856,-0.06661854428946971
1745437819446645800,5.252645751953125,-0.8345932135760784,-1.915008861425519,-0.12839081759154797
1745437819456618800,5.26261865234375,-1.0184721826989203,-1.8697838182985782,-0.3102776630491018
1745437819466591000,5.272591064453125,-1.1699708310902117,-1.8849872326493262,-0.4360749570161104
1745437819476562700,5.282562744140625,-1.271174951070547,-1.8974118299365041,-0.47367958826720713
1745437819486535700,5.29253564453125,-1.2691115887999533,-1.7260849569380283,-0.26214520804286
1745437819496508000,5.3025078125,-1.1143781232059,-1.4602180980235338,-0.0655564680159092
1745437819506480600,5.312480712890625,-1.0013433532435447,-1.2087357382923365,-0.0019219079732894896
1745437819516452900,5.322452880859375,-1.1162474242091178,-0.9840934546917677,-0.48576399381458757
1745437819526424800,5.3324248046875,-1.4420622636079787,-0.9354624025136232,-1.524368206372857
1745437819536397600,5.3423974609375,-2.068164702439308,-1.244676820245385,-3.1877737120360132
1745437819546369800,5.352369873046875,-2.3880513208329677,-1.753763821980357,-4.424860515543818
1745437819556341800,5.362341796875,-2.2923954826295376,-1.9362176536709068,-5.251138905239105
1745437819566314800,5.372314697265625,-1.9248457803070544,-2.09839325196445,-5.608634831058978
1745437819576286700,5.38228662109375,-1.3662357459902763,-2.6286948911637067,-5.4897132680803535
1745437819586260000,5.392260009765625,-0.7362684484243393,-3.2948107759535312,-5.10681518997848
1745437819596231700,5.402231689453125,-0.25908940066881475,-3.6384547020316123,-4.916282681250572
1745437819606204000,5.412203857421875,-0.09430793072581291,-3.701917412638664,-5.084943549910188
1745437819616177000,5.422177001953125,-0.19413031402416525,-3.7605320986926554,-5.399404636123776
1745437819626148600,5.432148681640625,-0.4018156176049262,-3.7508828113377093,-5.7565492642879486
1745437819636120800,5.442120849609375,-0.7757410655044019,-3.5127883409678935,-6.32300533592999
1745437819646093800,5.45209375,-1.298787619008869,-3.20588979896307,-6.992664592415094
1745437819656065800,5.462065673828125,-1.7510346892774105,-2.9765929675549265,-7.862258976745605
1745437819666037800,5.472037841796875,-1.8865761092759668,-2.4900001217007635,-8.647264860332012
1745437819676010800,5.4820107421875,-1.8858979177534578,-1.9411627088576555,-8.95803410629034
1745437819685982700,5.491982666015625,-1.8701893303595483,-1.7961960195183753,-8.64367063523233
1745437819695955700,5.501955810546875,-1.7412416095376013,-1.956747231480479,-7.854954791212082
1745437819705928000,5.511927978515625,-1.558889484655857,-2.253609532639384,-6.889468421834707
1745437819715899600,5.521899658203125,-1.4602490776836872,-2.7324288218826056,-5.9561804407507175
1745437819725872600,5.53187255859375,-1.1827204956132917,-3.1852433167755603,-5.24268087349534
1745437819735844900,5.541844970703125,-0.9470306752324104,-3.537983572500944,-4.656518230864405
1745437819745816800,5.55181689453125,-0.9753449155688285,-3.8589351897776125,-4.227817602008581
1745437819755789800,5.561789794921875,-1.0252432112038135,-3.955091963240504,-4.138627160426974
1745437819765761800,5.57176171875,-0.8976200169838965,-3.6053467976778744,-4.168070697054267
1745437819775734800,5.58173486328125,-0.7516577407360077,-3.109399848023057,-4.041469685488939
1745437819785706800,5.591706787109375,-0.678638024167344,-2.704067819795012,-3.7003660915434358
1745437819795679000,5.601678955078125,-0.633016090677306,-2.2475421954244372,-3.2927748862117525
1745437819805651700,5.611651611328125,-0.5244376425366848,-1.6934417474865913,-2.8836954881489274
1745437819815623700,5.621623779296875,-0.4367372203171253,-1.2059048987805843,-2.4289140770971773
1745437819825597000,5.631596923828125,-0.37063239770345385,-0.7061205629199743,-1.972581344950199
1745437819835568600,5.641568603515625,-0.30474625934176147,-0.2820090154200792,-1.59569916613698
1745437819845540900,5.651540771484375,-0.19727387274689973,0.055145548638701435,-1.401691674774885
1745437819855513900,5.661513916015625,-0.09015906741805374,0.3916010245174169,-1.245064942780137
1745437819865485600,5.671485595703125,-0.016469561829045413,0.6112263567388058,-0.9427321012556552
1745437819875457800,5.681457763671875,-0.005455890785716473,0.7425321849942207,-0.5440156917750835
1745437819885430800,5.6914306640625,0.04156538810823113,0.8299626311659812,-0.03907528832554817
1745437819895402800,5.70140283203125,0.14284315784666687,0.9607619712039828,0.5101233590453863
1745437819905375700,5.711375732421875,0.20676058995127677,1.0891551268830895,1.0188076251983642
1745437819915347700,5.72134765625,0.2603869479323737,1.1772042894750834,1.494688522902131
1745437819925319700,5.731319580078125,0.29842180556058884,1.2931822002172468,1.8420137678414583
1745437819935292700,5.741292724609375,0.40416999871134757,1.3990560655742883,2.062140619844198
1745437819945265000,5.751264892578125,0.5066787715494633,1.41871002959311,2.2010697825849057
1745437819955236600,5.761236572265625,0.5870458552062511,1.4491665426552294,2.3905419686049223
1745437819965209600,5.771209716796875,0.5957032089143991,1.4927324203982948,2.5721909136533734
1745437819975181800,5.781181884765625,0.6420464424163103,1.5171911543503402,2.7660324007987973
1745437819985154800,5.79115478515625,0.7146902383446693,1.665993184068799,2.973682633066177
1745437819995126800,5.801126708984375,0.7264315295428038,1.896155400134623,3.1021950312107798
1745437820005098800,5.8110986328125,0.6360299586057663,2.1644503629788754,3.145397628599405
1745437820015071700,5.82107177734375,0.533925090393424,2.373935263327509,3.157897629210353
1745437820025043700,5.831043701171875,0.5124070860683918,2.5522248149454594,3.093986590313911
1745437820035016700,5.8410166015625,0.5685054053872823,2.514579851683974,2.987368044069409
1745437820044989000,5.850989013671875,0.647056379532814,2.380161298235506,2.61067291226089
1745437820054960600,5.860960693359375,0.8740227221667766,2.201282402422279,2.45220376726985
1745437820064934000,5.870933837890625,0.9927812035381793,2.065393484160304,2.4339941568404435
1745437820074905900,5.88090576171875,1.060865728726983,2.1618233754761516,2.532484926208854
1745437820084877300,5.890877197265625,1.1116185222994535,2.4287384282693267,2.7303157752513885
1745437820094850300,5.900850341796875,1.1557546742111444,2.70912627222836,2.8398329655468464
1745437820104822300,5.910822265625,1.1351170329172164,3.0522578648701306,2.920913165909052
1745437820114795300,5.920795166015625,1.070455321783945,3.5004344708293673,2.9408687432229517
1745437820124767000,5.93076708984375,0.9480097493976354,4.022437068238855,2.9146412460327147
1745437820134739200,5.9407392578125,0.7826537675023079,4.476719882118702,2.796796956896782
1745437820144712200,5.950712158203125,0.61725401953049,4.818820962668955,2.3010773862570524
1745437820154684200,5.96068408203125,0.5820756655782461,4.992551097416878,1.6031342845737933
1745437820164656000,5.97065625,0.5376345393706112,4.949600428962707,1.1658107888013123
1745437820174629000,5.980629150390625,0.5055582430869341,4.9047553250640625,0.9278922595202922
1745437820184601000,5.99060107421875,0.49248716458976266,4.984607444936037,0.8122025180697441
1745437820194574000,6.000573974609375,0.5445592971324921,5.0483098095178605,0.79024027710855
1745437820204546300,6.01054638671875,0.6319600057531147,5.087359963402152,0.81782386508286
1745437820214518000,6.02051806640625,0.7705724306948483,5.1469607378840445,0.8283166175246238
1745437820224491000,6.030490966796875,0.9287275413006544,5.153768079811334,0.7885697135478258
1745437820234463200,6.040463134765625,1.023189274348691,5.182498499733209,0.6939391267389059
1745437820244436200,6.050436279296875,1.090959180630371,5.314350855955481,0.4326724550962448
1745437820254408200,6.060408203125,0.9854944805961101,5.188994876015186,0.2646551450371742
1745437820264380200,6.070380126953125,0.7207622517347335,4.7834424830347295,0.30168343770503997
1745437820274353200,6.080353271484375,0.4458125802416354,4.114514463433623,0.4327110335409641
1745437820284325000,6.0903251953125,0.24013339231889694,3.389295232290029,0.5329547840565443
1745437820294297300,6.10029736328125,0.21639051501862702,2.911330806310475,0.5915583641946316
1745437820304270300,6.110270263671875,0.37449374930672347,2.6963188131034372,0.6497276445686817
1745437820314242000,6.120241943359375,0.5746083984375,2.6883707767084237,0.6943763491123914
1745437820324215300,6.13021533203125,0.8355641044348477,2.8044442567795516,0.8471230248034
1745437820334187300,6.140187255859375,1.080116372641921,2.965536736011505,1.1100625980943442
1745437820344159200,6.1501591796875,1.229570436528325,3.123150433216989,1.4005091869920492
1745437820354132200,6.16013232421875,1.2490998973846434,3.236865367463231,1.6201894642710686
1745437820364104200,6.170104248046875,1.1363877104401587,3.2939635114744306,1.780437309372425
1745437820374077200,6.1800771484375,0.9579343465626239,3.238107476478815,1.8559551994323729
1745437820384049200,6.190049072265625,0.769950937795639,2.9847368187829852,1.7701193289756774
1745437820394021400,6.200021484375,0.5735492447733879,2.4831629691570996,1.5697352883189917
1745437820403994000,6.209994140625,0.4982324302434921,1.8345345180019734,1.3941373138725757
1745437820413966000,6.219966064453125,0.44811201629042624,1.1777785822317004,1.209243687814474
1745437820423939300,6.229939208984375,0.3848702184250578,0.525439293859899,0.9972527959942817
1745437820433911000,6.2399111328125,0.3378899291286245,-0.08954407732486724,0.8357681025743484
1745437820443883300,6.24988330078125,0.37187512777354564,-0.6281243000477552,0.6786170544445514
1745437820453856300,6.259856201171875,0.47413014504630113,-1.1425389265462755,0.45213761854469775
1745437820463828000,6.269827880859375,0.5232265131812542,-1.5114982034057378,0.27822482070624827
1745437820473800200,6.27980029296875,0.5180757062893361,-1.7924264378517865,0.12055237905085087
1745437820483773200,6.289773193359375,0.5157329425554722,-1.998064745774865,0.02385258475244045
1745437820493745200,6.2997451171875,0.4853741177141666,-2.1582114685893057,-0.15380699839890002
1745437820503718100,6.30971826171875,0.3645219519991427,-2.2340601980388164,-0.2627162859290838
1745437820513690000,6.319690185546875,0.28221776279993355,-2.190738942706585,-0.40622693124115467
1745437820523662000,6.329662109375,0.15318214449882506,-2.0769272700876,-0.6727852795511484
1745437820533635000,6.339635009765625,0.02672784792780876,-2.0217881511896847,-1.0121768088817595
1745437820543607300,6.349607177734375,-0.15162855838127434,-1.9686007508814334,-1.270654726588726
1745437820553580300,6.359580322265625,-0.2993372399050742,-1.840561230945587,-1.4681161577969788
1745437820563552300,6.36955224609375,-0.5244621924560516,-1.6507926923274994,-1.5447253502249716
1745437820573524200,6.379524169921875,-0.7302689157485962,-1.3488567411661148,-1.4267010283470154
1745437820583497200,6.389497314453125,-0.8253131979249417,-1.0218564913749695,-1.3751274929761885
1745437820593469200,6.39946923828125,-0.9382125780045986,-0.7981541189730167,-1.3455284735262394
1745437820603441200,6.409441162109375,-1.1225567534863947,-0.7254103698015213,-1.4564824186265468
1745437820613414400,6.419414306640625,-1.3091117368854581,-0.8547223938912153,-1.6402233675181865
1745437820623386000,6.42938623046875,-1.4240192419171331,-1.052995141482353,-1.981296566325426
1745437820633359000,6.439359130859375,-1.268648793593794,-1.1462579470694065,-2.407922726994753
1745437820643331300,6.449331298828125,-1.0523075976096092,-1.24453711951375,-2.7472207328230143
1745437820653303000,6.459302978515625,-0.9133260470945388,-1.3438906431913376,-2.98643397808969
1745437820663276300,6.4692763671875,-0.8731365869820118,-1.3539713077008724,-3.2586212721973657
1745437820673248300,6.479248291015625,-0.8987235943116247,-1.2706903824239968,-3.50158597895205
1745437820683221000,6.489220947265625,-0.9708826754629611,-1.1569541131287813,-3.922892990425229
1745437820693193200,6.499193115234375,-1.1196529948689042,-1.087854273417592,-4.394137460500001
1745437820703165200,6.509165283203125,-1.3705169304408131,-1.1113672509521246,-4.77309118489027
1745437820713138200,6.51913818359375,-1.5282638986371457,-1.038364558583498,-5.3171425325006245
1745437820723110100,6.529110107421875,-1.561595821005106,-0.7045733334779739,-6.027890170699358
1745437820733083100,6.539083251953125,-1.6081225943803785,-0.34342063871622086,-6.599892770552635
1745437820743055000,6.54905517578125,-1.7747101638972758,-0.2743523631870746,-6.924381329783797
1745437820753027300,6.55902734375,-1.912350017479807,-0.5036170458912849,-7.043364852082729
1745437820763000300,6.569000244140625,-1.973655403922498,-0.8664981718808412,-7.054929617670178
1745437820772972000,6.578971923828125,-2.076814165101945,-1.2728361622810362,-6.957409154638648
1745437820782945300,6.5889453125,-2.1129437553644177,-1.820721388965845,-6.8719730971544974
1745437820792917200,6.598917236328125,-2.1551848142445085,-2.5467320627480743,-6.76195204899013
1745437820802889200,6.60888916015625,-2.2192948828443884,-3.302967778924107,-6.674385993739962
1745437820812862200,6.6188623046875,-2.355371578763425,-3.8947505995243787,-6.536824612221121
1745437820822834200,6.628834228515625,-2.5143945582449434,-4.218375819924473,-6.229158592975139
1745437820832806100,6.63880615234375,-2.5664172986879943,-4.232565673318505,-5.813444871464371
1745437820842779100,6.648779052734375,-2.537533441770077,-4.019115814861655,-5.293475825709105
1745437820852751400,6.65875146484375,-2.598855633217096,-3.8061049323439597,-4.682098662322759
1745437820862724000,6.66872412109375,-2.6685075538530945,-3.485492337763309,-4.167711800613999
1745437820872696000,6.678696044921875,-2.6786133528038856,-3.00195069617331,-3.6078158181399105
1745437820882668300,6.688668212890625,-2.599731247007847,-2.4757921481281517,-3.1390280935674904
1745437820892641000,6.69864111328125,-2.488413729292154,-1.9432962137550114,-2.8781472063720224
1745437820902613200,6.70861328125,-2.3443736532785,-1.4499375270277262,-2.7553812429249285
1745437820912586200,6.718586181640625,-2.2226010847829283,-0.9329314227312803,-2.7378876718103884
1745437820922558000,6.728557861328125,-2.116553324163705,-0.46255379861891266,-2.56302210329175
1745437820932530200,6.7385302734375,-2.0709340210221705,-0.12893617651462555,-2.156769453087449
1745437820942503200,6.748503173828125,-2.0342576105318964,0.10326865129470825,-1.639346000161767
1745437820952475100,6.75847509765625,-1.8498304329417645,0.3132727532118559,-1.1170979035586117
1745437820962448100,6.7684482421875,-1.625926108226925,0.5637058961510658,-0.5987795476198196
1745437820972420000,6.778420166015625,-1.262224751895666,0.8155114964872598,-0.18249767083227633
1745437820982392000,6.78839208984375,-0.9707669401288032,0.9652946461975573,0.06310498321056365
1745437820992365000,6.798364990234375,-0.6950503028512001,1.1044225463807582,0.15410452004075048
1745437821002337300,6.808337158203125,-0.3753858758408576,1.1876812598258257,0.42646424810588357
1745437821012310300,6.818310302734375,-0.15436645891256628,1.3339461722820996,0.6744862382501363
1745437821022282200,6.8282822265625,-0.036521000732854005,1.4078914061978458,0.9406786758571862
1745437821032254200,6.838254150390625,0.11045005069877951,1.4038061827108264,1.2783616477042437
1745437821042227200,6.848227294921875,0.27139464589264245,1.3694807192608713,1.532010830080509
1745437821052199200,6.85819921875,0.44094928505420683,1.3836927844867108,1.661013642090559
1745437821062172200,6.868172119140625,0.5717980171918868,1.362823307198286,1.740930643892288
1745437821072144400,6.878144287109375,0.7838555445075035,1.5030954089805484,1.7756705333620308
1745437821082116000,6.8881162109375,1.0376713156223296,1.6702672081261871,1.8215934956252573
1745437821092090400,6.89809033203125,1.2914110988914966,1.8419295966893434,1.8636697193324565
1745437821102062300,6.908062255859375,1.546103068318963,1.972967129397392,1.8648446083307264
1745437821112035300,6.918035400390625,1.7458634241193531,2.105573226596415,1.9705717586934566
1745437821122007300,6.92800732421875,1.8642402126967905,2.1627929511606694,2.1381986081302164
1745437821131979300,6.937979248046875,1.9703987402141092,2.1977970445245503,2.260595738264918
1745437821141952300,6.9479521484375,2.0507593941301105,2.364645018543303,2.292564409455657
1745437821151924500,6.957924560546875,2.151570130878687,2.4682816263675686,2.3560353033691643
1745437821161897200,6.967897216796875,2.1866683322668075,2.609853704832494,2.495691026818752
1745437821171869200,6.977869140625,2.2350918791741132,2.8744211715862154,2.6201065110385415
1745437821181841400,6.98784130859375,2.2505407927185295,3.308863266703486,2.754523164790869
1745437821191814100,6.997814208984375,2.2771207566082476,3.833137316176295,2.815816130143404
1745437821201786400,7.007786376953125,2.267241167628765,4.326419430536031,2.7713158941596743
1745437821211759400,7.01775927734375,2.21337046123147,4.7558092106997965,2.7827280995339154
1745437821221731000,7.02773095703125,2.0692583428949116,5.029926011565327,2.6898019785553213
1745437821231703300,7.037703369140625,1.8880775998800992,5.17335833094418,2.510441436704993
1745437821241676300,7.04767626953125,1.6866893506169318,5.069068519908189,2.3040105170994996
1745437821251648300,7.057648193359375,1.4780717346221208,4.795419336554408,1.9902718999415634
1745437821261621200,7.067621337890625,1.3252052319437264,4.578984324806928,1.6363392195612192
1745437821271593200,7.07759326171875,1.2695944038808344,4.491720467373728,1.3173212006956339
1745437821281565200,7.087565185546875,1.2081320002455265,4.362437669378519,1.3336866445630788
1745437821291538200,7.0975380859375,1.1950579260736702,4.069577005076408,1.6363696146994828
1745437821301510400,7.107510498046875,1.238715719883889,3.901105521509051,1.8743039260715244
1745437821311483400,7.1174833984375,1.2971044882275162,4.021848162434995,1.9596955598920582
1745437821321455400,7.127455322265625,1.3763522124655545,4.134794742657244,2.2028268553853034
1745437821331427300,7.13742724609375,1.3266525081425904,4.031731843067705,2.5650585775554178
1745437821341400300,7.147400390625,1.182860269410163,3.838962076807022,2.712093889862299
1745437821351372300,7.157372314453125,1.0251317136533558,3.4788986385866996,2.685222249549627
1745437821361345300,7.16734521484375,0.9501584518641233,3.0936557509243485,2.531042326185107
1745437821371317200,7.177317138671875,0.9798264448970556,2.793954134686291,2.1093185506045815
1745437821381289200,7.187289306640625,1.1475177378721535,2.6927748568862677,1.6016893464624882
1745437821391262200,7.19726220703125,1.3747272416122256,2.928939528237283,1.1670301014631985
1745437821401234200,7.207234130859375,1.5846961260855197,3.239239695379138,1.0427724381536245
1745437821411207200,7.217207275390625,1.6033406208008527,3.6162273803934455,1.1847498825490475
1745437821421179400,7.227179443359375,1.4462848497390746,4.086497160217165,1.2221803262770174
1745437821431151000,7.237151123046875,1.1684111805580555,4.412745422597229,1.3147656709939242
1745437821441124000,7.2471240234375,0.8318366814095527,4.434188900381327,1.4312141218572854
1745437821451096300,7.257096435546875,0.4052548713386059,4.196450696103274,1.4076000220358371
1745437821461069300,7.2670693359375,0.0636257191490382,3.7634883181497454,1.123901153832674
1745437821471041300,7.277041259765625,-0.23279402587413786,3.076806615193188,0.6086515378147364
1745437821481013200,7.28701318359375,-0.4262596654444933,2.456796063496172,0.027791677767038343
1745437821490986200,7.296986328125,-0.6254606337964534,1.982260735182464,-0.6594581804662942
1745437821500958200,7.306958251953125,-0.8620195651620626,1.4072899331733584,-1.1065595584094523
1745437821510931200,7.31693115234375,-0.9330044879674911,1.0100298599809407,-0.8276385721325874
1745437821520903400,7.3269033203125,-1.0579887119859457,0.8277870406925678,0.15852525909245013
1745437821530875100,7.336875244140625,-1.2809464035004376,0.7798670593932271,1.2687865946292876
1745437821540848000,7.34684814453125,-1.4160229824662207,0.4086088579416275,2.358147180956602
1745437821550820400,7.3568203125,-1.0692308214902877,-0.15990531527400015,3.07770765568614
1745437821560793000,7.36679296875,0.07833529470139183,-0.2437131870344281,3.473495025977492
1745437821570765300,7.376765380859375,0.7609574840009212,-0.5058031577587128,3.6538346419930456
1745437821580737300,7.3867373046875,1.37691496091485,-0.6857885535091162,3.0342800173699853
1745437821590710300,7.396710205078125,2.096726780056953,-0.6534393585681915,2.2187387102663516
1745437821600682200,7.40668212890625,2.465209379315376,-0.9727882168233394,1.7278624880045652
1745437821610655200,7.4166552734375,2.6080922481179236,-1.3019669796973465,1.1665531316012143
1745437821620627200,7.426627197265625,2.3931840075463056,-1.5182482621878384,0.4111421758115291
1745437821630599200,7.43659912109375,1.816327537921071,-1.7134376568108796,-0.1853565673947334
1745437821640572400,7.446572509765625,1.2173673730373382,-1.7898633093655107,-0.6863017637282609
1745437821650544000,7.456544189453125,0.7265238840013742,-1.7178712553441524,-1.1285603778153657
1745437821660517000,7.46651708984375,0.6490279718667268,-1.4991671296209097,-1.2768138337403534
1745437821670489300,7.4764892578125,0.8271119179099797,-1.144485092177987,-1.3201695758640766
1745437821680461000,7.4864609375,0.8967629617631435,-0.9637509238868951,-1.5149737705618143
1745437821690434300,7.496434326171875,0.8828209456503391,-0.9247101223528384,-1.8619278441011904
1745437821700406300,7.50640625,0.8845768494069576,-0.8837100034445524,-2.5187533379763365
1745437821710379300,7.516379150390625,0.8509434598743915,-0.9002262539595365,-3.2905373364180326
1745437821720351200,7.526351318359375,0.7531506096422672,-0.9374030151873827,-3.8772979449421165
1745437821730323200,7.5363232421875,0.6985328842699527,-0.9130524177849292,-4.182307312199473
1745437821740296400,7.54629638671875,0.7828419835507869,-0.7210369770228863,-4.498828838074207
1745437821750268200,7.55626806640625,0.9428361461520195,-0.6007610768258571,-4.68677834457159
1745437821760241200,7.5662412109375,0.9758487734377383,-0.5726677857637406,-4.8345565842002625
1745437821770213400,7.57621337890625,0.8395756781637668,-0.6708376526147126,-5.053061387959122
1745437821780185300,7.586185302734375,0.5193196054032072,-0.8254442769587039,-5.250055201655626
1745437821790158300,7.596158447265625,0.1769043808698654,-0.8997755875825881,-5.462683222335577
1745437821800130300,7.60613037109375,-0.0031961656928062437,-0.6822814221709966,-6.064865271875262
1745437821810103300,7.616103271484375,-0.03769826435130089,-0.549096940562129,-7.042624262848496
1745437821820075300,7.6260751953125,-0.2638414905667305,-1.1407891602694988,-7.793308190116286
1745437821830048300,7.63604833984375,-0.4655635018289089,-1.878092796960473,-8.041505536827444
1745437821840020200,7.646020263671875,-0.3537609040100127,-2.334769227978587,-8.005508340772986
1745437821849992200,7.6559921875,-0.04061849917955696,-2.5891402948886153,-7.725932689979672
1745437821859965400,7.66596533203125,0.16528985785655675,-2.67024153803885,-7.2663909326583145
1745437821869937200,7.675937255859375,0.14351758650951085,-2.8865771810650824,-6.814297737777233
1745437821879910100,7.68591015625,-0.26444121002554893,-3.5821494619637724,-6.968994378492236
1745437821889882400,7.69588232421875,-0.8765035791970789,-4.5048833158075805,-6.858396407222747
1745437821899854000,7.70585400390625,-1.2407415266230701,-5.078925897055864,-6.5719947098016736
1745437821909827300,7.715827392578125,-1.2852268572986125,-5.333365353026986,-6.3720198344677685
1745437821919799300,7.72579931640625,-1.0538673942722379,-5.3007893635928625,-5.939573004820943
1745437821929772300,7.735772216796875,-0.9700259125031531,-5.074327463349699,-5.375099046906828
1745437821939744300,7.745744140625,-0.9919584159132092,-4.684343810901045,-4.679178390961885
1745437821949716200,7.75571630859375,-1.0146399841248988,-4.122732841202616,-4.106581916868686
1745437821959689500,7.765689453125,-1.1343968288838864,-3.482130752375722,-3.708249538269639
1745437821969661200,7.7756611328125,-1.374486856985092,-2.8787445877432822,-3.352059434351325
1745437821979634200,7.78563427734375,-1.5975475704826414,-2.243016826954484,-3.1001819378226996
1745437821989606400,7.7956064453125,-1.8357716585814952,-1.575411580389738,-2.83441678571701
1745437821999578000,7.805578125,-1.966258133278042,-0.9348112451285123,-2.518258247935772
1745437822009551400,7.81555126953125,-2.056152631475776,-0.5054676421940326,-2.037279150310159
1745437822019523300,7.8255234375,-2.058482535728067,-0.23487024762630462,-1.5119494543045757
1745437822029496300,7.835496337890625,-1.9503554846167563,-0.07930968355834483,-1.0090326656371353
1745437822039468300,7.84546826171875,-1.6976409527420997,0.040595629760622975,-0.579267037898302
1745437822049440300,7.855440185546875,-1.434641173696518,0.10157879851162432,-0.25161796880960463
1745437822059413200,7.865413330078125,-1.1314216124653815,0.29266309590339656,0.083833882984519
1745437822069385200,7.87538525390625,-0.7997603851258754,0.5163245517730712,0.4297095136374235
1745437822079358500,7.8853583984375,-0.5100900047650561,0.67597150837183,0.7810363954335451
1745437822089329700,7.89532958984375,-0.322732107485272,0.8009101396828889,1.0843775372177362
1745437822099302700,7.905302734375,-0.20692071241643278,0.89612612516433,1.3895441408634186
1745437822109274600,7.915274658203125,-0.094743947522901,0.9274322407931089,1.703600737929344
1745437822119246800,7.925246826171875,0.02628012242661789,0.8845978921949863,1.8990876541942356
1745437822129219600,7.935219482421875,0.09778819232331588,0.9853966462448239,1.8930887060403823
1745437822139191600,7.945191650390625,0.1081751189035829,1.1698498350590467,1.733763821002841
1745437822149164800,7.955164794921875,0.2014870334625244,1.316524497359991,1.5435533838361502
1745437822159136500,7.965136474609375,0.37260230953693385,1.4929630142837762,1.3948013307392597
1745437822169108700,7.975108642578125,0.6310895795941353,1.7899211770325898,1.3320511523157357
1745437822179081700,7.985081787109375,0.8739584247589111,2.0265034892737863,1.4557704709649084
1745437822189053400,7.995053466796875,1.032030679386854,2.1986194668233394,1.6454326265990733
1745437822199026700,8.005026611328125,1.1189151821136474,2.284638000370562,1.7454285398334264
1745437822208998700,8.01499853515625,1.1164660353958606,2.4549866759866474,1.7228502128005028
1745437822218971600,8.0249716796875,1.0850900694012642,2.6326252163499593,1.7066782456785439
1745437822228943600,8.034943603515625,1.1050134980112314,2.9368673986271023,1.6707722350388765
1745437822238915600,8.04491552734375,1.1479220808893442,3.3231580417767166,1.5823410873919725
1745437822248888800,8.054888916015624,1.1759154187083243,3.8017537513971327,1.4352853168189526
1745437822258860500,8.064860595703125,1.1753075159430504,4.265395929774642,1.2889660438269377
1745437822268833500,8.07483349609375,1.139109828880429,4.677713871367275,1.2283347572535275
1745437822278805800,8.0848056640625,1.101207675987482,5.0681625109791755,1.163043662175536
1745437822288777500,8.094777587890626,1.0664373913794756,5.312518379831314,1.1087217048794031
1745437822298750700,8.104750732421875,1.064815927657485,5.427340690797567,1.0468927329540252
1745437822308722700,8.11472265625,1.033966615885496,5.413208120548725,1.041990347865224
1745437822318695400,8.1246953125,1.135667579472065,5.397693740552663,1.044267060625553
1745437822328667600,8.134667724609375,1.3167664894223212,5.4436102730751035,0.9190110339283942
1745437822338640600,8.144640625,1.5888427243709564,5.5797126879572865,0.7426052502304316
1745437822348612600,8.154612548828124,1.750973899000883,5.636424755260348,0.8349515254944563
1745437822358584600,8.16458447265625,1.7811463344246148,5.4244286027431485,1.2809896581202744
1745437822368557600,8.1745576171875,1.734423746216297,5.255872363501787,1.7069781054079531
1745437822378529500,8.184529541015625,1.657380254024267,5.17669770449996,2.1441221529603003
1745437822388502500,8.19450244140625,1.5884756446242332,5.041170459157228,2.581204241192341
1745437822398474800,8.204474853515626,1.520755861094594,4.861719024153054,2.8926456873238084
1745437822408446500,8.214446533203125,1.398185712480545,4.552805927455425,3.0349340973645447
1745437822418419700,8.224419677734375,1.175587428862974,4.087764988195896,3.2147973280400035
1745437822428391700,8.2343916015625,0.9757721280049532,3.6484026800721883,3.268570419281721
1745437822438364700,8.24436474609375,0.8594324712783098,3.2716613710343836,3.129548902082443
1745437822448336600,8.254336669921875,0.864006939586997,3.0189333951562642,2.815630836704373
1745437822458309600,8.2643095703125,1.0256179628003388,2.906280244922638,2.6088854443222282
1745437822468281900,8.27428173828125,1.2704483903616666,3.0220442206531763,2.459218614467978
1745437822478253600,8.284253662109375,1.4548860893458126,3.2767268377304077,2.392629296272993
1745437822488226600,8.2942265625,1.329258891248703,3.6521196547687054,2.4831086086213587
1745437822498198800,8.30419873046875,1.2020697775971143,4.031301634956896,2.5865853497087956
1745437822508171500,8.314171630859375,0.9983347460120916,4.274973613198101,2.666975814241171
1745437822518143700,8.324143798828125,0.7560615286529063,4.3021833994239564,2.6360832478493452
1745437822528115700,8.33411572265625,0.4570236004879698,4.018429586163163,2.5278993519842623
1745437822538088400,8.34408837890625,0.2238929448042996,3.584794715775549,2.44379191275537
1745437822548060700,8.354060791015625,0.04727203878462315,3.1053079025343058,2.407243512558937
1745437822558033700,8.36403369140625,0.015940478187333792,2.5547160472393036,2.155829541888833
1745437822568005600,8.374005615234376,0.1533510713249445,1.9266534142509102,1.7343822451621294
1745437822577978600,8.383978515625,0.28113632423877716,1.1944725274011492,1.3719915330380201
1745437822587950600,8.39395068359375,0.44315760875344273,0.5936565055176616,1.140688037982583
1745437822597922600,8.403922607421874,0.491343255251646,0.14299509700536728,0.9405483274757862
1745437822607895600,8.4138955078125,0.41292029139995573,-0.26096856547892094,0.847113672453165
1745437822617867800,8.42386767578125,0.3251566677510738,-0.6478922458350658,0.9163234022796154
1745437822627840800,8.4338408203125,0.04673950281050056,-1.057808679243922,1.0929466281205416
1745437822637812700,8.443812744140626,-0.4104150671133771,-1.4070020561426877,1.2349626509606837
1745437822647785700,8.45378564453125,-1.110508588296175,-1.5067998164564371,1.0849860245049
1745437822657757700,8.4637578125,-1.5142179837584495,-1.314178226494789,0.1649871485829353
1745437822667729700,8.473729736328124,-1.2171440856754778,-1.3569418479442596,-0.7154688215017319
1745437822677702700,8.48370263671875,-0.5556500154674053,-1.5439625491589306,-1.1151426778376101
1745437822687675000,8.4936748046875,0.13554595004320144,-1.6332371618926524,-0.9168845432937145
1745437822697647600,8.503647705078125,0.8728191915959119,-1.7526123138576746,-0.48216216993033884
1745437822707619600,8.51361962890625,1.3231886314243078,-1.9272972651123998,0.02957856118381023
1745437822717591600,8.523591552734375,1.5968074196398256,-1.7328414454609156,0.3712076403081417
1745437822727564500,8.533564453125,1.5793050806969404,-1.5263064809590576,0.6169336284697056
1745437822737536800,8.543536865234374,1.2347136446356772,-1.685825427263975,0.4074970973074436
1745437822747509800,8.553509765625,0.8489151689171791,-1.7950509411364792,-0.35724633497297764
1745437822757481500,8.5634814453125,0.295569941527117,-1.853718818682432,-1.4050310483306645
1745437822767454700,8.573454833984375,-0.41615558352675286,-1.788186316064,-2.5046441486030817
1745437822777426700,8.5834267578125,-0.9899597163766622,-1.6250538554370402,-3.596501812443137
1745437822787398700,8.593398681640625,-1.3554811277419327,-1.6163947481632233,-4.520058088585734
1745437822797371600,8.60337158203125,-1.6452426569849252,-1.7178502125561237,-5.348099396300316
1745437822807343600,8.613343505859374,-1.8159896842688321,-1.8794202461719511,-5.979980418533087
1745437822817316600,8.623316650390626,-1.8817057267606256,-1.8456635225206612,-6.379430987507105
1745437822827288600,8.63328857421875,-1.8193840028822421,-1.5637112057238816,-6.5270835549294945
1745437822837261600,8.643261474609375,-1.6123884351313114,-1.2051584643274544,-6.441102138522267
1745437822847233500,8.653233642578124,-1.4496516958236694,-0.9898018954664468,-6.387213311946391
1745437822857205500,8.66320556640625,-1.3299895436108111,-0.8472159637838601,-6.5379650144279
1745437822867178800,8.6731787109375,-1.203012684470415,-0.5743143839269876,-6.959861223965883
1745437822877150500,8.683150390625,-1.0450362183671444,-0.11858020219504832,-7.571440047404169
1745437822887123700,8.693123779296876,-0.9832979934651404,0.20823358511328696,-7.900886521303653
1745437822897095700,8.703095703125,-1.0295932961720973,0.0842085615158081,-7.658334487003088
1745437822907067600,8.713067626953125,-1.0425929899334907,-0.38658115052878855,-7.2543825149565935
1745437822917040600,8.72304052734375,-0.852472715268284,-0.6481909365206956,-7.1157765928208825
1745437822927012600,8.7330126953125,-0.5154453577857464,-0.6738976247072219,-7.036310257396101
1745437822936985900,8.74298583984375,-0.3223731014471501,-0.821102448362112,-6.657916504976153
1745437822946957600,8.75295751953125,-0.39708318225555117,-1.3677923277825117,-5.92497398610413
1745437822956930600,8.7629306640625,-0.5299333173435181,-2.1999399017721415,-5.195646735119819
1745437822966902800,8.77290283203125,-0.5008499923307448,-2.875760603496432,-4.758444819900393
1745437822976875500,8.78287548828125,-0.33472762917280197,-3.2634476694405077,-4.510606369629502
1745437822986847700,8.79284765625,-0.14035546921677886,-3.3453479540139437,-4.441153478696942
1745437822996819700,8.80281982421875,-0.0404513259191066,-3.1972160786420103,-4.3579210687369105
1745437823006792400,8.81279248046875,-0.04433014011383057,-2.9851164657503366,-4.249383537128567
1745437823016764700,8.8227646484375,-0.2353076161302626,-2.6933044337183234,-3.98913568713963
1745437823026737700,8.832737548828124,-0.39799635157771407,-2.1659891168534755,-3.6530771016240116
1745437823036709600,8.842709716796875,-0.5673708483994007,-1.5622785425722598,-3.274939369791746
1745437823046681600,8.852681640625,-0.7327719115454703,-0.9538187279373407,-2.937087471118569
1745437823056654600,8.862654541015624,-0.9574924480140209,-0.4298603202849626,-2.549867438164353
1745437823066626600,8.87262646484375,-1.2124972097177058,-0.011630816560983658,-2.0952999621242285
1745437823076599600,8.882599609375,-1.4278465451203286,0.34647418106794353,-1.6469284181147812
1745437823086571800,8.89257177734375,-1.6422293005131183,0.5862322007358074,-1.1631833629071713
1745437823096544800,8.902544677734374,-1.8021626728378235,0.7381985397040843,-0.7506675606548786
1745437823106516700,8.912516845703125,-1.8138998723827302,0.8226976085990667,-0.4057897088676691
1745437823116488700,8.92248876953125,-1.6650690549612044,0.9790817640095949,-0.05189502241015434
1745437823126461700,8.932461669921874,-1.3809563452601432,1.0860130294650792,0.2932978866755962
1745437823136434000,8.942433837890626,-1.0237409899473189,1.192477261930704,0.6101484983742237
1745437823146406700,8.95240673828125,-0.6428279481828212,1.2557125935226678,0.9458867658942938
1745437823156378600,8.962378662109375,-0.32981757223419844,1.3822183280199765,1.3774340163528918
1745437823166352000,8.972351806640624,-0.08728548474311829,1.4516747260838747,1.8348901995718478
1745437823176323600,8.982323486328125,0.08492631786372512,1.552677186012268,2.3034826938331125
1745437823186295800,8.9922958984375,0.17848847172353416,1.71032215513885,2.6852093900680543
1745437823196268800,9.002268798828124,0.23822770482804626,1.8018085987031458,3.051767158743739
1745437823206240800,9.01224072265625,0.3273146860351786,1.8914952993690965,3.278471051049232
1745437823216213800,9.0222138671875,0.49852352214455603,2.104420549429953,3.3200551073253153
1745437823226185700,9.032185791015625,0.7091174066483974,2.2447546105325222,3.376270915544033
1745437823236158700,9.04215869140625,0.8531482764422893,2.410309037609398,3.4270506701886654
1745437823246130700,9.052130615234375,0.9775462250053882,2.6972134238556027,3.5350358286112544
1745437823256103700,9.062103759765625,0.9682359603464603,2.9079817881435153,3.7914685042262075
1745437823266076000,9.072075927734375,0.9615361704468727,3.251279969523847,3.9393297459632155
1745437823276047600,9.082047607421876,0.9155366358160972,3.719167238125205,3.8899452450692653
1745437823286020900,9.092020751953125,0.9021528381079434,3.8663764456942675,3.8427170454263684
1745437823295992800,9.101992919921875,1.138574991351366,3.7297313022375103,3.7170255499213933
1745437823305965600,9.111965576171874,1.5695195997416973,3.349343745651841,3.4529473279893397
1745437823315937800,9.121937744140626,2.0056839886069295,2.9216800586283207,3.298563406485319
1745437823325910800,9.131910888671875,2.3660820656090973,2.8985078573554754,3.211172707802057
1745437823335882800,9.1418828125,2.587277423626184,3.2306320260316133,3.178225546967983
1745437823345854700,9.151854736328126,2.6737147671073673,3.6067794608294963,3.267318373394012
1745437823355827700,9.16182763671875,2.6280238600343466,3.9771728621453044,3.3891140305042264
1745437823365799700,9.171799560546875,2.4836720877230167,4.569669383972883,3.331436333039403
1745437823375772700,9.181772705078124,2.145113502085209,5.161141238927841,3.0536703620165584
1745437823385745000,9.191744873046876,1.6804460723131893,5.442117404168844,2.585975108855963
1745437823395718000,9.2017177734375,1.3861363782465457,5.546112031650543,1.9346254160434007
1745437823405689600,9.211689697265625,1.3678367514461278,5.499838940775394,1.3946265586942435
1745437823415661800,9.221661865234376,1.432033621546626,5.488148502981662,1.1609604261606932
1745437823425634800,9.231634765625,1.5646791739732027,5.6161669801294805,1.357797003468871
1745437823435606800,9.241606689453125,1.5489952826291322,5.567381029650568,1.8366648080289363
1745437823445579800,9.251579833984374,1.3708201511710882,5.301972435897588,2.378024432337284
1745437823455551700,9.2615517578125,1.2977157519936562,5.076365691179037,2.7570950611054896
1745437823465524700,9.271524658203125,1.262176236578822,4.906357499563693,2.8776287354558705
1745437823475496700,9.28149658203125,1.2715828012190757,4.766351939763129,2.969684503340721
1745437823485469000,9.291468994140626,1.3140823649048805,4.573044997885823,2.9779905593931675
1745437823495441700,9.301441650390625,1.3635323322504758,4.457498756559193,2.743595528063178
1745437823505414000,9.311413818359375,1.3413199159204958,4.315332803854346,2.279277642381191
1745437823515387000,9.321386962890625,1.2481915503680705,4.048344831955433,1.714699639570713
1745437823525358600,9.331358642578126,1.097821613745764,3.623758652681112,1.2870511501163244
1745437823535331800,9.341331787109375,1.0434101515352725,3.3009678372785447,1.0492881036579609
1745437823545303800,9.3513037109375,1.1828244674444197,3.1663466008648276,0.8784797015756368
1745437823555276800,9.36127685546875,1.3464070099264382,3.0817168913275004,0.7585381478995085
1745437823565248800,9.371248779296875,1.4514233816713094,3.131871207550168,0.6179074419379234
1745437823575220700,9.381220703125,1.410750010499358,3.1967271260812877,0.5509177262485027
1745437823585194000,9.391194091796875,1.202654372552037,3.2680990023776886,0.5218927072942257
1745437823595165700,9.401165771484376,1.027567854759097,3.3004055272206663,0.4748498010903597
1745437823605138700,9.411138671875,0.8336129703670739,3.2318510464325545,0.4439221633851528
1745437823615111000,9.42111083984375,0.704724140125513,3.0716546392574906,0.3249742969214916
1745437823625083600,9.431083740234374,0.6119593471884727,2.6923569237351415,0.1360486388683319
1745437823635055900,9.441055908203126,0.5640308903217315,2.230806749200821,-0.21649463298022745
1745437823645027800,9.45102783203125,0.5673427913486957,1.555966875207424,-0.6032973173052072
1745437823655000600,9.46100048828125,0.4878396310448646,0.8914525803953409,-0.8832774572461843
1745437823664972800,9.470972900390626,0.39889059700369833,0.322452084967494,-1.1781547220677138
1745437823674945800,9.48094580078125,0.27857027314305305,-0.198628721421957,-1.3646113596588372
1745437823684917800,9.490917724609375,0.15801146435141564,-0.595220393833518,-1.4484499188184736
1745437823694890800,9.500890869140624,0.02723988910317421,-0.8905237751126289,-1.4353075286507606
1745437823704862700,9.51086279296875,-0.1251203445535153,-1.0947925482481717,-1.3728291529059409
1745437823714834700,9.520834716796875,-0.2553564977508038,-1.264375207927823,-1.1641881560355425
1745437823724807700,9.5308076171875,-0.39367899983525273,-1.4635340907037258,-1.2212573662132025
1745437823734780000,9.54077978515625,-0.4394739518046379,-1.7503309249222279,-1.2998083403587342
1745437823744753000,9.5507529296875,-0.5162731138467789,-2.057431711500883,-1.3827356298923492
1745437823754724900,9.560724853515625,-0.4918413409668952,-2.3256688066780566,-1.6541139457046985
1745437823764697900,9.57069775390625,-0.4319979899007827,-2.6264719544172284,-2.051191355806589
1745437823774669800,9.580669921875,-0.4709411032140255,-2.8427275179445743,-2.1842302914649245
1745437823784641800,9.590641845703125,-0.6846785464406013,-2.7479864564985035,-2.003171129003167
1745437823794614800,9.60061474609375,-0.9139056736133992,-2.352372689208388,-1.70539872726202
1745437823804586800,9.610586669921876,-0.9984767848312854,-1.8995406586587429,-1.375417415833473
1745437823814559700,9.620559814453125,-1.1860114269174635,-1.5907096872866153,-1.244975510931015
1745437823824531700,9.63053173828125,-1.3645266039848327,-1.184604921120405,-1.2086597504466772
1745437823834505000,9.6405048828125,-1.5085772013925014,-0.949590296587348,-1.4316238717019558
1745437823844476700,9.6504765625,-1.7890192597568033,-0.9201876764923334,-1.9728373655378817
1745437823854449700,9.66044970703125,-2.059927766100317,-0.972854267796874,-2.5928221982717514
1745437823864422000,9.670421875,-2.103923559693247,-1.1628320652514696,-3.3155542887747287
1745437823874393600,9.6803935546875,-2.025308726531267,-1.428684311118722,-4.05157606896162
1745437823884366800,9.690366943359376,-1.9307073658168314,-1.4255144489109515,-4.966050043982267
1745437823894338800,9.7003388671875,-1.7427984835907815,-1.1316945841878652,-5.922236670094728
1745437823904311600,9.7103115234375,-1.5439420908927917,-0.457086765384674,-6.911015652254223
1745437823914283800,9.72028369140625,-1.456911603824049,0.6904729119330644,-7.6560653730273245
1745437823924256800,9.7302568359375,-1.415172210855782,1.8012194006383417,-7.514896906927228
1745437823934228700,9.740228759765625,-1.3694579229071735,2.407814005923271,-7.513470088994502
1745437823944200700,9.75020068359375,-1.5643454119741915,2.4100883805960414,-8.207246134126185
1745437823954173700,9.760173583984376,-1.764495059353113,1.6712603108167647,-9.304358649754525
1745437823964145700,9.770145751953125,-1.9272434890985488,0.35390345428586006,-10.551528455859422
1745437823974118700,9.78011865234375,-1.9268959908351302,-0.739448832026124,-11.51092995236516
1745437823984091000,9.7900908203125,-1.915092448055744,-1.4136626830756664,-11.97516775854826
1745437823994064000,9.80006396484375,-1.9261065940231084,-1.7023574598699807,-11.54325050573349
1745437824004035600,9.81003564453125,-1.940803520156443,-1.4797726933211088,-10.318726246678828
1745437824014008800,9.8200087890625,-1.6728668692305684,-0.770538382294774,-8.869436369904875
1745437824023980800,9.829980712890626,-1.319070090189576,-0.07259411156773567,-7.335792970186471
1745437824033952800,9.839952880859375,-1.1746209949836135,0.16356383778154848,-5.657489755120873
1745437824043925800,9.84992578125,-1.2129063019752502,-0.15324410381913184,-4.374915165896714
1745437824053898000,9.85989794921875,-1.3453402574777602,-0.7085305466711521,-3.671855451852083
1745437824063870700,9.86987060546875,-1.4666577756822108,-1.167454464355111,-3.279213393849134
1745437824073842700,9.8798427734375,-1.5620261752463875,-1.5203601397752762,-3.209897281038761
1745437824083816000,9.88981591796875,-1.4825301753357052,-1.8848492854833603,-3.422224272945523
1745437824093787100,9.899787109375,-1.199997866693884,-2.351575985872745,-3.6982422312572596
1745437824103759400,9.90975927734375,-0.879871594325453,-2.825824898460507,-3.7433570920079946
1745437824113732400,9.919732421875,-0.6294296835578977,-2.8900872350126505,-3.442467435029149
1745437824123704300,9.929704345703126,-0.3635081718467176,-2.54080968696177,-2.8663752277746797
1745437824133677300,9.93967724609375,-0.14444237320423126,-2.09179049269855,-2.1091116298556325
1745437824143649300,9.949649169921875,0.043754970574378965,-1.5455664772242306,-1.267232350924611
1745437824153622300,9.959622314453124,0.18601707713007926,-1.0623971760779618,-0.5955138238221407
1745437824163594200,9.96959423828125,0.21757424491047858,-0.5417436551898718,-0.13134499122202395
1745437824173566500,9.97956640625,0.06372106928229332,-0.0020054946035146714,0.28395956496596336
1745437824183539200,9.989539306640625,-0.1813023966331035,0.48947220068275926,0.7109568970352411
1745437824193511200,9.99951123046875,-0.5007013045750558,0.758563282340765,1.1096212840676307
1745437824203484400,10.009484375,-0.737937769876048,0.9336270037800073,1.3784119214743376
1745437824213456100,10.0194560546875,-0.8947638969004154,0.9105278677433729,1.4765689288437365
1745437824223429000,10.02942919921875,-1.1141793126981705,0.8437912500321865,1.4176111284404993
1745437824233401300,10.0394013671875,-1.1106699163377285,0.8941665155291557,1.4501736738711595
1745437824243374300,10.049374267578125,-0.8837690401554107,1.0071569348931313,1.715130432203412
1745437824253346300,10.05934619140625,-0.6400678358197212,1.0561334395080804,2.1072265467613933
1745437824263318300,10.069318359375,-0.49584758093357084,0.8790975412130355,2.4705022250264883
1745437824273291300,10.079291259765625,-0.28186120444722473,0.4866261636018753,2.5219004038304087
1745437824283263200,10.08926318359375,0.2587561501264572,0.12993980059921742,2.419451836746931
1745437824293236200,10.099236328125,0.9896084187209606,0.05389174918532371,1.9010352811306714
1745437824303208400,10.10920849609375,0.621593436974287,0.1112789392709732,1.4856453847467899
1745437824313181200,10.11918115234375,0.17960370295643804,0.09844459213912486,1.6128262420266866
1745437824323153200,10.129153076171875,0.1327986971616745,0.6005360358983278,1.8845961875051258
1745437824333125400,10.13912548828125,0.21929858448505402,1.2155845812737942,2.0879332327485085
1745437824343098000,10.14909814453125,0.1956704561382532,1.6942957339674234,2.1241198138952253
1745437824353070300,10.1590703125,0.24226969196153803,2.2337293586492537,2.0778841324210164
1745437824363043300,10.169043212890625,0.37220772072877734,2.5390181273698804,1.8550807546854018
1745437824373015000,10.17901513671875,0.5609855312764644,2.6651427535951138,1.3909540076613425
1745437824382988300,10.18898828125,0.7534259194523095,2.6562790636599063,1.141674710932374
1745437824392960300,10.198960205078125,1.017107251021266,2.6940339170366525,1.3420201731443404
1745437824402933200,10.208933349609374,1.2535235590457916,2.8279835377991196,1.7949650164186954
1745437824412905200,10.2189052734375,1.433042506328225,3.125216425836086,2.2709499590188265
1745437824422877200,10.228877197265625,1.4444465283960104,3.616054361914098,2.670665900930762
1745437824432850400,10.238850341796875,1.5251988119781017,4.187694558195769,3.0968390571355817
1745437824442822100,10.248822265625,1.5951684202611445,4.595668625365198,3.0365181516855952
1745437824452795400,10.25879541015625,1.598468630850315,5.276856699341535,2.9482898331344125
1745437824462767400,10.268767333984375,1.458757377821207,5.725719241738319,2.9823586914747953
1745437824472740000,10.278739990234374,1.3042419388920068,5.951843288329243,3.202563869410753
1745437824482712300,10.28871240234375,1.2936492332071066,5.926324816191196,3.278311476573348
1745437824492684300,10.298684326171875,1.3996937789559363,5.633863964861631,3.2102152609467502
1745437824502657300,10.3086572265625,1.5111317081809044,5.366070521798729,3.0292315018087623
1745437824512629200,10.318629150390626,1.7524200061559676,5.3351335317432875,2.7922692503392694
1745437824522602200,10.328602294921875,1.87813546705842,5.354036385133862,2.833841616177559
1745437824532574200,10.33857421875,1.904285953489691,5.214353773677349,3.1989345729976892
1745437824542547200,10.348547119140624,1.9265777186661956,5.043866274112463,3.426882912406325
1745437824552519400,10.35851953125,1.8008184186220169,5.132746334570646,3.5413574328482147
1745437824562492400,10.368492431640625,1.5919582260429859,5.326389084273576,3.7817011434495447
1745437824572464000,10.378464111328125,1.3664711621813475,5.346848519456386,4.156168077814579
1745437824582436400,10.388436279296876,1.1509429630804806,5.065996272855997,4.336068717890978
1745437824592409300,10.398409423828125,1.059975063497573,4.548827963735163,4.16968690007925
1745437824602381300,10.40838134765625,1.0553588018737732,3.8904274756282566,3.6966847726821896
1745437824612354300,10.418354248046874,1.2865531374663113,3.446928213830292,3.0742110457420346
1745437824622326300,10.428326171875,1.6256319475859402,3.259636586719751,2.315382974985242
1745437824632299300,10.43829931640625,1.8908897346913813,3.190424811066687,1.6322072343230247
1745437824642271200,10.448271240234375,2.0573118845134974,3.1724823271408673,1.2102595868587493
1745437824652244200,10.458244140625,2.151985725942254,3.2879405979231,0.9418763612091541
1745437824662216200,10.46821630859375,2.0890701278239487,3.4748601768508554,0.803700062662363
1745437824672188200,10.478188232421875,1.8855057035654783,3.6437414102628827,0.8048048090338706
1745437824682161400,10.488161376953125,1.536022988331318,3.733879654088616,0.8625666776508092
1745437824692133000,10.498133056640626,1.0666963345766067,3.505978076431155,0.9125035517305136
1745437824702106000,10.508106201171875,0.7238970426291227,3.0528835955530402,0.7732043866336346
1745437824712078300,10.518078369140625,0.5274304676771163,2.4046990887731314,0.4399561823636293
1745437824722051300,10.52805126953125,0.5301239445447922,1.5933113942176103,0.10783785890638828
1745437824732023300,10.538023193359376,0.6395370899438858,0.7533645446538925,-0.27841654388606546
1745437824741995300,10.547995361328125,0.7816051352322101,-0.02618716517984867,-0.6421984181076288
1745437824751968300,10.55796826171875,0.9713502929747104,-0.6881453457683324,-0.8178378936082125
1745437824761940200,10.567940185546876,1.230161388158798,-1.2599620676606893,-0.9850427182406186
1745437824771913200,10.577913330078125,1.4600900877296923,-1.654234357213974,-1.0955991884559393
1745437824781885400,10.587885498046875,1.6535504666030405,-1.7927327273219822,-1.1594079360216856
1745437824791858200,10.597858154296874,1.7961457506358622,-1.6078882011026143,-1.1475965021967887
1745437824801830400,10.607830322265626,1.6909201200544832,-1.3823019146502018,-0.8560194479644299
1745437824811803400,10.617803466796875,1.207542729115486,-1.311317576366663,-0.29342180531620976
1745437824821775000,10.627775146484375,0.319039061653614,-1.4912532877564428,0.34521979709267614
1745437824831747300,10.637747314453126,-0.4822171149879694,-1.5975269660860298,0.5377484480738639
1745437824841720300,10.64772021484375,-0.8045347599208355,-1.201961129590869,0.03739712598025799
1745437824851692300,10.6576923828125,-0.6118494570732116,-1.0321142660170792,-0.8777057945936918
1745437824861665300,10.667665283203124,-0.1626396721413359,-1.3085241462558508,-1.8469184910178182
1745437824871637200,10.67763720703125,0.5604928523886948,-1.4314607900947331,-2.704600319236517
1745437824881610200,10.6876103515625,1.4843758032023906,-1.4877753825128077,-3.298805983069539
1745437824891582200,10.697582275390625,2.3651246187537907,-1.68326112973392,-3.3342385309785603
1745437824901555200,10.70755517578125,2.986859510025382,-2.0697271294504405,-2.75670226239562
1745437824911527200,10.717527099609375,3.3144284996151923,-2.392583119043708,-1.877555621343851
1745437824921499100,10.7274990234375,3.456273842063546,-2.4329104532569645,-1.2306658305495977
1745437824931472400,10.737472412109375,3.522914013662934,-2.153642260977626,-0.9380798915356398
1745437824941444000,10.747444091796876,3.4835879654467106,-1.8754735543727874,-0.9053127634435891
1745437824951417000,10.7574169921875,3.308057795539498,-1.722340509712696,-1.2131927177011965
1745437824961389300,10.767389404296875,3.0241379780620337,-1.6341531076937912,-1.8876216728061437
1745437824971362300,10.7773623046875,2.7582687810599804,-1.5978414388626814,-2.5894237880051136
1745437824981334300,10.787334228515626,2.4241940628379584,-1.5443085861176251,-3.256905115929246
1745437824991307300,10.797307373046875,2.0383206221871077,-1.3999451233685016,-4.012408426177501
1745437825001279200,10.807279296875,1.4658862067878244,-1.2141419812500476,-4.799305822598934
1745437825011251200,10.817251220703126,0.6671428897500038,-0.9230565099269151,-5.617698427480459
1745437825021224200,10.82722412109375,-0.11247194844782352,-0.38308746319413184,-6.39991731069684
1745437825031196400,10.837196533203125,-0.8626140239238739,0.2834136215209961,-7.10311643321216
1745437825041169200,10.847169189453124,-1.6609820779085158,1.0128297198325396,-7.728745993834734
1745437825051141400,10.857141357421876,-2.7269536053419112,1.4513374569535256,-7.971970228308439
1745437825061114400,10.8671142578125,-4.0092204437911505,1.1438356883585452,-7.778128156641126
1745437825071086000,10.877086181640625,-4.855958853191137,0.46572132273912425,-7.51942461348474
1745437825081059300,10.887059326171874,-5.212108040577173,0.15633388652801514,-7.742267154186964
1745437825091032300,10.8970322265625,-5.137448228651285,0.21648469610810278,-8.176662779814004
1745437825101004000,10.907004150390625,-4.775615150409936,0.05281389082074165,-8.460028470540045
1745437825110977300,10.916977294921875,-4.3201475106596945,-0.45015024411976334,-8.396683833354711
1745437825120949200,10.92694921875,-3.7407191447198387,-0.8318406999975443,-7.994913881522416
1745437825130922000,10.936921875,-2.997556845128536,-0.885128053548932,-7.398202372348308
1745437825140894200,10.946894287109375,-2.2279636347293854,-0.6926601928442716,-6.658795041376352
1745437825150867200,10.9568671875,-1.657887619024515,-0.532820928543806,-5.907084693670273
1745437825160839200,10.966839111328126,-1.3215198214292525,-0.4468570477932691,-4.988718387386203
1745437825170812200,10.976812255859375,-0.9848796366333961,-0.2564507957935333,-3.965036434149742
1745437825180784000,10.9867841796875,-0.5554150376677512,0.054174073258042334,-2.922361611151695
1745437825190756000,10.996756103515626,0.013616985409520565,0.35363691230416294,-1.9565835653513668
1745437825200729000,11.00672900390625,0.5296329461574554,0.6304805077850818,-1.1558148799657821
1745437825210701300,11.016701416015625,0.7869196082532406,0.9359516473352909,-0.5505108990132809
1745437825220674300,11.02667431640625,0.661278966152668,1.1330518440157173,-0.0004664484679698944
1745437825230646000,11.03664599609375,0.3819862239539623,1.3008540500193833,0.3970306483507156
1745437825240619300,11.046619384765625,-0.0711386611955706,1.4778466936945915,0.6892787337124348
1745437825250591200,11.05659130859375,-0.5672925224661827,1.5785054547518491,0.9183429254084825
1745437825260564000,11.06656396484375,-0.9838122996628283,1.5924655910432337,1.1450380498856305
1745437825270536200,11.0765361328125,-1.2411591675132512,1.585780998712778,1.4273831653922795
1745437825280509200,11.08650927734375,-1.2325287018120288,1.606599914857745,1.7701906406462191
1745437825290481200,11.096481201171875,-1.0422200649678706,1.710883880674839,2.1440748066872355
1745437825300453000,11.106453125,-0.6614782881170511,1.7743121044903993,2.596224700191617
1745437825310426000,11.116426025390625,-0.1509323197454214,1.7531974202692509,3.1196453477054833
1745437825320398000,11.126398193359375,0.4606587786525488,1.6855723292857407,3.5684494379132983
1745437825330371000,11.13637109375,0.961438555291295,1.5203724147349595,4.012777259489893
1745437825340343300,11.14634326171875,1.2879220877319573,1.277070146588981,4.445366127955913
1745437825350316300,11.15631640625,1.58818338367939,1.132116608992219,4.65822561930418
1745437825360288300,11.166288330078125,1.8382243124306201,1.0300114485189318,4.725971121796965
1745437825370261200,11.17626123046875,1.913148912772536,1.0760884323000908,4.649117014697194
1745437825380233200,11.186233154296875,1.8758143306344746,1.2843676101207733,4.540926104569435
1745437825390205200,11.196205078125,1.767014933219552,1.5281591230884193,4.462577374997735
1745437825400178200,11.20617822265625,1.6201415334761142,1.746035273554921,4.470563113054633
1745437825410150400,11.216150390625,1.5563789631396532,2.0002651784285903,4.541322994932532
1745437825420123100,11.226123046875,1.5387217258960009,2.2545120344370604,4.6280222042202945
1745437825430095000,11.23609521484375,1.5483791965574025,2.4787659032419325,4.658694405859708
1745437825440068400,11.246068359375,1.4187860174387692,2.627607095927,4.71203085924983
1745437825450040000,11.2560400390625,1.2742752551734446,2.6920103022545576,4.666441658985614
1745437825460013000,11.266012939453125,1.235146775355935,2.7235350290700793,4.538365898692607
1745437825469985300,11.2759853515625,1.2948282138586042,2.8423832345515487,4.375262664160132
1745437825479958300,11.285958251953126,1.3379706054925917,2.9902433072447776,4.1383074269533155
1745437825489930200,11.29593017578125,1.5027543404579162,3.1928914934411643,3.8240824875831603
1745437825499902200,11.305902099609375,1.672208989843726,3.420092521613836,3.5855180616140365
1745437825509875200,11.315875244140624,1.8013275371879338,3.828598503702879,3.3281671021103856
1745437825519847200,11.32584716796875,1.7663924174070358,4.363316790300607,3.0034862351775167
1745437825529820200,11.335820068359375,1.5394886186152696,4.870604341398179,2.7714246152311564
1745437825539792400,11.34579248046875,1.203641045501828,5.157200976869464,2.625544318178296
1745437825549765000,11.35576513671875,0.9843214182287454,5.290446248754859,2.3459809423446654
1745437825559737000,11.365737060546875,0.8978975187510252,5.342914687138795,2.007297853544354
1745437825569710300,11.37571044921875,0.8849754933357238,5.284591092985868,1.6277525930017231
1745437825579682000,11.38568212890625,0.8318085512936115,5.156244699057936,1.3956062173813581
1745437825589655000,11.395655029296876,0.7787696195453405,4.938975574573874,1.4120359586566686
1745437825599627300,11.405627197265625,0.6305991657286882,4.506591288769245,1.6101719281256197
1745437825609599200,11.41559912109375,0.548822799795866,4.258824734690785,1.747564967340231
1745437825619572200,11.425572265625,0.3458767996966839,4.145659543281793,1.656528021109104
1745437825629544200,11.435544189453125,-0.03680792791545391,3.917120544503629,1.6260007808983326
1745437825639517200,11.44551708984375,-0.3807411923289299,3.491617542645335,1.6504618529379367
1745437825649489200,11.4554892578125,-0.6064110654115676,3.1920725782737134,1.5084125123500822
1745437825659462100,11.465462158203126,-0.7737585133850574,2.8821327688768505,1.1990946342438458
1745437825669434000,11.47543408203125,-0.7371487383902072,2.5841718588262794,0.6896721169441938
1745437825679407000,11.485406982421875,-0.525982022434473,2.3360417321324345,0.12188041278421878
1745437825689379300,11.49537939453125,0.015512032775348052,2.348085805669427,-0.5150321738749742
1745437825699352300,11.505352294921876,0.5210018959343433,2.5218448742508888,-1.1011591606706381
1745437825709324000,11.515323974609375,0.9279296689212322,2.652745628836751,-1.3209195174485444
1745437825719296300,11.525296142578124,1.0528700537979603,2.529091776639223,-1.3563883057147264
1745437825729269200,11.535269287109376,0.9625988312423228,2.4379589688181875,-1.314657534444332
1745437825739241200,11.5452412109375,0.7082394547700882,2.48174433453083,-1.404170632109046
1745437825749214200,11.555214111328125,0.3553051377773285,2.3211346703797577,-1.43698744456172
1745437825759186200,11.565186279296874,0.03140519208908081,1.9098253213077783,-1.5519418574750423
1745437825769159200,11.5751591796875,-0.08270977432541549,1.3576426896899938,-1.7504063282459974
1745437825779131100,11.585131103515625,-0.019097499179840088,0.8010749748557806,-2.0373358489334583
1745437825789104000,11.595104248046875,0.24667992788553236,0.18554945961833,-2.446661915233731
1745437825799076000,11.605076171875,0.5501613549232482,-0.5492272889435291,-2.885881600016355
1745437825809049000,11.615049072265625,0.7981202167034148,-1.3514789063632489,-3.1269945414245126
1745437825819021300,11.625021240234375,1.046048756410554,-2.011724437814951,-3.252059429463744
1745437825828993000,11.634992919921874,1.227507658779621,-2.5551754814445973,-3.224699713373184
1745437825838966000,11.644966064453126,1.321662444770336,-2.9730811600416898,-3.1124709260314702
1745437825848938200,11.654938232421875,1.220837168039754,-3.370030559849739,-2.9542414350152013
1745437825858911200,11.6649111328125,0.9730055859010666,-3.6777854264229535,-2.7680080847859383
1745437825868883200,11.67488330078125,0.596923106098175,-3.879102364015579,-2.5541601669222116
1745437825878856200,11.684856201171876,0.16931144152283667,-3.947824018064141,-2.4445301639020443
1745437825888828200,11.694828125,-0.27324871279411017,-3.8878947422802446,-2.315343227496743
1745437825898801200,11.70480126953125,-0.5769184289455414,-3.7059319089770315,-2.1588538581460712
1745437825908773000,11.714773193359376,-0.6697684890132397,-3.4978923851311206,-2.055321002957225
1745437825918746000,11.72474609375,-0.6377636505305767,-3.2381589144051075,-1.8963368941813705
1745437825928718000,11.734718017578125,-0.46172662707976997,-2.9136826301336285,-1.6620722112327813
1745437825938690300,11.744690185546874,-0.3181377288997173,-2.4808862563967704,-1.4614081845909357
1745437825948663300,11.754663330078126,-0.27704116387963296,-1.9301608378499746,-1.1842150450199842
1745437825958635000,11.764635009765625,-0.6521768643517046,-1.3826327540397643,-0.7311614806741475
1745437825968608300,11.774608154296875,-1.373722302353382,-0.7128373039543628,-0.31083705049753185
1745437825978580200,11.784580322265626,-2.050977420794964,-0.04557809434831142,0.2717079861581325
1745437825988553200,11.79455322265625,-2.531021867918968,-0.14839315665662287,0.5366086303889751
1745437825998525200,11.804525146484375,-2.5241186644017697,-0.4527010976463556,-0.05996902327239513
1745437826008498200,11.814498291015624,-2.29942202026546,-0.6725619921892881,-1.2184639361023901
1745437826018470400,11.824470458984376,-2.1306372329652308,-0.7110252860963344,-2.2941081317663192
1745437826028443100,11.834443115234375,-1.992954855415225,-0.5194400534451008,-3.324658217206597
1745437826038415000,11.8444150390625,-1.8797066618978977,-0.4488777399659157,-4.341735657611489
1745437826048388400,11.854388427734374,-1.6905536248296498,-0.556336828687787,-5.02880197597146
1745437826058360000,11.864360107421875,-1.2798223679065703,-0.7650865466296672,-5.324415738373995
1745437826068333000,11.8743330078125,-0.6614648441135883,-0.830446030768752,-5.297839866137505
1745437826078305300,11.88430517578125,0.03505958641078323,-0.7411351776778697,-5.258715477973222
1745437826088277000,11.894277099609376,0.5507950131842866,-0.4373293409913778,-5.57741200979948
1745437826098249700,11.904249755859375,0.7989987531036138,-0.03904197057783603,-6.025462651291489
1745437826108221400,11.914221435546875,0.5899333933413028,0.1733089867264032,-6.351864935189485
1745437826118194700,11.924194580078124,0.16070201860964298,0.2685153275966644,-6.573971562832593
1745437826128166700,11.934166748046875,-0.33979075778126716,0.47846273089051244,-6.8274985801339145
1745437826138139400,11.944139404296875,-0.932640915352106,0.556982140854001,-7.095007361036538
1745437826148111600,11.954111572265624,-1.5384768112242222,0.30242519598305223,-7.247278820431232
1745437826158084600,11.964084716796876,-2.0400398471951484,-0.0911100114673376,-7.175476151502132
1745437826168056600,11.974056640625,-2.3610557618796824,-0.6256418355822563,-6.906718831843137
1745437826178029600,11.984029541015625,-2.5609867980718612,-1.0688251632988452,-6.683817254430055
1745437826188001500,11.99400146484375,-2.768386854970455,-1.357132986602187,-6.421098045891523
1745437826197974500,12.003974609375,-2.801674207544327,-1.4775743064939975,-5.846824578496814
1745437826207946500,12.013946533203125,-2.6717104415476323,-1.4932576133161783,-4.892822895208001
1745437826217918700,12.023918701171874,-2.284975561761856,-1.1859808856487273,-3.7740646572217345
1745437826227891500,12.033891357421876,-2.3599323108077046,0.09025544046461581,-4.699924534131586
1745437826237863400,12.043863525390625,-2.478247724586725,-0.11006547182798385,-3.94012352668941
1745437826247836700,12.053836669921875,-1.8381880720734596,0.023472645524144173,-3.310607480022311
1745437826257808400,12.063808349609374,-1.5208686738193034,0.3731143507122993,-3.4831215169787404
1745437826267781400,12.073781494140626,-1.0736813711583613,0.5533662884443998,-2.9774066220253705
1745437826277753600,12.083753662109375,-0.5322340685665607,0.8218401149868965,-2.451223524060845
1745437826287726600,12.0937265625,-0.3200081989467144,0.9463877011537551,-2.015010619878769
1745437826297698600,12.103698486328126,-0.2523252402961254,0.9996849915772675,-1.3787883535712957
1745437826307671600,12.113671630859375,-0.22072014172077178,1.1463678371846675,-0.7316577397584915
1745437826317643500,12.1236435546875,-0.2557879479706287,1.473940333905816,-0.02706511705815792
1745437826327616500,12.133616455078124,-0.32846506164669986,1.8252602014392614,0.5925251634001731
1745437826337588500,12.14358837890625,-0.39763972015976906,2.1761609667778012,1.1311772823154926
1745437826347560700,12.153560791015625,-0.5282172341406345,2.349148466464877,1.5495610998183489
1745437826357533400,12.163533447265625,-0.6362509078800678,2.5194670392036436,1.8571107992082834
1745437826367505700,12.173505615234374,-0.6872866831123828,2.6042338191241026,2.169611983525753
1745437826377478700,12.183478759765626,-0.753801767027378,2.591198396462202,2.5147113691091536
1745437826387450400,12.193450439453125,-0.6809738467037677,2.4997674824774263,2.732136560937762
1745437826397423600,12.203423583984375,-0.5249906733095646,2.5019451187774537,2.9588422068089244
1745437826407395600,12.2133955078125,-0.5911404310435057,3.1109555530324577,3.670412267306447
1745437826417368600,12.22336865234375,-0.6568190641343593,3.1690956073120233,4.099460102164745
1745437826427340500,12.233340576171875,-0.5125526320189238,3.018182576788962,4.278881434291601
1745437826437313500,12.2433134765625,-0.3673316756576299,3.0428011774778363,4.421654997500777
1745437826447285800,12.25328564453125,-0.30323537985477594,3.209792943881452,4.577051895439625
1745437826457258500,12.263258544921875,-0.2996791121453047,3.326280557711422,4.678633616560697
1745437826467230500,12.27323046875,-0.11978139467835426,3.33540494440943,4.7354853845953935
1745437826477203700,12.28320361328125,0.14178930141218005,3.3517098902612923,4.745708672446012
1745437826487175400,12.293175537109375,0.45377544887959953,3.431774776101112,4.609686921584606
1745437826497147600,12.303147705078125,0.7147252365928143,3.53669499399513,4.527286870795488
1745437826507120600,12.31312060546875,0.8736912982553243,3.6897903369933363,4.534205271881818
1745437826517092400,12.32309228515625,1.0268448011815547,3.8786131191939113,4.500842515984178
1745437826527065600,12.333065673828125,1.184286356690526,4.19174178775996,4.479467719522118
1745437826537037600,12.34303759765625,1.3150982639491557,4.480405292633176,4.444917215144634
1745437826547010600,12.353010498046874,1.4768401470005512,4.800297171723843,4.326153473076224
1745437826556982500,12.362982421875,1.744179416555166,5.0922074034333225,4.10159536062777
1745437826566955500,12.37295556640625,1.9908610980063675,5.3372869103848934,3.754959851518273
1745437826576927700,12.382927734375,2.215321010777354,5.55188009365797,3.369568203034997
1745437826586900500,12.392900390625,2.4101626148760316,5.760728011277318,3.0289719740897416
1745437826596872400,12.40287255859375,2.558057174360752,6.093480540984869,2.7145453746676442
1745437826606845700,12.412845703125,2.3855150803536174,6.415529890370369,2.5534289300382134
1745437826616817400,12.4228173828125,2.219552364736795,6.558801466229558,2.6376322308570144
1745437826626790400,12.432790283203126,2.056883429968357,6.539408198973536,2.860178418961167
1745437826636762600,12.4427626953125,2.0603063901543615,6.407726523143053,2.9264865821272132
1745437826646735600,12.452735595703125,2.167041840776801,6.334813262623548,2.8048633589744565
1745437826656707600,12.46270751953125,2.2339666745364664,6.2583513697117565,2.6005805573135614
1745437826666679600,12.472679443359375,2.157006184452772,5.871947913837433,2.3442384825915097
1745437826676652500,12.482652587890625,1.9309984577178954,5.427897155636549,2.1879665553838015
1745437826686624500,12.49262451171875,1.597642701420188,4.9657256343334915,2.0221604916334153
1745437826696597500,12.502597412109376,1.2927806336790322,4.409017049723864,1.7834177864879368
1745437826706569700,12.51256982421875,1.1144628788799047,3.8733424853146072,1.4618337165266275
1745437826716542500,12.52254248046875,1.0367501091241835,3.4681250233769414,1.0398089121729135
1745437826726514700,12.5325146484375,1.0435668034017085,3.2150574402809142,0.6757330234408379
1745437826736487700,12.54248779296875,1.087608189702034,2.954324729384482,0.34153906275331974
1745437826746459400,12.55245947265625,1.1145581559479236,2.8518521969035264,0.09076923520565032
1745437826756432600,12.5624326171875,0.9395628235697746,2.83723301218152,-0.012281389424204826
1745437826766404600,12.572404541015626,0.6445265687942504,2.9003876797527073,-0.0930447789222002
1745437826776377600,12.582377685546875,0.3060205901265144,2.9922564006328582,-0.1935796213388443
1745437826786349600,12.592349609375,-0.10678396593928337,2.9630735607683656,-0.2432102059483528
1745437826796322600,12.602322509765624,-0.4556196154415607,2.7030565969258546,-0.2582189745098352
1745437826806294500,12.61229443359375,-0.6929577144861221,2.3122481840908526,-0.3236813345015049
1745437826816266500,12.6222666015625,-0.717029494947195,1.7589350871384142,-0.44632513287365433
1745437826826239500,12.632239501953125,-0.631474194997549,1.1149334190011024,-0.6231915198206901
1745437826836211500,12.64221142578125,-0.464282266379334,0.46058863602578637,-0.8614099088311195
1745437826846184400,12.652184326171875,-0.27039631903767586,-0.1968728176653385,-1.0465186389446257
