time,seconds_elapsed,z,y,x
2025-04-11 21:44:49.699436300,0.038436279296875,0.4727303247183561,0.542131193202734,-1.38161027912423
2025-04-11 21:44:49.709407200,0.0484072265625,0.4732224921494722,0.688073449575901,-1.071490875376761
2025-04-11 21:44:49.719378200,0.058378173828125,0.6350017846018076,0.9002806144952773,-0.8846062946971506
2025-04-11 21:44:49.729349000,0.06834912109375,0.834151899549365,1.1528005005806683,-0.6381473160859197
2025-04-11 21:44:49.739319300,0.0783193359375,0.895525528922677,1.2578981208682058,-0.3281183671008795
2025-04-11 21:44:49.749290200,0.088290283203125,0.7502718393355607,1.249216217240691,-0.1061518785808235
2025-04-11 21:44:49.759261200,0.09826123046875,0.4809814357131719,1.1841858189255,-0.0343195451658219
2025-04-11 21:44:49.769232400,0.108232421875,0.1681494120061397,1.071860000950098,-0.2767456149991601
2025-04-11 21:44:49.779202300,0.118202392578125,0.6903940014779567,0.9731856917083264,-0.4763156358592212
2025-04-11 21:44:49.789173200,0.12817333984375,1.7696920434743164,1.0882897422254083,-0.5996086188551039
2025-04-11 21:44:49.799144200,0.138144287109375,2.5971464912116526,1.2869149565160274,-0.6822014157373458
2025-04-11 21:44:49.809115100,0.148115234375,3.3254835621148344,1.451547300311923,-0.6385315661631524
2025-04-11 21:44:49.819085300,0.158085205078125,3.768109255948662,1.5845815597951411,-0.4323853817831725
2025-04-11 21:44:49.829056300,0.16805615234375,3.701467915305495,1.3920318660259243,-0.2051901257641613
2025-04-11 21:44:49.839027200,0.178027099609375,3.1184885788857937,0.9197001852363348,-0.1809551175653934
2025-04-11 21:44:49.848997400,0.187997314453125,2.1342519163310527,0.2900000141739845,-0.1460543384455144
2025-04-11 21:44:49.858968300,0.19796826171875,1.3046581184774635,-0.0931710356503725,-0.1046887472257018
2025-04-11 21:44:49.868938800,0.207938720703125,0.9005302053421735,-0.0010094693034887,-0.2540016490757465
2025-04-11 21:44:49.878910000,0.217909912109375,0.7957330293059348,0.6528130433633923,-0.3600061550751328
2025-04-11 21:44:49.888879900,0.2278798828125,1.029970824247599,1.2641656568303703,-0.388998294673115
2025-04-11 21:44:49.898850600,0.2378505859375,1.4899883823871611,1.3141311724826692,-0.3341225759517401
2025-04-11 21:44:49.908821800,0.24782177734375,1.6431974148929118,1.0231678662344812,0.1897614512901753
2025-04-11 21:44:49.918792700,0.257792724609375,0.823951992574334,0.7594903340578079,0.0787079913381487
2025-04-11 21:44:49.928762600,0.2677626953125,-0.1282902798265218,0.0675631316632032,0.0557053014133125
2025-04-11 21:44:49.938733800,0.27773388671875,-1.1954565700024369,-0.2564431970089674,-0.1604667485490441
2025-04-11 21:44:49.948704800,0.287704833984375,-1.2556330985456703,0.1904784404531121,-0.5367694469738752
2025-04-11 21:44:49.958676000,0.297676025390625,-0.2767372124969959,0.6907137349516153,-0.960055430369824
2025-04-11 21:44:49.968646000,0.30764599609375,1.149360004737973,0.7266831662163138,-1.38538234500885
2025-04-11 21:44:49.978616800,0.317616943359375,2.5322166306614875,0.670240271243453,-1.4599774211354553
2025-04-11 21:44:49.988587800,0.327587890625,3.5838860764980316,0.8384408289149403,-1.191346650465578
2025-04-11 21:44:49.998558700,0.337558837890625,4.300868225172162,1.1071464183866977,-0.9277401376985012
2025-04-11 21:44:50.008528600,0.347528564453125,4.931957804766297,1.4258768524825571,-0.8898201568879187
2025-04-11 21:44:50.018499800,0.357499755859375,5.577605486544966,1.669079459646344,-1.0579464802794158
2025-04-11 21:44:50.028470800,0.367470703125,6.026690731781721,1.7728344331532715,-0.9371022786751388
2025-04-11 21:44:50.038440700,0.377440673828125,6.085945469304919,1.851501434893906,-0.3770573892496526
2025-04-11 21:44:50.048412000,0.387411865234375,5.828791493678093,2.083015065568685,0.143352678271383
2025-04-11 21:44:50.058382800,0.3973828125,5.373998976710438,2.359608777941763,0.2254644136384129
2025-04-11 21:44:50.068353800,0.407353759765625,4.685944816356897,2.7236928499802944,0.0197767136156559
2025-04-11 21:44:50.078324000,0.417323974609375,4.042903517684341,3.083589699462056,-0.2671425779387354
2025-04-11 21:44:50.088294700,0.427294677734375,3.671774787831306,3.27416780089736,-0.5114838337436318
2025-04-11 21:44:50.098265900,0.437265869140625,3.3604432318150996,3.242423586112261,-0.3952691916361451
2025-04-11 21:44:50.108236800,0.44723681640625,3.2265029634028672,2.9527888981193304,0.1823100393056869
2025-04-11 21:44:50.118206700,0.457206787109375,3.42636970218718,2.439834699562192,1.0578355672508477
2025-04-11 21:44:50.128178000,0.467177978515625,3.6017251000493764,2.2688483105644583,1.976343035571277
2025-04-11 21:44:50.138148900,0.47714892578125,3.005166151088476,2.751739671552181,2.730881592440605
2025-04-11 21:44:50.148119800,0.487119873046875,1.3681611610949038,3.4740035600215196,2.8935242237240075
2025-04-11 21:44:50.158090000,0.497090087890625,-1.5070745417445897,4.1190953614830965,2.707417422483861
2025-04-11 21:44:50.168060700,0.507060791015625,-5.571847361409664,3.879123114542663,3.125403765101731
2025-04-11 21:44:50.178031600,0.517031494140625,-9.95381624521017,2.767133640038967,3.5362595251873135
2025-04-11 21:44:50.188002800,0.5270029296875,-12.40713878737688,1.8454571862936016,3.7181530926465984
2025-04-11 21:44:50.197972700,0.53697265625,-11.621978590011596,1.357619893336296,3.8292970073610544
2025-04-11 21:44:50.207943700,0.546943603515625,-9.098612789803743,0.7475609729416668,4.046499788610637
2025-04-11 21:44:50.217915000,0.556914794921875,-7.332016958779096,0.4155093945777043,4.362222273062169
2025-04-11 21:44:50.227885800,0.5668857421875,-7.419781166949868,0.3092034579463303,4.056942856691777
2025-04-11 21:44:50.237855700,0.576855712890625,-8.61972043532431,0.2163078051712363,3.0814018340289593
2025-04-11 21:44:50.247826700,0.58682666015625,-9.34030499240458,0.223633837210387,2.1502575869753957
2025-04-11 21:44:50.257797600,0.596797607421875,-9.24047040721178,0.3545864681139588,1.4687678997039797
2025-04-11 21:44:50.267767800,0.606767822265625,-8.562866329202055,0.376310662535578,1.0740750466510651
2025-04-11 21:44:50.277738800,0.61673876953125,-7.692977345839142,0.0495874761201441,0.7514820919081568
2025-04-11 21:44:50.287709700,0.626709716796875,-6.611953210702538,-0.3151382548227906,0.5876791846737265
2025-04-11 21:44:50.297681000,0.636680908203125,-5.814298857945204,-0.6676334497459232,0.5759355553880333
2025-04-11 21:44:50.307650800,0.64665087890625,-5.482764471855759,-0.8468205347254871,0.4861185063406825
2025-04-11 21:44:50.317621800,0.656621826171875,-5.454407561421394,-0.8553349728316069,0.1598848570078611
2025-04-11 21:44:50.327593000,0.666593017578125,-5.560994543483853,-0.9521024255387484,-0.3995405853450298
2025-04-11 21:44:50.337563600,0.676563720703125,-5.52748682615757,-1.092108423730731,-0.828077548071742
2025-04-11 21:44:50.347533800,0.686533935546875,-5.226293217796087,-1.1890145542562007,-1.0152978635117411
2025-04-11 21:44:50.357504800,0.6965048828125,-4.632124963364005,-1.365316877579689,-1.1460901892870663
2025-04-11 21:44:50.367475700,0.706475830078125,-3.7871155697137113,-1.462151404173672,-1.2106196523427963
2025-04-11 21:44:50.377447000,0.716447021484375,-3.0011516547501085,-1.492068111270666,-1.2450921230480074
2025-04-11 21:44:50.387416800,0.726416748046875,-2.425561844059825,-1.580492683046311,-1.298825759062171
2025-04-11 21:44:50.397387800,0.7363876953125,-2.1115175219535827,-1.5767464822553097,-1.2448425322011112
2025-04-11 21:44:50.407359000,0.74635888671875,-1.9083979188531637,-1.3710614125810563,-1.2045704353064297
2025-04-11 21:44:50.417329700,0.75632958984375,-1.7417530661910772,-1.1794511916190384,-1.301725279895961
2025-04-11 21:44:50.427299800,0.7662998046875,-1.6049340274721382,-1.0919422733835875,-1.4037623435690998
2025-04-11 21:44:50.437270800,0.776270751953125,-1.3206851241707802,-0.9003023879356682,-1.5532172842383385
2025-04-11 21:44:50.447241700,0.78624169921875,-1.0800924072444438,-0.8074250745348632,-1.8269851255357263
2025-04-11 21:44:50.457212700,0.796212646484375,-1.1495938134938477,-0.962746861410886,-1.7709876362428068
2025-04-11 21:44:50.467182800,0.806182861328125,-1.067488361737132,-0.844216343576461,-1.373886553004384
2025-04-11 21:44:50.477153800,0.81615380859375,-0.7878957598090172,-0.7300164022922515,-1.0167511310599744
2025-04-11 21:44:50.487124700,0.826124755859375,-0.4779775777220725,-0.7224059272885323,-0.9312111748099328
2025-04-11 21:44:50.497095000,0.836094970703125,-0.162885792389512,-0.7255415949657559,-0.8606636205084621
2025-04-11 21:44:50.507065900,0.84606591796875,0.2671756034255028,-0.5290833494506776,-0.711230307149142
2025-04-11 21:44:50.517036800,0.856036865234375,0.7307394558697938,-0.2086069484703242,-0.5584254715301096
2025-04-11 21:44:50.527007700,0.8660078125,0.8627128081232309,0.0066227791406214,-0.5566952867366374
2025-04-11 21:44:50.536977700,0.875977783203125,0.8044108412802219,0.1038239470899105,-0.6061318100787699
2025-04-11 21:44:50.546948600,0.885948486328125,0.7524509369403123,0.1921162707880139,-0.5782866485588252
2025-04-11 21:44:50.556919800,0.895919921875,0.8529021927267313,0.3089008217379451,-0.5600407977722585
2025-04-11 21:44:50.566890800,0.905890869140625,0.8557026371002197,0.2651410288579762,-0.5515374655820429
2025-04-11 21:44:50.576861000,0.91586083984375,0.6499111844420433,0.248676070138812,-0.4026397204041481
2025-04-11 21:44:50.586832000,0.925831787109375,0.4013233771085739,0.4101562335141003,-0.1963957016728818
2025-04-11 21:44:50.596802800,0.935802734375,0.2189934640586376,0.5653767519727348,-0.1572900182090699
2025-04-11 21:44:50.606773800,0.945773681640625,0.146811440423131,0.6450073380485176,-0.2265513320922851
2025-04-11 21:44:50.616743700,0.95574365234375,0.0187502931773662,0.5548807846605778,-0.334764746312797
2025-04-11 21:44:50.626714600,0.965714599609375,-0.1107265660852193,0.544649751894921,-0.3837625859767198
2025-04-11 21:44:50.636685800,0.975685791015625,-0.1697404805898666,0.5367038343917578,-0.382724328970164
2025-04-11 21:44:50.646656800,0.98565673828125,-0.1864209817558527,0.4476876533985137,-0.3177288558378816
2025-04-11 21:44:50.656626700,0.995626708984375,-0.113465051138401,0.4308711047627031,-0.1464987212121486
2025-04-11 21:44:50.666598000,1.005597900390625,-0.1195621989697217,0.4424162888668477,-0.0241385620869696
2025-04-11 21:44:50.676568800,1.01556884765625,-0.0568441692501306,0.4567237042259424,0.0305633344374597
2025-04-11 21:44:50.686539800,1.025539794921875,0.1070785649716854,0.5322806841872633,0.1069857721216976
2025-04-11 21:44:50.696510000,1.035510009765625,0.2084709010004997,0.5053975726325065,0.2126636765152215
2025-04-11 21:44:50.706480600,1.045480712890625,0.2829635396659374,0.4710208904519677,0.310424670304358
2025-04-11 21:44:50.716451800,1.055451904296875,0.3113344786256551,0.4193929945454001,0.4444358119957148
2025-04-11 21:44:50.726421800,1.065421875,0.3800175542294979,0.2762449354680255,0.5564005415737628
2025-04-11 21:44:50.736392700,1.075392822265625,0.5117775559931993,0.2147775999292731,0.7113875435374677
2025-04-11 21:44:50.746364000,1.085364013671875,0.8280407231926917,0.2058803365180268,0.7192981705315411
2025-04-11 21:44:50.756334800,1.0953349609375,1.0901970371514558,0.1112949770903214,0.5382362315908074
2025-04-11 21:44:50.766304800,1.1053046875,1.0583628059953452,0.0225162581147626,0.4795332096662372
2025-04-11 21:44:50.776276000,1.11527587890625,0.964013958737254,-0.0564290856432169,0.5104512027602642
2025-04-11 21:44:50.786246700,1.12524658203125,1.0356745888471603,-0.2482335688020102,0.5295756630122661
2025-04-11 21:44:50.796217600,1.135217529296875,1.3794675680071116,-0.4240761473929509,0.50412755269669
2025-04-11 21:44:50.806187800,1.145187744140625,1.774120381310582,-0.5516494745891541,0.4468884658448397
2025-04-11 21:44:50.816158700,1.15515869140625,2.11862823074162,-0.6467096119217575,0.3696192751381546
2025-04-11 21:44:50.826129700,1.165129638671875,2.3496301125019787,-0.7788913462288677,0.2457477616019547
2025-04-11 21:44:50.836100900,1.175100830078125,2.2151105828970667,-0.9501010956536978,0.0777268713463097
2025-04-11 21:44:50.846070800,1.18507080078125,1.8200655554056169,-1.02643899685964,0.0453865172989666
2025-04-11 21:44:50.856041700,1.195041748046875,1.2994623034000397,-1.0152827390078454,0.1411074566278606
2025-04-11 21:44:50.866013400,1.205013427734375,0.8813900360643863,-1.0905664549857377,0.2309532933782786
2025-04-11 21:44:50.875984400,1.214984375,0.6830839707255363,-1.1588055131491273,0.2981803980201483
2025-04-11 21:44:50.885954300,1.224954345703125,0.6795160491108894,-1.1434469813019037,0.4034470912642777
2025-04-11 21:44:50.895925500,1.234925537109375,0.8527829502612352,-1.0619587846606968,0.4471889100961387
2025-04-11 21:44:50.905896400,1.244896484375,0.9190209708005188,-1.0060044038571416,0.4197951456055044
2025-04-11 21:44:50.915867400,1.254867431640625,0.7179173836976289,-1.0455518397390842,0.516283927501738
2025-04-11 21:44:50.925837600,1.264837646484375,0.2569347799181938,-0.987597371159494,0.792532845025137
2025-04-11 21:44:50.935808500,1.27480859375,-0.1748638149529695,-0.8464569621101021,1.0180219547133893
2025-04-11 21:44:50.945779200,1.284779296875,-0.4781698854237795,-0.7649206885434686,1.143689338690415
2025-04-11 21:44:50.955750400,1.29475048828125,-0.6425199051469564,-0.735266066448763,1.17271844929792
2025-04-11 21:44:50.965720300,1.30472021484375,-0.6815875946879386,-0.6214217336691915,1.1881357986602932
2025-04-11 21:44:50.975691300,1.314691162109375,-0.5797387470632791,-0.4542357964003458,1.1099867563791572
2025-04-11 21:44:50.985662500,1.324662353515625,-0.3829670516848564,-0.3438620623407885,0.9336559376135468
2025-04-11 21:44:50.995632400,1.33463232421875,-0.203667884632945,-0.2613189498191699,0.7030432013012469
2025-04-11 21:44:51.005603300,1.344603271484375,-0.1559960328757763,-0.2561489998353645,0.6815216898448765
2025-04-11 21:44:51.015574500,1.354574462890625,-0.145237322974205,-0.2749376157291233,0.8156329309098422
2025-04-11 21:44:51.025545500,1.36454541015625,-0.1042038863182067,-0.3101489951681345,0.9235530612722038
2025-04-11 21:44:51.035515400,1.374515380859375,-0.0225000010997056,-0.3985683793120086,0.9312239612262696
2025-04-11 21:44:51.045486300,1.384486328125,0.0366010071665048,-0.4593541257947683,0.9407334747843444
2025-04-11 21:44:51.055457300,1.394457275390625,0.0850216314643621,-0.4407029090777039,0.8756703432433307
2025-04-11 21:44:51.065428500,1.404428466796875,0.1336596979051828,-0.3822214209493249,0.7233560676202178
2025-04-11 21:44:51.075398400,1.4143984375,0.146156775906682,-0.2985246083479374,0.5698983575830235
2025-04-11 21:44:51.085369300,1.424369384765625,0.0886591111838817,-0.2207462990753352,0.5277926885856316
2025-04-11 21:44:51.095340500,1.434340576171875,-0.0893079304814338,-0.1136483718160539,0.4710015646969899
2025-04-11 21:44:51.105311500,1.4443115234375,-0.3382879520028829,0.0396081530932337,0.3919483401177451
2025-04-11 21:44:51.115281400,1.454281494140625,-0.622992197856307,0.1781811228074133,0.4172354511853307
2025-04-11 21:44:51.125252600,1.464252685546875,-0.9064835607886312,0.3863055484578013,0.4503696590241045
2025-04-11 21:44:51.135223300,1.474223388671875,-1.148493158775568,0.6096795656882226,0.4877491762824356
2025-04-11 21:44:51.145194500,1.484194580078125,-1.3001988009810448,0.7809422143440693,0.451249108739756
2025-04-11 21:44:51.155164400,1.494164306640625,-1.273914605167508,0.9185461198303848,0.3808126866625622
2025-04-11 21:44:51.165135400,1.50413525390625,-1.137116609236598,0.9365494670979678,0.3131569813450798
2025-04-11 21:44:51.175106600,1.5141064453125,-1.004027989217639,0.8976985621128231,0.2162879679596051
2025-04-11 21:44:51.185077500,1.524077392578125,-0.885717251613736,0.8036868378546088,0.1299306309120729
2025-04-11 21:44:51.195047400,1.53404736328125,-0.6464934849530458,0.743086457876116,-0.0263452783510088
2025-04-11 21:44:51.205018600,1.5440185546875,-0.2686807472914457,0.7025332059524952,-0.2014894080827012
2025-04-11 21:44:51.214989300,1.5539892578125,0.2694102306097746,0.6358360434688627,-0.3609172055054456
2025-04-11 21:44:51.224959500,1.56395947265625,0.8845517149657011,0.5249548713438212,-0.5137332931708544
2025-04-11 21:44:51.234930400,1.573930419921875,1.5066180301487444,0.3816247702304273,-0.6756008484285324
2025-04-11 21:44:51.244901400,1.5839013671875,2.0699767202973365,0.2593011437233537,-0.815726454412192
2025-04-11 21:44:51.254872300,1.593872314453125,2.457597150745988,0.1515920988284051,-0.9033459934152662
2025-04-11 21:44:51.264842500,1.603842529296875,2.543510178092122,0.0388944518659263,-0.9972498733848332
2025-04-11 21:44:51.274813400,1.6138134765625,2.376778231668472,-0.0056698623299598,-1.0400476893648505
2025-04-11 21:44:51.284784400,1.623784423828125,2.2081214546620846,0.0659323155909776,-1.0440246301718057
2025-04-11 21:44:51.294755600,1.633755615234375,2.1469489008188245,0.150099741378799,-1.0195958529666065
2025-04-11 21:44:51.304725500,1.6437255859375,2.132095030558109,0.2486628453310579,-0.9327231868080794
2025-04-11 21:44:51.314696200,1.6536962890625,2.202717549791932,0.3719315706685185,-0.8147731722753494
2025-04-11 21:44:51.324667400,1.66366748046875,2.300436165744066,0.4495603884678333,-0.7634013700217008
2025-04-11 21:44:51.334638300,1.673638427734375,2.495836572769284,0.5315078731838614,-0.9783309456422924
2025-04-11 21:44:51.344608300,1.683608154296875,2.5904595607936383,0.5467358374539762,-1.3899746412351726
2025-04-11 21:44:51.354579500,1.693579345703125,1.9395254630446432,0.6860138136323541,-1.4692247035607695
2025-04-11 21:44:51.364550400,1.70355029296875,0.7830085722893476,0.8137309697460383,-1.1252093138217925
2025-04-11 21:44:51.374521600,1.713521484375,-0.0765197605788707,0.9133276545297354,-0.4815718028217554
2025-04-11 21:44:51.384491500,1.723491455078125,-0.3336474327206611,1.1645972482930869,0.0278355169087648
2025-04-11 21:44:51.394462500,1.73346240234375,-0.2335305234551429,1.2248014685608446,-0.065028937010467
2025-04-11 21:44:51.404433400,1.743433349609375,0.2990601034641266,1.0229941901680082,-0.3397871045194566
2025-04-11 21:44:51.414404400,1.753404296875,0.8054659032911061,0.9767276751641184,-0.3124675743088126
2025-04-11 21:44:51.424374300,1.763374267578125,0.8622375918269157,0.9508609010450542,-0.2001651372089982
2025-04-11 21:44:51.434345500,1.773345458984375,0.5380693505913019,0.6219454652823507,-0.2035936503529548
2025-04-11 21:44:51.444316400,1.78331640625,0.0438940867841243,0.2899297254167497,-0.0997616660870611
2025-04-11 21:44:51.454287600,1.79328759765625,-0.4657271679580211,0.1724730838915333,-0.1205997253239154
2025-04-11 21:44:51.464257500,1.803257568359375,-0.6976163539469241,0.1110563094962388,-0.3110938017375767
2025-04-11 21:44:51.474228500,1.813228515625,-0.4635200133025646,0.0928044490939937,-0.5929759759075939
2025-04-11 21:44:51.484199400,1.823199462890625,-0.1303828681915998,0.1157873018071986,-0.7646624759986996
2025-04-11 21:44:51.494169600,1.833169677734375,0.1299614279091358,0.0920739063297398,-0.9933248088955878
2025-04-11 21:44:51.504140300,1.843140380859375,0.2532821026295423,-0.1018086800110526,-1.118470360955596
2025-04-11 21:44:51.514111500,1.853111572265625,0.234559866502881,-0.2662887741209939,-1.0300421359181404
2025-04-11 21:44:51.524082400,1.86308251953125,0.0432762471467256,-0.4202868746452033,-0.8824624876014888
2025-04-11 21:44:51.534052400,1.87305224609375,-0.1272948390483856,-0.6278293356891721,-0.7842804919213056
2025-04-11 21:44:51.544023600,1.8830234375,-0.1938876643747091,-0.811602944741398,-0.7449630654029548
2025-04-11 21:44:51.553994500,1.892994384765625,-0.1163514202296733,-0.9463537988841532,-0.6596238924220204
2025-04-11 21:44:51.563965400,1.90296533203125,-0.0476718517571687,-1.013350382705778,-0.6345695306643844
2025-04-11 21:44:51.573935600,1.912935546875,-0.0633861382395029,-1.013093485335261,-0.6067484806723892
2025-04-11 21:44:51.583906300,1.92290625,-0.2098579714447259,-0.95733068158105,-0.6616396161586046
2025-04-11 21:44:51.593877200,1.932877197265625,-0.4636328260272741,-1.0182213497430086,-0.670372665451467
2025-04-11 21:44:51.603848400,1.942848388671875,-0.7260714640587568,-1.016569344752282,-0.5181064667537808
2025-04-11 21:44:51.613818400,1.952818359375,-0.9409013786971568,-1.0191666677691045,-0.5081400762736797
2025-04-11 21:44:51.623789300,1.962789306640625,-1.118168163138628,-1.1336818124823271,-0.5442918783679604
2025-04-11 21:44:51.633760500,1.972760498046875,-1.3016928389310836,-1.1811262852244078,-0.6136752111956477
2025-04-11 21:44:51.643731500,1.9827314453125,-1.5687503689348696,-1.1896468608103692,-0.6168333829656243
2025-04-11 21:44:51.653701400,1.992701416015625,-1.8585095600903032,-1.1296233308717607,-0.5084568871378898
2025-04-11 21:44:51.663672300,2.00267236328125,-2.145788040345907,-1.055493241908401,-0.3203364079877734
2025-04-11 21:44:51.673643300,2.012643310546875,-2.40770411580801,-1.0394978003971278,-0.1169818270877003
2025-04-11 21:44:51.683614500,2.022614501953125,-2.6118203287303445,-1.1137946242295205,0.0777788207292556
2025-04-11 21:44:51.693584400,2.03258447265625,-2.5616741958141325,-1.1814353511735796,0.3243517811089754
2025-04-11 21:44:51.703555300,2.042555419921875,-2.2255776163756846,-1.2644210928961634,0.562746987991035
2025-04-11 21:44:51.713526500,2.052526611328125,-1.7886743918418884,-1.3404863877058029,0.700731271097064
2025-04-11 21:44:51.723497500,2.06249755859375,-1.3688029661297798,-1.3866940121293068,0.7875932697311043
2025-04-11 21:44:51.733467400,2.07246728515625,-1.0769786591380834,-1.2603558892838655,0.8277265426769852
2025-04-11 21:44:51.743438600,2.0824384765625,-0.9931500368505716,-1.0364400202617048,0.7589788774043321
2025-04-11 21:44:51.753409300,2.0924091796875,-1.0215706601709127,-0.9331020300578324,0.6329501127690077
2025-04-11 21:44:51.763379500,2.10237939453125,-1.175002395516634,-0.9110871821265668,0.55823360221982
2025-04-11 21:44:51.773350400,2.112350341796875,-1.4351058685988187,-0.8217227722175419,0.535374120157957
2025-04-11 21:44:51.783321300,2.1223212890625,-1.6679431490927934,-0.7838024991460144,0.5263564087048173
2025-04-11 21:44:51.793292500,2.13229248046875,-1.6647522440969944,-0.7432648831829428,0.6121157067939639
2025-04-11 21:44:51.803262500,2.142262451171875,-1.3980261380046606,-0.6792188197299838,0.7103668221876025
2025-04-11 21:44:51.813233400,2.1522333984375,-0.9852852948248386,-0.6379866456314921,0.8190370402649044
2025-04-11 21:44:51.823204600,2.16220458984375,-0.5905734448105097,-0.5638750421728939,0.8359133562639355
2025-04-11 21:44:51.833175300,2.17217529296875,-0.3133709528893232,-0.4947937975643202,0.7824561991035938
2025-04-11 21:44:51.843145500,2.1821455078125,-0.1506634396761655,-0.4456059517536312,0.6932382849931716
2025-04-11 21:44:51.853116400,2.192116455078125,-0.256675252199173,-0.4489850362652912,0.4986684835731982
2025-04-11 21:44:51.863087400,2.20208740234375,-0.5819324577152729,-0.534528499646671,0.3856111364528536
2025-04-11 21:44:51.873058600,2.21205859375,-0.9440501981168984,-0.5965169364500791,0.3749897891953587
2025-04-11 21:44:51.883028500,2.222028564453125,-1.2551280716329811,-0.5588121327601373,0.3264303409487009
2025-04-11 21:44:51.892999400,2.23199951171875,-1.3979770381659269,-0.4421417827744037,0.3542012681886554
2025-04-11 21:44:51.902970600,2.241970703125,-1.3250707919090985,-0.2749651247905567,0.4318360042721033
2025-04-11 21:44:51.912941600,2.251941650390625,-1.0386053816020488,-0.1857123220298439,0.5118678646251559
2025-04-11 21:44:51.922911500,2.261911376953125,-0.6511421875417233,-0.1328182055797427,0.4804767010614276
2025-04-11 21:44:51.932882400,2.27188232421875,-0.2064934634476899,-0.0374564549520611,0.2587017895907163
2025-04-11 21:44:51.942853400,2.281853271484375,0.194960262042284,0.1438612305817194,0.0443804089963436
2025-04-11 21:44:51.952824600,2.291824462890625,0.5757014543712139,0.4257980027494952,-0.1040618474990129
2025-04-11 21:44:51.962794500,2.30179443359375,0.9327432066828012,0.5842226144790649,-0.2806476639389991
2025-04-11 21:44:51.972765400,2.311765380859375,1.2486463083982466,0.7090646535478532,-0.3443628880023956
2025-04-11 21:44:51.982736600,2.321736572265625,1.4785048653423785,0.7633711940791458,-0.3178010442912578
2025-04-11 21:44:51.992707600,2.33170751953125,1.637145275247097,0.7980364839427173,-0.1838788960576057
2025-04-11 21:44:52.002677500,2.341677490234375,1.6892080554395914,0.8077060834333301,-0.0691001319721341
2025-04-11 21:44:52.012648700,2.351648681640625,1.592245226290822,0.8082621098808944,0.0245619020655751
2025-04-11 21:44:52.022619400,2.361619384765625,1.508665025806427,0.7926387165524065,0.0259457576394081
2025-04-11 21:44:52.032590300,2.37159033203125,1.4088017990410326,0.8158610405772924,-0.0304041983529925
2025-04-11 21:44:52.042560500,2.381560546875,1.28025199149549,0.7919809832960367,-0.1683183388322591
2025-04-11 21:44:52.052531500,2.391531494140625,1.21037064601779,0.7777109773378819,-0.3388707203269004
2025-04-11 21:44:52.062502400,2.40150244140625,1.112332296591997,0.7509916780427098,-0.5107599033832549
2025-04-11 21:44:52.072473600,2.4114736328125,1.0140601384103298,0.7038982106953859,-0.6688382954910397
2025-04-11 21:44:52.082443500,2.421443603515625,0.88904844186306,0.6769385998383164,-0.7970791832178831
2025-04-11 21:44:52.092414500,2.43141455078125,0.7350713475942611,0.641747240274027,-0.8122919499188661
2025-04-11 21:44:52.102385400,2.441385498046875,0.6156091018676757,0.5933574860384687,-0.7882394586801529
2025-04-11 21:44:52.112355600,2.45135546875,0.6275777720808983,0.5705492957724257,-0.8017673410341143
2025-04-11 21:44:52.122326500,2.461326416015625,0.7653478279143572,0.5982022591885179,-0.8824418832048774
2025-04-11 21:44:52.132297500,2.47129736328125,0.9174649735301732,0.6305339915379882,-1.0376026343002915
2025-04-11 21:44:52.142268400,2.481268310546875,1.0348457368075847,0.5974837356556206,-1.188775923194736
2025-04-11 21:44:52.152238600,2.491238525390625,0.977473744291067,0.4210092341030016,-1.2432331973083317
2025-04-11 21:44:52.162209500,2.50120947265625,0.9666127430588006,0.2258117292387411,-1.2348475001484156
2025-04-11 21:44:52.172180500,2.511180419921875,0.9050970748662948,0.0442168524650856,-1.1341617049537598
2025-04-11 21:44:52.182151700,2.521151611328125,0.7530062327355146,-0.0262613263946026,-0.910601371371001
2025-04-11 21:44:52.192121600,2.53112158203125,0.5968997252225875,-0.0738630903239361,-0.7310042442858219
2025-04-11 21:44:52.202092300,2.54109228515625,0.4647983626753091,-0.1346021298544481,-0.5230901003852486
2025-04-11 21:44:52.212063500,2.5510634765625,0.4440104261904954,-0.1600899145932868,-0.4561120751336217
2025-04-11 21:44:52.222034400,2.561034423828125,0.4355681765377521,-0.1339600873575545,-0.4280560473419725
2025-04-11 21:44:52.232004400,2.57100439453125,0.3723322604238986,-0.0521068567962385,-0.4663903080418706
2025-04-11 21:44:52.241975600,2.5809755859375,0.2941086185365915,0.0048134464300237,-0.5285093489550053
2025-04-11 21:44:52.251946500,2.590946533203125,0.177283735576272,0.0522139704325236,-0.4807371055632829
2025-04-11 21:44:52.261917700,2.600917724609375,0.0423684846520423,0.0224421608320903,-0.2976191108755767
2025-04-11 21:44:52.271887600,2.6108876953125,-0.0196586401939392,-0.0713185569402761,-0.127945850303024
2025-04-11 21:44:52.281858600,2.620858642578125,-0.0277525148004293,-0.1793886171673424,0.0351518312714993
2025-04-11 21:44:52.291829500,2.63082958984375,0.0284814135968685,-0.2753167147072032,0.2096745777018368
2025-04-11 21:44:52.301800400,2.640800537109375,0.0406008904576301,-0.3398386520436033,0.283325943237543
2025-04-11 21:44:52.311770400,2.650770263671875,0.0003173953860998,-0.3780156763551756,0.304097659239918
2025-04-11 21:44:52.321741600,2.660741455078125,-0.1702326480209827,-0.3897816270705312,0.3301689429551362
2025-04-11 21:44:52.331712500,2.67071240234375,-0.3805196585327386,-0.4245620312137529,0.3763970256447791
2025-04-11 21:44:52.341683500,2.680683349609375,-0.5654688141703605,-0.4612217462975531,0.4415402366846799
2025-04-11 21:44:52.351653600,2.690653564453125,-0.6972340766310692,-0.4687906106492504,0.5521883307062089
2025-04-11 21:44:52.361624600,2.70062451171875,-0.7517799058109521,-0.4908478729501366,0.6790037156745791
2025-04-11 21:44:52.371595300,2.71059521484375,-0.7343389416664838,-0.5138345615882426,0.7582092082060873
2025-04-11 21:44:52.381566500,2.72056640625,-0.5690817439705134,-0.6127258380489423,0.7217115152835846
2025-04-11 21:44:52.391536400,2.730536376953125,-0.3565864097595214,-0.7044453231841326,0.6865285582214593
2025-04-11 21:44:52.401507300,2.74050732421875,-0.1910574093848466,-0.8330360472619533,0.6344315834984183
2025-04-11 21:44:52.411478500,2.750478515625,-0.1155097087085247,-0.9087534054167568,0.5909161207683384
2025-04-11 21:44:52.421449500,2.760449462890625,-0.1287438688129186,-0.9525602523088454,0.5156728098660707
2025-04-11 21:44:52.431419600,2.770419677734375,-0.1540256095856428,-0.967494859655574,0.4494127236254513
2025-04-11 21:44:52.441390600,2.780390625,-0.1918535281985998,-0.9060299718022344,0.4934444653145968
2025-04-11 21:44:52.451361500,2.790361572265625,-0.1187684182435274,-0.8061461406402289,0.4645072707742452
2025-04-11 21:44:52.461332500,2.80033251953125,0.0598737462043762,-0.688811335396394,0.3206825910769403
2025-04-11 21:44:52.471302400,2.810302490234375,0.2692652691811323,-0.5886894576948136,0.1472676597580313
2025-04-11 21:44:52.481273300,2.8202734375,0.2928630023896694,-0.5351659207673743,-0.054478609162569
2025-04-11 21:44:52.491244500,2.83024462890625,0.0465752886921167,-0.5014140559542923,-0.1559125923760235
2025-04-11 21:44:52.501215500,2.840215576171875,-0.4593891971081495,-0.4480975128410384,-0.0379020067624747
2025-04-11 21:44:52.511185400,2.850185302734375,-1.0889911684930325,-0.3351747518857941,0.2779638316825032
2025-04-11 21:44:52.521156600,2.860156494140625,-1.6676070490062236,-0.2039595245232805,0.5014141290195286
2025-04-11 21:44:52.531127600,2.87012744140625,-2.021636760020256,-0.0294297820965759,0.622435586886853
2025-04-11 21:44:52.541097500,2.880097412109375,-2.0632699161350727,0.2023438877538777,0.5589833976738154
2025-04-11 21:44:52.551068700,2.890068603515625,-1.9333067346602677,0.4663073789987713,0.3202224262192845
2025-04-11 21:44:52.561039400,2.900039306640625,-1.5861007321864369,0.6684532416962087,-0.032365269292891
2025-04-11 21:44:52.571010600,2.910010498046875,-1.00508889644742,0.7775046411108225,-0.4438704331979155
2025-04-11 21:44:52.580980500,2.91998046875,-0.3836275614202022,0.783000023656711,-0.9037097121611236
2025-04-11 21:44:52.590951400,2.929951416015625,0.1609884343355894,0.8097235607355833,-1.2193570855498312
2025-04-11 21:44:52.600922600,2.939922607421875,0.4679594570547342,0.6696203857794404,-1.489097278766334
2025-04-11 21:44:52.610893600,2.9498935546875,0.5010924958497286,0.4562715034790336,-1.6938196408882735
2025-04-11 21:44:52.620863500,2.959863525390625,0.2789870372503996,0.3838786866370588,-1.7046037774920462
2025-04-11 21:44:52.630834700,2.969834716796875,-0.1581248615980148,0.4111293893951922,-1.536710678334534
2025-04-11 21:44:52.640805400,2.979805419921875,-0.56824880027771,0.3752447868697345,-1.3872539840996263
2025-04-11 21:44:52.650776300,2.9897763671875,-0.7168383562892675,0.3285443374279886,-1.302578097333014
2025-04-11 21:44:52.660746500,2.99974658203125,-0.62307987613976,0.3334947263769805,-1.2872522256463763
2025-04-11 21:44:52.670717400,3.009717529296875,-0.3013385697901248,0.3942558498751372,-1.3473165259867903
2025-04-11 21:44:52.680688400,3.0196884765625,0.159599610325694,0.3875533565618098,-1.502715469752252
2025-04-11 21:44:52.690659600,3.02965966796875,0.5592839880555868,0.2849889445463195,-1.6213538318753242
2025-04-11 21:44:52.700629500,3.03962939453125,0.7645750899761915,0.1574524422291666,-1.6866025491163137
2025-04-11 21:44:52.710600700,3.0496005859375,0.753801767027378,0.0934832251383923,-1.6302292122483253
2025-04-11 21:44:52.720571400,3.0595712890625,0.5930629235386848,0.1123000076807104,-1.4770210565254092
2025-04-11 21:44:52.730542300,3.069542236328125,0.3010363719731569,0.1658608992101624,-1.4147159915208816
2025-04-11 21:44:52.740512500,3.079512451171875,-0.0067675944387912,0.2041390458086505,-1.4481693483114242
2025-04-11 21:44:52.750483500,3.0894833984375,-0.2713333076268434,0.2657628688170574,-1.4072118995010852
2025-04-11 21:44:52.760454400,3.099454345703125,-0.5222112717241049,0.3381202672857791,-1.2922279682323337
2025-04-11 21:44:52.770425600,3.109425537109375,-0.5877408517330884,0.4059602431289851,-1.1919301494419574
2025-04-11 21:44:52.780395500,3.1193955078125,-0.4567582640826702,0.4152020456615835,-1.1756854093447326
2025-04-11 21:44:52.790366500,3.129366455078125,-0.2005938840150833,0.3476931649362668,-1.2035250179067254
2025-04-11 21:44:52.800337700,3.139337646484375,0.1894786157608032,0.2360558954806066,-1.231526831293106
2025-04-11 21:44:52.810308400,3.149308349609375,0.6472603776723146,0.1292371139562688,-1.185517067529261
2025-04-11 21:44:52.820278500,3.159278564453125,0.9926520242005586,0.0883000138142146,-1.0994146550908683
2025-04-11 21:44:52.830249500,3.16924951171875,1.0945324360072612,0.078657156200055,-1.061245960216224
2025-04-11 21:44:52.840220400,3.179220458984375,0.924600816759467,0.082702339937631,-1.038620579171181
2025-04-11 21:44:52.850191600,3.189191650390625,0.4853951605021953,0.0975718918246682,-1.0764090425565838
2025-04-11 21:44:52.860161500,3.19916162109375,0.0354793096601963,0.1868936042362824,-1.1184352896422147
2025-04-11 21:44:52.870132700,3.2091328125,-0.3021884646177292,0.3245136206071823,-1.199857143048942
2025-04-11 21:44:52.880103700,3.219103759765625,-0.5073287598907947,0.4517500805318355,-1.2768088653042913
2025-04-11 21:44:52.890074600,3.22907470703125,-0.5492004009366035,0.4642965141003951,-1.3376649005442858
2025-04-11 21:44:52.900044800,3.239044921875,-0.4427893599629401,0.4301315384417772,-1.3595394632220268
2025-04-11 21:44:52.910015500,3.249015380859375,-0.2221189026027917,0.3863081422736868,-1.3501146322727202
2025-04-11 21:44:52.919986700,3.258986572265625,-0.0171492877215147,0.3223044201251119,-1.2280918884083627
2025-04-11 21:44:52.929957600,3.26895751953125,0.1029383964270353,0.2319108498314395,-1.0788058745652436
2025-04-11 21:44:52.939927600,3.278927490234375,0.1669026268154382,0.1278530574530363,-0.9266798149906098
2025-04-11 21:44:52.949898800,3.288898681640625,0.2386322305083274,0.097033081373386,-0.8118803003780544
2025-04-11 21:44:52.959869700,3.29886962890625,0.1811848346680402,0.0879553924944717,-0.5996431787118315
2025-04-11 21:44:52.969840600,3.308840576171875,0.0030967969715595,0.1403024695210624,-0.3546136483818292
2025-04-11 21:44:52.979810800,3.318810791015625,-0.1777209579497575,0.201039837684296,-0.1863834262244403
2025-04-11 21:44:52.989781500,3.328781494140625,-0.3026759558737277,0.3533742062473669,-0.141251760469377
2025-04-11 21:44:52.999752700,3.338752685546875,-0.2692348740428686,0.481119419411756,-0.1387010530732572
2025-04-11 21:44:53.009723600,3.3487236328125,-0.1528647491127252,0.5545434424649923,-0.1110033371999859
2025-04-11 21:44:53.019693600,3.358693603515625,-0.0360772755533456,0.5157886182654648,-0.0524301522001624
2025-04-11 21:44:53.029664800,3.368664794921875,0.0685486355692148,0.4483995645275339,0.0122664841160178
2025-04-11 21:44:53.039635700,3.3786357421875,0.2832996397525072,0.4014873354986309,-0.0300225055590271
2025-04-11 21:44:53.049606700,3.388606689453125,0.5502613081663846,0.2746702334972098,-0.1834875586524605
2025-04-11 21:44:53.059576800,3.398576904296875,0.6264286020457744,0.0945033254337497,-0.2299943121530115
2025-04-11 21:44:53.069547800,3.4085478515625,0.4112853836745023,-0.0206572410435415,-0.3403982221551239
2025-04-11 21:44:53.079518500,3.4185185546875,0.1707043571859598,0.1533215347032062,-0.5139302039824426
2025-04-11 21:44:53.089488600,3.428488525390625,-0.1506032339215278,0.3678122987814247,-0.7769862432599067
2025-04-11 21:44:53.099459600,3.43845947265625,-0.8277858716487884,0.5624846837930381,-1.1326689821779727
2025-04-11 21:44:53.109430500,3.448430419921875,-1.4711328752696513,0.8145360025186091,-1.009492099842429
2025-04-11 21:44:53.119401700,3.458401611328125,-1.8054378951162096,0.800508134753257,-0.6488818413943052
2025-04-11 21:44:53.129371600,3.46837158203125,-1.7410323507010936,0.4527444983966648,-0.160733582791686
2025-04-11 21:44:53.139342600,3.478342529296875,-1.402038880777359,0.0535103486523032,0.5381085135579109
2025-04-11 21:44:53.149313800,3.488313720703125,-1.0126303978681563,-0.202745326427929,1.0872042850762604
2025-04-11 21:44:53.159284500,3.498284423828125,-0.7412626034498214,-0.4789950842015445,1.361301796719432
2025-04-11 21:44:53.169254700,3.508254638671875,-0.7378367206543683,-0.666071022734791,1.3391276665732263
2025-04-11 21:44:53.179225600,3.5182255859375,-1.0079606524914502,-0.6579197188526391,1.10483901822716
2025-04-11 21:44:53.189196500,3.528196533203125,-1.49827105756402,-0.5195934904411434,0.6929594680517912
2025-04-11 21:44:53.199167700,3.538167724609375,-2.069302182036638,-0.408000809045881,0.288708513058722
2025-04-11 21:44:53.209137700,3.5481376953125,-2.467610010716319,-0.2809485465817153,0.0058687459029257
2025-04-11 21:44:53.219108600,3.558108642578125,-2.597196175572276,-0.1820712621137499,-0.1795641015984118
2025-04-11 21:44:53.229079800,3.568079833984375,-2.4928181017309425,-0.1712994004696607,-0.3212792417958378
2025-04-11 21:44:53.239050800,3.57805078125,-2.1359341703295707,-0.2848546871747821,-0.3560844515867531
2025-04-11 21:44:53.249020700,3.588020751953125,-1.6192998219549657,-0.3814747673004865,-0.200565388572961
2025-04-11 21:44:53.258991600,3.59799169921875,-0.9973200160115956,-0.4559385451976209,-0.1017203989394009
2025-04-11 21:44:53.268962600,3.607962646484375,-0.3441916230887174,-0.5180346436265856,-0.0677114540927112
2025-04-11 21:44:53.278933800,3.617933837890625,0.2669260125786066,-0.5552775288932025,-0.0838696849502623
2025-04-11 21:44:53.288903700,3.627903564453125,0.8447364219278096,-0.5027119868103415,-0.098340693373233
2025-04-11 21:44:53.298874600,3.63787451171875,1.369037359407544,-0.3631106238964945,-0.1058348485209047
2025-04-11 21:44:53.308845800,3.647845703125,1.812436960223317,-0.2660506910488009,-0.1943630268014967
2025-04-11 21:44:53.318816800,3.657816650390625,2.087996945634484,-0.185023024591431,-0.2287957500182092
2025-04-11 21:44:53.328786700,3.66778662109375,2.107033654537797,-0.1490968479465693,-0.0635053807049989
2025-04-11 21:44:53.338757600,3.677757568359375,1.9193769935071467,-0.184437333657965,0.1887342271342873
2025-04-11 21:44:53.348728600,3.687728515625,1.6843927641123533,-0.1835743966856971,0.4158939003832638
2025-04-11 21:44:53.358699500,3.697699462890625,1.4229711941689251,-0.1232122459098696,0.7473289177514613
2025-04-11 21:44:53.368669700,3.707669677734375,1.1244055962234736,-0.0719463517161086,1.0367115306794643
2025-04-11 21:44:53.378640600,3.717640625,0.7507195831030606,0.0650589668225496,1.2263080737315115
2025-04-11 21:44:53.388611600,3.727611572265625,0.4555570715993642,0.2965727801604196,1.3896440941065549
2025-04-11 21:44:53.398582800,3.737582763671875,0.2021037040561437,0.5422624183669686,1.373457806198299
2025-04-11 21:44:53.408552700,3.747552734375,-0.0152712188899517,0.7141371345065534,1.0777408756822346
2025-04-11 21:44:53.418523600,3.757523681640625,-0.0025777415335178,0.7338922208122909,0.7226476270899176
2025-04-11 21:44:53.428494600,3.76749462890625,0.1181026478111743,0.7423384159877896,0.4465636178046465
2025-04-11 21:44:53.438465500,3.777465576171875,0.2809691509783267,0.6995259869605303,0.2242981463380157
2025-04-11 21:44:53.448435500,3.787435546875,0.3939081324160098,0.5543607428418472,0.1090237076900899
2025-04-11 21:44:53.458406700,3.79740673828125,0.5982517243534327,0.4480224017782137,0.1198087210766971
2025-04-11 21:44:53.468377600,3.807377685546875,0.8333294772505759,0.4184942190747708,0.1357391345277428
2025-04-11 21:44:53.478348800,3.817348876953125,0.9101327309459448,0.3514521156109869,0.101332276404649
2025-04-11 21:44:53.488318700,3.827318603515625,0.9573118307501076,0.2872743520697579,0.0538978866651654
2025-04-11 21:44:53.498289700,3.83728955078125,0.9919149420976638,0.230739248768799,0.0045643853060901
2025-04-11 21:44:53.508260600,3.847260498046875,1.0696049154996872,0.1879961951833218,0.0336671456716954
2025-04-11 21:44:53.518231600,3.8572314453125,1.2758213155716658,0.1749327154707163,0.0733240332774817
2025-04-11 21:44:53.528201500,3.867201416015625,1.5040566552281378,0.1707528359701856,0.0990367128133773
2025-04-11 21:44:53.538172700,3.877172607421875,1.7260247511833906,0.1288665453445166,0.0852476953051984
2025-04-11 21:44:53.548143600,3.8871435546875,1.804848112529516,0.0379731723025441,0.0392040292717516
2025-04-11 21:44:53.558114800,3.89711474609375,1.6856804658353328,-0.1056750183166936,0.0979166227422654
2025-04-11 21:44:53.568084700,3.907084716796875,1.3868582627803083,-0.2705804434329271,0.244116214877367
2025-04-11 21:44:53.578055700,3.9170556640625,1.0988532218158245,-0.3815689483899623,0.4650377243891358
2025-04-11 21:44:53.588027000,3.92702685546875,0.8769768957972526,-0.4398033298894763,0.6414240727342665
2025-04-11 21:44:53.597997600,3.93699755859375,0.6149667123109102,-0.5015464501623064,0.8199713985055684
2025-04-11 21:44:53.607967500,3.946967529296875,0.433442270424962,-0.5232390073366463,0.8281852462299167
2025-04-11 21:44:53.617938700,3.956938720703125,0.4364040428400039,-0.5596447111267596,0.6604425153285265
2025-04-11 21:44:53.627909600,3.96690966796875,0.6414180813848972,-0.5425014147546142,0.4033016914442181
2025-04-11 21:44:53.637880600,3.976880615234375,0.8325538167029619,-0.5743095616213977,0.2350517416730523
2025-04-11 21:44:53.647850800,3.986850830078125,0.8196487424224614,-0.6513214896313846,0.1213676409564912
2025-04-11 21:44:53.657821700,3.99682177734375,0.5927671554625034,-0.8189488505247979,0.1332519938871264
2025-04-11 21:44:53.667792600,4.006792724609375,0.2418079379349947,-0.9432045410729945,0.2877018202342092
2025-04-11 21:44:53.677763600,4.016763671875,-0.1741682339042425,-0.9792724642761051,0.5092025909386575
2025-04-11 21:44:53.687733800,4.026733642578125,-0.5235130019724369,-0.9661493633307516,0.5462528031773864
2025-04-11 21:44:53.697704400,4.036704345703125,-0.7401672094285487,-0.958530120498687,0.5330284338146448
2025-04-11 21:44:53.707675600,4.046675537109375,-0.8544687113910913,-0.8592612063646315,0.5262383352831006
2025-04-11 21:44:53.717646600,4.056646484375,-0.961938321506977,-0.7627325308494269,0.4812260581240057
2025-04-11 21:44:53.727616500,4.066616455078125,-1.1011942319840191,-0.7902518214158714,0.4279793288439512
2025-04-11 21:44:53.737587700,4.076587646484375,-1.222850772884488,-0.8481624508537352,0.5066621126756071
2025-04-11 21:44:53.747558700,4.08655859375,-1.3805804976850746,-0.8691385303217917,0.7034510514497756
2025-04-11 21:44:53.757529900,4.09652978515625,-1.5013047261714934,-0.902921338262409,1.0344111447826028
2025-04-11 21:44:53.767499800,4.106499755859375,-1.4940309357762336,-0.8976326572697609,1.339462013094127
2025-04-11 21:44:53.777470500,4.116470458984375,-1.3340437874376774,-0.8941759409446268,1.49504449673295
2025-04-11 21:44:53.787441700,4.126441650390625,-1.0116343725681305,-0.8561979463364928,1.4669275325343012
2025-04-11 21:44:53.797412600,4.13641259765625,-0.6890297273874283,-0.7900307260110974,1.2722408267363905
2025-04-11 21:44:53.807382500,4.146382568359375,-0.5812760396331549,-0.6517568123087286,0.9732748312965036
2025-04-11 21:44:53.817353700,4.156353759765625,-0.8659668414831161,-0.4606543216731399,0.6422644690811634
2025-04-11 21:44:53.827324700,4.16632470703125,-1.5738234344154596,-0.3517072594158351,0.2849111666023731
2025-04-11 21:44:53.837295900,4.1762958984375,-2.3663071065366266,-0.190337351481989,0.1494070098742842
2025-04-11 21:44:53.847265800,4.186265869140625,-3.042648617264628,0.1188450636763125,0.0401174908548593
2025-04-11 21:44:53.857236700,4.19623681640625,-3.4535780271083114,0.3727295161131769,-0.1497849032759666
2025-04-11 21:44:53.867207400,4.20620751953125,-3.504953409558534,0.5101327113956212,-0.3852078163489699
2025-04-11 21:44:53.877178400,4.216178466796875,-3.0485657323539255,0.5590114547245204,-0.6972752854242921
2025-04-11 21:44:53.887148500,4.2261484375,-2.113561010479927,0.5315202942740171,-1.1075891937181352
2025-04-11 21:44:53.897119500,4.236119384765625,-0.9078519265323876,0.4399759099774062,-1.5074597416698932
2025-04-11 21:44:53.907090400,4.24609033203125,0.1540975057780742,0.3179335846297442,-1.717515573774278
2025-04-11 21:44:53.917061600,4.2560615234375,0.9199655581742524,0.3055079644292592,-1.7629823167026042
2025-04-11 21:44:53.927031600,4.266031494140625,1.4520634331405162,0.3022427520882338,-1.7964739596769213
2025-04-11 21:44:53.937002500,4.27600244140625,1.685495172396302,0.3407387792211026,-1.8351129024118185
2025-04-11 21:44:53.946973400,4.285973388671875,1.5953806017071008,0.3474321393799036,-1.7965291969954966
2025-04-11 21:44:53.956944400,4.2959443359375,1.3325532566189766,0.4087215245358646,-1.633610671380162
2025-04-11 21:44:53.966914600,4.30591455078125,0.945845264840126,0.4317738988213241,-1.525744755423069
2025-04-11 21:44:53.976885500,4.315885498046875,0.6005827976495027,0.368965779665485,-1.4423697221219538
2025-04-11 21:44:53.986856400,4.3258564453125,0.4115852434039115,0.3270128900770098,-1.450521172134578
2025-04-11 21:44:53.996827600,4.33582763671875,0.3644681029200554,0.4150942013729363,-1.3857166915297507
2025-04-11 21:44:54.006797600,4.345797607421875,0.4740758941084146,0.5058218624591827,-1.1993290275216102
2025-04-11 21:44:54.016768500,4.3557685546875,0.6196247672498226,0.5861612543914467,-1.0295134358689189
2025-04-11 21:44:54.026739700,4.36573974609375,0.591454903820157,0.6118665543384849,-0.8988076193332671
2025-04-11 21:44:54.036710400,4.37571044921875,0.4066670762240886,0.6242319687843323,-0.7652733013734221
2025-04-11 21:44:54.046680600,4.3856806640625,0.146910224622488,0.6319734497565775,-0.6509779368907213
2025-04-11 21:44:54.056651500,4.395651611328125,-0.1894131493091583,0.7170419891025871,-0.4981868375360965
2025-04-11 21:44:54.066622500,4.40562255859375,-0.5161971260011196,0.7886995504725725,-0.4261866002082825
2025-04-11 21:44:54.076593700,4.41559375,-0.81694708224833,0.7855904054760933,-0.4377537038832902
2025-04-11 21:44:54.086563600,4.4255634765625,-1.0065765046566724,0.8199107543595134,-0.5521829238787294
2025-04-11 21:44:54.096534500,4.435534423828125,-1.026187798577547,0.8632166659921408,-0.7533163215979933
2025-04-11 21:44:54.106505700,4.445505615234375,-0.829037917536497,0.8248354974105954,-0.9818699334234
2025-04-11 21:44:54.116476400,4.455476318359375,-0.4220838410645723,0.7280450291540473,-1.1984478607729077
2025-04-11 21:44:54.126446600,4.465446533203125,0.0090653499871492,0.6483459078866988,-1.3248343528047204
2025-04-11 21:44:54.136417500,4.47541748046875,0.3707107967019081,0.5740156932413578,-1.3901163877934215
2025-04-11 21:44:54.146388500,4.485388427734375,0.6330722778439521,0.4658689145162701,-1.402432264009118
2025-04-11 21:44:54.156359400,4.495359375,0.7585597752094269,0.3405555316086858,-1.3473887144401668
2025-04-11 21:44:54.166329600,4.50532958984375,0.8334025424867868,0.2458174658372998,-1.2797276753604412
2025-04-11 21:44:54.176300500,4.515300537109375,1.0185177023410796,0.2272629144277423,-1.2141086635023357
2025-04-11 21:44:54.186271500,4.525271484375,1.2866793941944836,0.1957533121161162,-1.250016427707672
2025-04-11 21:44:54.196242700,4.53524267578125,1.507603534054756,0.1291769264679402,-1.2721022950485348
2025-04-11 21:44:54.206212600,4.545212646484375,1.6080594660162926,-0.0027561668403446,-1.2060054365456103
2025-04-11 21:44:54.216183300,4.555183349609375,1.57427000913918,-0.1214252894278615,-0.966261445403099
2025-04-11 21:44:54.226154500,4.565154541015625,1.4288450546383855,-0.2929897705744951,-0.7762395165458321
2025-04-11 21:44:54.236125400,4.57512548828125,1.173475039818883,-0.657770665770769,-0.4792366378724574
2025-04-11 21:44:54.246095400,4.585095458984375,0.7409177355349064,-1.169569264551997,0.0013955460116267
2025-04-11 21:44:54.256066600,4.595066650390625,0.1796738455832004,-1.5349838545419274,0.981563936214149
2025-04-11 21:44:54.266037500,4.60503759765625,-0.1255208151131868,-1.791299187387526,2.016849525743723
2025-04-11 21:44:54.276008700,4.6150087890625,0.0410907198011875,-1.835292496762425,2.49147896208167
2025-04-11 21:44:54.285978600,4.624978515625,0.4254162003576755,-1.6911457455039025,2.571005795522034
2025-04-11 21:44:54.295949600,4.634949462890625,0.7275999888002872,-1.1658202872820198,2.2751684534966943
2025-04-11 21:44:54.305920500,4.64492041015625,0.7324024206459522,-0.5752245575744659,1.6572098658934236
2025-04-11 21:44:54.315891500,4.654891357421875,0.3672200319766998,-0.0694083211384713,0.8226420790195464
2025-04-11 21:44:54.325861400,4.664861328125,-0.3555617428869009,0.2285088593682274,0.1284954470098018
2025-04-11 21:44:54.335832600,4.67483251953125,-1.0953238786458968,0.2983267476882785,-0.479384814171493
2025-04-11 21:44:54.345803500,4.684803466796875,-1.693524165073037,0.2497583124175667,-0.8363996784761547
2025-04-11 21:44:54.355774700,4.694774658203125,-1.973023828020692,0.2712183394776657,-0.8741495634168386
2025-04-11 21:44:54.365744600,4.70474462890625,-2.0289637419074773,0.2758255044795573,-0.7338458974525331
2025-04-11 21:44:54.375715600,4.714715576171875,-1.793141308122873,0.2742556978795677,-0.6629337476223707
2025-04-11 21:44:54.385686500,4.7246865234375,-1.3548580274075268,0.3436172572668641,-0.7260641575351358
2025-04-11 21:44:54.395657500,4.734657470703125,-0.9360299732685088,0.3924407632771879,-0.8028414000064135
2025-04-11 21:44:54.405627400,4.74462744140625,-0.5801093339413405,0.3972254402704536,-0.9188377231881022
2025-04-11 21:44:54.415598600,4.7545986328125,-0.3573322596907615,0.3527262272000313,-1.054896006667614
2025-04-11 21:44:54.425569500,4.764569580078125,-0.2094020443707704,0.2947504966367036,-1.168853225237131
2025-04-11 21:44:54.435540500,4.77454052734375,-0.1725035155624151,0.2154377078058198,-1.0899512456968423
2025-04-11 21:44:54.445510700,4.7845107421875,-0.2650105343461036,0.1016222540608607,-0.8825342376634479
2025-04-11 21:44:54.455481600,4.794481689453125,-0.3545896829843521,-0.0732964146181941,-0.5646797096192836
2025-04-11 21:44:54.465452500,4.80445263671875,-0.3662900576502084,-0.2842116034982725,-0.1585053853482008
2025-04-11 21:44:54.475423500,4.814423583984375,-0.2284387532740831,-0.2926491769758984,0.2921203673288225
2025-04-11 21:44:54.485393400,4.824393310546875,-0.000520224481821,-0.1647445902650244,0.550486349093914
2025-04-11 21:44:54.495364400,4.8343642578125,0.1075742395341396,-0.0310778232982382,0.5066355169296264
2025-04-11 21:44:54.505335600,4.84433544921875,-0.0204763863176107,0.0257667843433096,0.1449789642989635
2025-04-11 21:44:54.515306500,4.854306396484375,-0.7039180844396352,-0.0210264579484239,-0.2624760474324226
2025-04-11 21:44:54.525276400,4.8642763671875,-1.906140495315194,0.0712656759755685,-0.4542588484823703
2025-04-11 21:44:54.535247600,4.87424755859375,-3.317054756465554,0.368256023960933,-0.216771404094994
2025-04-11 21:44:54.545218600,4.884218505859375,-4.410716254857182,0.5497182873308658,-0.0214808871850371
2025-04-11 21:44:54.555189500,4.894189453125,-4.84332733515501,0.2993384820140898,-0.1565054437026381
2025-04-11 21:44:54.565159700,4.90415966796875,-4.258333736303449,-0.2711919994600117,-0.418856111189723
2025-04-11 21:44:54.575130400,4.91413037109375,-2.6257360413581132,-0.7710135985910892,-0.5436182168900966
2025-04-11 21:44:54.585101600,4.9241015625,-0.8965086947411298,-1.0746678249124435,-0.4335384242758154
2025-04-11 21:44:54.595072500,4.934072509765625,0.4177233077675104,-1.2269383344590663,-0.3080626173481345
2025-04-11 21:44:54.605042400,4.94404248046875,1.0825246028274298,-1.269167264509946,-0.2893237223476171
2025-04-11 21:44:54.615013600,4.954013671875,0.9629927989959716,-1.1667877440746872,-0.1655836531713604
2025-04-11 21:44:54.624984600,4.963984619140625,0.5948913080096244,-0.8041499983869492,-0.133851421085
2025-04-11 21:44:54.634955500,4.97395556640625,0.2243091061234474,-0.3185540546156465,-0.1447577227637171
2025-04-11 21:44:54.644925700,4.98392578125,-0.0741471862286329,0.0509298671724274,-0.2297236785180866
2025-04-11 21:44:54.654896400,4.993896484375,-0.2185422131597995,0.3210761204391718,-0.2124170082777738
2025-04-11 21:44:54.664867600,5.00386767578125,-0.2688356455922127,0.5001770980378613,-0.0475707294702529
2025-04-11 21:44:54.674838500,5.013838623046875,-0.1417132405012846,0.5957268820509314,0.0580148204647004
2025-04-11 21:44:54.684808400,5.023808349609375,0.08439151686728,0.6624798663750291,0.1931095196090638
2025-04-11 21:44:54.694779600,5.033779541015625,0.3111860100656747,0.7668227227725088,0.394875808404386
2025-04-11 21:44:54.704750600,5.04375048828125,0.5892647002995014,0.7956967889487743,0.4760496783994138
2025-04-11 21:44:54.714721500,5.053721435546875,0.8772621424794197,0.836221618495509,0.3794166657269001
2025-04-11 21:44:54.724691700,5.063691650390625,1.1693524069309231,0.9032102382063864,0.1680588111132383
2025-04-11 21:44:54.734662700,5.07366259765625,1.3867957189381122,0.8666900411911308,-0.113750297820568
2025-04-11 21:44:54.744633300,5.08363330078125,1.4537567930549382,0.7602616837564855,-0.3537238599352538
2025-04-11 21:44:54.754604500,5.0936044921875,1.580920699200034,0.6613544425416737,-0.5137294207133353
2025-04-11 21:44:54.764574500,5.103574462890625,1.7296446952462194,0.6200345170944929,-0.4510219854529946
2025-04-11 21:44:54.774545400,5.11354541015625,1.8711317257761957,0.6146625417325645,-0.2702504077609628
2025-04-11 21:44:54.784516600,5.1235166015625,1.9584955364525316,0.5443395169019699,0.012948621161282
2025-04-11 21:44:54.794487600,5.133487548828125,1.9457722484797235,0.5384054141452536,0.2462998425267636
2025-04-11 21:44:54.804457500,5.14345751953125,2.011117704093456,0.5061122967731208,0.3320356136098504
2025-04-11 21:44:54.814428700,5.1534287109375,2.100806158325076,0.5494874377170578,0.249466928255558
2025-04-11 21:44:54.824399400,5.1633994140625,2.2197236296504737,0.6601783114343881,0.0460568177759647
2025-04-11 21:44:54.834370600,5.17337060546875,2.2090163576751944,0.7636536642823368,-0.2378963905144482
2025-04-11 21:44:54.844340500,5.183340576171875,2.020183054080605,0.7754767154797911,-0.4849477820608764
2025-04-11 21:44:54.854311400,5.1933115234375,1.7781068205982449,0.7284571901515126,-0.5453632339265198
2025-04-11 21:44:54.864282600,5.20328271484375,1.4546090259701012,0.7159618657156824,-0.2671871477328241
2025-04-11 21:44:54.874253600,5.213253662109375,0.9877040464043616,0.6757395262468606,0.183529644228518
2025-04-11 21:44:54.884223500,5.223223388671875,0.5398392828732729,0.5160283453054726,0.6457171668183058
2025-04-11 21:44:54.894194700,5.233194580078125,0.3806751413553953,0.3131957424528896,0.9815653975188732
2025-04-11 21:44:54.904165600,5.24316552734375,0.3941057008147239,0.1581637323036789,1.1548386553447694
2025-04-11 21:44:54.914136300,5.25313623046875,0.4559872797101735,-0.014476460916223,1.2279659239411354
2025-04-11 21:44:54.924106500,5.2631064453125,0.5397112725794315,-0.1293952545268926,1.0891406599663198
2025-04-11 21:44:54.934077400,5.273077392578125,0.6003332068026066,-0.2037330588236451,0.7750609742857515
2025-04-11 21:44:54.944048400,5.28304833984375,0.6064332772433757,-0.2251452281540259,0.484381672610715
2025-04-11 21:44:54.954019600,5.29301953125,0.5638420897513627,-0.3930653614489361,0.4007094829939305
2025-04-11 21:44:54.963989500,5.302989501953125,0.3146101392954588,-0.6520872863721102,0.6126866385497153
2025-04-11 21:44:54.973960400,5.31296044921875,-0.0508078116953372,-0.8372058072272688,0.9635256637636572
2025-04-11 21:44:54.983931600,5.322931640625,-0.3939198228538036,-0.9802354640893638,1.316516898575425
2025-04-11 21:44:54.993902300,5.33290234375,-0.6165495975881815,-1.0656780243795363,1.4717925082221626
2025-04-11 21:44:55.003872500,5.34287255859375,-0.7421797182947397,-1.176395676505938,1.4390817864924668
2025-04-11 21:44:55.013843500,5.352843505859375,-0.7702852843165398,-1.1697862683035432,1.276950904123485
2025-04-11 21:44:55.023814400,5.362814453125,-0.77228025752604,-1.1357676788456736,1.012001963771507
2025-04-11 21:44:55.033785600,5.37278564453125,-0.7584072149962187,-1.0974901898343117,0.7345089644711464
2025-04-11 21:44:55.043755500,5.382755615234375,-0.8388157997071742,-1.0370096368432045,0.4761489009901881
2025-04-11 21:44:55.053726500,5.3927265625,-1.101780507439375,-0.9894937063001096,0.3688428839381784
2025-04-11 21:44:55.063697700,5.40269775390625,-1.4028133722811935,-0.9079249187033624,0.4294919253639876
2025-04-11 21:44:55.073668400,5.41266845703125,-1.610072559404373,-0.9506457969896496,0.5177846874535084
2025-04-11 21:44:55.083638500,5.422638427734375,-1.718017385816574,-1.1496597914021462,0.5512397247444838
2025-04-11 21:44:55.093609500,5.432609375,-1.784776799881458,-1.2514618042103949,0.6802293119467795
2025-04-11 21:44:55.103580400,5.442580322265625,-1.6584908456146716,-1.2487133822850882,0.8347968463893979
2025-04-11 21:44:55.113551400,5.45255126953125,-1.4256500579893587,-1.2029930299218743,0.8919633063964545
2025-04-11 21:44:55.123521500,5.462521484375,-1.1102782866716383,-1.1030695974018423,0.8196744613856076
2025-04-11 21:44:55.133492500,5.472492431640625,-0.798701815983653,-0.9097249538626522,0.661974912527576
2025-04-11 21:44:55.143463700,5.482463623046875,-0.6492512592285871,-0.7842966393385082,0.4685097113486379
2025-04-11 21:44:55.153434600,5.4924345703125,-0.7861322572678328,-0.7815802930518985,0.3058457450162619
2025-04-11 21:44:55.163404500,5.502404541015625,-1.2804630038976668,-0.6193251267161219,0.162696553427726
2025-04-11 21:44:55.173375500,5.51237548828125,-1.9418015912830828,-0.3842233353562653,0.068026438326016
2025-04-11 21:44:55.183346400,5.522346435546875,-2.472906363558769,-0.1014393535083159,-0.0509538691025227
2025-04-11 21:44:55.193317400,5.5323173828125,-2.8305858292520045,0.1823386808782816,-0.1220090075999498
2025-04-11 21:44:55.203287600,5.54228759765625,-2.8992420168489215,0.4990920792801305,-0.2394372632808983
2025-04-11 21:44:55.213258500,5.552258544921875,-2.5072271508336064,0.7653979506663978,-0.4156261893577873
2025-04-11 21:44:55.223229400,5.5622294921875,-1.6708330253154038,0.887871872364357,-0.5564258221454919
2025-04-11 21:44:55.233200600,5.57220068359375,-0.6069827278196811,0.865208497396484,-0.7225565147403628
2025-04-11 21:44:55.243170600,5.582170654296875,0.312349208626151,0.7337491590797901,-0.8732544412080198
2025-04-11 21:44:55.253141500,5.5921416015625,1.0988713419944047,0.6337758230034262,-0.9501556753851472
2025-04-11 21:44:55.263112400,5.602112548828125,1.690965712761879,0.6028772287296131,-1.037035209675878
2025-04-11 21:44:55.273083400,5.61208349609375,2.1314713457018137,0.5609512636806816,-1.078268772013858
2025-04-11 21:44:55.283053300,5.62205322265625,2.4094354696452616,0.5300852565022185,-1.0874537297926845
2025-04-11 21:44:55.293024500,5.6320244140625,2.4396359621196986,0.4830430444180965,-1.1216254639856518
2025-04-11 21:44:55.302995500,5.641995361328125,2.315880987635255,0.4873583138013258,-1.132354071009904
2025-04-11 21:44:55.312966700,5.651966552734375,2.0695009194791316,0.467920915142633,-1.0834440557599068
2025-04-11 21:44:55.322936600,5.6619365234375,1.931360861289501,0.4371325032450258,-1.0588593573406335
2025-04-11 21:44:55.332907500,5.671907470703125,1.8628379446834324,0.4313568424530327,-1.0227703182842582
2025-04-11 21:44:55.342878500,5.68187841796875,1.7655273250102996,0.5144751245141029,-0.9776420865952968
2025-04-11 21:44:55.352849400,5.691849365234375,1.417264506959915,0.6309899916771798,-1.017823217270896
2025-04-11 21:44:55.362819300,5.7018193359375,0.8888333378076553,0.7075242922380566,-1.1000069218955932
2025-04-11 21:44:55.372790500,5.71179052734375,0.208157012745738,0.711683969200775,-1.0404978442851454
2025-04-11 21:44:55.382761500,5.721761474609375,-0.505105238622427,0.8076517228975891,-0.8045805718239396
2025-04-11 21:44:55.392732400,5.731732421875,-1.0360247174590826,0.915103724291548,-0.601467325399071
2025-04-11 21:44:55.402702600,5.74170263671875,-1.4280349072992802,0.9988469333179294,-0.5902297459393739
2025-04-11 21:44:55.412673500,5.751673583984375,-1.5566016659796238,1.0850441113676874,-0.525506148551032
2025-04-11 21:44:55.422644500,5.76164453125,-1.3546791637092828,1.2191569598678498,-0.5325065288323909
2025-04-11 21:44:55.432615400,5.771615478515625,-1.161359654611349,1.3196718554750084,-0.5634643424801528
2025-04-11 21:44:55.442585300,5.78158544921875,-1.0267027623623608,1.3436452901281415,-0.5932950517941266
2025-04-11 21:44:55.452556500,5.791556640625,-0.908468597126007,1.342087247031182,-0.5145766851924359
2025-04-11 21:44:55.462527500,5.801527587890625,-0.6809627407878637,1.3178786884479223,-0.3129475398454815
2025-04-11 21:44:55.472498400,5.81149853515625,-0.3732470371812582,1.1912442130044103,-0.1001171284612268
2025-04-11 21:44:55.482469600,5.8214697265625,0.0079798928380012,1.0422989754229783,0.0482525011893361
2025-04-11 21:44:55.492439600,5.831439453125,0.39642566819489,0.8996217121951281,0.0943023777678608
2025-04-11 21:44:55.502410500,5.841410400390625,0.8263298276215791,0.8293120583027601,0.0800591136861592
2025-04-11 21:44:55.512381400,5.85138134765625,1.185595685723424,0.815093928662315,0.0397422278016805
2025-04-11 21:44:55.522352400,5.861352294921875,1.4604109902471305,0.7586063177648932,-0.0762961809560656
2025-04-11 21:44:55.532322300,5.871322265625,1.608091614720225,0.6512484974604099,-0.2299526649683713
2025-04-11 21:44:55.542293500,5.88129345703125,1.6851427056968211,0.5687280351620168,-0.3344285000957548
2025-04-11 21:44:55.552264400,5.891264404296875,1.6868670452713963,0.5069100230220704,-0.4081994734231382
2025-04-11 21:44:55.562235600,5.901235595703125,1.619056076326966,0.5164871584562585,-0.5356310905937105
2025-04-11 21:44:55.572205600,5.91120556640625,1.5575456688314675,0.4956378837056457,-0.6568443447060882
2025-04-11 21:44:55.582176500,5.921176513671875,1.3784697891414164,0.4221319910552352,-0.7213372020784765
2025-04-11 21:44:55.592147700,5.931147705078125,1.124848079293966,0.3784042007487267,-0.7270395784385502
2025-04-11 21:44:55.602118400,5.941118408203125,0.783724027082324,0.2867871896073222,-0.6607182635299861
2025-04-11 21:44:55.612088300,5.95108837890625,0.4122872541934251,0.1746554694319143,-0.4715818853355943
2025-04-11 21:44:55.622059500,5.9610595703125,0.1633697765141725,0.113076892071031,-0.3235475520540029
2025-04-11 21:44:55.632030500,5.971030517578125,0.107245153710246,0.0189308191097341,-0.1901017160952091
2025-04-11 21:44:55.642001400,5.98100146484375,0.1691232254743576,-0.0627167693442665,-0.1433370423108339
2025-04-11 21:44:55.651971600,5.9909716796875,0.2826724477648735,-0.1154660704961977,-0.1033400360304862
2025-04-11 21:44:55.661942500,6.000942626953125,0.3848509657353162,-0.1604406277270987,-0.0495848457716405
2025-04-11 21:44:55.671913500,6.01091357421875,0.3934299935102462,-0.1788319513989612,-0.0241497410681098
2025-04-11 21:44:55.681884400,6.020884521484375,0.3618757483392953,-0.1989321430816315,0.0257255390174686
2025-04-11 21:44:55.691854600,6.0308544921875,0.2421650808095931,-0.1893820052522234,0.0758466836228966
2025-04-11 21:44:55.701825300,6.0408251953125,0.05684533829391,-0.17572245934261,0.0653423138085752
2025-04-11 21:44:55.711796500,6.05079638671875,-0.1112315929979085,-0.1464545532768592,0.0812154441144317
2025-04-11 21:44:55.721767400,6.060767333984375,-0.2064712516158819,-0.135956156545598,0.1134857286002486
2025-04-11 21:44:55.731737600,6.070737548828125,-0.2120557737499475,-0.1122851754377596,0.1035494409974664
2025-04-11 21:44:55.741708500,6.08070849609375,-0.0643804099738597,-0.0864260549021884,-0.0460594481244683
2025-04-11 21:44:55.751679500,6.090679443359375,0.1453945593625307,-0.1016555170096456,-0.2158123498044908
2025-04-11 21:44:55.761650700,6.100650634765625,0.377292513179779,-0.1086402247978374,-0.3367087930526584
2025-04-11 21:44:55.771620600,6.11062060546875,0.5756599533170461,-0.0854207594503182,-0.4723537464909255
2025-04-11 21:44:55.781591300,6.12059130859375,0.6432768609941005,-0.0594506345546338,-0.5516734399866312
2025-04-11 21:44:55.791562500,6.1305625,0.5903086563944816,0.0333229353439062,-0.6592914455972612
2025-04-11 21:44:55.801533400,6.140533447265625,0.4902829325437545,0.188699813408032,-0.724100237051025
2025-04-11 21:44:55.811503400,6.15050341796875,0.2395224573463201,0.3633875776743516,-0.7024723426107317
2025-04-11 21:44:55.821474600,6.160474609375,-0.2076689369678497,0.4253812021095305,-0.6464068295828997
2025-04-11 21:44:55.831445500,6.170445556640625,-0.7950234197318553,0.3735883979648352,-0.3738453684005886
2025-04-11 21:44:55.841416700,6.180416748046875,-1.3990128109544515,0.2591165992029942,0.0703083387181162
2025-04-11 21:44:55.851386600,6.19038671875,-1.9130641570985316,0.0607831709331832,0.5730951443303376
2025-04-11 21:44:55.861357600,6.200357666015625,-2.3438491910129784,-0.2228279641875997,0.900027516517043
2025-04-11 21:44:55.871328000,6.210327880859375,-2.72270296216011,-0.4484025967348367,1.0443328193381427
2025-04-11 21:44:55.881298700,6.220298583984375,-3.159123371613026,-0.6011382395751774,0.8383372954752296
2025-04-11 21:44:55.891268600,6.2302685546875,-3.484403958004713,-0.7077956565253436,0.5292294799230992
2025-04-11 21:44:55.901239800,6.24023974609375,-3.67879898737967,-0.8270335919767617,0.2723717838291078
2025-04-11 21:44:55.911210800,6.250210693359375,-3.6930432013094423,-0.8988184329882264,0.1784497106157243
2025-04-11 21:44:55.921181700,6.260181640625,-3.488469892269373,-1.0256268036939202,0.1094475591253489
2025-04-11 21:44:55.931152000,6.27015185546875,-2.9514877523928877,-1.2583553631164133,0.1047376278687268
2025-04-11 21:44:55.941122800,6.280122802734375,-2.1311931132823227,-1.3917067257247864,0.117729284454137
2025-04-11 21:44:55.951093800,6.29009375,-1.3241519234985113,-1.3197159868776798,0.2763466057442128
2025-04-11 21:44:55.961064700,6.300064697265625,-0.5759972224473953,-1.0772148059815168,0.4824972471036016
2025-04-11 21:44:55.971035000,6.310034912109375,0.0012649053692817,-0.7674523259129374,0.6776303084295242
2025-04-11 21:44:55.981005600,6.320005615234375,0.4808581015944481,-0.4884986794754862,0.7816443712640553
2025-04-11 21:44:55.990976800,6.329976806640625,0.9211766875296832,-0.2922656210184097,0.7380800278909504
2025-04-11 21:44:56.000947700,6.33994775390625,1.3594149600595236,-0.1592506872901692,0.5551167853735387
2025-04-11 21:44:56.010918000,6.34991796875,1.7355664865106344,-0.0817301156383007,0.2997773848880082
2025-04-11 21:44:56.020888800,6.359888916015625,1.9404782337248323,-0.0646019803026691,0.0990803327593952
2025-04-11 21:44:56.030859800,6.36985986328125,1.8743816674828528,0.0553568715681321,-0.0558116113319993
2025-04-11 21:44:56.040831000,6.3798310546875,1.428773742967844,0.2282501536331139,-0.1033229387652128
2025-04-11 21:44:56.050801000,6.38980078125,0.7447656431347132,0.402996315289475,-0.134255179580301
2025-04-11 21:44:56.060771600,6.399771484375,0.2115770503222942,0.6236181477349251,-0.1608456648640334
2025-04-11 21:44:56.070742800,6.40974267578125,-0.1015530795484781,0.8642420635171234,-0.2433381431769579
2025-04-11 21:44:56.080713700,6.419713623046875,-0.2280336796045303,1.0532901789061724,-0.3529129088785499
2025-04-11 21:44:56.090685000,6.429684814453125,-0.2853407901912927,1.1793230351947248,-0.4474051101300865
2025-04-11 21:44:56.100654800,6.43965478515625,-0.2398755085676908,1.2024413143232464,-0.5419041064485908
2025-04-11 21:44:56.110625800,6.449625732421875,-0.0065887307405471,1.1707336321562527,-0.5639556331284344
2025-04-11 21:44:56.120597000,6.459596923828125,0.3478659276872873,1.139247702981159,-0.572012902051583
2025-04-11 21:44:56.130567700,6.469567626953125,0.7161497895032167,1.022013289371878,-0.6142397862758487
2025-04-11 21:44:56.140537900,6.479537841796875,1.0764099193394183,0.8490593996934592,-0.6401941656131297
2025-04-11 21:44:56.150508800,6.4895087890625,1.4075263722777365,0.7735576570507139,-0.6798081639252602
2025-04-11 21:44:56.160479700,6.499479736328125,1.6134224543541669,0.7341016988445073,-0.6800771901249885
2025-04-11 21:44:56.170450700,6.50945068359375,1.7497984254807233,0.7145080867107957,-0.6815207399968057
2025-04-11 21:44:56.180420900,6.5194208984375,1.8428449579685928,0.6127984648937359,-0.7078869150053709
2025-04-11 21:44:56.190391800,6.529391845703125,1.896196024405956,0.4650469306088984,-0.6957086206294596
2025-04-11 21:44:56.200362800,6.53936279296875,1.902192049950361,0.3416206766221672,-0.6380038890272378
2025-04-11 21:44:56.210334000,6.549333984375,1.8979279627650976,0.2740505124299787,-0.6366998937565833
2025-04-11 21:44:56.220304000,6.559303955078125,1.8195155203074216,0.1915718982456251,-0.6068188424948603
2025-04-11 21:44:56.230274600,6.569274658203125,1.7708675169944763,0.1867701605197042,-0.5748647112861275
2025-04-11 21:44:56.240245800,6.579245849609375,1.7283558244794606,0.1500755659187678,-0.5732808030955493
2025-04-11 21:44:56.250216700,6.589216796875,1.5935346815794706,0.0326951314349193,-0.6279758314877748
2025-04-11 21:44:56.260186600,6.5991865234375,1.3809563452601432,-0.074576211595931,-0.6309639073878527
2025-04-11 21:44:56.270157800,6.60915771484375,1.1423860740721226,-0.1370273751068394,-0.6269384512640536
2025-04-11 21:44:56.280128800,6.619128662109375,0.8957289425402879,-0.1735833101557567,-0.6759132023133337
2025-04-11 21:44:56.290100000,6.629099853515625,0.6797311531662941,-0.2312039802037179,-0.677406655741483
2025-04-11 21:44:56.300070000,6.63906982421875,0.4689326860010623,-0.2412362755268812,-0.6675066815610975
2025-04-11 21:44:56.310040800,6.649040771484375,0.1489963832467794,-0.2813843441830947,-0.7160317891467363
2025-04-11 21:44:56.320011800,6.65901171875,-0.04643851056993,-0.3092218338532373,-0.7565132179431617
2025-04-11 21:44:56.329982700,6.668982666015625,-0.2074830590069294,-0.2962714591262862,-0.8325248098041862
2025-04-11 21:44:56.339952600,6.67895263671875,-0.3496791145890951,-0.2904053070392459,-0.8719189548205584
2025-04-11 21:44:56.349923800,6.688923828125,-0.4275801003932952,-0.322508600927703,-0.872538840284571
2025-04-11 21:44:56.359894800,6.698894775390625,-0.4124304620563984,-0.4025339584747329,-0.864087019085884
2025-04-11 21:44:56.369866000,6.708865966796875,-0.3537602464228868,-0.4415552515907213,-0.7711929006807505
2025-04-11 21:44:56.379836000,6.7188359375,-0.4936532857596874,-0.4908020245144143,-0.6716146283365786
2025-04-11 21:44:56.389806800,6.728806884765625,-0.7215776597708463,-0.5642184487830847,-0.604770860456489
2025-04-11 21:44:56.399777800,6.73877783203125,-0.8321113336324691,-0.5553329488748684,-0.5779071477219462
2025-04-11 21:44:56.409748700,6.748748779296875,-0.9010971915751697,-0.478902729742974,-0.5197014808602631
2025-04-11 21:44:56.419719700,6.7587197265625,-0.8779770127505063,-0.3592152969583869,-0.5085303177002817
2025-04-11 21:44:56.429689900,6.76868994140625,-0.6904863559365272,-0.1244129269365221,-0.5600972771998495
2025-04-11 21:44:56.439660800,6.778660888671875,-0.3236246358782053,0.0561939617130905,-0.753940737106651
2025-04-11 21:44:56.449631700,6.7886318359375,0.1684235527724027,0.0564594807814806,-1.1071369199059904
2025-04-11 21:44:56.459603000,6.79860302734375,0.4151993422478437,0.0933303178653121,-1.4143556337758898
2025-04-11 21:44:56.469572900,6.80857275390625,0.0071603931486606,0.3753346571102738,-1.6553540088936685
2025-04-11 21:44:56.479543800,6.818543701171875,-0.8864239385783672,0.9120807232085616,-1.8121470373660324
2025-04-11 21:44:56.489514800,6.8285146484375,-1.8568471798360344,1.4222168686702847,-1.6965321147173642
2025-04-11 21:44:56.499485700,6.838485595703125,-2.6198978367239234,1.6714311373390256,-1.4712424731239675
2025-04-11 21:44:56.509455600,6.84845556640625,-3.018944501072168,1.660739209063351,-1.248479719659686
2025-04-11 21:44:56.519426800,6.8584267578125,-3.095195966103673,1.4807595124013722,-0.9847779298245908
2025-04-11 21:44:56.529397800,6.868397705078125,-3.0139351484775543,1.4054787920981644,-0.79003993223086
2025-04-11 21:44:56.539369000,6.878368896484375,-2.821259197980165,1.3983978939265012,-0.5747675345219672
2025-04-11 21:44:56.549339000,6.8883388671875,-2.608013337662816,1.4952455722630025,-0.3841160025242716
2025-04-11 21:44:56.559309800,6.898309814453125,-2.474187635540962,1.5910618617251515,-0.2075312820628285
2025-04-11 21:44:56.569280800,6.90828076171875,-2.2015262941807507,1.5433425175644455,-0.0288283273383975
2025-04-11 21:44:56.579251700,6.918251708984375,-1.7025211259990929,1.3188134850800035,0.1483874575681984
2025-04-11 21:44:56.589221600,6.9282216796875,-1.147280860376358,1.0328937990222125,0.2502747375071049
2025-04-11 21:44:56.599192800,6.93819287109375,-0.6469149252355099,0.7174985006984322,0.3588086889188736
2025-04-11 21:44:56.609163800,6.948163818359375,-0.2792524101883172,0.3840748667962849,0.5297098838511854
2025-04-11 21:44:56.619135000,6.958135009765625,5.55295795202e-05,0.1245252282045781,0.8020944540966302
2025-04-11 21:44:56.629105000,6.96810498046875,0.411802685546875,-0.0677475483193993,1.0773312719680368
2025-04-11 21:44:56.639075800,6.978075927734375,1.02327278791368,-0.1759501854175701,1.1418943450324237
2025-04-11 21:44:56.649046800,6.988046875,1.8350550347447392,-0.1648209617031738,0.9555403640981764
2025-04-11 21:44:56.659017700,6.998017822265625,2.58454361474812,-0.0286314530594274,0.636082200249657
2025-04-11 21:44:56.668987600,7.007987548828125,2.9351205549597736,0.1120636781741864,0.2274564642384648
2025-04-11 21:44:56.678958800,7.017958740234375,3.140829005509614,0.2979909398626535,-0.1355872319016605
2025-04-11 21:44:56.688929800,7.0279296875,3.257397283360362,0.5219354869900271,-0.4156473052110522
2025-04-11 21:44:56.698900700,7.037900634765625,3.2462130415230988,0.6567391307659447,-0.644805385735631
2025-04-11 21:44:56.708872000,7.047871826171875,3.1249960610836744,0.7193606413085013,-0.8037414175860583
2025-04-11 21:44:56.718841900,7.057841796875,2.9036598332911727,0.7786400748815387,-0.9078641284268348
2025-04-11 21:44:56.728812800,7.067812744140625,2.4327146384239193,0.7720752364732325,-0.9697232762947678
2025-04-11 21:44:56.738783700,7.07778369140625,1.9205109659731388,0.6769872612856328,-0.9388779831107704
2025-04-11 21:44:56.748754700,7.087754638671875,1.2898656230151653,0.5964850800070911,-0.7753078617189079
2025-04-11 21:44:56.758724600,7.097724609375,0.61274786721766,0.578150381893292,-0.6678165512278675
2025-04-11 21:44:56.768695800,7.10769580078125,-0.052658407998085,0.6278633110240102,-0.6911508842598646
2025-04-11 21:44:56.778666800,7.117666748046875,-0.7429395967513323,0.8745991338152438,-0.7659960626900195
2025-04-11 21:44:56.788638000,7.127637939453125,-1.5355033483713865,1.0837528294481336,-0.7634444785110652
2025-04-11 21:44:56.798608000,7.13760791015625,-2.1585458151102066,1.2018893795289098,-0.6506529427200556
2025-04-11 21:44:56.808578800,7.147578857421875,-2.341585922256112,1.1765654070496558,-0.5246121953859925
2025-04-11 21:44:56.818549800,7.1575498046875,-2.1958283748000857,1.0091393408820033,-0.4191949877552688
2025-04-11 21:44:56.828520700,7.167520751953125,-1.6725936052471395,0.6926109468750655,-0.2881483949579298
2025-04-11 21:44:56.838490600,7.17749072265625,-0.954163011330366,0.3655338689880445,-0.168169285750389
2025-04-11 21:44:56.848461800,7.1874619140625,-0.3608130875438451,0.1118743844134733,-0.0886240398705005
2025-04-11 21:44:56.858432800,7.197432861328125,-0.0156008892357349,-0.0692817721493542,-0.0896186038658022
2025-04-11 21:44:56.868403700,7.20740380859375,0.1498608911216259,-0.1616936599954962,-0.1341474814221263
2025-04-11 21:44:56.878374700,7.217374755859375,0.2468044310480356,-0.2149718438597395,-0.3009128917239606
2025-04-11 21:44:56.888345600,7.227345703125,0.3532593111634254,-0.245169815583527,-0.5267182277545333
2025-04-11 21:44:56.898316300,7.23731640625,0.506015339204669,-0.2296301550157368,-0.7662873007215559
2025-04-11 21:44:56.908287500,7.24728759765625,0.675991966637969,-0.207568180007115,-0.9373001393347978
2025-04-11 21:44:56.918257400,7.25725732421875,0.7875497228503227,-0.202009194173105,-1.0589416287966071
2025-04-11 21:44:56.928228400,7.267228271484375,0.8020540490210056,-0.2584665925953537,-1.0185399141728877
2025-04-11 21:44:56.938199600,7.277199462890625,0.7446586756289005,-0.3611067001955583,-0.8378247428432106
2025-04-11 21:44:56.948170500,7.28717041015625,0.619724720492959,-0.4612606900684535,-0.6598709990508854
2025-04-11 21:44:56.958140700,7.297140625,0.5023948106199503,-0.5542980894017965,-0.5109659473493695
2025-04-11 21:44:56.968111600,7.307111572265625,0.4651256949335336,-0.6362349796585738,-0.4286015523955225
2025-04-11 21:44:56.978082300,7.317082275390625,0.5153332026481628,-0.6909294235289096,-0.4077240379311144
2025-04-11 21:44:56.988053500,7.327053466796875,0.4874608608603477,-0.6938073170527815,-0.4035004288867115
2025-04-11 21:44:56.998023400,7.3370234375,0.4254769906342029,-0.6865770004730671,-0.4642584105797112
2025-04-11 21:44:57.007994400,7.346994384765625,0.3327005072593689,-0.6684576256103814,-0.6212322024464607
2025-04-11 21:44:57.017965600,7.356965576171875,0.2211976961046457,-0.6120251059010624,-0.7953798319540918
2025-04-11 21:44:57.027936500,7.3669365234375,0.0566933626025915,-0.5400484686445445,-0.9473369647026062
2025-04-11 21:44:57.037907700,7.37690771484375,-0.2220551897168159,-0.459731800000742,-1.0186503888100384
2025-04-11 21:44:57.047877600,7.386877685546875,-0.5372650484710931,-0.4057310374829918,-1.0187282763518393
2025-04-11 21:44:57.057848600,7.3968486328125,-0.7200608254671096,-0.4002753293603658,-0.9717229256793856
2025-04-11 21:44:57.067819500,7.406819580078125,-0.8390373335033655,-0.439897510978952,-0.965066828791052
2025-04-11 21:44:57.077790500,7.41679052734375,-0.8520937989532947,-0.5036384540054947,-0.9001903058633208
2025-04-11 21:44:57.087760400,7.426760498046875,-0.7805056495577096,-0.5310347027141601,-0.8455912851914763
2025-04-11 21:44:57.097731600,7.436731689453125,-0.6995663189709186,-0.5404299422428012,-0.8349627775408327
2025-04-11 21:44:57.107702500,7.44670263671875,-0.7164929038524628,-0.5084307297833264,-0.7980158795461059
2025-04-11 21:44:57.117673500,7.456673583984375,-0.8028139274775982,-0.4887524350408464,-0.8146602864854037
2025-04-11 21:44:57.127643600,7.4666435546875,-0.8367191196888685,-0.4588370431181043,-0.7881561643108725
2025-04-11 21:44:57.137614600,7.476614501953125,-0.9237222803592682,-0.4945949505239725,-0.8531623049676418
2025-04-11 21:44:57.147585300,7.486585205078125,-0.8963602261811494,-0.4700109827570617,-0.8972109977915883
2025-04-11 21:44:57.157556500,7.496556396484375,-0.7772609685480594,-0.3933528000881895,-0.9006577772445976
2025-04-11 21:44:57.167526400,7.5065263671875,-0.6724719758182763,-0.4037870638083666,-0.8884984067648649
2025-04-11 21:44:57.177497300,7.516497314453125,-0.6431225472152233,-0.4794130904179066,-0.9044612611807882
2025-04-11 21:44:57.187468500,7.526468505859375,-0.5589391201406717,-0.5406680253149941,-0.9281918269887566
2025-04-11 21:44:57.197439500,7.536439453125,-0.3954524392485618,-0.4935658997371792,-0.9218795751020312
2025-04-11 21:44:57.207409400,7.546409423828125,-0.1996294228971004,-0.3765225517205894,-0.9047739803917706
2025-04-11 21:44:57.217380600,7.556380615234375,-0.0247065712332725,-0.2988770019821822,-0.8596588273800909
2025-04-11 21:44:57.227351600,7.5663515625,0.0378863708019256,-0.3330695963000878,-0.816817464519292
2025-04-11 21:44:57.237322500,7.576322509765625,0.0598743307262659,-0.3387651410605758,-0.692932726175338
2025-04-11 21:44:57.247292400,7.58629248046875,-0.1716413457751274,-0.2916775189321487,-0.3808521053574979
2025-04-11 21:44:57.257263400,7.596263427734375,-0.7248983286261558,-0.2870379494979977,0.0145072487801313
2025-04-11 21:44:57.267234600,7.606234619140625,-1.3049211533278229,-0.329964725619927,0.2795712668791413
2025-04-11 21:44:57.277205500,7.61620556640625,-2.0896096415281296,-0.4292511023454368,0.2996725362740456
2025-04-11 21:44:57.287176700,7.6261767578125,-3.0369372538805006,-0.5606921743530779,0.1223855858273804
2025-04-11 21:44:57.297146600,7.636146728515625,-4.09596290769875,-0.6971926486421376,-0.2670847102716565
2025-04-11 21:44:57.307117600,7.64611767578125,-4.899671153667569,-0.5494987993612885,-0.693309450533241
2025-04-11 21:44:57.317088500,7.656088623046875,-5.034622060427069,-0.2262618476264178,-1.1057793678171932
2025-04-11 21:44:57.327059500,7.6660595703125,-4.37785852587223,0.0429866896156221,-1.5624682199254631
2025-04-11 21:44:57.337029400,7.676029296875,-3.0330414154857395,0.1311055564429611,-1.9803550476916136
2025-04-11 21:44:57.347000600,7.68600048828125,-1.56173727530241,0.1541826267782598,-2.1801532512843607
2025-04-11 21:44:57.356971500,7.695971435546875,-0.3700397655725479,0.1140980152796953,-2.1505320200026032
2025-04-11 21:44:57.366942500,7.7059423828125,0.6846984201848506,0.1086732137519866,-2.0024404766410586
2025-04-11 21:44:57.376912600,7.71591259765625,1.3305085990488528,0.0696685064446181,-1.7647586787253615
2025-04-11 21:44:57.386883600,7.725883544921875,1.6792483869612216,0.1479417596273124,-1.4972252017728984
2025-04-11 21:44:57.396854500,7.7358544921875,1.8357956239789723,0.2623543938141316,-1.239947892027348
2025-04-11 21:44:57.406825500,7.745825439453125,1.76821203404963,0.375994947649911,-1.0810866789788007
2025-04-11 21:44:57.416795400,7.75579541015625,1.5706465579450128,0.5024478925140574,-1.025586471683532
2025-04-11 21:44:57.426766300,7.765766357421875,1.1637106016516685,0.6600692981019616,-0.9917369551822542
2025-04-11 21:44:57.436737500,7.775737548828125,0.6061053604632616,0.8272352520287036,-0.9366812767840922
2025-04-11 21:44:57.446708500,7.78570849609375,0.1591559582114219,0.9985679702460766,-0.8916292521364987
2025-04-11 21:44:57.456678400,7.795678466796875,-0.0876911429345607,1.1925842294365168,-0.8449151394955814
2025-04-11 21:44:57.466649600,7.805649658203125,-0.2487409520685672,1.323135586062819,-0.8479680973254143
2025-04-11 21:44:57.476620500,7.81562060546875,-0.3954080155849456,1.3781672990635037,-0.9818981366045773
2025-04-11 21:44:57.486591500,7.825591552734375,-0.4521019627094269,1.4188276646234097,-1.1301241200007497
2025-04-11 21:44:57.496561400,7.8355615234375,-0.3813672152727842,1.5052996410265564,-1.254894409007579
2025-04-11 21:44:57.506532400,7.845532470703125,-0.1115659395188093,1.5807364286743104,-1.3460985284991562
2025-04-11 21:44:57.516503600,7.855503662109375,0.3106786450654268,1.5967963137239216,-1.456906781518459
2025-04-11 21:44:57.526474500,7.865474609375,0.6782195795595646,1.5726596513330935,-1.554684872572869
2025-04-11 21:44:57.536445400,7.875445556640625,0.9159019619971512,1.5013384823106228,-1.603482513489574
2025-04-11 21:44:57.546415600,7.88541552734375,1.1607681184589862,1.4554682731479405,-1.6459823694363236
2025-04-11 21:44:57.556386600,7.895386474609375,1.39114514631927,1.3981332516409457,-1.6376812818199395
2025-04-11 21:44:57.566357500,7.905357421875,1.5129706140458583,1.310903150346875,-1.611857981516421
2025-04-11 21:44:57.576328400,7.915328369140625,1.492683612820506,1.2333875105984509,-1.6008683854684234
2025-04-11 21:44:57.586298400,7.92529833984375,1.3808201516598462,1.1464662560578436,-1.528053324626386
2025-04-11 21:44:57.596269600,7.93526953125,1.2958949663072823,1.0736887507472186,-1.455132611452788
2025-04-11 21:44:57.606240500,7.945240478515625,1.2205711375147104,1.0318997464835644,-1.456984961321205
2025-04-11 21:44:57.616211500,7.95521142578125,1.1321773992687465,1.040057260910794,-1.5199413298413156
2025-04-11 21:44:57.626181600,7.965181640625,0.9795376910835504,1.056998385774344,-1.5986483713313937
2025-04-11 21:44:57.636152600,7.975152587890625,0.777679486221075,1.0969667504820972,-1.6797896542310713
2025-04-11 21:44:57.646123500,7.98512353515625,0.5903454812735319,1.1501648183148354,-1.7448311584621667
2025-04-11 21:44:57.656094500,7.995094482421875,0.4190910889893769,1.1719687269091603,-1.7188379084192216
2025-04-11 21:44:57.666064400,8.005064453125,0.2651812147378921,1.1750786025580018,-1.6706076921269295
2025-04-11 21:44:57.676035300,8.015035400390625,0.1860129854768514,1.0863144235644489,-1.615955187702179
2025-04-11 21:44:57.686006500,8.025006591796876,0.2019797854155302,0.9975036289501936,-1.516619199681282
2025-04-11 21:44:57.695977500,8.0349775390625,0.2249836443841457,0.8976349222920834,-1.4170568555586038
2025-04-11 21:44:57.705947400,8.044947509765626,0.2218903545439243,0.7645318353563547,-1.380771928603947
2025-04-11 21:44:57.715918600,8.054918701171875,0.2037485486537218,0.6658138331033289,-1.3456120601564645
2025-04-11 21:44:57.725889500,8.0648896484375,0.1197235270112752,0.6200064600437879,-1.2892200185880065
2025-04-11 21:44:57.735860500,8.074860595703125,0.1011322237879037,0.5903544682975858,-1.211480799216777
2025-04-11 21:44:57.745831400,8.08483154296875,0.0477186135083436,0.5535202003644779,-1.1409325142629445
2025-04-11 21:44:57.755801300,8.09480126953125,-0.0265659353643655,0.519540993068926,-1.056277816414833
2025-04-11 21:44:57.765772500,8.1047724609375,-0.0682388389676809,0.4792750336540862,-0.9439587204411626
2025-04-11 21:44:57.775743500,8.114743408203125,-0.0846148042291402,0.446946077783592,-0.819226425357163
2025-04-11 21:44:57.785714400,8.12471435546875,-0.0065811319559812,0.4534824938150122,-0.7005667281851172
2025-04-11 21:44:57.795684600,8.1346845703125,0.1987736828505992,0.4839553004248067,-0.562349805366993
2025-04-11 21:44:57.805655600,8.144655517578125,0.4063607867538928,0.4479734115373343,-0.5074672915786504
2025-04-11 21:44:57.815626500,8.15462646484375,0.4965700499892234,0.4159225054232403,-0.5150798124089837
2025-04-11 21:44:57.825597400,8.164597412109375,0.4310170891046523,0.4001538949377834,-0.5175003175541758
2025-04-11 21:44:57.835567400,8.1745673828125,0.1744984887719154,0.4076470637047663,-0.6433784216724335
2025-04-11 21:44:57.845538300,8.184538330078125,-0.4013976113885641,0.4369105310574173,-0.92802669955492
2025-04-11 21:44:57.855509500,8.194509521484376,-1.1598287917822598,0.5015273801356553,-1.2378357221789658
2025-04-11 21:44:57.865480400,8.20448046875,-1.8715829766750336,0.5333787085570395,-1.524617066567391
2025-04-11 21:44:57.875450600,8.21445068359375,-2.351229948914051,0.411831107923761,-1.639430901966244
2025-04-11 21:44:57.885421600,8.224421630859375,-2.349488073682785,0.1581124405078589,-1.3540705302916467
2025-04-11 21:44:57.895392800,8.234392822265624,-1.9454694661408665,-0.2248112834919244,-0.8092468831345438
2025-04-11 21:44:57.905363500,8.244363525390625,-1.3355501003473995,-0.6231739110987633,-0.2713935864467173
2025-04-11 21:44:57.915333600,8.254333740234374,-0.6284089622080326,-0.949468350708112,0.1208291501656174
2025-04-11 21:44:57.925304600,8.2643046875,-0.2057785931766033,-1.1048193636786192,0.4319838152449577
2025-04-11 21:44:57.935275500,8.274275634765624,-0.1364303316622972,-1.1369895487908273,0.6561872690368443
2025-04-11 21:44:57.945246700,8.284246826171875,-0.3715478320479393,-1.071048976828158,0.789098340531811
2025-04-11 21:44:57.955216600,8.294216552734374,-0.7061316688358783,-0.9307952874854206,0.9441044855874032
2025-04-11 21:44:57.965187600,8.3041875,-0.9546376431047916,-0.8258787228532135,1.0693776826150714
2025-04-11 21:44:57.975158800,8.31415869140625,-1.0245412004143,-0.7472207812018692,1.2963177217639985
2025-04-11 21:44:57.985129500,8.32412939453125,-0.8513806822478771,-0.6914072701737284,1.5065262602120637
2025-04-11 21:44:57.995100700,8.3341005859375,-0.4464402836859226,-0.628599735539779,1.7361951398029922
2025-04-11 21:44:58.005070600,8.344070556640625,0.3249164292544126,-0.4884837741672992,1.9460538419000804
2025-04-11 21:44:58.015041500,8.35404150390625,1.1159633465707302,-0.2279619843414984,1.9641931635722516
2025-04-11 21:44:58.025012700,8.3640126953125,1.5671750824421644,-0.0353830621945089,1.6793667526438831
2025-04-11 21:44:58.034983700,8.373983642578125,1.5095938310891388,0.1724184858937747,1.101028812289238
2025-04-11 21:44:58.044953600,8.38395361328125,0.7140279750436545,0.568810964205116,0.565466183821857
2025-04-11 21:44:58.054924800,8.3939248046875,-0.7145178043872118,1.1539204445213078,-0.005353489857167
2025-04-11 21:44:58.064895700,8.403895751953126,-2.286915589913726,1.7679099823631346,-0.6871255012013018
2025-04-11 21:44:58.074866400,8.413866455078125,-3.6625615538060665,2.340959753181785,-1.2050173022910953
2025-04-11 21:44:58.084836600,8.423836669921876,-4.214332097491622,2.728609848116338,-1.646785210251808
2025-04-11 21:44:58.094807600,8.4338076171875,-3.9904666434824465,2.868343605238199,-1.9813442048594352
2025-04-11 21:44:58.104778500,8.443778564453124,-2.829272408565879,2.7354697970136996,-2.157646235921979
2025-04-11 21:44:58.114749700,8.453749755859375,-1.2499416089057922,2.335370116481185,-2.2001382008232175
2025-04-11 21:44:58.124719600,8.4637197265625,0.3069493954092264,1.927507985253632,-2.0405793608993292
2025-04-11 21:44:58.134690600,8.473690673828125,1.4961100801378489,1.5667748310782017,-1.7419903820782898
2025-04-11 21:44:58.144661800,8.483661865234374,2.395838321447372,1.4470681090712547,-1.5046841394767163
2025-04-11 21:44:58.154632400,8.493632568359375,2.8338825327098367,1.3399715700514614,-1.2917413537591695
2025-04-11 21:44:58.164603600,8.503603759765625,2.9165105470359323,1.2699319652721286,-1.2879863851398228
2025-04-11 21:44:58.174573600,8.513573486328125,2.7702421274483204,1.3238872812129556,-1.2591548429310322
2025-04-11 21:44:58.184544500,8.52354443359375,2.5517379082113503,1.3877261316560208,-1.1728036433633415
2025-04-11 21:44:58.194515700,8.533515625,2.2470909445255995,1.416155815065652,-1.0965169608879834
2025-04-11 21:44:58.204486700,8.543486572265625,1.9427520238757132,1.3807641836889086,-0.9609244682893155
2025-04-11 21:44:58.214456600,8.55345654296875,1.7011702959120272,1.356565561977774,-0.869013881028816
2025-04-11 21:44:58.224427800,8.563427734375,1.5470330426454544,1.2997763377852738,-0.827770454883948
2025-04-11 21:44:58.234398700,8.573398681640626,1.4842431167334318,1.2644120328068733,-0.7380159496787935
2025-04-11 21:44:58.244369400,8.583369384765625,1.361562493482232,1.2207090116154402,-0.7481577697910368
2025-04-11 21:44:58.254339600,8.593339599609376,1.1042471898138522,1.213299904402718,-0.8278133441776037
2025-04-11 21:44:58.264310500,8.603310546875,0.7626070047736168,1.257685793291777,-1.012424719228223
2025-04-11 21:44:58.274281500,8.613281494140624,0.4193032704353332,1.3342375564441085,-1.2042047437991947
2025-04-11 21:44:58.284252700,8.623252685546875,0.0996954689830541,1.3795023470595478,-1.4111986310496925
2025-04-11 21:44:58.294222600,8.63322265625,-0.1926075614362955,1.3369801331505178,-1.5446953934781251
2025-04-11 21:44:58.304193800,8.64319384765625,-0.4639759403765201,1.2371652755714952,-1.4971664573229848
2025-04-11 21:44:58.314164700,8.653164794921874,-0.5170885218828917,1.0668939029753208,-1.25371294413805
2025-04-11 21:44:58.324135400,8.663135498046875,-0.389814141100645,0.8525069097988307,-0.8661842836260795
2025-04-11 21:44:58.334106600,8.673106689453125,-0.1660714366883039,0.5858780900685117,-0.6042345250900835
2025-04-11 21:44:58.344076500,8.68307666015625,0.0946557212501764,0.3157086020566523,-0.5622745481736958
2025-04-11 21:44:58.354047500,8.693047607421875,0.3241097890466451,0.189121253690496,-0.5903156706571578
2025-04-11 21:44:58.364018700,8.703018798828126,0.4815870003908872,0.1836215602956712,-0.6267335763417184
2025-04-11 21:44:58.373989600,8.71298974609375,0.4924263743132352,0.1906241325341165,-0.6785996649183332
2025-04-11 21:44:58.383959600,8.72295947265625,0.4284393475711345,0.1658718955282122,-0.7381643451735377
2025-04-11 21:44:58.393930800,8.7329306640625,0.3697276308834552,0.1353953625913709,-0.7089651386961341
2025-04-11 21:44:58.403901700,8.742901611328126,0.3000292407572269,0.0984097400214523,-0.6706969289697706
2025-04-11 21:44:58.413872600,8.75287255859375,0.2773620663970709,-0.0014530483525246,-0.6287324950739741
2025-04-11 21:44:58.423842600,8.762842529296876,0.2683060687601566,-0.1006250779833644,-0.6133272745408117
2025-04-11 21:44:58.433813500,8.7728134765625,0.2813730556041002,-0.1783894317958503,-0.5263992979984731
2025-04-11 21:44:58.443784700,8.78278466796875,0.3358662778139114,-0.2490982410736381,-0.4728111348696053
2025-04-11 21:44:58.453755600,8.792755615234375,0.3925251536250114,-0.3549252716142684,-0.4355849450094625
2025-04-11 21:44:58.463725600,8.8027255859375,0.4861000939011573,-0.4349909611716866,-0.4056741927292198
2025-04-11 21:44:58.473696800,8.81269677734375,0.5399252075910568,-0.4788218465264886,-0.3932802097760141
2025-04-11 21:44:58.483667700,8.822667724609374,0.5557844555020331,-0.5154672773566097,-0.4080358803592622
2025-04-11 21:44:58.493638400,8.832638427734375,0.5788105263024568,-0.5179380513843148,-0.3771447752721607
2025-04-11 21:44:58.503609600,8.842609619140624,0.4973427879273891,-0.5309552077371626,-0.3287665288113057
2025-04-11 21:44:58.513579500,8.85257958984375,0.3165764709323644,-0.5325240644890815,-0.3055917702551931
2025-04-11 21:44:58.523550500,8.862550537109374,0.0629419016033411,-0.5437292029839009,-0.2436781887862831
2025-04-11 21:44:58.533521700,8.872521728515625,-0.2191547921001911,-0.5326207297965884,-0.115034346281737
2025-04-11 21:44:58.543492600,8.88249267578125,-0.4204933570027351,-0.5424208237990736,-0.1047182655811309
2025-04-11 21:44:58.553462500,8.892462646484375,-0.453739208522439,-0.5898104976139963,-0.1746457152228802
2025-04-11 21:44:58.563433700,8.902433837890625,-0.4057639899045229,-0.6235530466094613,-0.1816970219738781
2025-04-11 21:44:58.573404700,8.91240478515625,-0.3419868065208196,-0.6565611438505351,-0.1554815805476158
2025-04-11 21:44:58.583375600,8.922375732421875,-0.3090817312628031,-0.7664895452953875,-0.1728633618507534
2025-04-11 21:44:58.593345500,8.932345458984376,-0.3475421025604009,-0.8379380670245736,-0.2288883967377245
2025-04-11 21:44:58.603316500,8.94231640625,-0.486727285888791,-0.9485555467121304,-0.2881021446634084
2025-04-11 21:44:58.613287700,8.95228759765625,-0.7404156312316655,-1.0022782960060983,-0.3300367679428309
2025-04-11 21:44:58.623258600,8.962258544921875,-0.9947592256128788,-1.0086695314131675,-0.4829647184848785
2025-04-11 21:44:58.633228500,8.972228515625,-1.2966940077304838,-1.011222576896846,-0.6503297751802951
2025-04-11 21:44:58.643199700,8.98219970703125,-1.486530935409665,-0.9857060044549404,-0.8416751346610486
2025-04-11 21:44:58.653170700,8.992170654296874,-1.5974761126816273,-1.0084472669646145,-0.966833984594047
2025-04-11 21:44:58.663141600,9.0021416015625,-1.4637304900586603,-0.9536172140158712,-1.0250709233768285
2025-04-11 21:44:58.673111600,9.012111572265624,-1.3793348815381523,-1.0374060888148844,-0.9208739782560617
2025-04-11 21:44:58.683082500,9.02208251953125,-1.2393699460089207,-1.1321937658816574,-0.6689364951685071
2025-04-11 21:44:58.693053700,9.0320537109375,-1.0601707322001457,-1.181571690904349,-0.2381377980548888
2025-04-11 21:44:58.703024600,9.042024658203124,-0.8832511537611484,-1.1957802489988505,0.127542091807723
2025-04-11 21:44:58.712995600,9.05199560546875,-0.8036322581231594,-1.20629506714195,0.5309119531173259
2025-04-11 21:44:58.722965800,9.0619658203125,-1.0020786087155342,-1.0693901037052274,0.8331818854734301
2025-04-11 21:44:58.732936700,9.071936767578125,-1.5121055216491222,-0.9386543304227292,0.9276990750357508
2025-04-11 21:44:58.742907600,9.08190771484375,-2.1790870833575724,-0.8027163123220205,0.8366134673573076
2025-04-11 21:44:58.752878600,9.091878662109377,-2.821089686632156,-0.6350975000612438,0.5611809077180921
2025-04-11 21:44:58.762848500,9.1018486328125,-3.335887467229366,-0.392497973357141,0.1240500119082629
2025-04-11 21:44:58.772819500,9.1118193359375,-3.6406034044981,-0.1872797905422747,-0.4001096174046397
2025-04-11 21:44:58.782790700,9.121790771484376,-3.663739949935674,0.0123632224887609,-0.8990474194385111
2025-04-11 21:44:58.792761600,9.13176171875,-3.25807182162106,0.1457351894937455,-1.1747165643125772
2025-04-11 21:44:58.802731500,9.1417314453125,-2.500105336129665,0.0665416796609759,-1.301566143811494
2025-04-11 21:44:58.812702700,9.15170263671875,-1.652522292599082,-0.1787450403004884,-1.289611502123624
2025-04-11 21:44:58.822673700,9.161673583984374,-0.7988654821127653,-0.3677705054663121,-1.0913256758552043
2025-04-11 21:44:58.832644600,9.17164453125,-0.1842097354471683,-0.4602881917744875,-0.8560825763285159
2025-04-11 21:44:58.842614500,9.181614501953124,0.1579308003306389,-0.4327345605470239,-0.7037468925911933
2025-04-11 21:44:58.852585500,9.19158544921875,0.3634790918827056,-0.3148796038866043,-0.5978193973507732
2025-04-11 21:44:58.862556700,9.201556640625,0.5311778375118971,-0.0956092225827276,-0.5746245458547026
2025-04-11 21:44:58.872526600,9.211526611328123,0.6441045439898967,0.1301584117859602,-0.6074973993435502
2025-04-11 21:44:58.882497500,9.22149755859375,0.7330570851624012,0.3226148012485355,-0.5579495976466685
2025-04-11 21:44:58.892467700,9.2314677734375,0.8036889567464589,0.4445180834516882,-0.4444515210215002
2025-04-11 21:44:58.902438700,9.241438720703124,0.8332645953208208,0.5278701012033968,-0.2470907737087458
2025-04-11 21:44:58.912409600,9.25140966796875,0.8645879543453454,0.5645918852053582,-0.0226903360400348
2025-04-11 21:44:58.922380800,9.261380859375,0.8822650653332471,0.6762731947321444,0.1599930666226893
2025-04-11 21:44:58.932350700,9.271350830078124,0.8303326335221528,0.8425131198551505,0.354657925914973
2025-04-11 21:44:58.942321700,9.28132177734375,0.8157529040277004,1.0130299916449934,0.4901408937245607
2025-04-11 21:44:58.952292600,9.291292724609375,0.9075684334158896,1.1980322657093403,0.5683144128598272
2025-04-11 21:44:58.962263600,9.301263671875,0.9052192399412392,1.3623850619114934,0.5555069537349044
2025-04-11 21:44:58.972233500,9.3112333984375,0.7884878804832697,1.4999180941186845,0.4733247834801674
2025-04-11 21:44:58.982204700,9.32120458984375,0.6234633224993944,1.592533249451965,0.3606602350696921
2025-04-11 21:44:58.992175600,9.331175537109376,0.5004261408954859,1.68239822929427,0.2312258997745812
2025-04-11 21:44:59.002146800,9.341146728515625,0.3782166422873735,1.7071093305721878,0.1329610481165349
2025-04-11 21:44:59.012117500,9.351117431640626,0.3614262510061264,1.6456749109223483,0.0397379900179803
2025-04-11 21:44:59.022087700,9.361087646484377,0.5198299295455217,1.546230640221387,-0.0412977866806089
2025-04-11 21:44:59.032058600,9.37105859375,0.8298036412119865,1.3896654291555284,0.0113831254102289
2025-04-11 21:44:59.042029600,9.381029541015623,1.122931432017684,1.2572427256993948,0.0417026411544531
2025-04-11 21:44:59.052000500,9.39100048828125,1.41317110016644,1.1271801755033433,0.1117968256652355
2025-04-11 21:44:59.061970700,9.400970703125,1.6822452306896447,0.9738886523459106,0.1502208104752004
2025-04-11 21:44:59.071941600,9.410941650390624,1.917591863656044,0.8064318257138132,0.1005652375549077
2025-04-11 21:44:59.081912600,9.42091259765625,2.0639976458877323,0.679736998385191,0.0895326791480183
2025-04-11 21:44:59.091883800,9.4308837890625,2.028296802431345,0.6024040217272937,0.1394414961770176
2025-04-11 21:44:59.101853700,9.440853759765623,1.8225737388342615,0.5170659447249025,0.128137135091424
2025-04-11 21:44:59.111824600,9.45082470703125,1.5870540873885153,0.4825011195611208,0.0897120543029159
2025-04-11 21:44:59.121795600,9.460795654296875,1.3337000885665415,0.5106802988084033,0.0466156207025051
2025-04-11 21:44:59.131766500,9.4707666015625,1.14412502669394,0.5368057603962719,-0.055888110634312
2025-04-11 21:44:59.141736400,9.480736328125,1.0803484278321265,0.4495948752593249,-0.1697509289186447
2025-04-11 21:44:59.151707600,9.490707763671876,1.078989998960495,0.331643143693544,-0.1318661655519157
2025-04-11 21:44:59.161678600,9.5006787109375,1.0409534060329195,0.1360700104499235,0.0202911659438163
2025-04-11 21:44:59.171649800,9.51064990234375,0.9294166926085948,-0.0700570308381691,0.1498405789859593
2025-04-11 21:44:59.181620500,9.520620361328126,0.8270727549433707,-0.2238236606940627,0.2647805980477482
2025-04-11 21:44:59.191590700,9.530590576171877,0.8142156114578246,-0.3196284789141267,0.3327257878310978
2025-04-11 21:44:59.201561600,9.5405615234375,0.8256231406569481,-0.355107423248142,0.3345673240445554
2025-04-11 21:44:59.211532500,9.550532470703123,0.8189642672896384,-0.3542129951590672,0.2477982643909752
2025-04-11 21:44:59.221503700,9.560503662109374,0.8138461936235427,-0.3858206510176882,0.1604468748047947
2025-04-11 21:44:59.231473700,9.5704736328125,0.7766074730753898,-0.3694106008235365,0.1581292455121874
2025-04-11 21:44:59.241444600,9.580444580078124,0.6841203280359506,-0.4382265820920467,0.0855552999496459
2025-04-11 21:44:59.251415800,9.590415771484375,0.6129647248387337,-0.5646599089402705,0.1142453878611326
2025-04-11 21:44:59.261386800,9.60038671875,0.5723749402970075,-0.7580826592169702,0.2292072534285485
2025-04-11 21:44:59.271356700,9.610356689453123,0.5240729739427566,-0.9726845372531564,0.3489705279283225
2025-04-11 21:44:59.281327600,9.62032763671875,0.5867845739215612,-1.1457682638563216,0.4285894235663116
2025-04-11 21:44:59.291298600,9.630298583984375,0.6528162582337856,-1.2630348992347715,0.3891146145291626
2025-04-11 21:44:59.301269500,9.64026953125,0.6665443393349647,-1.3209087037935852,0.2926370846793055
2025-04-11 21:44:59.311240700,9.65024072265625,0.6084896252512931,-1.371012458872795,0.1398209970138967
2025-04-11 21:44:59.321210600,9.660210693359376,0.4131032467514276,-1.3241490008890628,-0.0017934592880308
2025-04-11 21:44:59.331181600,9.670181640625,0.0716384182780981,-1.230145606067777,-0.1079748562242835
2025-04-11 21:44:59.341152800,9.68015283203125,-0.3930576530665159,-1.1636981074962764,-0.1695978572487831
2025-04-11 21:44:59.351123500,9.69012353515625,-0.8737146791309118,-1.0716512535702436,-0.1415105575360357
2025-04-11 21:44:59.361093600,9.70009375,-1.3022089717596768,-1.0262870211683213,0.014015008283779
2025-04-11 21:44:59.371064600,9.710064697265626,-1.5810685832381248,-0.986154625005275,0.225454403701052
2025-04-11 21:44:59.381035500,9.720035400390625,-1.699849860963225,-1.0091716357164084,0.4057015921927988
2025-04-11 21:44:59.391006700,9.7300068359375,-1.7381857290983198,-1.093297268189117,0.5546906689159572
2025-04-11 21:44:59.400976600,9.7399765625,-1.6401824509859084,-1.141035609311238,0.6692552057288587
2025-04-11 21:44:59.410947600,9.749947509765626,-1.4276000230133532,-1.1037055572178214,0.743387267453596
2025-04-11 21:44:59.420918800,9.759918701171877,-1.1424421881735325,-0.9812282014537602,0.7499340587485581
2025-04-11 21:44:59.430889700,9.7698896484375,-0.853881851413846,-0.8616190215371549,0.6084842914890498
2025-04-11 21:44:59.440859600,9.779859619140623,-0.7158300560295582,-0.7142754469987005,0.3624555209886282
2025-04-11 21:44:59.450830600,9.78983056640625,-0.8363818505585193,-0.4650507300011813,0.1376897571388632
2025-04-11 21:44:59.460801500,9.799801513671875,-1.1202432158470153,-0.2162782868158072,-0.1280687460303306
2025-04-11 21:44:59.470772500,9.8097724609375,-1.4785533806592226,0.0110760322224348,-0.3743064100410789
2025-04-11 21:44:59.480743700,9.81974365234375,-1.9200100307136776,0.2381578909948468,-0.4389293965991586
2025-04-11 21:44:59.490713600,9.829713623046874,-2.297006775817275,0.4400925951596349,-0.3760699125822633
2025-04-11 21:44:59.500684800,9.839684814453124,-2.4787913299441335,0.5944444410249591,-0.336882980575785
2025-04-11 21:44:59.510655700,9.84965576171875,-2.451777650812268,0.6744685564629733,-0.2923132595524191
2025-04-11 21:44:59.520626400,9.85962646484375,-2.24158708641231,0.6613619682610035,-0.2184433558952063
2025-04-11 21:44:59.530596600,9.8695966796875,-1.9013024076342584,0.5820189669549465,-0.1443291220881044
2025-04-11 21:44:59.540567600,9.879567626953126,-1.5406424648255108,0.4857837214283645,-0.1733117632053792
2025-04-11 21:44:59.550538500,9.88953857421875,-1.306112408939004,0.4309107061207294,-0.3027388650421053
2025-04-11 21:44:59.560509700,9.899509765625,-1.2222779414325953,0.4036732281703502,-0.5034974380996078
2025-04-11 21:44:59.570479600,9.909479736328125,-1.183577331638336,0.4476210909683257,-0.8026845289442688
2025-04-11 21:44:59.580450600,9.919450439453126,-1.0579518871068954,0.5283600766774267,-1.112071088372543
2025-04-11 21:44:59.590421800,9.929421875,-0.7317308049947023,0.5746039414580911,-1.3196309389427303
2025-04-11 21:44:59.600392700,9.939392822265624,-0.3693371702611446,0.5838345650095492,-1.4592388777278362
2025-04-11 21:44:59.610363600,9.94936376953125,0.113789460787177,0.5348732579637319,-1.4792879785440862
2025-04-11 21:44:59.620333600,9.95933349609375,0.5351385578364134,0.4574695541571825,-1.3614999496400355
2025-04-11 21:44:59.630304500,9.969304443359375,0.8071288680672645,0.3595204904500395,-1.2668471509993076
2025-04-11 21:44:59.640275700,9.979275634765624,0.9373848950088024,0.2467712594307959,-1.2070225776989012
2025-04-11 21:44:59.650246700,9.98924658203125,0.9664818101555108,0.1900779698934405,-1.1281108804821969
2025-04-11 21:44:59.660216600,9.999216552734374,0.8928361437082291,0.2194680958330631,-1.0902762398675083
2025-04-11 21:44:59.670187800,10.009187744140624,0.8077361863106489,0.2702097104243934,-1.066954985512793
2025-04-11 21:44:59.680158700,10.01915869140625,0.7084077970743179,0.4008446536809206,-1.0303690297849477
2025-04-11 21:44:59.690129400,10.02912939453125,0.6298878025889396,0.5042148656539619,-0.9958862568814308
2025-04-11 21:44:59.700099600,10.039099609375,0.5509183107703924,0.6089313776694237,-0.9072747842315584
2025-04-11 21:44:59.710070500,10.049070556640626,0.3896902224600315,0.6855814866296946,-0.7105193824008107
2025-04-11 21:44:59.720041500,10.05904150390625,0.1322469084978103,0.6840662597611546,-0.4952510032799094
2025-04-11 21:44:59.730012700,10.0690126953125,-0.1270662909895181,0.6656705521751195,-0.2859919475764036
2025-04-11 21:44:59.739983600,10.078983642578123,-0.2909194671064615,0.6610219957169144,-0.1411617440983653
2025-04-11 21:44:59.749953500,10.08895361328125,-0.3577332417070865,0.6744242058645934,-0.0791403183408081
2025-04-11 21:44:59.759924700,10.0989248046875,-0.3546305995166302,0.6844270558975637,-0.104794545687735
2025-04-11 21:44:59.769895700,10.108895751953124,-0.3037847938984632,0.730745739480108,-0.0672409870367497
2025-04-11 21:44:59.779866600,10.11886669921875,-0.2108177563875913,0.740495491534844,-0.0233276110302656
2025-04-11 21:44:59.789836500,10.12883642578125,0.0323848507761955,0.7300796767868101,0.0216984023932367
2025-04-11 21:44:59.799807500,10.138807373046877,0.3373386884540319,0.7035968896612524,0.1258250587567687
2025-04-11 21:44:59.809778700,10.14877880859375,0.6213344937771559,0.6217974351137876,0.2142477308362722
2025-04-11 21:44:59.819749600,10.15874951171875,0.7823322804629802,0.4983515265785157,0.2303776123821735
2025-04-11 21:44:59.829719600,10.168719482421874,0.817529266050458,0.4177073430133983,0.175051154218614
2025-04-11 21:44:59.839690800,10.178690673828124,0.8542728965580463,0.3719235700251534,0.0924274507414549
2025-04-11 21:44:59.849661700,10.18866162109375,0.9118746061772108,0.3794815841892734,-0.0280218332611024
2025-04-11 21:44:59.859632600,10.198632568359375,0.993018519425392,0.3950467445245012,-0.1729608308758586
2025-04-11 21:44:59.869603600,10.208603515625,1.1213631597876548,0.3715953609840944,-0.3108998866006732
2025-04-11 21:44:59.879574000,10.218573974609376,1.208102701085806,0.3218929897800088,-0.3038136546667665
2025-04-11 21:44:59.889545000,10.228544921875,1.3399486275672912,0.2359460966968908,-0.2976443183820694
2025-04-11 21:44:59.899516200,10.23851611328125,1.6724860532194374,0.1899126780628226,-0.3380669296633452
2025-04-11 21:44:59.909487000,10.248487060546877,1.920898503986001,0.1459863695095293,-0.2597702225398272
2025-04-11 21:44:59.919457000,10.25845703125,1.9504507616847753,0.0517147339398041,-0.2269473456725478
2025-04-11 21:44:59.929428200,10.26842822265625,1.721796319833398,-0.0624346827335655,-0.1707652935929596
2025-04-11 21:44:59.939399000,10.27839892578125,1.3338573249548673,-0.081410674425587,-0.1551401466988027
2025-04-11 21:44:59.949369900,10.288369873046875,0.9629401920259,-0.0580424573902972,-0.1908705815758556
2025-04-11 21:44:59.959340000,10.298340087890624,0.7116916410505771,-0.029643991102837,-0.2918391392346471
2025-04-11 21:44:59.969311000,10.30831103515625,0.5085077405422925,-0.0229854830617085,-0.4657741489049047
2025-04-11 21:44:59.979282000,10.318281982421874,0.3339309258371591,0.0126814946576952,-0.5795980964835733
2025-04-11 21:44:59.989253000,10.328253173828124,0.2377636309802532,0.0577881903682835,-0.6360973978187888
2025-04-11 21:44:59.999224000,10.33822412109375,0.2243418393492698,0.0574283440799452,-0.5739739729914813
2025-04-11 21:45:00.009194000,10.348194091796875,0.2665840672731399,-0.0024677783530205,-0.4687503151714801
2025-04-11 21:45:00.019165000,10.3581650390625,0.2707218977302312,-0.0963068859906867,-0.3506448178160935
2025-04-11 21:45:00.029136000,10.368135986328124,0.2532598907977342,-0.2015362611654214,-0.2552877433635294
2025-04-11 21:45:00.039107000,10.378107177734377,0.256061504215002,-0.2643782825908623,-0.1632693118143826
2025-04-11 21:45:00.049077000,10.388076904296875,0.2605944714695215,-0.2684417874364182,-0.0768896168045699
2025-04-11 21:45:00.059048000,10.3980478515625,0.2215548389792442,-0.2612708911600522,-0.062555094242841
2025-04-11 21:45:00.069019100,10.40801904296875,0.0736959353297948,-0.1950297836145386,-0.0965725146569311
2025-04-11 21:45:00.078990000,10.417989990234377,-0.2034837602376937,-0.1402312035162933,-0.1007080800916999
2025-04-11 21:45:00.088960000,10.4279599609375,-0.4014847051501274,-0.0428609260777942,-0.1041178154699504
2025-04-11 21:45:00.098931200,10.43793115234375,-0.465977343326807,0.0010531257821246,-0.0770532829336822
2025-04-11 21:45:00.108902000,10.44790185546875,-0.4051350443512201,-0.0339445013083517,-0.0416219040684402
2025-04-11 21:45:00.118872800,10.457872802734377,-0.1811515169203281,-0.1396157384990714,0.0033719606511294
2025-04-11 21:45:00.128844000,10.467843994140624,0.2524362994551658,-0.219756082461588,0.1013090416595339
2025-04-11 21:45:00.138814000,10.47781396484375,0.7855401365935802,-0.2676746024562045,0.1887475250072777
2025-04-11 21:45:00.148785200,10.48778515625,1.219794892445207,-0.3136858640573918,0.1743707707390189
2025-04-11 21:45:00.158756000,10.497756103515623,1.467476106327772,-0.3600614289263263,0.0874123259931802
2025-04-11 21:45:00.168727000,10.50772705078125,1.4967600684791802,-0.3657569371541961,-0.0211414260976016
2025-04-11 21:45:00.178697200,10.517697265625,1.3040227431833744,-0.3796237326063215,-0.1686344190441072
2025-04-11 21:45:00.188668000,10.52766796875,0.9123913235276936,-0.3854428672138601,-0.2906134698972106
2025-04-11 21:45:00.198638800,10.537638916015624,0.4923071318477391,-0.3689346538748592,-0.2523329852111637
2025-04-11 21:45:00.208610000,10.547610107421876,0.2060954040408134,-0.3721743664484471,-0.1271610566008836
2025-04-11 21:45:00.218580000,10.557580078125,0.0442190809547901,-0.4460403245829045,-0.1245370647728443
2025-04-11 21:45:00.228551000,10.567551025390625,0.0322065715998411,-0.6415463839396834,-0.1895164635531604
2025-04-11 21:45:00.238522000,10.577522216796876,0.0937292540550231,-0.8730103302538395,-0.2590181620635092
2025-04-11 21:45:00.248493000,10.5874931640625,-0.010057868155837,-1.1424973524268716,-0.4379178084038198
2025-04-11 21:45:00.258464000,10.597464111328126,-0.315741773673892,-1.425619662851095,-0.8097793825760483
2025-04-11 21:45:00.268434000,10.607433837890625,-1.0965028592973949,-1.604344829407334,-1.2413526442587377
2025-04-11 21:45:00.278404900,10.61740478515625,-2.083702463310957,-1.60363916535601,-1.616953697220236
2025-04-11 21:45:00.288376000,10.6273759765625,-3.118042004162073,-1.431022983199358,-1.9988059195309875
2025-04-11 21:45:00.298347000,10.637346923828124,-4.034975062772632,-1.1653357186354696,-2.174354501877725
2025-04-11 21:45:00.308317000,10.64731689453125,-4.8440422054260965,-0.944026817241311,-2.0562958393387496
2025-04-11 21:45:00.318288100,10.6572880859375,-5.334598109692335,-0.7816985126040875,-1.740439937765896
2025-04-11 21:45:00.328259000,10.667259033203123,-5.671101516366004,-0.7236081426851451,-1.5351847839415071
2025-04-11 21:45:00.338230000,10.67722998046875,-5.161731021514535,-0.3987473891407251,-1.4167476434789597
2025-04-11 21:45:00.348200200,10.6872001953125,-3.9409798512578007,0.0848231862828135,-1.2350558822020887
2025-04-11 21:45:00.358171000,10.6971708984375,-2.6753783164054155,0.4845945116437971,-1.0895188456289469
2025-04-11 21:45:00.368141800,10.707141845703124,-1.7305881135761736,0.782573395742476,-0.8125804114714265
2025-04-11 21:45:00.378113000,10.717113037109376,-1.0332435623079537,0.9341649100489914,-0.6049827861741185
2025-04-11 21:45:00.388084000,10.727083984375,-0.6098626671701669,0.9202353150263428,-0.3585536181792617
2025-04-11 21:45:00.398054000,10.737053955078125,-0.3742085756897926,0.9365387995734812,-0.0535451277047395
2025-04-11 21:45:00.408025000,10.747025146484376,-0.2117027225285768,1.0178997165732084,0.167335757535696
2025-04-11 21:45:00.417996000,10.75699609375,0.0194786074519157,1.1253455074220895,0.190136349017173
2025-04-11 21:45:00.427967000,10.766967041015626,0.3322328897476196,1.204175736900419,0.0451264050580561
2025-04-11 21:45:00.437937000,10.77693701171875,0.6068026950776577,1.172737957715988,-0.2310945284798741
2025-04-11 21:45:00.447907800,10.786907958984376,0.89583707908988,1.134230386275798,-0.5904606320858001
2025-04-11 21:45:00.457879000,10.796879150390623,1.2740922998219728,1.1506076667115093,-0.9059566143050788
2025-04-11 21:45:00.467850000,10.80685009765625,1.571625632110238,1.2206547241449357,-1.162814529594779
2025-04-11 21:45:00.477821200,10.8168212890625,1.775008270061016,1.27127168944329,-1.3387160170324146
2025-04-11 21:45:00.487791000,10.826791015625,1.894486297878623,1.245366117683798,-1.498502235971391
2025-04-11 21:45:00.497762000,10.836761962890623,1.858344140395522,1.185477246975526,-1.5394973864436148
2025-04-11 21:45:00.507733000,10.84673291015625,1.5073486825108526,1.090680217558518,-1.4078411373153328
2025-04-11 21:45:00.517704000,10.856703857421875,1.1122218219548463,0.9482424621749668,-1.2151496239226312
2025-04-11 21:45:00.527673900,10.866673828125,0.9395008642494678,0.8328390633851289,-1.0627861753955483
2025-04-11 21:45:00.537645000,10.87664501953125,0.9346785586595536,0.7372296216066926,-0.9978206590101122
2025-04-11 21:45:00.547616000,10.886615966796874,0.999938089555502,0.6377503526575863,-0.971869640673697
2025-04-11 21:45:00.557587000,10.8965869140625,1.1364549304574727,0.6363640859309584,-1.0362035811573267
2025-04-11 21:45:00.567557000,10.90655712890625,1.1558142954438924,0.6157746676929294,-1.1647544116161763
2025-04-11 21:45:00.577528000,10.916528076171875,1.0342045162945983,0.5900557776119559,-1.3519744347952305
2025-04-11 21:45:00.587499000,10.9264990234375,0.724198655924201,0.5815870052784681,-1.370459355034679
2025-04-11 21:45:00.597470000,10.936469970703126,0.2013251208990812,0.5672183612514287,-1.3091614212460816
2025-04-11 21:45:00.607441000,10.94644091796875,-0.2660866391450167,0.4204137158952653,-1.2895631329372526
2025-04-11 21:45:00.617410800,10.956410888671876,-0.5193085360199212,0.2223689318411052,-1.313908908034116
2025-04-11 21:45:00.627382000,10.966382080078125,-0.5187275212615728,0.047539895940572,-1.374780433104187
2025-04-11 21:45:00.637353000,10.97635302734375,-0.3747358144342899,-0.0700133743595331,-1.4563229902811348
2025-04-11 21:45:00.647324200,10.98632421875,-0.2737310164183378,-0.0563693182799965,-1.519191095995903
2025-04-11 21:45:00.657294000,10.996294189453126,-0.2992594254285097,-0.0120129477463662,-1.565608271516859
2025-04-11 21:45:00.667265000,11.00626513671875,-0.5344996754109859,0.0470743973206728,-1.6390924637921154
2025-04-11 21:45:00.677236000,11.016236083984374,-0.8869301345348357,0.1087879261728376,-1.7092836058713494
2025-04-11 21:45:00.687207000,11.02620703125,-1.140150862365961,0.1750363219756633,-1.704068647702038
2025-04-11 21:45:00.697176800,11.0361767578125,-1.1946411619663238,0.2507983960550278,-1.6419791251443323
2025-04-11 21:45:00.707148000,11.04614794921875,-0.993427100226283,0.2943821017157286,-1.5415049268737435
2025-04-11 21:45:00.717119000,11.056118896484374,-0.5795142906576395,0.2964061548892408,-1.3914990743234752
2025-04-11 21:45:00.727090000,11.06608984375,-0.0953168155074119,0.2879516302768141,-1.1750528105296194
2025-04-11 21:45:00.737061000,11.07606103515625,0.2951449758470058,0.2882097697563469,-0.9646510875970123
2025-04-11 21:45:00.747031000,11.086031005859375,0.5121154096454381,0.2912158197045326,-0.7929176796242594
2025-04-11 21:45:00.757002000,11.096001953125,0.6692717184722423,0.3167686325035989,-0.6437509082466364
2025-04-11 21:45:00.766973000,11.105972900390626,0.7239227615922689,0.382794690792635,-0.5247860906481743
2025-04-11 21:45:00.776943900,11.11594384765625,0.723551590192318,0.4235768561013042,-0.4277447894357145
2025-04-11 21:45:00.786914000,11.1259140625,0.7679933739870787,0.4931973586857318,-0.32927608576864
2025-04-11 21:45:00.796885000,11.135885009765625,0.8808750722795724,0.5668516468308866,-0.2083309080079197
2025-04-11 21:45:00.806856000,11.14585595703125,1.074521913635731,0.5982645838350057,-0.1180349894024431
2025-04-11 21:45:00.816827100,11.1558271484375,1.397588915631175,0.5698232099875807,0.0231477974839508
2025-04-11 21:45:00.826798000,11.165798095703124,1.6505331646084784,0.4647257358305156,0.2258098660752177
2025-04-11 21:45:00.836768000,11.17576806640625,1.80881292450726,0.3734165119966491,0.3996158425383269
2025-04-11 21:45:00.846739000,11.185739013671874,1.9373469499617817,0.238981409272179,0.5888789158523082
2025-04-11 21:45:00.856710000,11.1957099609375,1.8937562300384043,0.1854406289489939,0.7302164549089968
2025-04-11 21:45:00.866681000,11.20568115234375,1.5755045193701982,0.1591162107229232,0.7663308476023376
2025-04-11 21:45:00.876650800,11.215650634765623,1.0520435398459431,0.1704987516112625,0.7088838901534676
2025-04-11 21:45:00.886621700,11.22562158203125,0.5109329218626022,0.2525865215808153,0.6358500719942152
2025-04-11 21:45:00.896593000,11.235593017578124,0.1401379540085792,0.3967189155204221,0.5806834805674851
2025-04-11 21:45:00.906563800,11.245563720703124,-0.2027770732730626,0.3915923297543078,0.448060286103189
2025-04-11 21:45:00.916533800,11.25553369140625,-0.6140507665097713,0.3047015799498185,0.4509513313695788
2025-04-11 21:45:00.926505000,11.2655048828125,-0.9484691836029292,0.2717716625114902,0.5993580781601369
2025-04-11 21:45:00.936475600,11.2754755859375,-1.196930734208226,0.2441663010967895,0.8644796716652811
2025-04-11 21:45:00.946446800,11.28544677734375,-1.2911042248994111,0.105606884983927,1.1365370557829737
2025-04-11 21:45:00.956417800,11.295417724609376,-1.260356035414338,-0.039470680851303,1.3504190220467744
2025-04-11 21:45:00.966387700,11.3053876953125,-0.9960843367367982,-0.0105998295454308,1.489816386821121
2025-04-11 21:45:00.976359000,11.31535888671875,-0.6236012696653604,0.110724374128133,1.4798501424714925
2025-04-11 21:45:00.986329900,11.325329833984377,-0.4025309993326664,0.2798245840530842,1.430961316139996
2025-04-11 21:45:00.996300800,11.33530078125,-0.5080068052828312,0.482524390838854,1.3952432292878627
2025-04-11 21:45:01.006271000,11.34527099609375,-1.0043909773111344,0.731347358635068,1.3449382525481284
2025-04-11 21:45:01.016241700,11.35524169921875,-1.6830308281093835,0.9276403305858372,1.4242865145511925
2025-04-11 21:45:01.026212600,11.365212646484377,-2.2451035701006647,1.0836366557225583,1.5536112519919871
2025-04-11 21:45:01.036183800,11.375183837890624,-2.592678990408778,1.1926361788194626,1.5978477224729954
2025-04-11 21:45:01.046154800,11.38515478515625,-2.7788872061967846,1.3692992252141236,1.7017121477037669
2025-04-11 21:45:01.056124700,11.395124755859374,-2.895334488016367,1.4046857420243322,1.9181182256177067
2025-04-11 21:45:01.066095900,11.405095947265623,-2.445802668055892,1.3673650422811507,2.075465234711021
