time,seconds_elapsed,z,y,x
1746278059090973000,0.027972900390625,4.72517851011455,1.8423188882678747,0.8883809178650378
1746278059100953000,0.037953125,3.3348534480065104,2.1874331791594623,0.23953648587167262
1746278059110932000,0.047931884765625,1.5319482862383127,2.544990187516808,-0.4454553643018007
1746278059120910800,0.057910888671875,-0.024659809482097624,2.8324864021763205,-1.3488158246338366
1746278059130890000,0.067889892578125,-1.0108008443534373,3.0807728884756562,-2.255003617346287
1746278059140870100,0.0778701171875,-1.5763263571470976,3.3356533662125467,-3.123565736019611
1746278059150849000,0.08784912109375,-1.6820517539441584,3.7066853576928374,-4.1360318832367655
1746278059160828000,0.097827880859375,-1.6324626703888176,4.069152057662606,-5.206459221035241
1746278059170806800,0.107806884765625,-1.9905185681790112,4.287261724624037,-6.7806397983253
1746278059180787200,0.117787109375,-2.8106472030729055,4.534823111519217,-8.755355232694745
1746278059190766000,0.12776611328125,-3.8373978962302204,4.778924421088397,-10.434401959604024
1746278059200745200,0.1377451171875,-4.998503868341445,5.081780701965093,-10.872269645255804
1746278059210723800,0.147723876953125,-5.810480760961771,5.413643589356541,-9.85974679941535
1746278059220704000,0.1577041015625,-5.1665983352899545,5.740206032252312,-8.5399384580791
1746278059230683100,0.16768310546875,-4.354485833591222,5.869747188922762,-7.237449500334263
1746278059240662000,0.177662109375,-3.9950431576177476,5.596293235880136,-6.463138029241562
1746278059250642200,0.18764208984375,-3.8303386253684755,5.129462490594387,-6.283403977903723
1746278059260621000,0.19762109375,-4.340152187812328,4.03830712980479,-6.314619200378656
1746278059270600200,0.20760009765625,-5.2042789543867105,2.989004413099587,-6.453861082330346
1746278059280579000,0.2175791015625,-6.142185242921114,1.8569559009075163,-6.420207234531641
1746278059290559000,0.22755908203125,-6.495729216244817,0.9229156401515006,-6.104484165558219
1746278059300538000,0.2375380859375,-5.94699935542941,0.15363281087577343,-5.623668149539828
1746278059310517000,0.24751708984375,-4.883082422438264,-0.41453064920604227,-4.808191724365949
1746278059320496000,0.25749609375,-3.7646553161025045,-0.8826824139624834,-3.7626170882731675
1746278059330476000,0.26747607421875,-2.7142858469486235,-0.9930255336880683,-2.8246675451189276
1746278059340455200,0.277455078125,-1.976376645579934,-0.9428303009331226,-1.9373492880493401
1746278059350434000,0.28743408203125,-1.539090559208393,-0.773220168724656,-1.2804092278838157
1746278059360413200,0.2974130859375,-1.143537582194805,-0.5647516058117151,-0.8169301311135292
1746278059370393000,0.30739306640625,-0.770370624512434,-0.2924380549758673,-0.48164252997040746
1746278059380372000,0.3173720703125,-0.45234249346703287,-0.001528232480585575,-0.12364333080351352
1746278059390351000,0.32735107421875,-0.359785790322721,0.25290888540297746,0.2747077524960041
1746278059400331000,0.3373310546875,-0.49147243458926676,0.49242023683339353,0.6460346352696419
1746278059410310100,0.34731005859375,-0.7176172317072749,0.6253861072555184,0.9531599717676639
1746278059420289000,0.3572890625,-0.9810054255485534,0.7235597734987735,1.113645717278123
1746278059430268200,0.36726806640625,-1.1704112683340906,0.6398328580200672,1.3168524141401052
1746278059440248000,0.377248046875,-1.1086536080792546,0.494894225731492,1.4899433742016552
1746278059450227000,0.38722705078125,-0.8479559684962034,0.24869682066589593,1.674480441907048
1746278059460206000,0.3972060546875,-0.36787849588543176,0.007232873862981796,1.9626526561319826
1746278059470185000,0.40718505859375,0.1180669919759035,-0.2539545950636268,2.2447797449737785
1746278059480165000,0.4171650390625,0.5152969622910022,-0.5360176787585019,2.476699910622835
1746278059490144000,0.42714404296875,0.7938581753447651,-0.8034227070257067,2.6284412086635824
1746278059500123100,0.437123046875,0.9189414758235216,-1.0402207078441976,2.6732477341175076
1746278059510103000,0.44710302734375,0.9346917104020714,-1.2897145241066812,2.647822200959921
1746278059520082000,0.45708203125,0.9455231932789087,-1.4788541171714662,2.6955057431548832
1746278059530061000,0.46706103515625,1.0138409427016972,-1.6299521488726139,2.8161265112668272
1746278059540040000,0.4770400390625,1.058012092861533,-1.7431293229803442,2.864023988473415
1746278059550020000,0.48702001953125,1.0207897389262914,-1.8795424112468957,2.773852719160914
1746278059559999000,0.4969990234375,0.8979460340678691,-1.953494951686263,2.5632611727446317
1746278059569978000,0.50697802734375,0.6931400853157043,-2.09088652959615,2.3070488618820906
1746278059579957000,0.51695703125,0.611145692718029,-2.1806512639343736,2.087422360616922
1746278059589937000,0.52693701171875,0.6202966751620174,-2.2589611228004096,1.8838129281729459
1746278059599916000,0.536916015625,0.6255480198189616,-2.4075842888206243,1.7094798590958118
1746278059609895000,0.54689501953125,0.6306161168634891,-2.5698990033239126,1.4268904134392737
1746278059619875000,0.556875,0.6328036900356412,-2.781004929003119,1.1556775173217058
1746278059629854000,0.56685400390625,0.582396568095684,-2.8333029792562123,1.105284716168046
1746278059639833000,0.5768330078125,0.4408060771912336,-2.773410820612311,1.1837608715116976
1746278059649812000,0.58681201171875,0.22821429686844347,-2.640371300432086,1.1461480569541453
1746278059659792000,0.5967919921875,-0.0659831689953804,-2.582962483036518,0.937756650930643
1746278059669771300,0.606771240234375,-0.4378653475642204,-2.5601839572563767,0.6663748279869556
1746278059679750100,0.616750244140625,-0.9339753788262605,-2.45184896248281,0.31068449028432366
1746278059689729300,0.626729248046875,-1.2668997579693793,-2.399553834839165,0.3099626057505607
1746278059699709200,0.636709228515625,-1.3253779581621288,-2.392612345138192,-0.15014146162867545
1746278059709688000,0.64668798828125,-1.3704296905487774,-2.2552087845295667,-1.1689812355309723
1746278059719667200,0.656667236328125,-1.621145157560706,-2.154764543005824,-1.6898545366495847
1746278059729647400,0.6666474609375,-2.5940502787619826,-2.363180206687748,-1.2901952933609484
1746278059739626200,0.676626220703125,-3.0532875001788136,-2.1620757428020236,-0.43939679491519923
1746278059749605000,0.686605224609375,-2.9386949063152072,-1.8126260530546308,-0.05681085150241851
1746278059759584300,0.696584228515625,-2.565246793603897,-1.4107181540563702,-0.4686521154940128
1746278059769564400,0.706564453125,-2.0807921288222073,-1.2822630390569567,-1.0365800132542848
1746278059779543300,0.716543212890625,-1.633519485965371,-1.1770888464018703,-1.06566465344131
1746278059789522200,0.726522216796875,-1.2300883229225874,-1.0207520372644066,-1.1733768401414155
1746278059799501000,0.7365009765625,-0.8189011389255523,-0.8201911787360906,-1.4069313289940357
1746278059809481500,0.7464814453125,-0.48112931975126266,-0.5068231484562158,-1.5256939020186662
1746278059819460400,0.75646044921875,-0.48353462732732294,-0.2849029832959175,-1.5141747291386127
1746278059829439500,0.766439453125,-0.6754454386711121,-0.1285369480639696,-1.591258553341031
1746278059839419400,0.77641943359375,-0.6424766505271196,-0.10623656118959188,-1.745394053041935
1746278059849398300,0.786398193359375,-0.5918512096613645,-0.3321004955396056,-1.9025562070876358
1746278059859377400,0.79637744140625,-0.44181905362606044,-0.33752544319778677,-1.9589251600414512
1746278059869356300,0.806356201171875,-1.083939730322361,0.006976853275299072,-2.0765333023339507
1746278059879336400,0.81633642578125,-1.8310072206586598,0.9851491012245416,-2.3633961875259875
1746278059889315300,0.8263154296875,-1.9275427643060683,1.496437704657018,-2.397172200399637
1746278059899294500,0.83629443359375,-1.8811054227799175,2.3418062870085237,-1.8841472746938466
1746278059909273300,0.8462734375,-1.4702712900042534,2.731256270971894,-1.0174544570237398
1746278059919253200,0.856253173828125,-0.6527116288155317,2.5576301811203357,-0.6032201604157685
1746278059929232400,0.866232421875,-0.4501443989008665,2.384134731911123,-0.6256880128115415
1746278059939211300,0.876211181640625,-0.7119757186889648,1.671229623417556,-0.41504093681573867
1746278059949191400,0.88619140625,-1.1761188323259353,1.2461331565335392,-0.24483225419223306
1746278059959170300,0.89617041015625,-1.6153817717283963,0.7337190562024712,-0.07059329313933849
1746278059969149400,0.9061494140625,-1.9892378807187079,0.19960925689190626,0.036137481307983395
1746278059979128300,0.91612841796875,-2.2638936107665297,-0.17770049968361853,0.047019525328278536
1746278059989108200,0.926108154296875,-2.298364035645127,-0.2767588398069143,0.11226093604564666
1746278059999087400,0.93608740234375,-2.021923760268092,-0.26750702733695503,0.42472237287461756
1746278060009066200,0.946066162109375,-1.4303472758948803,-0.2705821969985962,0.9147048611670732
1746278060019045400,0.95604541015625,-0.6022919396549463,-0.3780073834508657,1.45056413449347
1746278060029025300,0.966025390625,0.20714988152980804,-0.593400192669034,1.8362275856554506
1746278060039004400,0.97600439453125,0.8650555718570947,-0.8607587514460087,1.913492611643672
1746278060048983300,0.9859833984375,1.3236995035558938,-1.099299796539545,1.567699983099103
1746278060058963200,0.995963134765625,1.47639474132061,-1.215083061492443,0.9596464111775159
1746278060068942300,1.0059423828125,1.4202777173012495,-1.2142021870046853,0.4121002071887254
1746278060078921200,1.015921142578125,1.1707868236482142,-0.9987690457761287,-0.023791794475913047
1746278060088900400,1.025900390625,0.7316518945395946,-0.7878507516235113,-0.3392342929422855
1746278060098880300,1.03588037109375,0.2686480140656233,-0.5410545038819313,-0.5718284123301506
1746278060108859400,1.045859375,-0.22993629835546014,-0.2541898651242256,-0.8202566451877356
1746278060118838300,1.05583837890625,-0.6868132203817368,0.020460019704699513,-0.9817980372309684
1746278060128817400,1.0658173828125,-0.7350520583719015,0.03809446059465408,-1.0935744046300648
1746278060138797300,1.07579736328125,-0.5509077893763781,-0.15613690265119076,-1.0505892493844031
1746278060148776200,1.085776123046875,-0.2338029106557369,-0.27153847481012344,-0.8428139294326304
1746278060158755300,1.09575537109375,0.2917307834893465,-0.4199889146119356,-0.8440934478491544
1746278060168735200,1.1057353515625,0.8091174115359783,-0.5715402430385351,-0.7688602199494838
1746278060178714400,1.11571435546875,1.7988497488975523,-0.68776745236665,-0.489200398004055
1746278060188693200,1.125693359375,2.1385884842306373,-1.134484799428284,-0.17043138546347616
1746278060198672400,1.13567236328125,1.406775846171379,-1.3156857084482907,-0.1049789623439312
1746278060208652300,1.14565234375,0.9018705140352249,-1.5951882940053939,-0.1887123075634241
1746278060218631200,1.155631103515625,0.31309505855739117,-1.87514242272228,-0.1265799687772989
1746278060228610300,1.1656103515625,-0.32153906177580355,-1.8792182938590645,0.028300796332955357
1746278060238590200,1.175590087890625,-0.8097709070086478,-1.91327224689126,0.09641045596301555
1746278060248569300,1.1855693359375,-0.5797533601105213,-1.9606199812605976,0.08233809146881103
1746278060258548200,1.19554833984375,0.8361404430180788,-1.8846406111687422,0.3364753496229648
1746278060268527400,1.20552734375,2.427717560788989,-1.7733131565809248,1.0445318490415811
1746278060278507300,1.21550732421875,3.5946751815378666,-2.1587588733389973,1.4959610270559787
1746278060288486100,1.225486083984375,4.5018385412842035,-2.412306933428347,1.3413596634089946
1746278060298465300,1.23546533203125,4.358995419970155,-2.7490651916459203,1.1661802066355944
1746278060308444200,1.245444091796875,3.36476927832067,-2.744716056525707,1.0283341629564762
1746278060318424300,1.25542431640625,2.0178584105253217,-2.3889295649722215,0.7358195356130599
1746278060328403200,1.2654033203125,0.6761363435447215,-2.040689543275535,0.5193728334277868
1746278060338382300,1.27538232421875,-0.16922376323938368,-1.7756474447473882,0.4268114541083574
1746278060348362200,1.2853623046875,-0.2735883930772543,-1.4803995930477976,0.5151666139096022
1746278060358341000,1.295341064453125,0.16861995212733744,-1.168909047077596,0.702607586362958
1746278060368320300,1.3053203125,0.7583364878475666,-0.8247226846858858,0.8691179989904165
1746278060378299100,1.315299072265625,1.2636276044309138,-0.3970587054014206,1.081406996974349
1746278060388279300,1.325279296875,1.6137293283462524,0.13415917185992002,1.1189210273325443
1746278060398258200,1.335258056640625,1.7529069128900765,0.5803723687916994,0.9405728773951529
1746278060408237300,1.3452373046875,1.8281997620224952,1.055447795331478,0.6628788025647402
1746278060418216200,1.35521630859375,1.9120254617005585,1.6420625656440853,0.27655250357985495
1746278060428196000,1.365196044921875,1.9129805704683065,2.1640479196578264,-0.0914846899986267
1746278060438175200,1.37517529296875,1.7449866412848234,2.6035323928564784,-0.37460488153100013
1746278060448154000,1.385154052734375,1.4120868120610712,2.9363483431890605,-0.6289233414709567
1746278060458134300,1.39513427734375,0.9019237055271864,3.224951642307639,-0.9228186095178127
1746278060468113200,1.405113037109375,0.2466127078682184,3.5050571621939537,-1.4048545227199791
1746278060478092300,1.41509228515625,-0.436025272655487,3.7647538080409166,-1.9202631286919116
1746278060488071200,1.4250712890625,-1.096927806711197,3.977409008988738,-2.2825345983505247
1746278060498051000,1.435051025390625,-1.5956863066554068,4.032387384366989,-2.3696757061868903
1746278060508030200,1.4450302734375,-1.8567472265928984,4.087829285603761,-2.339262447744608
1746278060518009000,1.455009033203125,-1.8180127145290375,4.1239579990834,-2.319875610229373
1746278060527988200,1.46498828125,-1.6621598895162344,4.017297951784729,-2.376047579306364
1746278060537968400,1.474968505859375,-1.4921195491969586,3.7737177434802054,-2.50261468860209
1746278060547947300,1.484947265625,-1.30078566095829,3.4876702663242813,-2.621972889432311
1746278060557926100,1.494926025390625,-1.2183306651115418,3.0596015056312083,-2.6365467737078667
1746278060567906300,1.50490625,-1.08923783673048,2.487220135593414,-2.3823428800582884
1746278060577885400,1.514885498046875,-1.0703086798548698,1.7624743671804666,-2.0885504878640173
1746278060587864300,1.5248642578125,-1.1350848111480474,0.8374959492802619,-1.6831179218709469
1746278060597843200,1.53484326171875,-0.9896540114283561,0.05647767402529716,-1.1913012038886546
1746278060607823400,1.5448232421875,-0.6835130097925662,-0.31993454918861386,-0.9100362848341464
1746278060617802500,1.554802490234375,-0.3388023312658071,-0.34540859766304494,-0.7521691973894834
1746278060627781400,1.564781494140625,0.025490999609231946,-0.2912532291054725,-0.7174018353909254
1746278060637761300,1.57476123046875,0.2922095069169998,-0.23207623299360275,-0.9517156181782483
1746278060647740400,1.584740478515625,0.4493254837334156,-0.11078618731796741,-0.985358944582939
1746278060657719300,1.59471923828125,0.46863750244677066,0.12603636341989038,-0.9075888916820287
1746278060667698200,1.6046982421875,0.3449386420637369,0.30713001267313955,-0.7843670011609792
1746278060677678000,1.614677978515625,0.3116062813043594,0.41802141393125053,-0.6492039129555225
1746278060687657200,1.6246572265625,0.41364977471828457,0.5051087457537651,-0.5559206491023302
1746278060697636000,1.634635986328125,0.5154460153728723,0.5210241077661514,-0.4354951113015413
1746278060707615200,1.644615234375,0.6159411103010177,0.49070145021677014,-0.17411445789039134
1746278060717595100,1.65459521484375,0.7739519901305436,0.4482084624022245,0.16884557757675647
1746278060727574000,1.664573974609375,1.039417867028713,0.3332441126167774,0.4778016366332769
1746278060737553200,1.67455322265625,1.4299831187576055,0.21907938877642152,0.7309095517396926
1746278060747533000,1.684532958984375,1.4674480492770672,0.06786883661150932,0.9313239875346422
1746278060757512200,1.69451220703125,1.3027286117196082,-0.1759720684558153,1.1667933700978754
1746278060767491000,1.704490966796875,1.148549272876978,-0.37171500530838963,1.3164175298541783
1746278060777470200,1.71447021484375,1.0274626408189536,-0.49730304043889045,1.381570093244314
1746278060787450000,1.7244501953125,0.9485422488391398,-0.5756073463469743,1.4176725032389164
1746278060797429000,1.734428955078125,0.8885454607769846,-0.7510410701423883,1.579784973168373
1746278060807408000,1.744408203125,0.9729644501730799,-0.9133552001237869,1.6033330220162867
1746278060817387000,1.754386962890625,1.2598308424964546,-0.990961586895585,1.7241893524497747
1746278060827367200,1.7643671875,1.5061159258455037,-1.1093237624257801,1.8564187252908944
1746278060837346000,1.774345947265625,1.5967270478799938,-1.265382339143753,1.9658634348720312
1746278060847325200,1.7843251953125,1.543743937972188,-1.416311736279726,1.9487433732450008
1746278060857305000,1.79430517578125,1.3664309763014315,-1.5392401968121527,1.8709838417381046
1746278060867284000,1.804283935546875,1.149348898822069,-1.6358961519688366,1.828653351008892
1746278060877263000,1.81426318359375,0.878602451172471,-1.7077146029889583,1.7957447686195374
1746278060887242000,1.824241943359375,0.5811500751659274,-1.773120848879218,1.7197417253911493
1746278060897222100,1.83422216796875,0.32293577683120966,-1.7984610418409108,1.6176690058827399
1746278060907201000,1.844200927734375,0.13250526717305183,-1.8144331024765967,1.5214163708299397
1746278060917180200,1.85418017578125,-0.037783494949340815,-1.7913912495851516,1.4673989494383335
1746278060927159000,1.864158935546875,-0.21402181312590837,-1.6917980719327925,1.4393062428981065
1746278060937139000,1.874138916015625,-0.4078884347125888,-1.6265093149423597,1.4474305126428604
1746278060947118000,1.8841181640625,-0.6864066854074597,-1.5906389601379631,1.3442875335544346
1746278060957097000,1.894096923828125,-0.9127864603251218,-1.6075655450195072,1.1303116053968667
1746278060967077000,1.9040771484375,-1.0250623016789555,-1.6129682808458805,0.9763497086971997
1746278060977056000,1.914055908203125,-1.1512412884399295,-1.5932394980251787,0.8988076193332671
1746278060987035100,1.92403515625,-1.3221426295027137,-1.5779396375626324,0.7956026809245348
1746278060997014000,1.934013916015625,-1.587627211101353,-1.6031231786578892,0.7478752995878457
1746278061006994000,1.943993896484375,-1.7938868657931684,-1.6665695226520298,0.6505202562510967
1746278061016973000,1.95397314453125,-1.7913801436692476,-1.7157506099283695,0.4781482581138611
1746278061026952000,1.963951904296875,-1.6619035766676067,-1.800295856052637,0.2993196311831474
1746278061036931000,1.97393115234375,-1.5699813720345497,-1.8378356053739786,0.012653145346045494
1746278061046911000,1.983910888671875,-1.5825624750576912,-1.7753671665012836,-0.17743278865814208
1746278061056890000,1.99389013671875,-1.6821246730498969,-1.7098177127480505,-0.3478448848992586
1746278061066869000,2.003868896484375,-1.8818518572330474,-1.7767729416459799,-0.5838426752507686
1746278061076849000,2.013848876953125,-2.156361895199865,-1.8705957192033529,-0.9521586857706308
1746278061086828000,2.023828125,-2.6316554945349693,-1.7719833692818878,-1.4137035996079443
1746278061096807000,2.033806884765625,-3.0709017750635743,-1.4730699808120726,-1.7299550763696432
1746278061106786000,2.0437861328125,-3.349878875441849,-1.1280927603036164,-2.0949562632530925
1746278061116766000,2.053765869140625,-3.4196453623682257,-0.8657698576062918,-2.43970727379024
1746278061126745000,2.0637451171875,-3.3261241981059313,-0.6016138942629099,-2.6276024197518826
1746278061136724000,2.073723876953125,-3.305905585941672,-0.3358995955616236,-2.852643931803107
1746278061146703000,2.083703125,-3.444686864644289,-0.20758184320628642,-3.1006027935832736
1746278061156683000,2.09368310546875,-3.618995968323946,-0.12360709044635296,-3.2672558295518157
1746278061166662000,2.103661865234375,-3.692137776902318,-0.023214871370792388,-3.3415333641618488
1746278061176641000,2.11364111328125,-3.668585344140231,0.08857318646609783,-3.4321038619250057
1746278061186621000,2.123620849609375,-3.6124317875027656,0.2740408130198717,-3.462558621421456
1746278061196600000,2.13360009765625,-3.4973318286389112,0.556159718555212,-3.406777112966776
1746278061206579000,2.143578857421875,-3.3202652429446577,0.9330915817290544,-3.1707980273157355
1746278061216558000,2.15355810546875,-3.2315041326910254,1.3660522061169147,-3.004836480742693
1746278061226538000,2.1635380859375,-3.3878947178423404,1.8407120375931263,-2.815768783870339
1746278061236516900,2.173516845703125,-3.6858509517177938,2.3341841215670107,-2.5379350083082914
1746278061246496000,2.18349609375,-4.0745720368847245,2.6338690789312125,-2.5438597221821544
1746278061256475000,2.193474853515625,-4.436631032836437,2.599915371403098,-2.527079852294922
1746278061266455000,2.203455078125,-4.685490058326721,2.3345056086063383,-2.539291683614254
1746278061276434000,2.213433837890625,-4.656629874545335,1.7386299657344817,-2.6786896329104897
1746278061286413000,2.2234130859375,-4.347185739710927,0.9500871401935815,-2.835441452589631
1746278061296393000,2.23339306640625,-3.8334143795520066,0.14119769219458103,-2.887753239107132
1746278061306371800,2.243371826171875,-3.101650256809592,-0.4576514135301113,-2.8631834459960457
1746278061316351000,2.25335107421875,-2.2812828447237607,-0.7640010894805193,-2.8488661668300628
1746278061326329900,2.263329833984375,-1.5217060014262795,-0.8700164091348648,-2.652642752984166
1746278061336310300,2.273310302734375,-0.9480196862697601,-0.8218564815998077,-2.2971453075051307
1746278061346289000,2.283288818359375,-0.5176683675974607,-0.6335381417900323,-1.9444810396254062
1746278061356268000,2.29326806640625,-0.16378186444640158,-0.38587154095470905,-1.6393074217170476
1746278061366248200,2.303248291015625,0.12755348998457192,-0.15447802952826023,-1.359430742150545
1746278061376227000,2.31322705078125,0.4121677194669843,0.0022533318847417832,-1.0941367146879435
1746278061386206200,2.323206298828125,0.6536731673240661,0.08109305984377861,-0.8071808905154466
1746278061396184800,2.333184814453125,0.8262371809020638,0.10673837323188781,-0.4878711952269077
1746278061406165200,2.343165283203125,0.9514911617726087,0.027901567882299423,-0.17505203100144862
1746278061416144100,2.35314404296875,1.0213587709859013,-0.1154530100852251,0.02319090597331524
1746278061426123300,2.363123291015625,1.010816626444459,-0.2802577878385782,0.23099603654146192
1746278061436102100,2.37310205078125,0.9617626726791262,-0.4333171827405691,0.43852176564633844
1746278061446082000,2.38308203125,0.9278750161245465,-0.523054152289033,0.6908861689090728
1746278061456061200,2.393061279296875,0.938689255605638,-0.6318582258790731,0.9417612103968858
1746278061466040000,2.4030400390625,1.0069619968429206,-0.720709060242772,1.1581897924035787
1746278061476020200,2.413020263671875,1.0506444867029785,-0.7607493942081928,1.3450585179269312
1746278061485999000,2.4229990234375,1.0279384416371584,-0.7989525758743286,1.5346014310956
1746278061495978200,2.432978271484375,1.063661496925354,-0.8570026137828827,1.79098383782804
1746278061505957000,2.44295703125,1.171992400045693,-0.8815209689676761,2.0055144772589206
1746278061515937000,2.45293701171875,1.2663996994927524,-0.8548357911378145,2.210657110619545
1746278061525916200,2.462916259765625,1.3040937625929712,-0.7723714429408312,2.3349901772528887
1746278061535895000,2.47289501953125,1.3528423036709427,-0.7220008536189794,2.4142677121073004
1746278061545874200,2.482874267578125,1.4231512269109488,-0.6844727947354317,2.4330595063388345
1746278061555854000,2.49285400390625,1.469380478644371,-0.5998258418023585,2.4410943442344664
1746278061565833200,2.502833251953125,1.4986375527888536,-0.4895785836666822,2.4347253937244413
1746278061575812000,2.51281201171875,1.5436907464802265,-0.32291268821656705,2.539302789530158
1746278061585792000,2.5227919921875,1.4953753361225128,-0.027270868763327596,2.7544916006088256
1746278061595771100,2.532771240234375,1.3008487893223761,0.37534488624334333,3.0960861929416654
1746278061605750000,2.54275,1.1358306610792874,0.7018330948591232,3.369566449469328
1746278061615729200,2.552729248046875,0.9735264679700135,0.9605556349769234,3.564744738176465
1746278061625709000,2.562708984375,0.8000286806732416,1.1662632087439297,3.6717858937472103
1746278061635688200,2.572688232421875,0.5642915870845318,1.3449831146031617,3.758766258063912
1746278061645667000,2.5826669921875,0.1849871495604515,1.4691782340705395,3.8731215360403057
1746278061655646200,2.592646240234375,-0.12785831815004348,1.4467816933453082,3.901109028640389
1746278061665626400,2.60262646484375,-0.2648743407458067,1.4720543740287422,3.8710686951637268
1746278061675605200,2.612605224609375,-0.24731822578907012,1.5299007060587406,3.765238668948412
1746278061685584400,2.62258447265625,-0.0722924982726574,1.6831041856065392,3.665462535944581
1746278061695564300,2.632564208984375,0.13886808020323513,1.9702502716541288,3.6524253597170113
1746278061705543200,2.642543212890625,0.42519525108337397,2.3334943857371804,3.684308690711856
1746278061715522300,2.652522216796875,0.7631891885757446,2.753248322549462,3.711925011911988
1746278061725501200,2.662501220703125,1.0794345278576016,3.1703532061576842,3.6790567615330216
1746278061735481300,2.6724814453125,1.2685872726649046,3.466867132270336,3.635782852473855
1746278061745460200,2.682460205078125,1.311796592055261,3.725264970478415,3.5637574807047843
1746278061755439400,2.692439453125,1.2172387782216072,4.028158660756051,3.613247780060768
1746278061765418200,2.702418212890625,1.0919231302917003,4.206722791531682,3.646017830762267
1746278061775398100,2.712398193359375,0.9114531658947467,4.294907855463028,3.367805869537592
1746278061785377300,2.722377197265625,0.7151727611646056,4.3563828993842,2.916531005302071
1746278061795356200,2.732356201171875,0.5569827253758907,4.445811533635855,2.4627690004259346
1746278061805336600,2.742336669921875,0.28908348385095595,4.6271717248708,2.0302204639703034
1746278061815315500,2.7523154296875,0.05703063173294067,4.7433264534845945,1.6270353846430778
1746278061825294300,2.76229443359375,-0.0507160417586565,4.853593877625465,1.2641805621385573
1746278061835273200,2.772273193359375,-0.03673515494018793,5.027479202935099,0.9743950674980878
1746278061845253400,2.78225341796875,0.07971095783561467,5.277972551628947,0.6567389846354723
1746278061855232500,2.792232421875,0.2783811803117394,5.622837543934583,0.33386955103874205
1746278061865211100,2.802211181640625,0.46909518308639525,5.873702648550272,0.06034194823801517
1746278061875190300,2.812190185546875,0.7003568848267198,5.862567506551742,-0.24112813897728919
1746278061885170400,2.82217041015625,0.9062509210765362,5.637476894661784,-0.6404425143510103
1746278061895149600,2.832149658203125,1.07102194269076,5.3794385374158615,-1.011534419324994
1746278061905128400,2.84212841796875,1.112452854231745,5.129510421389341,-1.3481974004745483
1746278061915108400,2.8521083984375,1.0375362910658121,4.867080551186204,-1.58646722741127
1746278061925087500,2.86208740234375,0.7417226221770048,4.572160031744837,-1.5626654960632322
1746278061935066400,2.87206640625,0.2448053661853075,4.158787904924154,-1.2431249146282672
1746278061945045500,2.88204541015625,-0.3348426338545978,3.612664427214861,-0.8552467100262642
1746278061955025400,2.892025390625,-0.8530918700799346,2.953354130786657,-0.49539399194717404
1746278061965004500,2.902004638671875,-1.318628191640973,2.149246071845293,-0.27585809157490726
1746278061974983400,2.9119833984375,-1.6961461841396988,1.3083043660253286,-0.2558709500789642
1746278061984963300,2.92196337890625,-1.8181038999438284,0.5321913984686136,-0.489485644686222
1746278061994942500,2.9319423828125,-1.5591617257259784,-0.14575754745602607,-0.9462824872136115
1746278062004921300,2.94192138671875,-1.1563986712031065,-0.6719879916936159,-1.4258049562901258
1746278062014900500,2.951900390625,-0.800354259365797,-1.0436503900319338,-1.8523381779789923
1746278062024880400,2.96188037109375,-0.5288898727051914,-1.420267195907235,-2.1397171959996224
1746278062034859500,2.971859619140625,-0.44120808212086554,-1.6869465402483939,-2.3317712152063845
1746278062044838400,2.98183837890625,-0.4069971849612891,-1.8411703027546404,-2.5169687926471234
1746278062054817500,2.991817626953125,-0.37717721623703837,-1.9340379715442657,-2.6783488566488027
1746278062064797400,3.00179736328125,-0.3610882512234151,-1.9220552728056906,-2.744723655310273
1746278062074776300,3.0117763671875,-0.4058823555871844,-1.893417207342386,-2.7181203105449674
1746278062084755500,3.02175537109375,-0.4312473907291889,-1.8008283554941416,-2.5976135242015124
1746278062094735400,3.0317353515625,-0.3852595465362072,-1.6837229020267723,-2.373587326672673
1746278062104714500,3.041714599609375,-0.3606564356774091,-1.6316297266960142,-2.023484433713555
1746278062114693400,3.051693359375,-0.37145021689236163,-1.688610089546442,-1.6332389154583216
1746278062124672500,3.061672607421875,-0.43032150805592534,-1.8267033859848976,-1.258410746565461
1746278062134652400,3.07165234375,-0.47585035643503065,-2.0258505783230065,-0.9266407981544732
1746278062144631300,3.08163134765625,-0.5252963782578707,-2.263768523082137,-0.5954734918117522
1746278062154610400,3.0916103515625,-0.5631073457360267,-2.4921517467767,-0.34580782611370087
1746278062164590300,3.10159033203125,-0.5965899286210536,-2.694081263309717,-0.026417466804385184
1746278062174569500,3.111569580078125,-0.5851011508792638,-2.8881436997294423,0.26275369533002374
1746278062184548400,3.12154833984375,-0.5543428783915937,-3.0169927824825047,0.5219388845235109
1746278062194527500,3.131527587890625,-0.47051250253841276,-3.072456895551085,0.7603753001987934
1746278062204507400,3.14150732421875,-0.376379636118561,-3.164978527382016,1.0370873782545327
1746278062214486300,3.151486328125,-0.27946678359135985,-3.219108761498332,1.2960650621771812
1746278062224465400,3.16146533203125,-0.24047639707028864,-3.2267280043303965,1.4582973590940236
1746278062234444300,3.1714443359375,-0.2480592534147203,-3.241191413968801,1.6231033058911561
1746278062244424400,3.181424560546875,-0.27959187127575275,-3.2306349486410615,1.7551684280812738
1746278062254403300,3.1914033203125,-0.3054758157253265,-3.252814631745219,1.736527440497279
1746278062264382500,3.201382568359375,-0.2872550993800163,-3.3361738829553125,1.6333528972268103
1746278062274362400,3.2113623046875,-0.19714476647451518,-3.4543466733932493,1.4228700718820093
1746278062284341200,3.22134130859375,-0.08757365403473377,-3.542397881811857,1.1680226196318864
1746278062294320400,3.2313203125,0.04870309450104832,-3.6533477352589365,1.0102730210870503
1746278062304299300,3.24129931640625,0.1850087768703699,-3.731565531927347,0.8999117811828851
1746278062314279400,3.251279541015625,0.29354236295595765,-3.7931215321302414,0.7766139028161764
1746278062324258300,3.26125830078125,0.39050212336480616,-3.8153164128035306,0.5673854614466428
1746278062334237400,3.271237548828125,0.4274002137817442,-3.757424195805192,0.27517127835452554
1746278062344216300,3.28121630859375,0.4079683680810034,-3.5614082872301336,-0.052369654184579846
1746278062354196200,3.2911962890625,0.3567304944053292,-3.335145708951354,-0.3799877436131239
1746278062364175400,3.30117529296875,0.25917992849647997,-3.1105940262436866,-0.6749614545464515
1746278062374154200,3.311154296875,0.12971242158412932,-2.8755811552762984,-0.9557114098161459
1746278062384134400,3.321134521484375,0.005660509979724884,-2.612841488471627,-1.268224869093299
1746278062394113300,3.33111328125,-0.14195011799708007,-2.315240936166048,-1.5794178934216498
1746278062404092400,3.341092529296875,-0.34942499369755387,-2.0715350556552408,-1.831480683389306
1746278062414071300,3.3510712890625,-0.5922433507841081,-2.0777216353356835,-1.9725965425193308
1746278062424051200,3.36105126953125,-0.8667366568118333,-2.277597141948342,-2.113926336660981
1746278062434030300,3.3710302734375,-1.082461985919997,-2.4602719229131935,-2.3769530037134885
1746278062444009200,3.38100927734375,-1.1080430749654768,-2.387528758263588,-2.821367334529757
1746278062453989400,3.3909892578125,-0.9786739138610661,-2.075980929148197,-3.341896352255344
1746278062463968300,3.40096826171875,-0.8423359366573393,-1.5447387942284345,-3.85282284437716
1746278062473947400,3.410947509765625,-0.7694038253068923,-0.9199655581742524,-4.251924453783035
1746278062483926300,3.42092626953125,-0.7402280727703124,-0.26282325343489643,-4.523883199831843
1746278062493906200,3.43090625,-0.6789047122795134,0.4625444462686777,-4.626823349824548
1746278062503885300,3.44088525390625,-0.6229770002871752,1.259641749665141,-4.562162953865528
1746278062513864200,3.4508642578125,-0.5743699135065078,1.9519214187592266,-4.367680246207118
1746278062523843300,3.46084326171875,-0.5963887800257652,2.449043257412314,-4.147328353276849
1746278062533823200,3.4708232421875,-0.7781323445551097,2.908450574699044,-4.161964196872711
1746278062543802400,3.48080224609375,-0.9611099078588187,3.211863612675667,-4.323856302049756
1746278062553781200,3.49078125,-1.1305716445725411,3.390213516178727,-4.585843689182401
1746278062563761400,3.500761474609375,-1.323137778019905,3.507278053113818,-4.80436719764173
1746278062573740500,3.510740478515625,-1.4772224243164063,3.5188527555733917,-4.912821727141738
1746278062583719200,3.52071923828125,-1.664230266049504,3.5524551654458043,-5.009169639262557
1746278062593698300,3.5306982421875,-1.8940806396871803,3.519003562220931,-5.030962953397632
1746278062603678500,3.540678466796875,-2.2051006455361843,3.357109703478217,-4.890889296796917
1746278062613657600,3.55065771484375,-2.6076655471384522,3.0969442710757256,-4.723338435205817
1746278062623636500,3.560636474609375,-2.9356641603171822,2.6977380322515963,-4.531016120451689
1746278062633616400,3.570616455078125,-3.0858652431786058,2.3372101913899184,-4.428970288950205
1746278062643595500,3.580595458984375,-3.108323158702254,1.9663924271821975,-4.45063267018199
1746278062653574400,3.590574462890625,-3.0582699647665024,1.5788345405757427,-4.554748878216743
1746278062663553500,3.600553466796875,-2.9024691622018812,1.1340081218272446,-4.700983395534753
1746278062673533000,3.610532958984375,-2.658358792543411,0.6076555125147104,-4.729958145606518
1746278062683512000,3.620511962890625,-2.2845360013008116,-0.04565934289097786,-4.653391038754582
1746278062693491000,3.630490966796875,-1.848023237389326,-0.673860215306282,-4.504364844891429
1746278062703470800,3.640470947265625,-1.4333096328318118,-1.1199246514171362,-4.256939651596546
1746278062713450000,3.650449951171875,-0.9583792407859116,-1.381982765698433,-3.9537954936891793
1746278062723428900,3.660428955078125,-0.508844425150752,-1.4806196655392645,-3.6469191635161637
1746278062733408000,3.670407958984375,-0.1058323643028736,-1.4678981311321257,-3.264507992148399
1746278062743388000,3.680387939453125,0.1906606651522219,-1.403385034689307,-2.798409652790427
1746278062753367000,3.690366943359375,0.3944905354138464,-1.2889572759985923,-2.329468783482909
1746278062763346000,3.700345947265625,0.5450866089422255,-1.1447352675467728,-1.8966835156619548
1746278062773325000,3.710324951171875,0.6667308018177748,-0.9825099848926067,-1.5249088891208171
1746278062783305000,3.720304931640625,0.7677830922372638,-0.7663070283353328,-1.2107143448889255
1746278062793283800,3.730283935546875,0.8378830489017068,-0.5460381375133991,-0.9532312834382056
1746278062803263000,3.740262939453125,0.8717343189686536,-0.4300356768518686,-0.7107838785558939
1746278062813243000,3.750242919921875,0.8915491726376116,-0.374465180799365,-0.42855975908041
1746278062823222000,3.760221923828125,0.9227075503587723,-0.32207974452376364,-0.11941314588785171
1746278062833201000,3.770200927734375,0.8644529297888278,-0.22859540514051913,0.11529752726256846
1746278062843180000,3.780179931640625,0.6619739626795053,-0.1399012226432562,0.35451369513869285
1746278062853160000,3.790159912109375,0.4827478608638048,-0.07190612930357455,0.6192500887185335
1746278062863138800,3.800138916015625,0.36862186159864063,0.01866027680635452,0.9174988757997751
1746278062873118000,3.810117919921875,0.20884689470604062,0.10641747071444987,1.1606944687008858
1746278062883097900,3.820097900390625,-0.02453428340628743,0.27040041069090365,1.374542971086502
1746278062893077000,3.830076904296875,-0.27602453418299555,0.43466509021818633,1.4928256516396998
1746278062903056000,3.840055908203125,-0.5053938463054597,0.574777909785509,1.5927403163313865
1746278062913035000,3.850034912109375,-0.7318564772009849,0.6932452992558479,1.6984791571319102
1746278062923015000,3.860014892578125,-0.951326326599717,0.7706815901577472,1.8431337117820976
1746278062932993800,3.869993896484375,-1.12761988209486,0.8454337565422058,1.9813877517402172
1746278062942973000,3.879972900390625,-1.269994509114325,0.9137263715237378,2.123987711948156
1746278062952952800,3.889952880859375,-1.3303168758690356,1.0200532413452863,2.1849965996623038
1746278062962932000,3.899931884765625,-1.2779811239540577,1.108602462413907,2.1651520815074443
1746278062972910800,3.909910888671875,-0.9969479678288101,1.1691899098455905,2.2836650636851785
1746278062982890000,3.919889892578125,-0.5621947609357536,1.2736807964116335,2.522112585276365
1746278062992870000,3.929869873046875,-0.08701046719402074,1.4053811769425868,2.8690421088963745
1746278063002848800,3.939848876953125,0.3334209304884076,1.5308739350050686,3.217273362764716
1746278063012828000,3.949827880859375,0.7224941900938749,1.5924918945282698,3.5575516118019817
1746278063022807800,3.959807861328125,1.0276061409428716,1.6561054117828606,3.842990601670742
1746278063032787000,3.969786865234375,1.2863424173250793,1.6746391396000981,4.078000550028682
1746278063042765800,3.979765869140625,1.526625045388937,1.720171641241014,4.148785566347837
1746278063052745000,3.989744873046875,1.7028920051380991,1.7284195373654365,4.126497162172198
1746278063062724900,3.999724853515625,1.934807786872983,1.703992367595434,4.1514276052892205
1746278063072703700,4.009703857421875,2.1525030278146264,1.7164549588054419,4.176338759183883
1746278063082683000,4.019682861328125,2.3881898525208234,1.746656620323658,4.238308016362786
1746278063092661800,4.029661865234375,2.612246737448871,1.7685133550837635,4.31558648635447
1746278063102642000,4.039641845703125,2.8719197101593017,1.8606649845585226,4.440428671553731
1746278063112620800,4.049620849609375,3.2097505660444496,2.0451763333007693,4.585580069810152
1746278063122600000,4.059599853515625,3.5341906099587677,2.260726671168208,4.722737546703219
1746278063132579800,4.069579833984375,3.8460760004654526,2.579239955382049,4.752486203756928
1746278063142558700,4.079558837890625,4.119058244343102,2.955748916968703,4.832775546002388
1746278063152537900,4.089537841796875,4.322078186461329,3.329085678260028,4.917077631020546
1746278063162516700,4.099516845703125,4.450310014098882,3.6536712681248784,4.881188571515679
1746278063172497000,4.109496826171875,4.409712046250701,3.9036654351249336,4.747797753679752
1746278063182475800,4.119475830078125,4.222455198192597,4.076555319656431,4.476641556185483
1746278063192455000,4.129454833984375,3.9206665465474124,4.1298073096334935,4.143452388626337
1746278063202434800,4.139434814453125,3.5951486442685123,4.168437484540045,3.6822102571278807
1746278063212413700,4.14941357421875,3.172388511377573,4.261711688303947,3.0864965268194675
1746278063222392800,4.159392822265625,2.6928508447319266,4.422740454649925,2.4356851786673066
1746278063232371700,4.169371826171875,2.3050644100666045,4.680285183160007,1.761167960757017
1746278063242351900,4.179351806640625,2.091447378349304,5.053172447118163,1.1330810701102019
1746278063252330800,4.189330810546875,1.8973177219122648,5.4343333261638875,0.6469178478449583
1746278063262310000,4.199309814453125,1.595637206816673,5.598676916146278,0.2581260355293751
1746278063272289800,4.209289794921875,1.2493670238882302,5.710729762399196,-0.4302712391734123
1746278063282268700,4.2192685546875,0.7732324436843395,5.863929442554712,-1.5060814390540123
1746278063292247800,4.229247802734375,0.1826777035742998,5.852193412053585,-2.519516723564267
1746278063302226700,4.239226806640625,-0.23222937772870061,5.340908608013391,-2.946114242660999
1746278063312207000,4.24920703125,-0.5732230815589427,5.6568567179143425,-3.808412624764442
1746278063322185700,4.259185791015625,-0.9484954870879649,5.294409891688823,-3.8207232402831313
1746278063332164900,4.269164794921875,-0.9802429167434572,4.596712873721122,-3.2607062617778775
1746278063342145000,4.27914501953125,-1.102764842301607,3.8840065026700494,-2.7097686617851258
1746278063352124000,4.2891240234375,-1.5442346440985797,2.7636054659128186,-2.114446561142802
1746278063362103000,4.29910302734375,-2.1946333197966217,1.6147154167741535,-1.8943606256723402
1746278063372081700,4.30908154296875,-2.7507611819088456,0.672187313657999,-1.9986755711495876
1746278063382062000,4.31906201171875,-3.050651598717272,-0.03885200096368789,-2.2186142071038484
1746278063392041000,4.329041015625,-3.131869161723554,-0.579539425098896,-2.3084476227641106
1746278063402020000,4.33902001953125,-3.0481422462448475,-0.9542752395331859,-2.2334242382228373
1746278063412000000,4.349,-2.8445301834523677,-1.217377309909463,-2.0083681131243702
1746278063421979000,4.358978759765625,-2.574467334152758,-1.486174961578846,-1.7227298012912273
1746278063431958000,4.3689580078125,-2.23332603854537,-1.7246750901401042,-1.4990519788086414
1746278063441937000,4.37893701171875,-1.853452276700735,-1.8316677303940057,-1.4257663778454064
1746278063451917000,4.3889169921875,-1.5688178812131284,-1.8705255765765905,-1.4011860633403062
1746278063461896000,4.39889599609375,-1.492661108727753,-1.8955963049471378,-1.5512416002511977
1746278063471875000,4.408875,-1.4815966938778757,-1.934975544655323,-1.719434851399064
1746278063481854000,4.41885400390625,-1.3334089966654776,-1.915702104386687,-1.8084972826868295
1746278063491833900,4.428833740234375,-1.150984683330357,-1.919945148783922,-1.7436007398843765
1746278063501813000,4.43881298828125,-0.9708794605925679,-1.958278678831458,-1.6560633262068032
1746278063511791900,4.4487919921875,-0.824177910284698,-2.1060797148138284,-1.5758452956318854
1746278063521772000,4.45877197265625,-0.7181465162783861,-2.3484663294196126,-1.4816320574522017
1746278063531751000,4.4687509765625,-0.6354501128911971,-2.651948340979218,-1.3421136966466902
1746278063541730000,4.47872998046875,-0.5014578220307827,-2.9886136602163313,-1.208432371431589
1746278063551709000,4.488708984375,-0.3391325861334801,-3.2722470619678496,-1.0515496188491582
1746278063561688800,4.498688720703125,-0.282169758939743,-3.521905713403225,-0.8796376394391059
1746278063571668000,4.50866796875,-0.34916999602317805,-3.768610191208124,-0.7350298465400934
1746278063581646800,4.518646728515625,-0.45074236479401586,-4.0068607289224865,-0.656133419957757
1746278063591627000,4.528626953125,-0.5581935624703764,-4.182438829624653,-0.6277513750821352
1746278063601606000,4.53860595703125,-0.5991039572685957,-4.32972314825654,-0.589869680455327
1746278063611585000,4.5485849609375,-0.5804489411592483,-4.388648799955845,-0.5421750323444604
1746278063621564000,4.55856396484375,-0.4731900511845946,-4.455711580881476,-0.40206688895225523
1746278063631543800,4.568543701171875,-0.21017916622310875,-4.423784995266795,-0.2012865424543619
1746278063641523000,4.57852294921875,0.14545418059527873,-4.228094080862403,0.037544425496459005
1746278063651501800,4.588501708984375,0.4742112109258771,-3.9859026965677735,0.35667291899919507
1746278063661482000,4.59848193359375,0.7840519438624381,-3.884775733476877,0.5869499936163425
1746278063671461000,4.608461181640625,1.0187228695243598,-3.7355776901781557,0.6618512130826711
1746278063681440000,4.61843994140625,1.1082967574656009,-3.551730358302593,0.6562766278207302
1746278063691419000,4.6284189453125,1.0144441692918538,-3.347771381768584,0.6214952372968197
1746278063701399000,4.63839892578125,0.8373609247237443,-3.141330525290966,0.6060936700254679
1746278063711378200,4.648378173828125,0.660012599478662,-2.897065257331729,0.646323389083147
1746278063721357000,4.658357177734375,0.4495961173683405,-2.5985715555787086,0.6622907735437155
1746278063731337000,4.6683369140625,0.24171675252020358,-2.393047229424119,0.5548837072700262
1746278063741316000,4.678316162109375,0.1275397537201643,-2.1225158858299253,0.35460955672860145
1746278063751295000,4.688294921875,0.14258300907313823,-1.8735200822174547,0.21595044310092926
1746278063761274000,4.698274169921875,0.07174743161052465,-1.6527876655369995,0.061684595018625256
1746278063771254000,4.70825390625,-0.20101883142888544,-1.4715911404311657,-0.19519699340760707
1746278063781233200,4.718233154296875,-0.6077683252394199,-1.3192770109385252,-0.5345978750884532
1746278063791212000,4.7282119140625,-1.0380419025003909,-1.1062789879024029,-0.9082441407203674
1746278063801192000,4.73819189453125,-1.5262901143461465,-0.8758826708197593,-1.2201795078486204
1746278063811171000,4.748171142578125,-1.932726012162864,-0.6087339554011821,-1.485876270893216
1746278063821150000,4.75814990234375,-2.297311311721802,-0.2591998022407293,-1.6252344727009533
1746278063831130000,4.768130126953125,-2.691981076160073,0.10529752677381038,-1.7152169414430856
1746278063841109000,4.77810888671875,-3.0225486630439757,0.5618313344508409,-1.8283184199661016
1746278063851088100,4.788088134765625,-3.3266718951165672,1.0271885000526904,-1.998243609473109
1746278063861067000,4.79806689453125,-3.708081195965409,1.4289099365681408,-2.2552701593279836
1746278063871047000,4.808046875,-4.137473314216733,1.6733289337843655,-2.352820432975888
1746278063881026000,4.818026123046875,-4.485771788102388,1.768378038266301,-2.4426795675992965
1746278063891005000,4.8280048828125,-4.730955924472212,1.7575363262563943,-2.4792852509409187
1746278063900985000,4.837985107421875,-4.8089548176929355,1.6761615268617867,-2.391892798691988
1746278063910964000,4.8479638671875,-4.665186105966567,1.599535383298993,-2.3158295497089623
1746278063920943000,4.857943115234375,-4.311257517239451,1.5743085875838994,-2.1915116806447505
1746278063930922000,4.867921875,-3.9065754773527384,1.573237158960104,-1.980496355858445
1746278063940902000,4.87790185546875,-3.5369583211064337,1.638456357845664,-1.8803256705790756
1746278063950881000,4.887881103515625,-3.3111849876493213,1.6813935822963713,-1.8001923956781625
1746278063960860000,4.89785986328125,-3.2042160205319523,1.6797393853485583,-1.7661475027352571
1746278063970840000,4.907840087890625,-3.240672066269815,1.5571540391653775,-1.7589292419195175
1746278063980819000,4.91781884765625,-3.3655876089662313,1.305114630073309,-1.6420786399960516
1746278063990798000,4.927798095703125,-3.4785242523163555,0.9740157127916812,-1.442423498135805
1746278064000777000,4.93777685546875,-3.382182769936323,0.6648889733433723,-1.2625018152713774
1746278064010756900,4.9477568359375,-3.075583503139019,0.43051030862629414,-1.0617997947067022
1746278064020736000,4.957736083984375,-2.589851073506474,0.260177707362175,-0.765262487718463
1746278064030715000,4.96771484375,-1.973804749265313,0.2726940745860338,-0.432953610125184
1746278064040695000,4.977695068359375,-1.3650959283053874,0.2819698524534702,-0.11489420715868473
1746278064050674000,4.987673828125,-0.8142749404296279,0.2749380541205406,0.057573652568459505
1746278064060653000,4.997653076171875,-0.3127355775952339,0.2856055786073208,0.2067073984593153
1746278064070632000,5.0076318359375,0.06647767451405524,0.3091501203238964,0.3329775706350803
1746278064080611800,5.01761181640625,0.3845627964437008,0.32898411708474157,0.4183592675834894
1746278064090591000,5.027591064453125,0.6449439174234867,0.3769850546658039,0.4880599957972765
1746278064100569900,5.03756982421875,0.8136053706049918,0.42196459859907626,0.5690659618794918
1746278064110550000,5.047550048828125,0.937833223298192,0.45202831295132634,0.7276648707300424
1746278064120529000,5.05752880859375,1.1045464650213719,0.4662286877393722,0.9292238003849983
1746278064130508000,5.067508056640625,1.2566928367316723,0.505028666254878,1.083133674636483
1746278064140487000,5.07748681640625,1.374261231535673,0.5729150385230779,1.2881699250131844
1746278064150466800,5.087466796875,1.4943623596876858,0.631718525147438,1.5023603727042674
1746278064160446000,5.097446044921875,1.5582418344020843,0.6500842029213905,1.7188620199471711
1746278064170424800,5.1074248046875,1.5831687703877686,0.5563917737454176,1.9312761056154966
1746278064180405000,5.117405029296875,1.5634014091223478,0.41019115869700906,2.0175158806979656
1746278064190383900,5.1273837890625,1.5314426748037338,0.2307452766507864,2.0458885732233525
1746278064200363000,5.137363037109375,1.5307476782768963,0.04513970293104648,1.9979221224337815
1746278064210342000,5.147341796875,1.6191484307855366,-0.15145137518346308,1.9783973377525805
1746278064220321800,5.15732177734375,1.6969886263132095,-0.25491642583310603,2.0249948382765055
1746278064230301000,5.167301025390625,1.7193495112031698,-0.3308592633068561,2.0432044487059113
1746278064240279800,5.17727978515625,1.8093828333497046,-0.3905535612910986,2.1449983512729407
1746278064250260000,5.187260009765625,1.9617302805900572,-0.33809330621361733,2.232214862433076
1746278064260238800,5.19723876953125,2.0813468400955197,-0.27402035475373265,2.2554683122485875
1746278064270218000,5.207218017578125,2.143572117862105,-0.20604688872396945,2.266620405381918
1746278064280198100,5.2171982421875,2.2400036166131496,-0.12416413980722427,2.2492256184667347
1746278064290177000,5.227177001953125,2.2519839772641657,-0.08770166432857512,2.256882270699739
1746278064300156000,5.237156005859375,2.26249426536262,-0.06735708769708872,2.3367209465682506
1746278064310134800,5.247134765625,2.241664243301749,-0.05811112044602632,2.3769775536328552
1746278064320115200,5.257115234375,2.1629449268519876,-0.032760698351263995,2.3950901334285737
1746278064330094000,5.267093994140625,2.0027841755121947,-0.029996786595880984,2.3890005843818187
1746278064340073200,5.2770732421875,1.8658312812805176,-0.004787818798422813,2.328057163119316
1746278064350051800,5.2870517578125,1.846993894341588,0.06259264977425337,2.285481173196435
1746278064360032000,5.297031982421875,1.8267127383351325,0.17954641981124878,2.2443980521798133
1746278064370011100,5.30701123046875,1.769398028963804,0.3129895523563027,2.2285247757434843
1746278064379990000,5.316989990234375,1.7971259938448667,0.4491515884712338,2.2636370056569577
1746278064389970200,5.32697021484375,1.9249048170179128,0.6114736094981431,2.3291917201071977
1746278064399949000,5.336948974609375,1.96345988086164,0.738389386101067,2.284507359728217
1746278064409928200,5.34692822265625,1.9390029004752636,0.8271022732987999,2.2916677528768776
1746278064419908000,5.356908203125,1.898585549890995,0.8652952258318662,2.3428438133627174
1746278064429887000,5.366886962890625,1.8735487237900494,0.8884820401519536,2.3381471799790856
1746278064439866000,5.3768662109375,1.757924448791146,0.8792641299515962,2.1894874813407657
1746278064449845000,5.386844970703125,1.596428064933419,0.8381602584078908,1.9436293912321327
1746278064459825200,5.3968251953125,1.4567127202510832,0.7896575087845324,1.6365250975221395
1746278064469804000,5.406803955078125,1.4496744921773672,0.7755006808772683,1.3944523711711168
1746278064479783200,5.416783203125,1.6362614781498908,0.815154938134551,1.2424474537581205
1746278064489763000,5.42676318359375,1.8533377104103563,0.8846993067428469,1.0581062008857727
1746278064499742000,5.436741943359375,1.984233788821101,1.0577166170462966,0.896105374637246
1746278064509721000,5.44672119140625,1.9889549721240996,1.224103987815976,0.8185176925659179
1746278064519700000,5.456699951171875,1.9644845477342605,1.333775491890311,0.7579816830605268
1746278064529680100,5.46668017578125,1.893400840729475,1.4877370963290333,0.6810679547280073
1746278064539659000,5.476658935546875,1.6699182485580444,1.6754136311039327,0.6368032810658216
1746278064549638100,5.48663818359375,1.3554051398962734,1.8105454473882912,0.5783493385314941
1746278064559618000,5.4966181640625,1.1262105998188257,1.982102329750359,0.4890811555385589
1746278064569597000,5.506596923828125,0.9147919549286365,2.1614088033258914,0.34404783070385453
1746278064579576000,5.516576171875,0.6262713656574488,2.334326744908094,0.15928163041770457
1746278064589555000,5.526554931640625,0.3794745333939791,2.435820787745714,0.0174456403195858
1746278064599535000,5.53653515625,0.3340028220295906,2.5149387481242416,-0.20999767217636106
1746278064609514000,5.546513916015625,0.3728209207236767,2.587533444213867,-0.4285720340400934
1746278064619493000,5.5564931640625,0.34610827036499975,2.534835288727283,-0.6063648881822824
1746278064629473000,5.56647314453125,0.20072657048404216,2.4224895970076323,-0.6517892532736063
1746278064639452000,5.576451904296875,0.07916881378293036,2.25606043292284,-0.6531073501348496
1746278064649431000,5.58643115234375,0.07416355284154415,2.1513187864661214,-0.6871084039360285
1746278064659411000,5.596410888671875,0.09070902945101261,2.191589422056079,-0.7146054826706647
1746278064669390000,5.60639013671875,0.06592413228452206,2.349424945318699,-0.7408218739449978
1746278064679369000,5.616368896484375,-0.033203181421756746,2.613587922924757,-0.7790659721434116
1746278064689348000,5.62634814453125,-0.20459902800321578,2.946017212027311,-0.9471931723177432
1746278064699328000,5.636327880859375,-0.4136132421001792,3.3143308844596144,-1.2794599643349647
1746278064709307000,5.646306884765625,-0.7275923900157213,3.673281685262918,-1.6674001282572746
1746278064719286000,5.6562861328125,-1.1826613858371973,3.9133758050173517,-1.9239146369367837
1746278064729266000,5.666265869140625,-1.7041545724198222,3.83935721360445,-2.0922247924625874
1746278064739245000,5.6762451171875,-2.239379639495909,3.564699729990959,-2.175136299905181
1746278064749224000,5.686223876953125,-2.736778249263763,3.0960487835407253,-2.147569663065672
1746278064759203000,5.696203125,-3.1576796025454996,2.5763854427337645,-2.1636837625205514
1746278064769183000,5.706182861328125,-3.4458570774674415,2.086147518375516,-2.158088134470582
1746278064779161900,5.716161865234375,-3.5006372999250885,1.7238614356696604,-2.1685528298616408
1746278064789141000,5.72614111328125,-3.385955566473305,1.4891004936367271,-2.210579953730106
1746278064799121000,5.736120849609375,-3.264303117226064,1.2893676103651524,-2.289693237933516
1746278064809100000,5.74610009765625,-3.139860744999349,1.171813244086504,-2.493990068119764
1746278064819079000,5.756078857421875,-3.115591103878617,1.052321772265434,-2.755300578904152
1746278064829058000,5.76605810546875,-3.2944179772436617,0.9020569765180348,-3.1053526184588667
1746278064839038000,5.776037841796875,-3.705699269264936,0.6481254700690507,-3.7852550365388393
1746278064849016800,5.786016845703125,-4.016709922763705,0.14700316360294818,-4.371519385978579
1746278064858996000,5.795995849609375,-4.064249672573805,-0.481522118461132,-4.698604391443729
1746278064868975900,5.805975830078125,-3.657454001533985,-1.1377139906078577,-4.695509348037839
1746278064878955000,5.815955078125,-2.8641975914746522,-1.6536498353242872,-4.382762664526701
1746278064888934000,5.825933837890625,-1.8214188697107134,-2.0566420224279165,-3.891547419568896
1746278064898914000,5.8359140625,-0.7294714817605912,-2.33769125290513,-3.3006384591937064
1746278064908893200,5.84589306640625,0.23313290243968365,-2.351332240244746,-2.825187185078859
1746278064918871800,5.855871826171875,0.9195879570335149,-2.241779394114017,-2.4236989727973937
1746278064928851000,5.865850830078125,1.2941565982073544,-2.1405355266451833,-1.9869868869215248
1746278064938831000,5.8758310546875,1.434721983847767,-2.017867762875557,-1.6032359913825989
1746278064948810000,5.88581005859375,1.4728411404922603,-1.9750801760286092,-1.2418746223062276
1746278064958789000,5.8957890625,1.4593305015340448,-1.9925918673217295,-0.91648239223361
1746278064968769000,5.90576904296875,1.3452207227513193,-2.0552672269433736,-0.6871732858657836
1746278064978748200,5.915748046875,1.1612380740582942,-2.1986492774397135,-0.6162064832389355
1746278064988727000,5.92572705078125,0.9857121419347822,-2.2982646669238807,-0.5833604446917772
1746278064998706200,5.9357060546875,0.9128099873311817,-2.324093520185351,-0.4256646221607923
1746278065008686000,5.94568603515625,0.8525954648651182,-2.3201953437030314,-0.1931517513155937
1746278065018665000,5.9556650390625,0.7502541575483977,-2.356478370961547,0.04523264191150665
1746278065028644000,5.96564404296875,0.6637286973923444,-2.3852426931530237,0.3300637290149927
1746278065038624000,5.9756240234375,0.6126705641977489,-2.4522505290210246,0.6587059007942676
1746278065048603100,5.98560302734375,0.5529208827644586,-2.491343353003263,1.0191554157227276
1746278065058582000,5.99558203125,0.45070334795787925,-2.5067297227054834,1.346019471913576
1746278065068561200,6.00556103515625,0.362498410282284,-2.500577629816532,1.6623796697467565
1746278065078541000,6.015541015625,0.36353827472403644,-2.549112235882878,2.00290400249958
1746278065088520000,6.02552001953125,0.4299889151006937,-2.6836703439325094,2.3610896641492842
1746278065098499000,6.0354990234375,0.5807827031582593,-2.78708395665586,2.6386522215545174
1746278065108479000,6.04547900390625,0.8827917195558548,-2.8844319857299325,2.835655387601256
1746278065118458000,6.0554580078125,1.2611259968735278,-2.9476375067055223,2.9872219135969877
1746278065128437000,6.06543701171875,1.6182067660212516,-3.0464228751063347,3.0512083558171987
1746278065138417000,6.0754169921875,1.952305157379806,-3.142576141437888,3.0981694289565085
1746278065148396000,6.08539599609375,2.276484212270379,-3.1822172469526526,3.1440473830342293
1746278065158375000,6.095375,2.5143238310962914,-3.1800305505633353,3.1834722154498096
1746278065168354000,6.10535400390625,2.7498776770725843,-3.1876603147894143,3.175857064270973
1746278065178334000,6.115333984375,2.922185670062899,-3.1814059305697677,3.1293361361145973
1746278065188313000,6.12531298828125,3.030289486429095,-3.1396745747774837,3.09798004386425
1746278065198292000,6.1352919921875,3.066222969597578,-3.0480396626532076,2.9452725311398504
1746278065208272000,6.14527197265625,2.9654645475581285,-2.9155799881875515,2.7074785050213337
1746278065218251000,6.1552509765625,2.7627520639538763,-2.7521476678311823,2.4202415258198977
1746278065228230000,6.16522998046875,2.448569794681668,-2.575857034945488,2.0298644901394844
1746278065238209000,6.175208984375,2.0858383062958716,-2.322693005737662,1.578973656785488
1746278065248189000,6.18518896484375,1.8275632176846264,-1.9573054498851299,1.0604279218316077
1746278065258168000,6.19516796875,1.617298565135151,-1.458044845637679,0.46865912975668905
1746278065268147000,6.20514697265625,1.2377709863796829,-0.8320908753663301,-0.10699497834146023
1746278065278126800,6.215126953125,0.8134004956826567,-0.23998189155161379,-0.6760977651000023
1746278065288106000,6.22510595703125,0.4086819231778383,0.3694254330664873,-1.3252163378596304
1746278065298084900,6.2350849609375,0.062436290168762204,1.0503285526216029,-2.096893953317404
1746278065308064000,6.24506396484375,-0.2384462064169347,1.7130898662865162,-2.763879606679082
1746278065318044000,6.2550439453125,-0.5545500914014876,2.2304262254506346,-3.277600697955489
1746278065328023000,6.26502294921875,-0.850219967905432,2.607888834500313,-3.695796883931756
1746278065338002000,6.275001953125,-1.1824708317011594,2.824221554917097,-4.119010605809092
1746278065347981800,6.28498193359375,-1.4476916477970778,2.9844845975875853,-4.600443292421102
1746278065357961000,6.2949609375,-1.7341227174431084,2.9607185220748184,-5.113807825344801
1746278065367939800,6.30493994140625,-2.100944690012932,2.8721956044912336,-5.572064219030738
1746278065377920000,6.314919921875,-2.431300095450878,2.724525501412153,-5.980489537099004
1746278065387899000,6.32489892578125,-2.650811445903778,2.6668027957618237,-6.349426309865713
1746278065397878000,6.3348779296875,-2.788116806834936,2.562010880422592,-6.589317016002536
1746278065407857000,6.34485693359375,-2.98921279515326,2.5135370646327733,-6.792562875831127
1746278065417836800,6.3548369140625,-3.2603350903779265,2.5200492230057714,-6.843867531132697
1746278065427816000,6.36481591796875,-3.3543034138858316,2.370689267143607,-6.68994538192153
1746278065437794800,6.374794921875,-3.2032290553212164,2.037031897550821,-6.439563092386722
1746278065447775000,6.38477490234375,-2.8224340869784355,1.5194576379776,-6.243600375303625
1746278065457753900,6.39475390625,-2.345964575731754,0.951080242884159,-5.9925990770876405
1746278065467733000,6.40473291015625,-1.7875345741569995,0.33187457782924173,-5.579170251643657
1746278065477712000,6.4147119140625,-1.174556405314803,-0.21419103221297262,-5.1323903607398265
1746278065487691800,6.42469189453125,-0.6988567093968391,-0.6586620616525412,-4.628611402285099
1746278065497671000,6.4346708984375,-0.35916122868359085,-0.9211240805596113,-4.112383296623825
1746278065507649800,6.44464990234375,-0.07771576543040573,-0.9913660760432481,-3.6330195252403614
1746278065517630200,6.454630126953125,0.26701201036162675,-0.9694809919714927,-3.187133076044917
1746278065527609000,6.464609130859375,0.562569585597515,-0.9228788152724504,-2.7800433904945847
1746278065537588000,6.474587890625,0.7185720482140779,-0.8643822026401757,-2.415787469020486
1746278065547568000,6.484568115234375,0.7874865944862365,-0.7965045982003212,-2.0144687680870295
1746278065557547000,6.494547119140625,0.8314477551572025,-0.7190794132143259,-1.633002768614888
1746278065567526100,6.504526123046875,0.7770482025802135,-0.5999094284325838,-1.2808370979070662
1746278065577504800,6.5145048828125,0.6257265912562608,-0.4932780227065086,-0.9265677329182624
1746278065587485200,6.524485107421875,0.4218677140958607,-0.49155952835083006,-0.5905576627194881
1746278065597464000,6.534464111328125,0.20835414275303482,-0.5910439849317074,-0.26551263864934443
1746278065607443200,6.544443115234375,0.03421674237847328,-0.6913175460636616,-0.1820154402732849
1746278065617423000,6.554423095703125,-0.2167974153190851,-0.8671879077106713,-0.06719254478514194
1746278065627402000,6.564402099609375,-0.40218540076538917,-1.192725683733821,0.08417232115864753
1746278065637381000,6.574381103515625,-0.5205675961703061,-1.4923504353433847,0.1713894168406725
1746278065647360000,6.584360107421875,-0.6088432609945535,-1.7943518529564142,0.27424247307181354
1746278065657340200,6.594340087890625,-0.6397714832216501,-2.066111861562729,0.43658933627903457
1746278065667319000,6.604319091796875,-0.6708801765821873,-2.2567250343114136,0.6257283448219298
1746278065677298200,6.614298095703125,-0.7116008940272033,-2.3958447511881587,0.881304695868492
1746278065687278000,6.624278076171875,-0.6845148803114891,-2.469745853701234,1.1429004533350466
1746278065697257000,6.634257080078125,-0.597751373615861,-2.4300199925124644,1.3926339235723018
1746278065707236000,6.644236083984375,-0.525552252715081,-2.302642735877633,1.5868021584540604
1746278065717216000,6.654216064453125,-0.45796574017629027,-2.1661586282014844,1.7758786231547592
1746278065727195100,6.664195068359375,-0.34416751156076786,-2.0413187810897826,1.9459943667978048
1746278065737174000,6.674174072265625,-0.1687291115902364,-1.8734931942105293,2.03595228562057
1746278065747153200,6.684153076171875,0.016714549566060305,-1.6827292148143052,2.12455878983438
1746278065757133000,6.694133056640625,0.17839724977612495,-1.4524614925473927,2.1552315759956837
1746278065767112000,6.70411181640625,0.3349678676694631,-1.2244985400915145,2.1685820559561253
1746278065777091000,6.714091064453125,0.47296471799612044,-0.9580062427550554,2.1680869659155606
1746278065787071200,6.7240712890625,0.6103372989445924,-0.6507645864009857,2.136166810041666
1746278065797050000,6.734050048828125,0.7278766137845813,-0.348394335475564,2.143979529619217
1746278065807029000,6.744029052734375,0.8456788173444568,-0.06644260320067405,2.1482786881178617
1746278065817008000,6.754008056640625,0.9341222399510443,0.1862070467442274,2.123074104234576
1746278065826988300,6.76398828125,0.9460006015323101,0.39953590916991233,2.0887948180139064
1746278065836967200,6.77396728515625,0.9306067791759968,0.5632476309895516,2.095513312613964
1746278065846946000,6.783946044921875,0.9032423869103193,0.6250520529955625,2.151001975601911
1746278065856926200,6.79392626953125,0.8423772915810346,0.6577665741175412,2.156137000402808
1746278065866905000,6.803905029296875,0.6566296790421009,0.6479425147175788,2.1356828259170055
1746278065876884200,6.81388427734375,0.4310118284076452,0.5798626657038927,2.121997999435663
1746278065886864100,6.823864013671875,0.18205679519698023,0.5707072993457317,2.1025322514653206
1746278065896843300,6.83384326171875,-0.030219781696796417,0.6462064847052097,2.1503420503884554
1746278065906822100,6.843822265625,-0.13790741847753524,0.8157283541083336,2.2339947315871713
1746278065916801300,6.85380126953125,-0.1770918662659824,1.072441600230336,2.283052484744787
1746278065926781200,6.86378125,-0.17541633426919578,1.4278361698567867,2.2697651331484314
1746278065936760000,6.873760009765625,-0.1287069708686322,1.7949807985097168,2.3020856865167616
1746278065946739200,6.8837392578125,-0.0609983663201332,2.2533289621323345,2.3097136971771715
1746278065956719000,6.893718994140625,0.004625321713089943,2.726222952979803,2.3810686223387716
1746278065966698200,6.9036982421875,0.09751410635598003,3.178393889272213,2.6207144138038156
1746278065976677000,6.913677001953125,0.1971434513002634,3.542903493246436,2.8729139818936584
1746278065986657000,6.923656982421875,0.2628742529697716,3.8519437234550713,3.0321687243044373
1746278065996636200,6.93363623046875,0.3118542647160589,4.11953609098792,3.156735599693656
1746278066006615000,6.943614990234375,0.3554391394205391,4.3645390255719425,3.1409207754462956
1746278066016594200,6.95359423828125,0.4130396799959242,4.709391158396006,3.0390836182594296
1746278066026574000,6.963573974609375,0.5097865283064544,5.1779433206468815,2.849270071455836
1746278066036553200,6.97355322265625,0.5970492166958749,5.72950226740837,2.5301667123943568
1746278066046532000,6.983531982421875,0.7056489998854696,6.2223746319234365,2.219734151044488
1746278066056512000,6.993511962890625,0.8126338952243327,6.578167260956763,2.0000240631490946
1746278066066491100,7.0034912109375,0.8911838464565575,6.729963504055142,1.856197191494703
1746278066076470000,7.013469970703125,0.9599667291730641,6.612872663635015,1.7270803977161644
1746278066086449200,7.02344921875,1.0491824513264,6.489936019796133,1.426865863519907
1746278066096429000,7.033428955078125,1.18159287982285,6.368153222167492,1.0522107131063938
1746278066106408200,7.043408203125,1.3250216920703648,6.052330199950933,0.7545809347063303
1746278066116387000,7.053386962890625,1.371487236777693,5.676921016299724,0.6152437756866216
1746278066126367000,7.063366943359375,1.2695283529072998,5.20385225340724,0.6602461159735917
1746278066136346000,7.07334619140625,0.9614331484638154,4.532310251915455,0.9269429959714413
1746278066146325000,7.083324951171875,0.5141507148653268,3.79140829847157,1.172275600901246
1746278066156305200,7.09330517578125,0.07004910326004028,3.197211402466893,1.0172539660155773
1746278066166284000,7.103283935546875,-0.2460164955407381,2.771552041003108,0.4724287114232778
1746278066176263200,7.11326318359375,-0.45239648867659266,2.390221650609374,-0.3950479501008987
1746278066186242000,7.123241943359375,-0.5161250106129796,1.9745126052737234,-1.3914216251730918
1746278066196222000,7.133221923828125,-0.38345673489794135,1.3822884706467389,-2.2881121062219143
1746278066206201000,7.143201171875,-0.022891630765795708,0.6294920812696219,-2.9525580119729042
1746278066216180000,7.153179931640625,0.4580910470563918,-0.2470832479894161,-3.3452620292961597
1746278066226160000,7.16316015625,0.7756459345668554,-1.0339841515421866,-3.474752332562208
1746278066236139000,7.173138916015625,0.898069368186593,-1.612506508553028,-3.541543310809135
1746278066246118100,7.1831181640625,0.9350770564578473,-1.8922066625088452,-3.7054689676403996
1746278066256098000,7.19309814453125,0.8533760938487946,-1.9772972675561904,-3.7963621214866636
1746278066266077000,7.203076904296875,0.6623251142047345,-2.11765792440474,-3.7433962549746034
1746278066276056000,7.21305615234375,0.44981604372933504,-2.234318556714058,-3.5668063468813895
1746278066286035000,7.223034912109375,0.35299627631306646,-2.3456956956624984,-3.3153567203760144
1746278066296015000,7.23301513671875,0.38149171843528745,-2.4048744453400372,-3.02725932495296
1746278066305994000,7.242993896484375,0.5645008459210396,-2.4667004946559667,-2.7027579062402247
1746278066315973000,7.25297314453125,0.8144418944943695,-2.5291104813396927,-2.339752277088165
1746278066325953000,7.262953125,1.0507657749950885,-2.541866502538323,-1.9440625219523906
1746278066335932000,7.272931884765625,1.2180075706370175,-2.5359564017117022,-1.6065420471906662
1746278066345911000,7.2829111328125,1.3206196577191351,-2.4929735845535994,-1.2472697593480349
1746278066355890000,7.292889892578125,1.3523241250157356,-2.4644611912965773,-0.8414706981301308
1746278066365870000,7.3028701171875,1.2516812921799718,-2.4254829336047172,-0.47620413830876346
1746278066375849000,7.312848876953125,1.0205857407867909,-2.3877760110229254,-0.07466565714478492
1746278066385828000,7.322828125,0.6600386837679892,-2.289960364437103,0.293106163495779
1746278066395808300,7.332808349609375,0.24920966555885968,-2.1548159809321166,0.6296633461833
1746278066405787100,7.342787109375,-0.10112177545912564,-2.0288906766712667,0.8959458001613616
1746278066415766000,7.35276611328125,-0.4835504094183445,-1.9279285487532614,1.1165683267265558
1746278066425746200,7.36274609375,-0.7885527624130249,-1.844862143009901,1.4094284065067768
1746278066435725300,7.372725341796875,-1.0234691872686148,-1.8090385499566792,1.6105711565762757
1746278066445704200,7.3827041015625,-1.2042968790620565,-1.7811790676504373,1.7496692461431025
1746278066455683300,7.392683349609375,-1.3518927478611469,-1.793143646210432,1.8324942443460226
1746278066465663200,7.402663330078125,-1.5177122556149958,-1.8613146806389091,1.9638836592316626
1746278066475642000,7.41264208984375,-1.6326573161780833,-1.941133482763171,2.08796713501811
1746278066485621200,7.422621337890625,-1.669196948546171,-2.041982213434577,2.110599822586775
1746278066495601200,7.43260107421875,-1.6443138517022131,-2.03772397146821,1.9916478644698856
1746278066505580300,7.442580322265625,-1.553385626542568,-2.062202579164505,1.8855261618316173
1746278066515559200,7.45255908203125,-1.4733891297638415,-2.089709594771266,1.8546096300423145
1746278066525539000,7.4625390625,-1.453109727323055,-2.0412772800356147,1.842435792645812
1746278066535518200,7.472518310546875,-1.4242460364103315,-1.9667524926662443,1.8401573263198137
1746278066545497000,7.4824970703125,-1.408724642151594,-1.8962562301605939,1.7314298250973224
1746278066555476200,7.492476318359375,-1.4310790973007679,-1.7958821312636135,1.536253874477744
1746278066565456100,7.5024560546875,-1.4745990900754928,-1.706931928178668,1.261037003415823
1746278066575435300,7.512435302734375,-1.5801660814404486,-1.631329866966605,0.9443670089811086
1746278066585414100,7.5224140625,-1.691122364628315,-1.5700936002373695,0.6391466293215752
1746278066595394000,7.53239404296875,-1.8023709087610245,-1.4855074375808237,0.30611119101941586
1746278066605373200,7.542373291015625,-1.8932932887017726,-1.3755834200501442,-0.054124388897418975
1746278066615352000,7.55235205078125,-1.983157684022188,-1.3414999486625194,-0.379209744977951
1746278066625332200,7.562332275390625,-2.026180833190679,-1.3344190504908562,-0.6817483382076025
1746278066635311000,7.57231103515625,-2.063721167033911,-1.2833780145615339,-0.9630173489153384
1746278066645290200,7.582290283203125,-2.0774363886535165,-1.2498124295681714,-1.2765700881123543
1746278066655269000,7.59226904296875,-2.1375275770008564,-1.2191484112352131,-1.6180366701513529
1746278066665249000,7.6022490234375,-2.127962460798025,-1.205472937104106,-1.9940172239497302
1746278066675228400,7.612228515625,-2.060419787400961,-1.1925789687395094,-2.374564939533174
1746278066685207300,7.622207275390625,-1.882583678638935,-1.1168676019340753,-2.7887629957839843
1746278066695187500,7.6321875,-1.7088041517913342,-1.004206852915883,-3.232174579298496
1746278066705166300,7.642166259765625,-1.5686521692574023,-0.839765647777915,-3.604148235543072
1746278066715145500,7.6521455078125,-1.4747545728981495,-0.7950649207860231,-3.778973764312267
1746278066725125400,7.66212548828125,-1.417605867743492,-0.8816104008167982,-3.782674372395873
1746278066735104300,7.672104248046875,-1.3244903616726398,-0.9945523048639296,-3.701849900360405
1746278066745083400,7.68208349609375,-1.2601263183116913,-1.0605921724826097,-3.6615000620543956
1746278066755062300,7.692062255859375,-1.1907611787278205,-1.0130834023326636,-3.6381054502025245
1746278066765042400,7.70204248046875,-1.064403839725256,-0.8578203599065541,-3.64102279895395
1746278066775021300,7.712021240234375,-0.8893453789830207,-0.5901379760026931,-3.7313027893379327
1746278066785000400,7.72200048828125,-0.7111749237000942,-0.2603191616594791,-3.7784041477307677
1746278066794980600,7.731980712890625,-0.5833481697320938,0.0955196446031332,-3.779048875375092
1746278066804959200,7.741959228515625,-0.525596274519898,0.4800409399926662,-3.726560270985961
1746278066814938400,7.7519384765625,-0.4558511591751128,0.780357765519619,-3.6199157135173676
1746278066824917200,7.761917236328125,-0.36469497047849,0.9877356105864047,-3.455845387518406
1746278066834897400,7.7718974609375,-0.27174777017924934,1.1887094338297843,-3.2996853962525723
1746278066844876500,7.78187646484375,-0.16743045008182525,1.3572136506229637,-3.190660373388231
1746278066854855400,7.79185546875,-0.08378067322624846,1.4631471372127531,-3.1007746430188416
1746278066864835600,7.801835693359375,0.05339488731278106,1.48370535659492,-3.129914520524442
1746278066874814500,7.811814453125,0.2818166894520633,1.4802958404123783,-3.3570360537201163
1746278066884793600,7.821793701171875,0.5560018976449966,1.427287303802371,-3.7297511759817596
1746278066894773500,7.8317734375,0.7336193952202796,1.2934008114039897,-4.112233074498176
1746278066904752400,7.84175244140625,0.7069663660943508,1.118386189803481,-4.477630274961888
1746278066914731500,7.8517314453125,0.42782443054318425,0.8850175789117812,-4.637918159812688
1746278066924711400,7.86171142578125,-0.06179098713570274,0.4512748642355203,-4.481708776447177
1746278066934690600,7.871690673828125,-0.6296329510450362,-0.025520225703716277,-4.334426795902848
1746278066944669400,7.88166943359375,-1.1045569864153861,-0.3372404887765646,-4.435584154132008
1746278066954648600,7.891648681640625,-1.3711480679512023,-0.5569067375302315,-4.668305699291825
1746278066964628500,7.90162841796875,-1.495802037101984,-0.7684422867983579,-4.934923668834567
1746278066974607400,7.911607421875,-1.4681483065009115,-0.9944704717993735,-5.225126512104272
1746278066984586500,7.92158642578125,-1.351473061144352,-1.2636708590507506,-5.523593325850367
1746278066994566400,7.93156640625,-1.1215963840216399,-1.5751304253607987,-5.8069081631720065
1746278067004545500,7.941545654296875,-0.8325374500900506,-1.8777970288842916,-6.065062255752086
1746278067014524400,7.9515244140625,-0.6223258429020643,-2.1230974851101636,-6.195481948822736
1746278067024504300,7.96150439453125,-0.5503489864498377,-2.1896838806957004,-6.279275499796867
1746278067034483500,7.9714833984375,-0.5615554401189089,-2.1578630935430527,-6.3614300513923165
1746278067044462300,7.98146240234375,-0.7288339145094156,-2.041713917887211,-6.322359439241886
1746278067054441500,7.99144140625,-1.043552774876356,-1.8551088117361068,-6.17828063865304
1746278067064421400,8.00142138671875,-1.4597434662491082,-1.6572937447845935,-5.898250229829549
1746278067074400500,8.011400390625,-1.8946330128729343,-1.4004074801832436,-5.4643759977281094
1746278067084379400,8.02137939453125,-2.2965280523896214,-1.0372200647234917,-4.990650816753506
1746278067094359300,8.031359375,-2.672092718863487,-0.6303560046225786,-4.417319014123082
1746278067104338400,8.04133837890625,-3.1204432200849053,-0.2424444822728634,-3.706154611817002
1746278067114317300,8.0513173828125,-3.580883972072601,0.12431553097665309,-2.9000273220077157
1746278067124297500,8.06129736328125,-3.907245923960209,0.5533113433867692,-2.105447846651077
1746278067134276400,8.0712763671875,-4.070256219512224,1.0405436561882495,-1.4070400500655174
1746278067144255500,8.08125537109375,-4.073439525723457,1.50918174315691,-0.7460591900765895
1746278067154234400,8.091234375,-3.982129023247957,1.8664701637059449,-0.0903869578897953
1746278067164214300,8.10121435546875,-3.800964646846056,2.0575363409191367,0.5991618249356746
1746278067174193400,8.111193359375,-3.5666964567661283,2.2415233735263347,1.274968498134613
1746278067184172300,8.12117236328125,-3.2630010947167873,2.4011019410639998,1.8744927266418934
1746278067194152400,8.13115234375,-3.0204958221673963,2.533973703461885,2.438990065431595
1746278067204131300,8.14113134765625,-2.938006924051046,2.611821497774124,2.9664778162539003
1746278067214110500,8.1511103515625,-2.8993665200114247,2.580167883881926,3.385091935381293
1746278067224090400,8.16109033203125,-2.920444379353523,2.5569746398210524,3.57944955535531
1746278067234069200,8.1710693359375,-3.102648035675287,2.475274846255779,3.670774086356163
1746278067244048400,8.18104833984375,-3.3453742574989795,2.321330485212803,3.682963705843687
1746278067254027300,8.19102734375,-3.5569957314848897,2.2021774515658614,3.6003818687468767
1746278067264007400,8.20100732421875,-3.716130646908283,2.117978826922178,3.481638000422716
1746278067273986300,8.210986328125,-3.8198750990211963,2.0635797127366065,3.325525647690892
1746278067283965400,8.22096533203125,-3.8902866058528422,2.0831156033337117,3.2537861071258782
1746278067293945300,8.2309453125,-3.9338007534086703,2.0787287665516136,3.3259389046669003
1746278067303924200,8.24092431640625,-3.896774798828363,2.0939251666396856,3.513542958727479
1746278067313903400,8.2509033203125,-3.7558056546926495,2.238729358893633,3.6816912016898393
1746278067323883300,8.26088330078125,-3.581353927671909,2.460605100390315,3.8752901122510433
1746278067333862400,8.2708623046875,-3.4641245555639264,2.5494717168450354,4.123735880765318
1746278067343841300,8.28084130859375,-3.4048142884612083,2.6574352479577064,4.237552229559421
1746278067353820400,8.2908203125,-3.40680633906126,2.8469565338164564,4.288070702919364
1746278067363800600,8.300800537109374,-3.504387592369318,2.951586536592245,4.401231218153238
1746278067373779200,8.310779296875,-3.6356419826984405,3.0157284616351125,4.442221984711289
1746278067383758300,8.32075830078125,-3.79301164201498,3.019776860243082,4.4318981590956446
1746278067393738500,8.330738525390625,-3.9456279693245886,2.969510900339484,4.3876060129046435
1746278067403717600,8.340717529296874,-4.059364238619804,2.9491198542177677,4.269366586971283
1746278067413696500,8.350696533203125,-4.134663517493009,2.873602548679709,4.198437193745375
1746278067423676400,8.360676513671875,-4.101844951474666,2.7525533260226247,4.150060408589244
1746278067433655600,8.370655517578125,-4.0168659901082515,2.628455237188935,4.0420454395502805
1746278067443634400,8.380634521484374,-3.920902693390846,2.517903443148732,3.9267859062105415
1746278067453613600,8.390613525390625,-3.7837341105818747,2.381776478347182,3.835472481125593
1746278067463593500,8.400593505859375,-3.6198189751446246,2.304229712808132,3.7258687815904614
1746278067473572600,8.410572509765625,-3.489565286290645,2.194983156147599,3.6458027267068625
1746278067483551500,8.420551513671874,-3.3783974061787125,2.0765058298051358,3.54278366625905
1746278067493531400,8.430531494140626,-3.2937598055958746,1.988167036616802,3.4491502737939355
1746278067503510500,8.440510498046875,-3.2212416818737983,1.880879212808609,3.3373785825699565
1746278067513489400,8.450489501953125,-3.2100995256125926,1.8147043206334112,3.2141648753553627
1746278067523469600,8.460469482421875,-3.22345701983571,1.7639876943528652,3.089546562039852
1746278067533448400,8.470448486328126,-3.2277064939737317,1.7412112143993377,2.946334607413411
1746278067543427600,8.480427490234375,-3.238521317976713,1.730891480436921,2.752629313868284
1746278067553407500,8.490407470703126,-3.240636118173599,1.7174539067149162,2.537193250030279
1746278067563386400,8.500386474609375,-3.2431402099490163,1.735136278399825,2.35205237121284
1746278067573365500,8.510365478515626,-3.2538930746316908,1.7445400665611028,2.1275679085224866
1746278067583344400,8.520344482421875,-3.255412831544876,1.738961389645934,1.9254484223753212
1746278067593324500,8.530324462890626,-3.215479465085268,1.725986757260561,1.7009522692471741
1746278067603303400,8.540303466796875,-3.1532150243520736,1.7123574603587388,1.478832197600603
1746278067613282600,8.550282470703126,-3.0526503713190554,1.687155214563012,1.2343681921988725
1746278067623262500,8.560262451171875,-2.9416239455044266,1.7283096472501753,0.9693845458596945
1746278067633241300,8.570241455078126,-2.838253587400913,1.7753946390300988,0.6661778441101313
1746278067643220500,8.580220458984375,-2.7016800478756426,1.7689473625868557,0.416634928008914
1746278067653200400,8.590200439453126,-2.618353237630427,1.717306607198715,0.20561434252560137
1746278067663179500,8.600179443359375,-2.5345629015266895,1.6134510959267616,0.043861938080191606
1746278067673158400,8.610158447265626,-2.420183804283291,1.4564607913166283,-0.11569909380078315
1746278067683137500,8.620137451171875,-2.261736140471697,1.2243489024877547,-0.28132921646237374
1746278067693117400,8.630117431640626,-2.0769816306233406,0.9796832370340823,-0.4723895484566688
1746278067703096300,8.640096435546875,-1.8990660268843174,0.7690636335670947,-0.7268927173137665
1746278067713075500,8.650075439453126,-1.7389945612631736,0.5420990444988012,-0.9385504316568374
1746278067723055400,8.660055419921875,-1.4846879378914832,0.32011224384307857,-1.1785913599193096
1746278067733034500,8.670034423828126,-1.2582428426526486,0.15777648655176163,-1.453805892893672
1746278067743013400,8.680013427734375,-1.0621651939529926,-0.0975672247827053,-1.5688456460028886
1746278067752993300,8.6899931640625,-0.8580407977242023,-0.31159575991034505,-1.5997212612599134
1746278067762972400,8.699972412109375,-0.6551484275083989,-0.3842261118352413,-1.6790262686431408
1746278067772951300,8.709951416015626,-0.38376667762994765,-0.2150122854679823,-1.8100065182060001
1746278067782930400,8.719930419921875,-0.04872684070281684,0.15369418567419052,-1.9044664246231315
1746278067792910300,8.729910400390626,0.18116912564225493,0.5056014977067709,-1.8081582599908113
1746278067802889500,8.739889404296875,0.3046258843651041,0.9494517648994922,-1.6485463747054339
1746278067812868400,8.749868408203126,0.3370189184477553,1.5248656345009803,-1.5392343515932558
1746278067822848300,8.75984814453125,0.3405822004199028,2.1136293995410202,-1.3873995300501585
1746278067832827400,8.769827392578126,0.3507131338119507,2.637109083765745,-1.0846423256337643
1746278067842806300,8.77980615234375,0.3220364899039268,2.9872330195128916,-0.6180383748412132
1746278067852786200,8.7897861328125,0.13914194697486235,2.9764632036954164,-0.02323825224637985
1746278067862765300,8.799765380859375,-0.22031448352932928,2.565032274070382,0.800141493397951
1746278067872744400,8.809744384765626,-0.6496306139349937,1.7786814056158065,1.7596154706180094
1746278067882723300,8.819723388671875,-1.0272142190158366,0.9369277988910675,2.4747762490838765
1746278067892703200,8.829703125,-1.205405717086792,0.3260375422388315,2.7561159869402645
1746278067902682400,8.839682373046875,-1.2125649411916732,-0.03731529291570186,2.6430092477202414
1746278067912661200,8.8496611328125,-1.049147818404436,-0.23746143316328525,2.2718740881264208
1746278067922641400,8.859641357421875,-0.7962918322324752,-0.29338381139338016,1.7599001327782868
1746278067932620500,8.86962060546875,-0.42722295751869677,-0.10395371094942092,1.1501514473766088
1746278067942599400,8.879599365234375,0.06654262950904667,0.20788579458892345,0.5008931738853454
1746278067952579600,8.88957958984375,0.6370009955950081,0.5192775563597679,-0.07472937003076076
1746278067962558500,8.899558349609375,1.2006716743022203,0.7567705537050962,-0.615892010462284
1746278067972537600,8.90953759765625,1.798949117618799,0.865545401200652,-1.2576514526307583
1746278067982517500,8.919517578125,2.4326873120255765,0.919376944631338,-1.896783468905091
1746278067992496400,8.929496337890624,3.088299192327261,0.968296166101098,-2.3659458720088002
1746278068002475500,8.9394755859375,3.624034547013044,0.8976952741771936,-2.6466923201471566
1746278068012454400,8.949454345703124,3.9434517943292855,0.7154962940305472,-2.7850667716145514
1746278068022434600,8.9594345703125,4.119871022030711,0.48037002581655974,-2.85165024459064
1746278068032413400,8.969413330078124,4.213692922805249,0.21275193932056427,-2.8687252980321643
1746278068042392600,8.979392578125,4.282366938319802,-0.05866553945839405,-2.8758219782948493
1746278068052372500,8.98937255859375,4.2813335036188365,-0.35327567777633667,-2.8215204792648554
1746278068062351400,8.999351318359375,4.153045561879873,-0.5686807619541883,-2.7265724970698355
1746278068072330500,9.00933056640625,3.857850317150354,-0.7142202827453613,-2.5815070235311985
1746278068082310400,9.019310302734375,3.4567654249727724,-0.798006234934926,-2.3576947610139847
1746278068092289500,9.02928955078125,2.985712678077817,-0.7602151412010193,-2.0796540647029875
1746278068102268400,9.039268310546875,2.5181711541742087,-0.6237000538647175,-1.7702128524780272
1746278068112247600,9.04924755859375,2.0200936222314834,-0.4864280106812715,-1.3850292937874793
1746278068122227500,9.0592275390625,1.5165674694940448,-0.36016835989952084,-0.9849515328258276
1746278068132206300,9.069206298828124,1.0474635185793042,-0.27412732225954534,-0.5756418331384658
1746278068142185500,9.079185546875,0.6021458091825247,-0.17013678643107413,-0.1349286949276924
1746278068152165400,9.089165283203124,0.26513489137813445,-0.0738040718793869,0.28717092822790147
1746278068162144500,9.09914453125,0.0392874697715044,0.09011866234242916,0.6427940459132194
1746278068172123400,9.109123291015624,-0.060438394349813455,0.3122667910397053,0.9112889152437448
1746278068182103300,9.119103271484375,-0.06105038876831531,0.4906617027282715,1.2028256374657154
1746278068192082400,9.12908251953125,0.008538695764541625,0.6578425619632006,1.5106190824836492
1746278068202061300,9.139061279296875,0.08468801559582352,0.7836012774854898,1.8554753069609402
1746278068212041500,9.14904150390625,0.18805019039288162,0.8494880003690719,2.204631274458766
1746278068222020400,9.159020263671875,0.2860750958152115,0.8563806824922561,2.504692079398036
1746278068231999500,9.16899951171875,0.3455693411827087,0.8272463579446077,2.7805869958519933
1746278068241978400,9.178978271484375,0.38570495221614837,0.7513292394340038,3.048759209099412
1746278068251958300,9.188958251953125,0.401508816678077,0.6232061328679322,3.2522640121251345
1746278068261937400,9.1989375,0.4081408020384609,0.48319034393429755,3.343150151708722
1746278068271916300,9.208916259765624,0.4305800128616392,0.3441378470748663,3.4023592965245246
1746278068281896400,9.218896484375,0.4089754992969334,0.1791442687511444,3.4587744267076252
1746278068291875300,9.228875244140625,0.37065468260049816,0.026546061620116232,3.4186370621085165
1746278068301854500,9.2388544921875,0.3260920489050448,-0.09506780918240547,3.3691584531903267
1746278068311834400,9.24883447265625,0.272060598988086,-0.16669979771971702,3.2942467123299837
1746278068321813200,9.258813232421875,0.24268720498755572,-0.1993476833462715,3.1887381731539963
1746278068331792400,9.26879248046875,0.21088731449246406,-0.2977390839934349,3.205747760143876
1746278068341771300,9.278771240234375,0.27813261237815023,-0.39643151341378685,3.180568310701847
1746278068351751400,9.28875146484375,0.3351360638432205,-0.4343272365659475,3.0656752725869416
1746278068361730300,9.298730224609375,0.3499304590016603,-0.44339434011876583,2.8957682032585144
1746278068371709400,9.30870947265625,0.30092998898923395,-0.4424281254351139,2.673532980799675
1746278068381689300,9.318689453125,0.2040221048980951,-0.3317892376333475,2.4104759186089035
1746278068391668200,9.328668212890625,0.13169278174638746,-0.18401801226735115,2.155225146254897
1746278068401647400,9.3386474609375,0.026453268770128487,-0.007042904248833656,1.8669354431301355
1746278068411627300,9.348627197265625,-0.1130814586482942,0.16404080764353274,1.608825189691782
1746278068421606400,9.3586064453125,-0.3139985832683742,0.3269417976021766,1.4214602050840854
1746278068431585300,9.368585205078125,-0.49353214359804987,0.47896425067186355,1.186559562319517
1746278068441565400,9.3785654296875,-0.6146984167635441,0.5562655170172452,0.9746358905166387
1746278068451544600,9.388544677734375,-0.736830173960328,0.5781020857721567,0.7402361830115318
1746278068461523200,9.398523193359376,-0.7899901017397641,0.6386445250183344,0.4192436492025852
1746278068471502300,9.40850244140625,-0.8182423827558756,0.7284025373548269,0.0066296472728252405
1746278068481482500,9.418482421875,-0.8328666089791804,0.8497229781687259,-0.4051970036715269
1746278068491461600,9.428461669921875,-0.9441092348277568,0.9508329901248216,-0.8135124316245317
1746278068501440500,9.4384404296875,-1.0990489635836331,1.1009878957569599,-1.2311831324219702
1746278068511420400,9.44842041015625,-1.1925759730648249,1.4216536818295717,-1.7504542590409515
1746278068521399600,9.458399658203126,-1.2928215502113103,1.826825551059842,-2.21316587857008
1746278068531378400,9.46837841796875,-1.521822613543272,2.135434988635778,-2.5219448274940253
1746278068541358600,9.478358642578126,-1.9341794258415699,2.2654414247304198,-2.6338369302272797
1746278068551337500,9.48833740234375,-2.420630232876539,2.1889508902460335,-2.639858090212941
1746278068561316600,9.498316650390626,-2.7822312559276816,1.918193921202421,-2.6448534142822027
1746278068571295500,9.50829541015625,-2.9208517911106346,1.4768863242298365,-2.681602890008688
1746278068581275400,9.518275390625,-2.8668279399782417,0.8876414976745843,-2.75232010178864
1746278068591254500,9.528254638671875,-2.717607100325823,0.25591186661124227,-2.776568407860398
1746278068601233400,9.5382333984375,-2.429774493318796,-0.34634500173032284,-2.8544641329675913
1746278068611213600,9.548213623046875,-1.9695599513024091,-0.8026625363081693,-2.9942700785428285
1746278068621192400,9.5581923828125,-1.4733487977534532,-1.0121493363529444,-3.11534326659739
1746278068631171600,9.568171630859375,-1.0015618913650512,-1.0703554416060448,-3.1508482952207326
1746278068641151500,9.5781513671875,-0.6770341691672802,-1.004318496596813,-3.0885066975980995
1746278068651130400,9.58813037109375,-0.48874096379876136,-0.8481956224709749,-2.962306668049097
1746278068661109500,9.598109619140626,-0.4351140030294656,-0.6118313368946313,-2.7822096286177636
1746278068671089400,9.60808935546875,-0.5113508550137281,-0.42495851971805093,-2.5729987229049205
1746278068681068300,9.618068359375,-0.7634083842843771,-0.2845037548452616,-2.275779278871417
1746278068691047200,9.628047119140625,-1.0862041681230068,-0.2483563366651535,-1.9960797094374894
1746278068701026300,9.6380263671875,-1.382732122761011,-0.2520972767591476,-1.8150053494065999
1746278068711006200,9.648006103515625,-1.6545336324214934,-0.2412058803886175,-1.6592051313638687
1746278068720985000,9.657985107421876,-1.9110054710030555,-0.3256511732697487,-1.4848942741185427
1746278068730964200,9.667964111328125,-2.1706921799778938,-0.4409375946164131,-1.2976292427539824
1746278068740944100,9.677944091796874,-2.384512625312805,-0.5321779544651508,-1.1492039373934269
1746278068750923300,9.68792333984375,-2.5873802994787694,-0.6267261236876249,-0.9878934314966201
1746278068760902100,9.697902099609376,-2.6332909867823124,-0.7081131980419159,-0.8012351338535547
1746278068770882000,9.707882080078125,-2.693818228459358,-0.7235200260102749,-0.5492167675495148
1746278068780861200,9.717861083984374,-2.7292928619444368,-0.6789683521002531,-0.26475626732408997
1746278068790840000,9.727840087890625,-2.705107684236765,-0.6129623867511749,0.049503743359446524
1746278068800820200,9.7378203125,-2.5708149491250514,-0.4758528406530618,0.3203372847706079
1746278068810799000,9.747799072265625,-2.383548164194822,-0.3041512891232967,0.5642711288183927
1746278068820778200,9.7577783203125,-2.2252491150736806,-0.15685528005361557,0.8157657635092734
1746278068830757000,9.767757080078125,-2.110578779798746,-0.06991174061596393,1.0114297899067402
1746278068840737000,9.777737060546874,-2.0029916807830332,-0.003379705566167831,1.1667851867914198
1746278068850716200,9.787716064453125,-1.9396482126414776,0.06004618016183376,1.2614368163883685
1746278068860695000,9.797695068359374,-1.9024761275887487,0.09151040896177291,1.2614888388365506
1746278068870675200,9.80767529296875,-1.8791642255842684,0.13070084809958935,1.2014297991931437
1746278068880654000,9.817654052734374,-1.9196610711455344,0.1696376047372818,1.078227197894454
1746278068890633200,9.82763330078125,-2.0657447818160057,0.2212555637717247,0.9194862502247094
1746278068900613000,9.837613037109374,-2.2285411423563954,0.2124573402881622,0.686497578561306
1746278068910592000,9.847592041015625,-2.360394083100557,0.22738018413186073,0.3862678467959165
1746278068920571100,9.857571044921874,-2.491427524155378,0.2647989374220371,0.17166121951937674
1746278068930550000,9.867550048828125,-2.588439453142881,0.320534853169322,0.005776829835772514
1746278068940530200,9.8775302734375,-2.6113445279121397,0.3576087385445833,-0.15430559557080267
1746278068950509000,9.887509033203125,-2.656061621516943,0.32987902009785175,-0.24000644147098063
1746278068960488200,9.89748828125,-2.6708722371578215,0.21732816119492052,-0.23085575128793714
1746278068970468000,9.907468017578125,-2.6894682165563104,0.04234568829834461,-0.22880700206458568
1746278068980447000,9.917447021484374,-2.7222984730124473,-0.179318456274271,-0.19690029019415378
1746278068990426000,9.927426025390625,-2.7919723132193086,-0.43040567920804024,-0.14439853406250475
1746278069000406000,9.937406005859375,-2.908382185637951,-0.6355664327472448,-0.13697452154159545
1746278069010385200,9.94738525390625,-2.9998212829291817,-0.7744149314671754,-0.1928641665458679
1746278069020364000,9.957364013671874,-3.0812241393744944,-0.8499380822241306,-0.258836814147234
1746278069030344000,9.967343994140625,-3.135786919689178,-0.8407698563843965,-0.33367724333703513
1746278069040323000,9.977322998046875,-3.1920822228848933,-0.7770067015260458,-0.3888923500806093
1746278069050302000,9.987302001953125,-3.1829251029610632,-0.6895575506538152,-0.3781090902596712
1746278069060281000,9.997281005859374,-3.1003868127450347,-0.5778875662386417,-0.2807335886567831
1746278069070261000,10.007260986328125,-2.901770074021816,-0.47827919101715083,-0.06445873590707779
1746278069080240000,10.017240234375,-2.6356512861728665,-0.4574497534781694,0.2448310851484537
1746278069090219000,10.027218994140625,-2.3598330882169303,-0.4278793756008148,0.4967810623914003
1746278069100199200,10.03719921875,-2.0906465833604333,-0.32496786718070503,0.7325526427716016
1746278069110178300,10.04717822265625,-1.8535738572537899,-0.17893851704597472,0.8457908994168043
1746278069120157000,10.057156982421875,-1.713826656128466,0.10777648410797118,0.894040843322873
1746278069130137000,10.06713720703125,-1.6086675149120389,0.5064204128742218,0.9590583821564912
1746278069140116200,10.0771162109375,-1.581724416798353,0.9537275425225495,0.9934241776168345
1746278069150095000,10.08709521484375,-1.5903613122403621,1.4404957449436187,0.9931845236420631
1746278069160074200,10.09707421875,-1.5941946067929267,1.95241884688735,0.9657856445848941
1746278069170054100,10.10705419921875,-1.5444529630243777,2.4193723417699338,1.0185866759240627
1746278069180033300,10.117033203125,-1.4666250424563885,2.8195336893618106,1.121799213117361
1746278069190012200,10.12701220703125,-1.3635820166110992,3.198938664650917,1.2514444146841763
1746278069199992000,10.136991943359375,-1.2182208480615169,3.5102310577005147,1.4034382261812686
1746278069209971200,10.14697119140625,-1.054235496932268,3.690826109781861,1.5477619414418935
1746278069219950000,10.1569501953125,-0.8855518319189548,3.8391561380743977,1.6048942799836396
1746278069229930200,10.16693017578125,-0.7275648444216698,4.044346702229976,1.4910937132805584
1746278069239909000,10.1769091796875,-0.6216144066970795,4.240999155142903,1.3269091132521629
1746278069249888300,10.18688818359375,-0.5002829330325126,4.520273192641139,1.1098808117866517
1746278069259868200,10.1968681640625,-0.42724228327367453,4.867050740569829,0.854754542595148
1746278069269847000,10.206846923828126,-0.4359773783931508,5.104834829816222,0.7242226213216781
1746278069279826200,10.216826171875,-0.4035714482963085,5.2657992987543345,0.6676163524806499
1746278069289805000,10.22680517578125,-0.3766308344006538,5.275049357658625,0.589008095189929
1746278069299785200,10.23678515625,-0.423205575103499,5.1077609463959925,0.6147603760838508
1746278069309764000,10.24676416015625,-0.5320446834743022,4.794079612383246,0.6113631348609924
1746278069319743200,10.2567431640625,-0.7480991714715958,4.413618406039476,0.5173305139452219
1746278069329723100,10.26672314453125,-1.0471780527014285,3.9297704749792812,0.3873503813356161
1746278069339702000,10.276701904296875,-1.3908511318087577,3.547245321843028,0.07323474755883216
1746278069349681200,10.28668115234375,-1.7481810534119604,3.155001323246956,-0.2519838795125484
1746278069359661000,10.2966611328125,-2.0068296515107154,2.874545382487774,-0.6039028819829225
1746278069369640200,10.30664013671875,-2.2695418457865713,2.5570839454144236,-0.9109721043795347
1746278069379619000,10.316619140625,-2.613669755989313,1.986945970389247,-1.0722621520102023
1746278069389599000,10.326598876953126,-2.9074913742780684,1.3030512678027153,-1.240260757368803
1746278069399578000,10.336578125,-3.026882308334112,0.84648881855309,-1.4943179360240697
1746278069409557000,10.346556884765626,-2.9240695841133593,0.630739450982213,-1.7502450002044438
1746278069419536100,10.3565361328125,-2.661788766992092,0.5958136835515498,-1.999758105689287
1746278069429516000,10.36651611328125,-2.259519633466005,0.6206640471696854,-2.188417806282639
1746278069439495200,10.3764951171875,-1.7034604526758192,0.718670832413435,-2.3022183729857204
1746278069449474000,10.38647412109375,-1.017795233285427,0.927365020775795,-2.3184984766572714
1746278069459454000,10.396453857421875,-0.14084054931998252,1.1008528712004422,-2.187700597923994
1746278069469433000,10.40643310546875,0.743137749671936,1.11400519824028,-1.9253700964421032
1746278069479412000,10.416411865234375,1.6894880414247513,1.1502753660172222,-1.501417538896203
1746278069489392000,10.42639208984375,2.5934517283469436,1.1575602623283863,-0.9018518093347548
1746278069499371000,10.43637109375,3.4132711511611937,1.1247370201349258,-0.20433950028419492
1746278069509350100,10.44635009765625,4.108250726863742,1.013988826739788,0.4727373389810323
1746278069519329000,10.4563291015625,4.723358893471956,0.7833581163793801,1.06738022518754
1746278069529309000,10.466308837890624,5.148859264981747,0.5790010804384946,1.453089853578806
1746278069539288000,10.4762880859375,5.273492191344499,0.3822837455958128,1.6927479200035334
1746278069549267000,10.486266845703126,5.1867999963194125,0.15369360115230082,1.8323405150890348
1746278069559247000,10.4962470703125,4.909392921736836,-0.05027238964438438,1.9353420398801564
1746278069569226000,10.50622607421875,4.450934283477068,-0.21364450424611567,1.9544225879251955
1746278069579205000,10.516205078125,3.887036664146185,-0.2495896778523922,1.9853964028596878
1746278069589185000,10.52618505859375,3.2546570447415113,-0.1655114647179842,2.0010995834261176
1746278069599164000,10.536163818359375,2.6284002921313045,-0.03151917385756969,2.049648802539706
1746278069609143000,10.54614306640625,2.068957314121723,0.0827227068722248,2.1959072852551937
1746278069619123200,10.556123291015625,1.5959335594147444,0.1341448510736227,2.3920289922922846
1746278069629102300,10.566102294921874,1.1653017433006316,0.1950695676356554,2.5345997264057396
1746278069639081000,10.5760810546875,0.8093523893356322,0.26616028890311716,2.718313787290454
1746278069649060000,10.58606005859375,0.5282657494574785,0.24103344643115995,2.9194471850097177
1746278069659040300,10.596040283203125,0.3489181401539594,0.1594061335802078,3.0680028387516733
1746278069669019100,10.60601904296875,0.2632131295353174,0.0469558124423027,3.207385005956888
1746278069678998000,10.615998046875,0.22486323287487028,-0.09904548064172268,3.321454452729225
1746278069688978000,10.62597802734375,0.22472060953378675,-0.20189386069774626,3.4016333203375337
1746278069698957000,10.63595703125,0.2415764672666788,-0.3050976300626993,3.4753041212260722
1746278069708936000,10.64593603515625,0.3214941266555339,-0.43100598318874833,3.490759464511275
1746278069718915800,10.655915771484375,0.4114209196876734,-0.5298989036172628,3.4675860941946506
1746278069728895000,10.66589501953125,0.48246137207262213,-0.6084194826245307,3.4501913072794674
1746278069738873900,10.675873779296875,0.5856178682297468,-0.6481745699077844,3.448700191938877
1746278069748854000,10.68585400390625,0.6783504393976182,-0.6709253308981656,3.432836267852783
1746278069758833000,10.6958330078125,0.7342909378062933,-0.6443219861328602,3.4061189413189887
1746278069768812000,10.70581201171875,0.7647060228794813,-0.5922668047249317,3.3749639245986938
1746278069778791000,10.715791015625,0.7493289324622601,-0.5376175151705742,3.3516613749444484
1746278069788770800,10.725770751953124,0.6766150669723748,-0.4867857380777597,3.2811271185159683
1746278069798750000,10.73575,0.5729957025438547,-0.44033670611381526,3.151666041344404
1746278069808728800,10.745728759765624,0.43393385333418844,-0.34667291851043697,3.0032629478156565
1746278069818709000,10.755708984375,0.265164884657599,-0.2756786433547735,2.8610522791862487
1746278069828688000,10.76568798828125,0.10751991553101688,-0.22461539559364319,2.711468451440334
1746278069838667000,10.7756669921875,-0.051936523464322086,-0.1948380969673395,2.611846047693491
1746278069848647000,10.78564697265625,-0.21933603041861205,-0.15696575469076632,2.538918174126744
1746278069858625800,10.795625732421875,-0.3724188061961904,-0.16219781012535095,2.423409634461999
1746278069868605000,10.80560498046875,-0.5478530779808759,-0.14791151061952112,2.3312866465598345
1746278069878583800,10.815583740234375,-0.7334522219598293,-0.1548018546551466,2.2965672153562307
1746278069888564000,10.82556396484375,-0.9124211341440677,-0.2294417928367853,2.1765181096524
1746278069898542800,10.83554296875,-1.0547931308150291,-0.2594792037039995,2.0799615232169626
1746278069908522000,10.84552197265625,-1.2193991711258887,-0.3299368877649307,1.978618287026882
1746278069918502000,10.855501953125,-1.362951902014017,-0.4233867403566837,1.859282298028469
1746278069928480800,10.865480712890625,-1.4481167413413525,-0.49806817959249017,1.674913572627306
1746278069938460000,10.8754599609375,-1.4880050996154546,-0.5118699104517698,1.433682557797432
1746278069948439800,10.885439697265625,-1.4876152235150337,-0.5000836110681295,1.1581231569081545
1746278069958419000,10.8954189453125,-1.428969557800889,-0.423533455350995,0.8501280518382788
1746278069968397800,10.905397705078125,-1.2928344096928834,-0.33678514622449873,0.5352215599447488
1746278069978377700,10.915377685546876,-1.129399166727066,-0.20189444521963595,0.24761633195281027
1746278069988356900,10.92535693359375,-0.8888800995588302,-0.019202128598093986,-0.0035749358773231503
1746278069998335700,10.935335693359375,-0.6339572439849376,0.2651782921284437,-0.2756821504861116
1746278070008315000,10.94531494140625,-0.3719523211956024,0.610244944486022,-0.5334229860901832
1746278070018294800,10.955294677734376,-0.20382453649938106,0.9634072250157594,-0.7505950799405574
1746278070028274000,10.96527392578125,-0.10854513952606357,1.3014175291210412,-1.0559750340759753
1746278070038252800,10.975252685546875,-0.1215367230462376,1.6806635144561528,-1.441203600952029
1746278070048232700,10.985232666015625,-0.1726484769910574,1.9447791457891463,-1.7892758648663758
1746278070058211800,10.9952119140625,-0.33469138881564137,2.0389766018778084,-2.0118682301998136
1746278070068190700,11.005190673828125,-0.5087725289583206,2.0431565179109574,-2.221598775872588
1746278070078171100,11.015171142578126,-0.6411942095011472,2.114175927507877,-2.5156904432743787
1746278070088150000,11.02514990234375,-0.7650251718312502,2.175512732002139,-2.7698312085598706
1746278070098129000,11.03512890625,-0.9603180268287658,2.0806179412990806,-2.893006337329745
1746278070108109000,11.045109130859375,-1.1706266646504402,1.8895546866953372,-2.928818239945173
1746278070118088000,11.055087890625,-1.315493400746584,1.846993894341588,-3.094453038781881
1746278070128067000,11.065067138671875,-1.4090098888337612,1.9853619160681961,-3.39759368955791
1746278070138046000,11.0750458984375,-1.4959657032310962,2.266698731315136,-3.7137037120223044
1746278070148026000,11.085026123046875,-1.5420961707651615,2.6047078663766383,-3.935968745097518
1746278070158005000,11.0950048828125,-1.6012299122571945,2.943564558178186,-4.139487576648593
1746278070167984000,11.104984130859375,-1.6423767461597918,3.1609581858247515,-4.306521136367321
1746278070177964000,11.114964111328124,-1.693990613541007,3.133399732291698,-4.314986182373762
1746278070187943000,11.12494287109375,-1.739130900993943,2.6071073287338016,-4.202528262451291
1746278070197922000,11.134922119140626,-1.7217016272872685,1.6996826877027749,-4.046849624961614
1746278070207902000,11.14490185546875,-1.562042980250716,0.6675462098538876,-4.0058731791898605
1746278070217881000,11.154881103515624,-1.3219248950988054,-0.3443745784401893,-4.028158660756051
1746278070227860000,11.16485986328125,-1.0964362238019705,-1.1619926918178796,-4.037046900610625
1746278070237839000,11.174839111328126,-0.8426596156537532,-1.7504910839200019,-4.184973608799279
1746278070247819000,11.184819091796875,-0.5190712566653266,-2.0121090532183645,-4.360540311324596
1746278070257798000,11.1947978515625,-0.20655257322378456,-2.0778525682389737,-4.411217190116644
1746278070267777000,11.204777099609375,0.02907762592434883,-2.029578074413538,-4.295968178170919
1746278070277757000,11.2147568359375,0.2211111868649721,-1.880945848304033,-4.029752651949226
1746278070287736000,11.224736083984375,0.37046705107390876,-1.6830062781900166,-3.734668466378748
1746278070297715000,11.23471484375,0.5555272658705711,-1.51811499119699,-3.4562434469252823
1746278070307694800,11.24469482421875,0.7316126585077494,-1.4283049564123154,-3.1340406605437394
1746278070317674000,11.254674072265624,0.8664222571004182,-1.3602069872200488,-2.770199165089428
1746278070327652900,11.26465283203125,0.977089713409543,-1.34517308421731,-2.4733774882018564
1746278070337632800,11.2746328125,0.9559937338888644,-1.407255154120922,-2.1535487374752758
1746278070347612000,11.28461181640625,0.8013882785886526,-1.4564724817544221,-1.8856401436001062
1746278070357591000,11.294591064453124,0.5108295345533639,-1.493137201806903,-1.6434037511199713
1746278070367570000,11.30456982421875,0.15784085702486336,-1.5375322238504885,-1.3930425043731927
1746278070377549800,11.3145498046875,-0.1515243673544377,-1.5030226360052823,-1.1713023719549178
1746278070387529000,11.324529052734375,-0.4014583651324734,-1.3838853844493626,-0.8554834413915872
1746278070397507800,11.3345078125,-0.6645154638558626,-1.256980421501398,-0.5483329704523087
1746278070407487700,11.34448779296875,-0.8953046527136117,-1.1138193202793598,-0.21073124714791774
1746278070417467000,11.354466796875,-1.0667670617252587,-0.9282336203038692,0.18132979609668254
1746278070427446000,11.364446044921875,-1.174332533431053,-0.7806582097709178,0.5608183580160141
1746278070437426000,11.374426025390624,-1.2690513830453156,-0.6319552565127611,0.917016060718894
1746278070447404800,11.38440478515625,-1.3103683128178119,-0.4750765955835581,1.2313999900430441
1746278070457384000,11.394384033203124,-1.3855758217543364,-0.3515373096764087,1.58678403827548
1746278070467363800,11.40436376953125,-1.475450738468766,-0.22390344793200492,1.9207962126553058
1746278070477342700,11.4143427734375,-1.5013865592360496,-0.117279056468606,2.198398517549038
1746278070487321900,11.42432177734375,-1.4940975712716578,-0.07036883673369884,2.499355979067087
1746278070497300700,11.43430078125,-1.4812018493413925,-0.10062018261253833,2.798041988521814
1746278070507281000,11.444281005859375,-1.4846633879721163,-0.21076924107074738,3.0069612178117033
1746278070517259800,11.454259765625,-1.4664426716268062,-0.25210546006560325,3.0725317143529653
1746278070527239000,11.464239013671875,-1.4189163658201693,-0.2402168693512678,3.0495389613002537
1746278070537218800,11.47421875,-1.358509535652399,-0.19843816728591918,2.9874083760797974
1746278070547197700,11.48419775390625,-1.2921873439610003,-0.1346843647778034,2.902068180185556
1746278070557176800,11.4941767578125,-1.2284744579851627,0.01930383540689945,2.874190577700734
1746278070567156700,11.50415673828125,-1.1942553775191307,0.2685731952637434,2.8362510154068468
1746278070577135900,11.514135986328125,-1.1581588127434252,0.5169838924646377,2.7790274914503095
1746278070587114800,11.52411474609375,-1.1313561460137367,0.7930950820177793,2.727205534276366
1746278070597094000,11.534093994140624,-1.1545604959905147,1.057510573080182,2.7123820591539145
1746278070607074000,11.544073974609375,-1.1650023219626395,1.2932388988405465,2.6271839020788668
1746278070617052700,11.554052734375,-1.1984406273145227,1.5482885956645012,2.5420640709370375
1746278070627031800,11.56403173828125,-1.2581716771125793,1.7707605494886636,2.402003273817897
1746278070637012000,11.574011962890625,-1.2639713033020497,2.069118057641387,2.257308387157321
1746278070646991000,11.5839912109375,-1.3428443490087985,2.430582302570343,2.0760493182092903
1746278070656970000,11.593969970703125,-1.451064923622459,2.814633057838678,1.8878560660839079
1746278070666950000,11.603949951171876,-1.5660181674920022,3.1809061643540857,1.7573533709049223
1746278070676929000,11.613928955078125,-1.726948880290985,3.531405363154411,1.6622727022409438
1746278070686908000,11.623907958984375,-1.9432266556501387,3.873110430124402,1.5789964531391858
1746278070696888000,11.63388818359375,-2.138567879834026,4.103112779453396,1.5886135917901991
1746278070706867000,11.643866943359376,-2.3321182750783858,4.274825436899066,1.6499141559273003
1746278070716846000,11.65384619140625,-2.5333459269523617,4.40758614013791,1.72900990447402
1746278070726825000,11.663824951171875,-2.6824831799745557,4.5426633036255835,1.8024083181619643
1746278070736804900,11.673804931640625,-2.7898715415477753,4.749426231664419,1.8399691102713345
1746278070746784000,11.683783935546876,-2.8707728782117363,5.0496419349044555,1.799136164623499
1746278070756763000,11.693762939453125,-2.8889643684625623,5.3405175628691905,1.7293869210928678
1746278070766743000,11.703742919921876,-2.8287784875690933,5.7231818322151895,1.6731389641702175
1746278070776722000,11.713721923828125,-2.6447417706012724,5.982960895648598,1.7723340824157
1746278070786701000,11.723701171875,-2.459064885210991,6.120399527570605,1.97819333961308
1746278070796681000,11.733680908203125,-2.18906954818964,6.226929811009764,2.109597367545962
1746278070806659800,11.743659912109376,-1.8246391469314693,6.374274335396289,2.106279621300101
1746278070816639000,11.753638916015625,-1.5152316908456385,6.436791289585829,2.2036001778453587
1746278070826619000,11.763618896484376,-1.2617781771719454,6.282286372050643,2.3469226071089504
1746278070836598000,11.773597900390625,-1.0792705694675444,5.9025055491864675,2.4163766670852898
1746278070846577000,11.783576904296876,-1.0592284829139709,5.338658783259987,2.447576691991091
1746278070856556000,11.79355615234375,-1.1207423975408077,4.587423651850223,2.442194998952746
1746278070866536000,11.803535888671876,-1.199002864307165,3.7475083664685487,2.327316573885083
1746278070876514800,11.813514892578125,-1.30002110632658,2.8462445861548185,2.0454607032001015
1746278070886494000,11.823493896484376,-1.3142039454579353,2.0187001220464706,1.837470863714814
1746278070896473900,11.833473876953125,-1.0601742393314837,1.2481295910477637,1.5820090789586305
1746278070906453000,11.843452880859376,-0.6616296792864799,0.6618126346379518,1.2883224852263926
1746278070916432000,11.853431884765625,-0.1153285251890309,0.25303835700154304,1.000273605120182
1746278070926412000,11.863412109375,0.44713118855953216,-0.12418167546391487,0.7920569711416959
1746278070936391000,11.873390869140625,0.8958253886520862,-0.47631110581457614,0.7039578319281339
1746278070946369800,11.883369873046876,1.2600152591526508,-0.6591898849189282,0.5446183338433503
1746278070956349000,11.893348876953125,1.6042086358070373,-0.5415823271483182,0.23422435093820093
1746278070966329000,11.9033291015625,1.8721593152582645,-0.26541619253754617,-0.08414251054227352
1746278070976308200,11.91330810546875,2.0022282951951027,0.03645487669408321,-0.2324696162253618
1746278070986286800,11.923286865234376,1.9938415751218794,0.19259353291094303,-0.19044833757579324
1746278070996267000,11.93326708984375,1.9518086060345172,0.280828865724802,-0.0935240868717432
1746278071006246100,11.94324609375,1.8381465710192917,0.24189094004333017,0.058710547643899914
1746278071016225000,11.95322509765625,1.6941601248890161,0.04710661908984184,0.23547815039157866
1746278071026205200,11.963205078125,1.5227262843847273,-0.23811375959217548,0.41579380100965496
1746278071036184000,11.97318408203125,1.3877818073660135,-0.543041293784976,0.5467267042994499
1746278071046163200,11.9831630859375,1.2960492800861596,-0.8027215730190277,0.661426265668869
1746278071056143000,11.99314306640625,1.2432079167366028,-1.0441156694561242,0.8271101643443107
1746278071066122000,12.0031220703125,1.186671132935211,-1.2234826410472392,1.0459060600042343
1746278071076101000,12.01310107421875,1.1592454389363527,-1.3465227452605961,1.2342752532184122
1746278071086080000,12.023080078125,1.208813552768901,-1.45134739382565,1.4349977320492266
1746278071096060200,12.03306005859375,1.2731290077477693,-1.4942062923431396,1.7021493700772523
1746278071106039000,12.0430390625,1.3168874854534864,-1.5762702430456876,1.9239134678930043
1746278071116018200,12.05301806640625,1.3813976592868566,-1.6515087316423653,2.1162539028257132
1746278071125998000,12.062998046875,1.4570160871118307,-1.6876052964180708,2.2671581655204296
1746278071135977000,12.07297705078125,1.5369932946681975,-1.745033987557888,2.353404954865575
1746278071145956000,12.0829560546875,1.5923685604095459,-1.8079396488040684,2.4546096593677995
1746278071155936000,12.09293603515625,1.6625754845798015,-1.8778490513324737,2.55731483156085
1746278071165915100,12.1029150390625,1.7580302472531795,-1.9656711271703242,2.555933021813631
1746278071175894000,12.11289404296875,1.7678934696197508,-2.0956471681267024,2.5125088906288147
1746278071185873200,12.122873046875,1.7353475830629468,-2.188895945188403,2.431227614736557
1746278071195853000,12.13285302734375,1.661497187823802,-2.281620406115055,2.204061950138211
1746278071205832000,12.14283203125,1.572354530906677,-2.3182974011272193,1.9773083734720944
1746278071215811000,12.15281103515625,1.398058871230483,-2.266358539575338,1.7488053227901457
1746278071225791000,12.162791015625,1.2039964348107575,-2.159451239517331,1.5611767188102006
1746278071235770000,12.17277001953125,1.0058020131528378,-2.018583802190423,1.4038620045512913
1746278071245749000,12.1827490234375,0.7751133620601147,-1.8722990159898996,1.223123160085082
1746278071255729000,12.19272900390625,0.5382166501075029,-1.680541933903098,1.0585989528387785
1746278071265708000,12.2027080078125,0.2774304554581642,-1.5011194327324628,0.8531541216611862
1746278071275687000,12.21268701171875,-0.015586276188492775,-1.2542121258318424,0.5490788203835487
1746278071285666000,12.222666015625,-0.2966495351910591,-0.9788239898562431,0.13268003921806812
1746278071295646000,12.23264599609375,-0.49664896044433116,-0.6401099213957786,-0.4662596673995256
1746278071305625000,12.242625,-0.7100222465336322,-0.24835166049003599,-1.1874860295146703
1746278071315604000,12.25260400390625,-0.9345973101168871,0.12094926941394805,-1.8174001355886458
1746278071325584000,12.262583984375,-1.1492431003600359,0.5011725753486156,-2.388501987209916
1746278071335563000,12.27256298828125,-1.4359721300393342,0.7872609690368175,-2.8846628718763587
1746278071345542000,12.2825419921875,-1.8033353698790073,0.9375321945250034,-3.3305455216795203
1746278071355521800,12.292521728515625,-2.1706161921322344,0.9729004450261592,-3.7431437415182587
1746278071365501000,12.3025009765625,-2.4889783774375913,0.8300707677155733,-4.055981025922298
1746278071375480000,12.31247998046875,-2.681424026310444,0.6576753887027502,-4.36385279687345
1746278071385460000,12.3224599609375,-2.6764357165038586,0.6288134513556957,-4.7283261604905125
1746278071395438800,12.33243896484375,-2.551969963401556,0.7419383107542992,-5.125314138743281
1746278071405418000,12.34241796875,-2.402400164180994,0.8818173215657472,-5.3935939040184016
1746278071415396900,12.35239697265625,-2.2405074744820594,0.9210130214005708,-5.513220984917878
1746278071425376800,12.362376708984375,-2.082299610775709,1.0422826088100672,-5.576538734096288
1746278071435356000,12.37235595703125,-1.9112533082842826,1.2055705522596836,-5.579248577576875
1746278071445334800,12.382334716796874,-1.800267799001932,1.2491630257487296,-5.424858810853958
1746278071455315000,12.39231494140625,-1.7819710948109626,1.2366074955582618,-5.266686018460988
1746278071465293800,12.4022939453125,-1.8402876747012138,1.214223229792714,-5.168295202335715
1746278071475273000,12.41227294921875,-1.9614251601636408,1.150863395038247,-5.137036140719056
1746278071485253000,12.422253173828125,-2.1603017188668248,0.9854735108733177,-5.080639715236425
1746278071495232000,12.43223193359375,-2.3976117608606815,0.7101566865682601,-5.023626034638285
1746278071505211000,12.4422109375,-2.5790824267327785,0.33641806647777556,-4.983249600586295
1746278071515189800,12.452189697265625,-2.6796774749040604,-0.017814473631978033,-4.95621604771018
1746278071525170200,12.462170166015625,-2.588150699329376,-0.3701578389942646,-4.9872325327426195
1746278071535149000,12.472149169921876,-2.3226292928516865,-0.6272083542466164,-5.026622878366709
1746278071545128200,12.482128173828125,-1.974586255031824,-0.8004062818139791,-5.045771815472841
1746278071555108000,12.492108154296876,-1.5967068818747996,-0.9299830943197012,-4.928956869384646
1746278071565087000,12.5020869140625,-1.2725041538476942,-1.0117325722455979,-4.746954873114824
1746278071575066000,12.512066162109376,-1.025505077010393,-1.0544418331593275,-4.53183386657536
1746278071585046000,12.5220458984375,-0.9031400955796242,-1.0887860013097523,-4.307761491817236
1746278071595025200,12.532025146484376,-0.9246054929345846,-1.178722877344489,-4.030659537661076
1746278071605004000,12.542004150390625,-1.0540805986315012,-1.2825205209493635,-3.779747671294212
1746278071614984000,12.55198388671875,-1.2509504936873912,-1.3490695071339607,-3.5594524769872424
1746278071624963000,12.561963134765625,-1.4201011916905641,-1.320567635270953,-3.3431700254529715
1746278071634942000,12.57194189453125,-1.584867390999198,-1.3023685462355612,-3.14188231395483
1746278071644921000,12.581921142578125,-1.6885048756062984,-1.2826461931556463,-2.950704493060708
1746278071654901000,12.59190087890625,-1.7370336364537478,-1.2153297297298908,-2.736899829816818
1746278071664880000,12.601880126953125,-1.7479016519486903,-1.1850754612416028,-2.4723498987197874
