time,seconds_elapsed,z,y,x
1746277903649964300,0.02196435546875,2.2203391312003133,-2.323633501458168,1.608748909585178
1746277903659944200,0.031944091796875,2.003364021226764,-2.120562121413648,1.5233575680255889
1746277903669923300,0.04192333984375,1.72429105925858,-2.062802590884268,1.4816384871929884
1746277903679902200,0.051902099609375,1.2315619026064872,-1.9869971160545945,1.4294430205315352
1746277903689882400,0.06188232421875,0.6184814424335956,-1.704322622463107,1.3428987095445393
1746277903699861200,0.071861328125,0.07302431967854499,-1.5458745202600954,0.9238216490805149
1746277903709840400,0.08184033203125,-0.2787953140705824,-1.3351514564186333,0.5411024346768856
1746277903719820500,0.091820556640625,-0.41663083635568615,-1.075076917169988,0.27575930737555027
1746277903729799400,0.10179931640625,-0.2418769115179777,-0.9937792746648192,-0.05562134945690632
1746277903739778300,0.1117783203125,0.09700433020293713,-0.8623042273223399,-0.18713468298316
1746277903749758500,0.121758544921875,0.35754502565860746,-0.7485954305559396,-0.27240181364119054
1746277903759737600,0.131737548828125,0.7728045736610889,-0.36618542823195455,-0.44657823085188864
1746277903769716500,0.141716552734375,-0.04402092803418636,0.00798515353500843,-0.7758125233054161
1746277903779695400,0.1516953125,-1.0818050563812256,0.21287936509251593,-1.1652619227468968
1746277903789675500,0.161675537109375,-2.0014976428329945,0.6177320853710174,-1.4373399112612009
1746277903799654400,0.171654296875,-2.87718157621026,1.0353905112087727,-1.734192275547981
1746277903809633500,0.181633544921875,-3.6580700876057146,1.3366297122776507,-2.063521260547638
1746277903819613400,0.191613525390625,-4.185338642719388,1.4763263522595167,-2.1540566869974134
1746277903829592600,0.201592529296875,-4.2055671917557715,1.5412439378499985,-2.2597750695317984
1746277903839571500,0.211571533203125,-3.747365743127465,1.5497539920419454,-2.657449276483059
1746277903849551400,0.22155126953125,-3.376895184922218,1.6308663411080837,-3.3229864846020933
1746277903859530500,0.231530517578125,-3.408452937224507,1.960570589160919,-3.8867929185181853
1746277903869509400,0.24150927734375,-3.7269311501249667,2.370782790645957,-4.168295737981796
1746277903879489500,0.251489501953125,-4.25898314012289,2.631497089102864,-4.1135698760598896
1746277903889468400,0.261468505859375,-4.719559793449938,2.7803350669175386,-4.17459162325561
1746277903899447600,0.271447509765625,-5.001496035894752,2.9704052188307046,-4.333968530741334
1746277903909427500,0.281427490234375,-5.106951383578777,3.0118162566274402,-4.475388341253995
1746277903919406300,0.29140625,-4.792539397203922,2.8770652563542125,-4.515685864850878
1746277903929385500,0.301385498046875,-3.9841032459303736,2.583458742120862,-4.549774012413621
1746277903939365400,0.311365478515625,-2.8457313759356735,2.4787837311595675,-4.346977649918198
1746277903949344500,0.321344482421875,-1.7123726579278706,2.581500009268522,-3.992711207538843
1746277903959323400,0.331323486328125,-0.8211541785493492,2.8102017973929643,-3.6818642201691865
1746277903969303300,0.34130322265625,-0.14826894575506447,3.076185560685396,-3.296526932221651
1746277903979282400,0.351282470703125,0.289051627407968,3.2683862948864695,-2.695314604496956
1746277903989261300,0.36126123046875,0.3499579315304756,3.20422917227447,-2.143671486583352
1746277903999241500,0.371241455078125,0.13155775718986987,2.8744045127123594,-1.740369502878189
1746277904009220400,0.381220458984375,-0.2503296825647354,2.3249451685786244,-1.47333593827188
1746277904019199500,0.391199462890625,-0.6651736355036497,1.7774322823375464,-1.1331377687335014
1746277904029179400,0.401179443359375,-1.0842828446716068,1.225059096583724,-0.9422405183464289
1746277904039158300,0.411158203125,-1.3955734841555356,0.6670587185978889,-1.0276280605137347
1746277904049137400,0.421137451171875,-1.5548150748237966,0.029114450803399083,-1.2147609899312257
1746277904059117300,0.431117431640625,-1.564713660764694,-0.5134475350320339,-1.5088298609793185
1746277904069096400,0.441096435546875,-1.4265510984823107,-0.8361497953683137,-1.3439461727708577
1746277904079075300,0.451075439453125,-1.082249877539277,-0.9475620056301355,-0.9909703547239302
1746277904089055200,0.46105517578125,-0.7055623445153236,-0.8673620952337979,-0.6456131949871778
1746277904099034400,0.471034423828125,-0.45796237917542454,-0.6780880621343851,-0.3037339404940605
1746277904109013200,0.48101318359375,-0.4302651016935706,-0.4055804500311613,0.06722001731395721
1746277904118993400,0.490993408203125,-0.6712006407082081,-0.1592857220709324,0.5959995615124702
1746277904128972300,0.50097216796875,-1.0128431638360023,-0.03529167813360691,0.940026349428296
1746277904138951400,0.510951416015625,-1.390873051379621,0.038894086539745326,1.1512842507988215
1746277904148931600,0.520931640625,-1.7244845360040664,-0.00841653068959713,1.2354530648261308
1746277904158910200,0.53091015625,-2.035589297527075,-0.2219523138642311,1.1474866120815277
1746277904168889300,0.540889404296875,-2.101241334871948,-0.5202145449489355,1.1267045208156108
1746277904178869500,0.550869384765625,-2.0036632964342833,-0.801702751365304,1.1466665278702974
1746277904188848400,0.560848388671875,-1.7477160662487148,-1.151693416121602,1.2050398063838481
1746277904198827500,0.57082763671875,-1.4087278570219874,-1.4894599745988846,1.348160575595498
1746277904208807400,0.580807373046875,-1.1735732394963503,-1.8343869262248276,1.457636264836788
1746277904218786600,0.59078662109375,-1.0019161116302013,-2.075244431567192,1.457490718886256
1746277904228765400,0.600765380859375,-0.8548094876527785,-2.30785199495852,1.4032932647526264
1746277904238744600,0.61074462890625,-0.9054369743451476,-2.414211598005891,1.2039882515043019
1746277904248724500,0.620724365234375,-1.2178428815945983,-2.481640874156356,1.030682187387347
1746277904258703400,0.630703369140625,-1.6565847197324037,-2.476095514988899,0.8648544963270425
1746277904268682500,0.6406826171875,-1.9870283879756927,-2.4212416427731513,0.5126695363968611
1746277904278662400,0.650662353515625,-1.8201093945473432,-2.2558225325137378,-0.10177519786655902
1746277904288641500,0.6606416015625,-1.4195628470301627,-1.9986334855735302,-0.5247182861089706
1746277904298620400,0.670620361328125,-1.590873937937617,-2.0153005427360533,0.004991232416033745
1746277904308600300,0.680600341796875,-1.9992256062477827,-2.1560779636919496,0.9362117595762014
1746277904318579500,0.690579345703125,-2.1211311534732578,-2.2060417257785794,1.4618319629609584
1746277904328558300,0.700558349609375,-1.9191063598722218,-1.994289903411269,1.2826619752466677
1746277904338538500,0.71053857421875,-1.5205951175749302,-1.534759836527705,0.7208610359340906
1746277904348517400,0.720517333984375,-1.1362392418801783,-1.4707055897682904,0.5924409922480582
1746277904358496500,0.73049658203125,-0.7942080116957425,-1.7292594953209162,0.6643751786023377
1746277904368476400,0.740476318359375,-0.5096358677893876,-1.8849480696827172,0.569757451274991
1746277904378455300,0.750455322265625,-0.25305472361445425,-1.8693769910633562,0.5534726714283228
1746277904388434400,0.760434326171875,-0.027520459610223768,-1.8206138369381426,0.49907414176464077
1746277904398414300,0.770414306640625,0.17680267406105993,-1.862568480092287,0.4346241736859083
1746277904408393500,0.7803935546875,0.4036240552663803,-1.8528683393329382,0.5301058243662119
1746277904418372400,0.790372314453125,0.6984358536362648,-1.7028811914831399,0.774303872308135
1746277904428352300,0.800352294921875,0.9767629656732082,-1.6732389174133537,0.9045850336909294
1746277904438331400,0.810331298828125,0.9531319147169589,-1.6103122133791445,0.946052185589075
1746277904448310300,0.820310302734375,0.9780494983524084,-1.4562667300492524,0.9961538948416709
1746277904458290400,0.83029052734375,1.2014683776378632,-1.439256558537483,0.9550392096430063
1746277904468269300,0.840269287109375,1.5138479814022778,-1.4623907658874988,0.9137813165813684
1746277904478248400,0.85024853515625,1.7709715618908404,-1.3786597587555647,0.9858990428090095
1746277904488228400,0.860228271484375,1.5334773955017327,-1.2161641347274184,0.8372375906050205
1746277904498207200,0.870207275390625,1.382049401193857,-0.9990119146212935,0.5150333429187536
1746277904508186400,0.880186279296875,1.428532919949293,-0.9370318437874317,0.36609950351417064
1746277904518166000,0.890166015625,1.4425871642649173,-0.9042889733538031,0.35389527097940443
1746277904528145200,0.900145263671875,1.603144221445918,-0.5936570900395512,0.10928279701769351
1746277904538124000,0.9101240234375,1.909829412961006,-0.4519754137203097,0.10268997462391853
1746277904548104000,0.92010400390625,2.0584972949057816,-0.6424763582661748,0.3670861764639616
1746277904558083000,0.9300830078125,2.0478239252001047,-0.7106359945178031,0.06590542758405209
1746277904568062000,0.94006201171875,1.8596008624583482,-0.5783429087907076,-0.3873316766351461
1746277904578042000,0.9500419921875,1.4858476293206213,-0.4361734489545226,-0.6758429135560989
1746277904588021000,0.96002099609375,1.0913766023248432,-0.3147425335034728,-0.8897522062182426
1746277904598000000,0.970000244140625,0.6366442911118269,-0.18652385760843754,-1.0755214460670948
1746277904607980000,0.97997998046875,0.22006723076999185,-0.013185644787549971,-1.1262439175665377
1746277904617959000,0.989958984375,-0.14099427857697008,0.21424305466115473,-0.9498217672556638
1746277904627938000,0.99993798828125,-0.39975393583476543,0.47458968884944913,-0.6715677204549312
1746277904637918000,1.00991796875,-0.5379249736845493,0.6026859074085951,-0.3326338717639446
1746277904647897000,1.01989697265625,-0.6318634865760803,0.6155500651568174,0.0932493615835905
1746277904657876000,1.0298759765625,-0.6553489915817976,0.5263286439150572,0.37360944075286384
1746277904667856000,1.03985595703125,-0.6408522641956805,0.3689104692816734,0.4039163162112236
1746277904677835000,1.0498349609375,-0.6321943259656428,0.24113339967429637,0.2589315066933632
1746277904687814000,1.05981396484375,-0.6119184306561947,0.25260347271561623,0.022377251502871513
1746277904697794000,1.0697939453125,-0.4303939887702465,0.3681283789932728,-0.22369185100793837
1746277904707773000,1.07977294921875,-0.274881355497241,0.5713870983034371,-0.4092880723774433
1746277904717752000,1.089751953125,-0.2330582297682762,0.888608296880126,-0.28768472296893594
1746277904727731000,1.09973095703125,-0.18168284731805323,1.281555475309491,-0.09204816910028457
1746277904737710800,1.1097109375,-0.27644261346459387,1.6266893476843833,0.09808920283019543
1746277904747690000,1.11968994140625,-0.5967173543930053,1.8846248290777206,0.25279227328598497
1746277904757670000,1.129669921875,-1.080543658143282,2.0009873552232977,0.10954524734616279
1746277904767649000,1.13964892578125,-1.6040274340212344,1.9617238508492707,-0.19934592978060245
1746277904777628000,1.1496279296875,-2.034116886886954,1.8603145636856555,-0.4300923754751682
1746277904787607000,1.15960693359375,-2.3404952044099567,1.6853262455701827,-0.574755697953701
1746277904797587000,1.1695869140625,-2.5553818176716563,1.4301210659235715,-0.5801110875070095
1746277904807565800,1.17956591796875,-2.713675021573901,1.053953757381439,-0.39604865157604213
1746277904817545000,1.189544921875,-2.7854408656239507,0.6434773520022631,-0.20280922197699547
1746277904827524900,1.19952490234375,-2.7614041564762593,0.2392325344890356,-0.08787000663280486
1746277904837504000,1.20950390625,-2.699678644925356,-0.07092530157268047,-0.04925064538121223
1746277904847483000,1.21948291015625,-2.6571798118919134,-0.21372399922311305,-0.23701368939578532
1746277904857462800,1.229462890625,-2.534013450950384,-0.2999304565578699,-0.5004845930844545
1746277904867442000,1.23944189453125,-2.3878309560805557,-0.4742962588608265,-0.4465110108345747
1746277904877420800,1.2494208984375,-2.252276238209009,-0.7204992168843746,-0.2693488558113575
1746277904887401000,1.25940087890625,-1.9825877751797436,-0.8357143265604973,-0.23241116403639314
1746277904897379800,1.2693798828125,-1.6969594002187252,-0.9006792584240436,-0.3069230919241905
1746277904907359000,1.27935888671875,-1.5196972919523715,-0.9215776695460081,-0.34649171672463414
1746277904917339100,1.289339111328125,-1.4497802906394004,-0.8378063304036856,-0.29605390738546844
1746277904927317800,1.29931787109375,-1.43812492415905,-0.7085165181457996,-0.2502268067121506
1746277904937297000,1.309296875,-1.5592881285846232,-0.5851765542030334,-0.23781506890654563
1746277904947277000,1.319277099609375,-1.598769075101614,-0.49583822858333587,-0.19712416207790373
1746277904957256200,1.329256103515625,-1.5965040527790784,-0.41164252654910083,-0.20417232702374458
1746277904967235000,1.339235107421875,-1.5440946511059999,-0.3847995278090238,-0.224914086279273
1746277904977215000,1.349215087890625,-1.411509304434061,-0.40833121004402634,-0.18792904823124407
1746277904987194000,1.359194091796875,-1.1637947728037834,-0.4924819038927555,-0.12108897014558315
1746277904997173000,1.369173095703125,-0.8792237979412079,-0.5582873782336711,-0.046585810086131094
1746277905007153200,1.379153076171875,-0.5734025297790766,-0.6253022283643483,-0.053555649098753925
1746277905017132000,1.389132080078125,-0.2074830590069294,-0.6818932996362448,0.004141922110319138
1746277905027111200,1.399111083984375,0.1679775625705719,-0.7153261981606484,0.09412614441812038
1746277905037091000,1.409091064453125,0.47993514153063294,-0.742158675506711,0.20525252347588538
1746277905047070000,1.419070068359375,0.6898024653255939,-0.7454583015739917,0.2843412577599287
1746277905057049000,1.429049072265625,0.7758698064506053,-0.7686597289413213,0.38628012175559995
1746277905067029000,1.439029052734375,0.7388760005742311,-0.8262111696779727,0.6043225686997175
1746277905077008100,1.449008056640625,0.6942296341180801,-0.9272253200441598,0.8255559206396341
1746277905086987000,1.458987060546875,0.643164048269391,-1.0029004464924336,1.1046855812311172
1746277905096966100,1.468966064453125,0.7009265014082193,-1.0928010821700096,1.3664426667392253
1746277905106946000,1.478946044921875,0.7619821508735418,-1.158545181712508,1.548257031482458
1746277905116925000,1.488925048828125,0.9101865069597959,-1.1854489707291125,1.6746014379382133
1746277905126904000,1.498904052734375,1.150011162123084,-1.1585124484866858,1.7947937515050172
1746277905136884000,1.508884033203125,1.4572124864667653,-1.1683557971090077,1.8210165725201368
1746277905146863000,1.518863037109375,1.8500608806967733,-1.1470014589130877,1.771412291395664
1746277905156842000,1.528842041015625,2.453553428313136,-1.0334317783564329,1.68445472343266
1746277905166822000,1.53882177734375,2.8184909023106095,-0.7826789019435644,1.5599807870239017
1746277905176801000,1.548801025390625,2.800562446910143,-0.6151484986186028,1.5799351952940224
1746277905186780000,1.55877978515625,2.5409090556830165,-0.4153986642122268,1.4668430691212415
1746277905196760000,1.568760009765625,2.227578434804082,-0.11818097374439239,1.300681616061926
1746277905206739000,1.578739013671875,2.011246298909187,0.16856851420104502,1.2169196292698383
1746277905216718000,1.588718017578125,1.8628455434679985,0.46754620007872577,1.1752660148888825
1746277905226698000,1.598697998046875,1.798046615821123,0.6301280410856008,1.0903192022264003
1746277905236676900,1.6086767578125,1.9701321982324123,0.7335352240681647,0.9447323351621627
1746277905246656000,1.618656005859375,2.2748995734274384,0.8836497976899147,0.8115858474761247
1746277905256636000,1.628635986328125,2.5174282268524166,1.0836194123268126,0.6223275964677334
1746277905266615000,1.638614990234375,2.663892461273074,1.2199047825604676,0.377115403047204
1746277905276594000,1.648593994140625,2.769667542430758,1.4066682941436768,0.06534779370129108
1746277905286573800,1.65857373046875,2.785356109949946,1.6523101111531258,-0.13567512938082218
1746277905296553000,1.668552978515625,2.6468863814145327,2.0665005686193703,-0.15680501117110252
1746277905306531800,1.67853173828125,2.263827559792995,2.5269606098294255,-0.07585048301517963
1746277905316511700,1.68851171875,1.7276532291680573,2.8536761974602936,-0.01923719991147518
1746277905326491000,1.698490966796875,1.197326455527544,3.105037561160326,-0.09298223508000374
1746277905336470000,1.708469970703125,0.6820663181155919,3.3669992293298243,-0.3492302017778158
1746277905346450200,1.7184501953125,0.33057226305902004,3.562831598031521,-0.6061357556015252
1746277905356428800,1.7284287109375,0.09844225405156612,3.586535714223981,-0.8872890309751034
1746277905366408000,1.738407958984375,0.010700549973547458,3.472611228880286,-1.2046604516774415
1746277905376386800,1.74838671875,-0.0210337279394269,3.33519013261497,-1.4744985523104668
1746277905386367000,1.758366943359375,-0.007587678650021553,3.212069948902726,-1.6695809794276952
1746277905396346000,1.76834619140625,0.017562544697523115,3.107013829669356,-1.7354127572536469
1746277905406324700,1.77832470703125,0.03880143982023,3.0502585077464577,-1.696234008553624
1746277905416305200,1.78830517578125,0.032197511510550975,3.1082272971123457,-1.6199229222893714
1746277905426284000,1.798283935546875,0.02900836008042097,3.28669995021224,-1.5944453666836023
1746277905436263200,1.80826318359375,0.09370411961376666,3.484643611979484,-1.4339718961328267
1746277905446243000,1.8182431640625,0.0997416462123394,3.624295828297734,-1.1772416988760233
1746277905456222000,1.828221923828125,-0.06169044023752212,3.6489562223017216,-0.932668972402811
1746277905466201000,1.838201171875,-0.41265316489636894,3.4398628054887053,-0.5869330424815415
1746277905476181000,1.848180908203125,-0.8815802979394793,2.94654152816236,-0.260550632327795
1746277905486160100,1.85816015625,-1.2935507412686944,2.2056407437622547,-0.06077917061150074
1746277905496139000,1.868138916015625,-1.5160451991856096,1.3545038071423767,-0.019347674548625945
1746277905506119000,1.878118896484375,-1.4707409533426166,0.565199349579215,-0.1357177994787693
1746277905516097500,1.88809765625,-1.2221025848656892,-0.09651216277182102,-0.2576508192330599
1746277905526076700,1.89807666015625,-0.8381190496146679,-0.43896132610738275,-0.22207097180783747
1746277905536056600,1.908056640625,-0.4932090491235256,-0.5375216535806655,-0.12093991706371307
1746277905546035500,1.918035400390625,-0.2929325604945421,-0.5028530757814645,0.11879121459722518
1746277905556014600,1.9280146484375,-0.2289265367910266,-0.47123687129020686,0.21202537861168383
1746277905565994500,1.937994384765625,-0.20346739362478256,-0.465126863977313,0.15413842231035232
1746277905575973600,1.9479736328125,-0.18161124338656662,-0.49362172157764433,0.07076864970624447
1746277905585952500,1.957952392578125,-0.21976474069207905,-0.4965776487737894,0.06813888572454452
1746277905595932400,1.967932373046875,-0.3123407330587506,-0.5349965190172196,0.04387304399609566
1746277905605911600,1.97791162109375,-0.4997212074965238,-0.6784802763223647,-0.01122983454465866
1746277905615890400,1.987890380859375,-0.7833674687296152,-0.8238631452471017,-0.14101415232121944
1746277905625869600,1.99786962890625,-1.0420650205366313,-1.1047504631608724,-0.16000468399524687
1746277905635849700,2.007849609375,-1.1224717055514455,-1.4451350951820612,-0.0873719939827919
1746277905645828600,2.01782861328125,-0.9682134562537074,-1.7462281657785177,0.013052373796701431
1746277905655807500,2.027807373046875,-0.6369295377939939,-2.030299374425411,0.10042027612626551
1746277905665787600,2.03778759765625,-0.18483678130432962,-2.304222698545456,0.15647709439098834
1746277905675766800,2.047766845703125,0.1890538144774735,-2.5483202087223527,0.16683832940757273
1746277905685745700,2.05774560546875,0.4540058966346085,-2.7892110318124295,0.16972236041128635
1746277905695725600,2.0677255859375,0.5708068141974508,-2.9605957724779843,0.15280921953320503
1746277905705704700,2.07770458984375,0.5830367656953632,-3.1494068642407655,0.17898937045037747
1746277905715683600,2.08768359375,0.527750201150775,-3.3115333626955747,0.19287585698366164
1746277905725663700,2.097663818359375,0.4261331164553761,-3.3747681097656486,0.2306616900205612
1746277905735642600,2.107642578125,0.2524076578825712,-3.4066789132893085,0.29486498986184595
1746277905745621800,2.117621826171875,0.048557986941933626,-3.4429718774199483,0.24897768343389032
1746277905755601700,2.1276015625,-0.03570551963150501,-3.442028459089994,0.1722211914896965
1746277905765580500,2.13758056640625,-0.0672293696641922,-3.3920179352521895,0.15061492435932158
1746277905775559700,2.1475595703125,-0.17652064224928615,-3.303511384281516,0.08553133455216884
1746277905785539600,2.15753955078125,-0.36756256180405616,-3.1807746469289064,0.09037292936444281
1746277905795518700,2.167518798828125,-0.5324725534975528,-3.04311155860126,0.19007073643505573
1746277905805497600,2.17749755859375,-0.6458094482116401,-2.823048419484496,0.257176771980524
1746277905815477500,2.1874775390625,-0.7886902711875736,-2.5471961731284853,0.30719138747155667
1746277905825456600,2.19745654296875,-1.002587288890034,-2.2173931408762932,0.39739422096610066
1746277905835435500,2.207435546875,-1.165659543762356,-1.9988859990298746,0.4790706336557865
1746277905845414700,2.21741455078125,-1.3063573236107826,-1.8618489336460828,0.3954588689893484
1746277905855394600,2.22739453125,-1.3581471320807934,-1.7801660912156103,0.19977204623818395
1746277905865373700,2.237373779296875,-1.3631640834599732,-1.7280518730968235,-0.09860708922445774
1746277905875352600,2.2473525390625,-1.3248568568974732,-1.7614613907456398,-0.4362432993203401
1746277905885332500,2.25733251953125,-1.1336433801680803,-1.837448651883006,-0.7222644729912281
1746277905895311600,2.2673115234375,-1.0589261389665305,-1.8081833944320678,-0.9797896200180053
1746277905905290500,2.27729052734375,-1.108545617660135,-1.8285189109742641,-1.2454939818471669
1746277905915270700,2.287270751953125,-1.0865336923383175,-1.943712977862358,-1.6323784992367028
1746277905925249500,2.29724951171875,-1.0217008624218404,-2.0676731195300815,-1.9574813909739255
1746277905935228700,2.307228759765625,-1.119538866969943,-2.1642636082351205,-2.1601538348287344
1746277905945208600,2.31720849609375,-1.2532577477164566,-2.094280555948615,-2.4739812993139028
1746277905955187500,2.3271875,-1.309056207305938,-1.8047925829499958,-2.9041046544492244
1746277905965166600,2.33716650390625,-1.4033363732419908,-1.3896055156618357,-3.2875445843428373
1746277905975146500,2.347146484375,-1.5498976382963359,-0.9390519514381885,-3.6472967646569012
1746277905985125600,2.357125732421875,-1.8116531163692473,-0.2967968347072601,-3.9180829597949978
1746277905995104500,2.3671044921875,-2.09384274905324,0.47400107530653474,-4.08896968781054
1746277906005084400,2.37708447265625,-2.369893148329854,1.2390794386297463,-4.190064502197504
1746277906015063600,2.3870634765625,-2.5992098534822463,1.9192454760819673,-4.253654054054618
1746277906025042400,2.39704248046875,-2.795637849989533,2.5278134272664783,-4.220476007074118
1746277906035022600,2.407022705078125,-2.9318904869973657,3.057516516050696,-4.127932747933269
1746277906045001500,2.41700146484375,-3.017400778761506,3.590295359018445,-4.0389498116225
1746277906054980600,2.426980712890625,-3.1002082413077354,4.044971556130052,-3.7756963500767946
1746277906064960500,2.43696044921875,-3.1764415861606596,4.308264180642366,-3.4306928260833023
1746277906074939400,2.446939453125,-3.163023886182904,4.33192504221499,-3.226746124508977
1746277906084918500,2.45691845703125,-3.03290989806056,4.100506980869174,-3.1726562224030492
1746277906094897400,2.4668974609375,-2.9306396101534364,3.673457041829824,-3.084064915758371
1746277906104877800,2.4768779296875,-2.8404923062384126,2.963380434760451,-2.8353309779524802
1746277906114856400,2.4868564453125,-2.7683208039969203,2.06674372972548,-2.6624896087378263
1746277906124835600,2.496835693359375,-2.748986573451757,1.1163023692667484,-2.478453476291895
1746277906134815700,2.506815673828125,-2.696529825505614,0.18358137441575526,-2.338010401856899
1746277906144794600,2.516794677734375,-2.5335709678798914,-0.4435597598135471,-2.3026012348234652
1746277906154773800,2.526773681640625,-2.3122325481303037,-0.8484937286347151,-2.2480349473774432
1746277906164753700,2.536753662109375,-2.008363436949253,-1.1277385400384663,-2.176193700003624
1746277906174732800,2.54673291015625,-1.695790356439352,-1.2502911529958247,-2.0778695193737744
1746277906184711700,2.556711669921875,-1.3721627979516982,-1.2622282590270042,-1.955385879999399
1746277906194691600,2.566691650390625,-0.9502321016222238,-1.2731786921083927,-1.8375690633922814
1746277906204670700,2.576670654296875,-0.47725905418917536,-1.203115560323,-1.7982196343004702
1746277906214649600,2.586649658203125,-0.1945861680328846,-1.0658873562812805,-1.6908622523874044
1746277906224629800,2.596629638671875,-0.10155644054934382,-0.9366887294381856,-1.4988625937163829
1746277906234608600,2.606608642578125,-0.08642433786913752,-0.7660504232257604,-1.183680207490921
1746277906244587800,2.616587890625,-0.10080182278975844,-0.6454740787774325,-0.6966027929902077
1746277906254567700,2.626567626953125,-0.19426555777639148,-0.5432061289578676,-0.2527273913562298
1746277906264546600,2.636546630859375,-0.3746770699843764,-0.44528351486623285,0.09538520456850529
1746277906274525700,2.646525634765625,-0.5261509492605925,-0.4041378500074148,0.3457265775710344
1746277906284504600,2.656504638671875,-0.663523384078592,-0.3217313694775104,0.5780979941189289
1746277906294484700,2.666484619140625,-0.7334720957040787,-0.2605646608531475,0.8033540257036685
1746277906304463600,2.676463623046875,-0.6300717808537185,-0.15112345840334893,0.9950590853422879
1746277906314442800,2.68644287109375,-0.359869669213891,-0.047608723393082614,1.2873194456636905
1746277906324422700,2.696422607421875,0.029626199717819688,-0.035002924320101735,1.7107897726505994
1746277906334401500,2.706401611328125,0.4863061378672719,-0.03696048812866211,2.1604759063899515
1746277906344380700,2.716380615234375,0.9860153626650571,-0.10871171913146972,2.6188795995920895
1746277906354360600,2.726360595703125,1.3893462802037595,-0.2229319725513458,2.975964022001624
1746277906364339700,2.736339599609375,1.6219859922990203,-0.38679040936529635,3.2652965121775863
1746277906374318600,2.746318603515625,1.7580989285752175,-0.5408803163588046,3.473344219329953
1746277906384298500,2.756298583984375,1.806038199096918,-0.6203145030796527,3.6530741790145633
1746277906394277600,2.766277587890625,1.7455775929152963,-0.6635737990915775,3.8072032489746808
1746277906404256500,2.776256591796875,1.6090727347120641,-0.7191916414171456,3.9081156925320624
1746277906414236700,2.786236572265625,1.4013424229457974,-0.7680190929502249,3.9788229674398896
1746277906424215600,2.796215576171875,1.2552189647868275,-0.7607178300261497,4.038328464853763
1746277906434194700,2.806194580078125,1.1551657684072851,-0.7125210776120424,4.074712029877305
1746277906444174600,2.816174560546875,1.1018223007544874,-0.5679658916831016,4.187683160018921
1746277906454153500,2.826153564453125,1.1107339214846492,-0.5252338344156742,4.322911130154132
1746277906464132600,2.836132568359375,1.096843343298137,-0.4896189156770706,4.285900373142957
1746277906474112500,2.846112548828125,1.1430234951928258,-0.35378421182036396,4.203466420084238
1746277906484091600,2.856091552734375,1.3198603637844324,-0.13027356259822845,4.025805667889118
1746277906494070500,2.866070556640625,1.481351779206097,0.31017128006517886,3.820729085502028
1746277906504049700,2.876049560546875,1.5321139981940388,0.9398995081782341,3.8088282198280092
1746277906514029600,2.886029541015625,1.595686014394462,1.523258783826232,3.859147371223569
1746277906524009000,2.896009033203125,1.6378180599421261,2.0723849504828453,3.755270232641697
1746277906533988000,2.905988037109375,1.5705822605371473,2.559027480697632,3.5534149503886696
1746277906543968300,2.91596826171875,1.4034873260200023,2.859611432728171,3.3509710545927285
1746277906553947100,2.925947021484375,1.1387173224315046,3.0787375832557675,3.116765992876887
1746277906563926000,2.935926025390625,0.8814797601744532,3.2691941041380166,2.9725498296439645
1746277906573906200,2.94590625,0.7207768647819757,3.3406460599333045,2.9273814851403235
1746277906583885300,2.95588525390625,0.7423623813852668,3.41202845762372,2.851683562338352
1746277906593864200,2.9658642578125,0.8700757381066679,3.604707330730557,2.5917098531156775
1746277906603844000,2.975843994140625,0.9537570608779787,3.9478567512899634,2.3136995519429444
1746277906613823200,2.9858232421875,1.0308458535164593,4.361818660697341,2.005332690951228
1746277906623802000,2.995802001953125,1.1548480807602406,4.785303600731492,1.7511375651299952
1746277906633782300,3.0057822265625,1.1682532135173678,5.388242606118321,1.436162684175372
1746277906643761200,3.01576123046875,1.1497542647525667,6.0142269715279335,1.0648404775768519
1746277906653740300,3.025740234375,1.1821928915426134,6.530735647696257,0.8052782717645168
1746277906663720200,3.03572021484375,1.0602513962209223,6.856098651674389,0.7877052056729793
1746277906673699000,3.045698974609375,0.7873132837459444,6.944512848186492,0.838023772546649
1746277906683678200,3.05567822265625,0.5484203564748168,6.986615959900617,0.7146224338054656
1746277906693657000,3.065656982421875,0.4134934151127934,6.881282192769646,0.5369318709939718
1746277906703637200,3.07563720703125,0.34664106206744905,6.48695788076818,0.37000937043428417
1746277906713616100,3.0856162109375,0.31789310648888347,5.9633688909500835,0.2538958506137132
1746277906723595300,3.09559521484375,0.35441111154705285,5.426556262421608,0.1637596526145935
1746277906733575200,3.1055751953125,0.34506840592324733,4.90110498586297,0.021844752061367035
1746277906743554000,3.115553955078125,0.3047521776258945,4.385994486054778,-0.17596914584636686
1746277906753533200,3.125533203125,0.18647899555340408,3.792817580747604,-0.38632045376598834
1746277906763513000,3.13551318359375,-0.046364130159467457,3.19089447440505,-0.5296200866758823
1746277906773492200,3.1454921875,-0.338831411229819,2.4983202062785623,-0.7376648712188005
1746277906783471000,3.15547119140625,-0.5931089546374976,1.7015525732278822,-1.1139905851930378
1746277906793451000,3.165450927734375,-0.8844837642960249,0.875743554610014,-1.5982196245253084
1746277906803430100,3.17543017578125,-1.0945663382768631,0.15800912626385688,-2.0470324825614687
1746277906813409000,3.185408935546875,-1.2205593009464442,-0.45188685865402217,-2.474206340241432
1746277906823389000,3.195388916015625,-1.3347152569584548,-1.0054460393220186,-2.9023657018274065
1746277906833368000,3.2053681640625,-1.4808359386384486,-1.4288392094194888,-3.249703806248307
1746277906843347200,3.21534716796875,-1.561925491350889,-1.6584569433450698,-3.454481697949767
1746277906853327000,3.2253271484375,-1.5144183286361395,-1.7707161258250474,-3.535881047263741
1746277906863306000,3.235305908203125,-1.462795255035162,-1.7937521334975957,-3.502404894119501
1746277906873285000,3.24528515625,-1.470503345194459,-1.736072097945213,-3.2503146316230294
1746277906883264000,3.255263916015625,-1.5305392962232232,-1.735048600116372,-2.966875291138887
1746277906893244000,3.265243896484375,-1.574788480055332,-1.7863509173303842,-2.7102707660883665
1746277906903223000,3.27522314453125,-1.659725501976162,-1.9099428102076053,-2.3867782321572304
1746277906913202000,3.285201904296875,-1.6760650807499884,-2.1167916629642245,-2.0701234352916478
1746277906923182000,3.29518212890625,-1.5721528708547352,-2.3732564872831103,-1.77854404297173
1746277906933161000,3.305160888671875,-1.2878846783310174,-2.6866911530584097,-1.5238216784060001
1746277906943140000,3.31514013671875,-0.8950596649765967,-2.95694835588634,-1.2104478029072283
1746277906953120000,3.3251201171875,-0.569529049346596,-3.213413180205226,-0.9248474849969148
1746277906963099000,3.335098876953125,-0.1633814669519663,-3.401144660037756,-0.6175806942015886
1746277906973078000,3.345078125,0.3022534926779568,-3.5278456248462198,-0.3198106305480003
1746277906983058200,3.35505810546875,0.6526539072789251,-3.651616381421685,-0.017776479709148404
1746277906993037000,3.365037109375,0.8978082330323756,-3.7522248735964294,0.2578273448437452
1746277907003016000,3.375015869140625,1.1630554987438022,-3.8318829322010277,0.4209960458278656
1746277907012996000,3.38499609375,1.3574164797186852,-3.877005683997273,0.532585950744152
1746277907022975200,3.394975341796875,1.5393484794922172,-3.9106349818766115,0.6424877564430237
1746277907032954000,3.4049541015625,1.6528870342582462,-3.9049224494487045,0.7847370035171508
1746277907042933000,3.41493310546875,1.7014257319778203,-3.8835529136836526,0.8413660687118768
1746277907052913200,3.4249130859375,1.6637692244090139,-3.8656700509905813,0.7839800476700067
1746277907062892300,3.434892333984375,1.5843227627284824,-3.824289992853999,0.7313567109853029
1746277907072871200,3.44487109375,1.4414260115310549,-3.718666887387633,0.6982721875071525
1746277907082851000,3.45485107421875,1.2919544119879602,-3.620416356515884,0.7011304995477199
1746277907092830200,3.464830322265625,1.0915914141193033,-3.4796804366141556,0.6603712036579847
1746277907102809000,3.47480908203125,0.8934884701371193,-3.3115462221771477,0.6573913110643624
1746277907112789200,3.484789306640625,0.7364636787354946,-3.158848061802983,0.6393529655486345
1746277907122768100,3.49476806640625,0.5955220071285963,-2.9579969881564376,0.6288228037059307
1746277907132747300,3.504747314453125,0.4448112211793661,-2.653032044562697,0.6861404356867075
1746277907142727200,3.51472705078125,0.2416508476771414,-2.406074468779564,0.7803127573341131
1746277907152706000,3.5247060546875,0.03315934228003025,-2.314798453095555,0.7100093870520592
1746277907162685200,3.534685302734375,-0.22049217818379402,-2.3135651119083165,0.5893138001382351
1746277907172665000,3.5446650390625,-0.4086981436602771,-2.333049564579129,0.3713590314775705
1746277907182644200,3.554644287109375,-0.4601524365656078,-2.2829753278553486,0.10709726967215537
1746277907192623000,3.564623046875,-0.4732847437307238,-2.0634347513079643,-0.11300269432365893
1746277907202602200,3.574602294921875,-0.43316754513680933,-1.757809297978878,-0.279743408575654
1746277907212582100,3.58458203125,-0.33502164368331433,-1.442878840687871,-0.5071656782835722
1746277907222561000,3.59456103515625,-0.24793489638268945,-1.079984270694852,-0.683360449579358
1746277907232540200,3.6045400390625,-0.29337036738991734,-0.7450023745000361,-0.8973802168786525
1746277907242520000,3.61452001953125,-0.4423112210571766,-0.3901099091768265,-1.2368377971827984
1746277907252499200,3.624499267578125,-0.7384031223654747,-0.05056698867678642,-1.4397241760492323
1746277907262478000,3.63447802734375,-1.090398112681508,0.14718378086686135,-1.6336211927741766
1746277907272458000,3.6444580078125,-1.3964181182861328,0.256656547498703,-1.9709090278238057
1746277907282437000,3.65443701171875,-1.5943321155674754,0.4149257860034704,-2.350612693798542
1746277907292416000,3.664416015625,-1.6956348736166953,0.6082908878087997,-2.803788423219323
1746277907302396200,3.674396240234375,-1.8056208504676818,0.9343500573575496,-3.2319448621958493
1746277907312375000,3.684375,-1.884571637585759,1.362524616512656,-3.5490965026676653
1746277907322354200,3.694354248046875,-1.9299346278786658,1.7623738294154405,-3.8247067569613455
1746277907332334000,3.704333984375,-1.9501099854230879,2.15783036031723,-4.018504404965043
1746277907342313000,3.71431298828125,-2.0263953527241942,2.549945764097571,-4.116437540450692
1746277907352292000,3.7242919921875,-2.1770856804072856,2.8796558573693036,-4.190223492151499
1746277907362272000,3.73427197265625,-2.3566408680468798,3.179938196104765,-4.202465134087205
1746277907372251100,3.744251220703125,-2.5446184315949676,3.396992801055312,-4.2532010495901105
1746277907382230000,3.75422998046875,-2.7057418904870745,3.502732810899615,-4.275876407256722
1746277907392209200,3.764209228515625,-2.8314737180024383,3.456400683313608,-4.304041886772215
1746277907402189000,3.77418896484375,-2.889753473013639,3.3427795648306606,-4.363278504116833
1746277907412168000,3.78416796875,-2.882754407906532,3.159051475420594,-4.403155171953141
1746277907422147000,3.79414697265625,-2.921192567372322,2.833290412035584,-4.431181535258889
1746277907432127000,3.804126953125,-2.8601632213920354,2.2823124800324437,-4.459126942282915
1746277907442106000,3.814106201171875,-2.744513227429986,1.6467483853727578,-4.589326270601153
1746277907452085000,3.8240849609375,-2.6732553329020736,0.976651321992278,-4.637567738939821
1746277907462065000,3.83406494140625,-2.58920634586215,0.3517483220785856,-4.711891158518195
1746277907472044000,3.8440439453125,-2.4745582224190232,-0.22785773851573465,-4.728163371144235
1746277907482023000,3.85402294921875,-2.3401281246632335,-0.7822872722774744,-4.579070834046602
1746277907492003300,3.86400341796875,-2.1317647756904363,-1.2441256161034107,-4.343141432756186
1746277907501982200,3.873982177734375,-1.7814006014466284,-1.5184949304252862,-4.050464308327436
1746277907511961000,3.883961181640625,-1.4313538225889204,-1.5868798998653888,-3.6693759099960324
1746277907521941500,3.89394140625,-1.1747605495847762,-1.5014537792533635,-3.241807500040531
1746277907531920400,3.90392041015625,-0.9879762874744832,-1.2648773122310637,-2.641834943243861
1746277907541899500,3.9138994140625,-0.7843313453257084,-0.9785568633526563,-2.0327362461835143
1746277907551878400,3.92387841796875,-0.5795177977889776,-0.6783136875838041,-1.5148445912241935
1746277907561858300,3.9338583984375,-0.44555590206682677,-0.4694172546476125,-1.0298831459641455
1746277907571837400,3.94383740234375,-0.24923370402157305,-0.31222821259498595,-0.5467793112695217
1746277907581816300,3.95381640625,-0.03174772191643715,-0.21653028881549835,-0.0007955342918634414
1746277907591796500,3.96379638671875,0.2275117015570402,-0.19830606533885,0.6080155779987573
1746277907601775400,3.973775390625,0.4832487961232662,-0.29668519102632995,1.199098141375184
1746277907611754500,3.98375439453125,0.6889215908378362,-0.4625082059115171,1.6664578789710998
1746277907621734400,3.993734375,0.8653566006302833,-0.6653291183263063,2.063455794095993
1746277907631713300,4.00371337890625,1.005588662663102,-0.917916808950901,2.3584973095685244
1746277907641692400,4.0136923828125,1.0999839794114232,-1.2037936057150362,2.492794720855355
1746277907651672300,4.02367236328125,1.0950967918917536,-1.4460159696698187,2.521187287124991
1746277907661651500,4.0336513671875,1.0399690711706877,-1.6611077501147984,2.5306162097275258
1746277907671630300,4.04363037109375,1.0242562459930777,-1.7998486968070269,2.4655805507153272
1746277907681610200,4.0536103515625,1.0215478638172149,-1.8099106566160916,2.385213467058539
1746277907691589400,4.06358935546875,0.9374008232302963,-1.8128607385933397,2.4247277313232423
1746277907701568300,4.073568359375,0.8941859508819877,-1.8801596663624047,2.426933716934919
1746277907711547400,4.08354736328125,0.8660963130816817,-1.8802648803025483,2.3474551065504548
1746277907721527300,4.09352734375,0.7141296818524598,-1.8515788840442895,2.308079373973608
1746277907731506400,4.10350634765625,0.5312000493437051,-1.8181787187457084,2.1819477334856985
1746277907741485300,4.1134853515625,0.35021629020571704,-1.623280416023731,1.9826228464931248
1746277907751465200,4.12346533203125,0.14761881128326057,-1.3759551759719848,1.7337591448277234
1746277907761444400,4.1334443359375,-0.10019932685196399,-1.1388368571579455,1.4719552975684405
1746277907771423200,4.14342333984375,-0.3043460810430348,-0.9894272169351577,1.246676469630003
1746277907781403400,4.1534033203125,-0.40356384951174257,-0.9040326605051755,1.0975164202541112
1746277907791382300,4.16338232421875,-0.47061903165280816,-0.7759569002121687,1.0806950493127108
1746277907801361400,4.173361328125,-0.5024434720672667,-0.6476344716817141,1.1381588117659092
1746277907811341300,4.18334130859375,-0.49562546261548995,-0.5027127905279397,1.2002888124644755
1746277907821320200,4.1933203125,-0.46139659140780565,-0.26136720940768715,1.3556407022178172
1746277907831299300,4.20329931640625,-0.46134500735104084,0.05883212819695472,1.612312447285652
1746277907841279500,4.213279541015625,-0.4616014663301408,0.40813422616720196,1.928356418776512
1746277907851258400,4.22325830078125,-0.3902268135547638,0.811820240753889,2.3087340384900568
1746277907861237200,4.2332373046875,-0.3290729644119739,1.1788017877995967,2.646639128655195
1746277907871216400,4.24321630859375,-0.2937678422749042,1.5075059188991784,2.971909193652868
1746277907881196500,4.253196533203125,-0.33003508744239807,1.792429360461235,3.3812522110879417
1746277907891175400,4.263175537109375,-0.3564328266330063,1.9304291333973407,3.730616852900386
1746277907901154300,4.273154296875,-0.2914857226870954,2.0354910978496075,3.9388206273972988
1746277907911134500,4.283134521484375,-0.16892390350997447,2.157306044182181,4.030021239757538
1746277907921113600,4.293113525390625,0.003309124547988176,2.3072557826310396,4.054285912442207
1746277907931092500,4.303092529296875,0.21951076593101024,2.471067457693815,3.970275503847003
1746277907941072400,4.313072265625,0.4404401664882898,2.6429437812685963,3.867405496481061
1746277907951051500,4.323051513671875,0.6616279257208109,2.8267034348607063,3.7909646463572977
1746277907961030400,4.333030517578125,0.8156086732514202,3.0559412295579906,3.7209301561444996
1746277907971010600,4.343010498046875,0.9100633189715445,3.244695038175583,3.669298753106594
1746277907980989400,4.352989501953125,0.9541256019294262,3.479633674862981,3.5488673700869082
1746277907990968600,4.362968505859375,0.9106799895651638,3.7490994350522753,3.365881038954854
1746277908000948500,4.372948486328125,0.8207225091338157,3.9361259814858434,3.10958046528697
1746277908010927400,4.38292724609375,0.7636933387055993,4.1828403961628675,2.7262235375016926
1746277908020906500,4.392906494140625,0.7083207033127545,4.528454161009193,2.206827907720208
1746277908030885400,4.402885498046875,0.6765355719953775,4.906729840007424,1.632687711316347
1746277908040865500,4.412865478515625,0.6264233413487672,5.22399370868206,1.1541191819638013
1746277908050844400,4.422844482421875,0.4955183489792049,5.350404750633239,0.7036825221180916
1746277908060823600,4.432823486328125,0.37846521022096274,5.38153054125905,0.11315116288363933
1746277908070803500,4.442803466796875,0.2701929054200649,5.3263709640949966,-0.5577876120179891
1746277908080782300,4.4527822265625,0.15556407119929788,5.1974406327992675,-1.245635436144471
1746277908090761500,4.462761474609375,-0.03185585846602917,5.006939103731512,-1.826284868311882
1746277908100741400,4.472741455078125,-0.33578795188069344,4.742307339569926,-2.240359005922079
1746277908110720500,4.482720458984375,-0.7049263846993445,4.408253664135932,-2.3427152185469864
1746277908120699400,4.492699462890625,-1.1673059957951306,4.01362306266427,-2.1358079136013983
1746277908130679300,4.50267919921875,-1.6681617602795362,3.501076860386133,-1.825398733127117
1746277908140658400,4.512658447265625,-2.1483073296904562,2.8247131378263233,-1.4762515334576367
1746277908150637300,4.52263720703125,-2.5681419305235145,2.015532597926259,-1.214016309043765
1746277908160617500,4.532617431640625,-2.7719407480597495,1.0717325751781464,-1.26607792019248
1746277908170596400,4.542596435546875,-2.726923794725537,0.1745171934723854,-1.5843126797258853
1746277908180575500,4.552575439453125,-2.4031997901260853,-0.5389256751596927,-1.993359344562888
1746277908190554400,4.562554443359375,-1.9061101001769303,-1.136620350152254,-2.3384832800656556
1746277908200534300,4.5725341796875,-1.3662043279387055,-1.55077106013,-2.557363346877694
1746277908210513400,4.582513427734375,-0.8483752168215811,-1.8093764036089182,-2.638936883714795
1746277908220492300,4.5924921875,-0.32455870185792446,-1.9152461773127316,-2.537756729131937
1746277908230472400,4.602472412109375,0.11945464694201946,-1.9617408019840716,-2.3215216238707304
1746277908240451300,4.612451416015625,0.4891442839026451,-1.929607880142331,-2.1118658969998356
1746277908250430500,4.622430419921875,0.7763250028721987,-1.8227005800843237,-1.9139877016842364
1746277908260410400,4.632410400390625,1.0346247875332832,-1.6830851886451244,-1.694667489889264
1746277908270389200,4.64238916015625,1.1716998468399047,-1.5277520035922527,-1.4193693702846766
1746277908280368400,4.652368408203125,1.1720756944149733,-1.4607044202357529,-1.1602321118861436
1746277908290348300,4.662348388671875,1.0423444219999014,-1.4813988332182169,-0.8603723824769258
1746277908300327400,4.672327392578125,0.8598141640722751,-1.6253671591699121,-0.6652677435278892
1746277908310306300,4.682306396484375,0.6125263334214687,-1.8345289650440215,-0.5516162299066781
1746277908320285400,4.692285400390625,0.34314123725295065,-2.0382471185594797,-0.42723114082515234
1746277908330265300,4.702265380859375,0.17933116962537168,-2.2419284471958876,-0.22742226970791815
1746277908340244200,4.712244140625,0.0678315733410418,-2.4254034386277197,-0.0228004453510046
1746277908350223400,4.722223388671875,0.029816899984329938,-2.566122991916537,0.24292379022240637
1746277908360203500,4.73220361328125,0.0625071634478867,-2.685174318754673,0.49040977379381656
1746277908370182400,4.742182373046875,0.15499723109677432,-2.7547055356204506,0.6876268748521804
1746277908380161300,4.752161376953125,0.2578064481861889,-2.7680431560993193,0.8836556429088115
1746277908390141400,4.762141357421875,0.34349662656188007,-2.8139737171471118,1.0873837332963943
1746277908400120600,4.77212060546875,0.3897114113785326,-2.918198646253347,1.1982003157526253
1746277908410099500,4.782099365234375,0.43239889885187144,-3.0266742185413835,1.2007774727642535
1746277908420079400,4.792079345703125,0.47945232644975183,-3.100861152258515,1.1301736582309008
1746277908430058500,4.80205859375,0.5461766692012548,-3.126360919696092,1.0804103871524333
1746277908440037400,4.812037353515625,0.6429406147770583,-3.16715353333354,1.0877712713092564
1746277908450017500,4.822017578125,0.7759938712216913,-3.1762802581191063,1.0831120473265647
1746277908459996400,4.831996337890625,0.8681007847718893,-3.193497934901714,1.0430319658726452
1746277908469975600,4.8419755859375,0.9076071579910814,-3.19813085539937,1.003566801446676
1746277908479954400,4.851954345703125,0.959000076097995,-3.1968601048111913,0.9731208097785711
1746277908489934300,4.861934326171875,1.0097681403048335,-3.1586621838420625,0.9160720578670501
1746277908499913500,4.87191357421875,1.0660516069322823,-3.1074773555278776,0.8596697871655226
1746277908509892400,4.881892333984375,1.101481816753745,-3.009581044921279,0.755375884476304
1746277908519871200,4.891871337890625,1.1072104235336184,-2.8944956991046666,0.5930208379626274
1746277908529850400,4.901850341796875,0.9950041402846574,-2.685688698017597,0.5160673621416092
1746277908539829200,4.911829345703125,0.8806687360525131,-2.441800446677208,0.505554735955596
1746277908549809200,4.92180908203125,0.7304821201078593,-2.221525710636377,0.38292964228391646
1746277908559788300,4.931788330078125,0.5660616654969751,-2.036926099088788,0.16926818690299986
1746277908569767200,4.94176708984375,0.41523280612602825,-1.8612135583519935,-0.13459610197246075
1746277908579747300,4.951747314453125,0.2970926027834415,-1.6187474487692117,-0.4544207610458135
1746277908589726200,4.961726318359375,0.15052081633508205,-1.3249030341267585,-0.7332096453756094
1746277908599705300,4.971705322265625,0.0006743921302258968,-1.0083709868580102,-1.0011591557830573
1746277908609684200,4.981684326171875,-0.1792063742019236,-0.7057207499474286,-1.3246902681589126
1746277908619664100,4.9916640625,-0.2731558468788862,-0.3617646891802549,-1.678463958585262
1746277908629643300,5.001643310546875,-0.3500922254346311,0.019960838010907173,-1.9884791713058947
1746277908639622100,5.0116220703125,-0.4233570758707821,0.37568507798314094,-2.207481403192878
1746277908649602000,5.02160205078125,-0.7316670190434903,0.6744301241487264,-2.4392256277531383
1746277908659581200,5.031581298828125,-1.1847100619953126,0.9291203400105238,-2.6121575978606937
1746277908669560300,5.041560302734375,-1.61362177631855,1.082009639042616,-2.725909649246931
1746277908679540200,5.051540283203125,-1.9464052856862544,1.2053875969082117,-2.8885552031397816
1746277908689519000,5.06151904296875,-2.183322090578824,1.2671084322839974,-3.022087475273013
1746277908699498200,5.071498291015625,-2.3444494949936865,1.304493283304572,-3.086338705909252
1746277908709478100,5.08147802734375,-2.404597381964326,1.3557833255589007,-3.1309844878435134
1746277908719457000,5.09145703125,-2.40350783316195,1.407497730705142,-3.215145118564367
1746277908729436200,5.101436279296875,-2.418603110963106,1.4656769479513168,-3.051468468058109
1746277908739415300,5.111415283203125,-2.4415549474835396,1.470829508408904,-2.830565955507755
1746277908749395200,5.121395263671875,-2.4254345644183455,1.5691887603521346,-2.5704902472153304
1746277908759374000,5.1313740234375,-2.375862285867333,1.6380021843373775,-2.4082611651688812
1746277908769353200,5.141353271484375,-2.3543355137139557,1.6762644027143716,-2.4688711166933177
1746277908779333000,5.1513330078125,-2.4203368028879164,1.8610592445731162,-2.7320558969169855
1746277908789312000,5.16131201171875,-2.5508617098987103,1.947810476309061,-3.0900714626967907
1746277908799291100,5.171291015625,-2.6462597739487883,1.882624595171213,-3.5087630309745665
1746277908809271300,5.181271240234375,-2.6380910805404185,1.657536905890703,-4.000632648187875
1746277908819250200,5.191250244140625,-2.567493695747852,1.1756617362082005,-4.4522024037167425
1746277908829229000,5.20122900390625,-2.4946254434138533,0.565833555829525,-4.843191726076602
1746277908839209200,5.211209228515625,-2.287806401273608,-0.04869125793278217,-5.168500954040884
1746277908849188400,5.221188232421875,-1.9766912644870578,-0.5092354702949523,-5.378745878976583
1746277908859167200,5.231167236328125,-1.6346394299060105,-0.7847317428201437,-5.374278378173709
1746277908869146000,5.24114599609375,-1.3499164793521166,-0.8718582376092672,-5.219519778138399
1746277908879126300,5.251126220703125,-1.218794190970063,-0.7275427056550979,-4.8949932249844075
1746277908889105400,5.26110546875,-1.1461609164357185,-0.5310784687906503,-4.310068599715828
1746277908899084300,5.271084228515625,-1.1024269886493683,-0.3240595201641321,-3.697957861357927
1746277908909064200,5.281064208984375,-1.1158990491628646,-0.061222822725772855,-3.200950881256163
1746277908919043300,5.291043212890625,-1.0904450205631553,0.20140636944174764,-2.8429063816428184
1746277908929022200,5.301022216796875,-1.0345388628154992,0.5063555309444666,-2.613643744765222
1746277908939002400,5.31100244140625,-0.9515640808783471,0.5909931315273046,-2.3374954380720854
1746277908948981200,5.320981201171875,-0.7442834125757217,0.5660428146660328,-2.0803473076641557
1746277908958960400,5.33096044921875,-0.4448565216258168,0.49384091728627677,-1.7835802835732697
1746277908968940300,5.340940185546875,-0.12353197938352822,0.3945160351812839,-1.4090730171978474
1746277908978919200,5.350919189453125,0.1719692625552416,0.2619716050416231,-0.9366934056133032
1746277908988898300,5.360898193359375,0.368132616776973,0.09360591993629931,-0.42003742992877957
1746277908998877200,5.370877197265625,0.47458968884944913,-0.15352818145751954,0.05511749158799648
1746277909008857300,5.380857421875,0.5334856760628521,-0.37592823908925055,0.47882864159345623
1746277909018836200,5.390836181640625,0.53563437852934,-0.519077649873495,0.883436447200179
1746277909028815400,5.4008154296875,0.5060331671223044,-0.654943333390355,1.2687813339322804
1746277909038795300,5.410795166015625,0.4917214409142732,-0.7760013238757848,1.6443343099683523
1746277909048774100,5.420774169921875,0.5322200400412083,-0.8346066575795411,2.008060654610395
1746277909058753300,5.430753173828125,0.5656526463046669,-0.888110284230113,2.3485247816085812
1746277909068733200,5.440733154296875,0.6310515856713056,-0.9181284058749675,2.6318331891894338
1746277909078712300,5.45071240234375,0.7440992881804704,-0.9300503143370151,2.9176614706367254
1746277909088691200,5.460691162109375,0.8431012219414115,-0.9101245476394891,3.152293233332038
1746277909098671000,5.470671142578125,0.9564373860031365,-0.912694690388441,3.4298698192626236
1746277909108650200,5.480650146484375,1.0637535591229796,-0.8481915308177471,3.678196929833293
1746277909118629000,5.490629150390625,1.1330386922731994,-0.7746510783106089,3.9081057556599377
1746277909128608300,5.500608154296875,1.1964824059188366,-0.705845253109932,4.110662464180589
1746277909138588200,5.510588134765625,1.2995739470809697,-0.5545768332779407,4.323621324250102
1746277909148567300,5.5205673828125,1.4413047232389449,-0.4397136057794094,4.517525355237722
1746277909158546200,5.530546142578125,1.547132411366701,-0.34218086778819556,4.628837612256407
1746277909168526000,5.540526123046875,1.6239534929797053,-0.2193108594447374,4.606902843824028
1746277909178505200,5.550505126953125,1.6235054569512604,-0.02456979311108589,4.599462464690208
1746277909188484000,5.560484130859375,1.5749007082581519,0.12579846301078795,4.59326711718142
1746277909198464300,5.57046435546875,1.5673951549336314,0.29971418345868583,4.412556329765915
1746277909208443100,5.580443115234375,1.4858394460141657,0.4662169973015785,4.179824263212084
1746277909218422300,5.59042236328125,1.3450941737622022,0.6444669475615025,3.912575594550371
1746277909228402200,5.600402099609375,1.118242689679563,0.8427724283784628,3.720927818056941
1746277909238381000,5.610381103515625,0.8879828584581613,0.998591351121664,3.6234728214770553
1746277909248360200,5.620360107421875,0.6881643427297472,1.106485324129462,3.4951433786839243
1746277909258339000,5.630339111328125,0.502404747492075,1.3006044591724872,3.378075919139385
1746277909268319200,5.6403193359375,0.39672508953288194,1.5140706842422484,3.197816382622719
1746277909278298000,5.650298095703125,0.40536563823670146,1.824022184076905,2.9325398908168077
1746277909288277200,5.66027734375,0.4329027567207813,2.2326175980150698,2.582669053047895
1746277909298257200,5.670257080078125,0.5045633868306875,2.716816242209077,2.2874498429208994
1746277909308236000,5.680236083984375,0.5650076263993978,3.2844635694622992,2.0283429796606303
1746277909318215200,5.690215087890625,0.5781228362992406,3.9066199010163545,1.9737305149853228
1746277909328195300,5.7001953125,0.5733844096004963,4.445066268226504,1.9497317997604608
1746277909338174200,5.71017431640625,0.4577217022873461,4.833853988888859,1.8906167629688977
1746277909348153000,5.720153076171875,0.2859153752088547,5.116194428220391,1.8069307640224694
1746277909358133200,5.73013330078125,0.03350654828250408,5.316487867984176,1.7019214065402746
1746277909368112400,5.7401123046875,-0.28441373847424983,5.455687664359807,1.4924147327512503
1746277909378091300,5.75009130859375,-0.539930468288064,5.45348284779191,1.1296598634898662
1746277909388070100,5.760070068359375,-0.6765180363386869,5.473685677865148,0.5850479593873024
1746277909398050300,5.77005029296875,-0.6987135015338659,5.4551054805576795,-0.0016904373049736023
1746277909408029400,5.780029541015625,-0.6452370551511645,5.344686957508325,-0.36617724492549897
1746277909418008300,5.79000830078125,-0.49428208518251776,5.285235820630192,-0.6804010152518749
1746277909427988200,5.79998828125,-0.19304916772395372,5.374562455812097,-1.0493553236752748
1746277909437967400,5.80996728515625,0.0843044231057167,5.344086069005727,-1.1114771410673856
1746277909447946200,5.8199462890625,0.2239776822119951,5.063792040809989,-0.8031576263487339
1746277909457926400,5.829926513671875,0.1821370208263397,4.66376571777463,-0.28711481412649154
1746277909467905300,5.8399052734375,-0.17811784831285477,3.979434377336502,0.29271219574213025
1746277909477884400,5.849884521484375,-0.6878441708646714,3.1220109077930447,0.6889718597203492
1746277909487864300,5.8598642578125,-1.229063071528077,2.1597546063780784,0.7108329783946276
1746277909497843200,5.86984326171875,-1.6003987221300602,1.2819073574870825,0.5116641587466001
1746277909507822300,5.879822265625,-1.6992437117636203,0.5472755703538655,0.14839607926607132
1746277909517801500,5.889801513671875,-1.5388630340628324,-0.024912907460331916,-0.4357505473673343
1746277909527781400,5.899781494140625,-1.2140566410541533,-0.5421224253743887,-0.9916121597588061
1746277909537760500,5.909760498046875,-0.7336077047824859,-0.9368798680961131,-1.455557120475173
1746277909547739400,5.919739501953125,-0.17128317998722195,-1.308928635403514,-1.8159388308644293
1746277909557719600,5.929719482421875,0.2837431457363069,-1.5451625725984572,-1.99395263428092
1746277909567698400,5.939698486328125,0.6113689800798893,-1.7267992426872252,-2.012791190263629
1746277909577677600,5.949677490234375,0.8551924956209958,-1.747799945139885,-2.067554461586475
1746277909587657500,5.959657470703125,1.0157887157686054,-1.6368588595211504,-2.054417332115769
1746277909597636400,5.96963623046875,1.0815646717540919,-1.5234370630025862,-1.9469629195690155
1746277909607615500,5.979615478515625,1.0658249585695565,-1.4287445168733597,-1.7395067485690117
1746277909617594400,5.989594482421875,0.9956459453195333,-1.349922909092903,-1.5015636693686245
1746277909627574500,5.999574462890625,0.8372656476557254,-1.2871534414470196,-1.2499556374311447
1746277909637553400,6.009553466796875,0.6356564491182566,-1.2826748347282408,-0.9566039747416972
1746277909647532500,6.019532470703125,0.4095284570045769,-1.300552436724305,-0.6517278784751892
1746277909657512400,6.029512451171875,0.17575988700985906,-1.3553823435425758,-0.3108183457970619
1746277909667491300,6.0394912109375,-0.07421893629059195,-1.4099012847155332,0.0018178630769252776
1746277909677470500,6.049470458984375,-0.3199542768023908,-1.5301654944747685,0.22729075228273868
1746277909687450400,6.059450439453125,-0.4482172302305698,-1.6742986555993555,0.37781799835860724
1746277909697429500,6.069429443359375,-0.5029664730280637,-1.8186060042470693,0.4734451949894428
1746277909707408400,6.079408447265625,-0.529954433196783,-1.971656631320715,0.5889379525631666
1746277909717388300,6.08938818359375,-0.5161753525607288,-2.0662439635097978,0.7106108600765466
1746277909727367400,6.099367431640625,-0.46224634010493754,-2.203828725904226,0.844775000372529
1746277909737346300,6.10934619140625,-0.41189913165867326,-2.3793816921651363,0.8941413810878992
1746277909747325400,6.119325439453125,-0.3419897291302681,-2.578542328506708,0.8980266980886459
1746277909757305300,6.129305419921875,-0.25046587616503235,-2.7860984527498482,0.8692045082300901
1746277909767284500,6.139284423828125,-0.1961585319161415,-2.959057310864329,0.8434095572382211
1746277909777263400,6.149263427734375,-0.2035736304782331,-3.0775071646779772,0.754113317194581
1746277909787243300,6.1592431640625,-0.24092808636054394,-3.213559895199537,0.6706348235189914
1746277909797222400,6.169222412109375,-0.2318950312077999,-3.3281542426288127,0.5684925459057092
1746277909807201300,6.179201171875,-0.1844080344982445,-3.4342473036944865,0.3802688986420631
1746277909817181700,6.189181640625,-0.07245733344554901,-3.54787485191822,0.21575462826788425
1746277909827160300,6.199160400390625,0.09339885305687784,-3.638382221317291,0.06757832923233509
1746277909837139500,6.209139404296875,0.30152897779569027,-3.5866438507735725,-0.035848727494478226
1746277909847118300,6.219118408203125,0.4807726152680814,-3.505537931448221,-0.10772913783490658
1746277909857098500,6.229098388671875,0.7026740757279097,-3.373279332512617,-0.172186704698205
1746277909867077600,6.23907763671875,0.9037064972907304,-3.234825386068225,-0.26748569228798147
1746277909877056300,6.24905615234375,1.0139847350865603,-3.081433398211002,-0.4071709340929985
1746277909887036700,6.25903662109375,0.995018899462372,-2.9833389346837995,-0.5261845592692495
1746277909897015600,6.269015625,0.8493154202811419,-2.9095816245555874,-0.651482087020576
1746277909906994700,6.27899462890625,0.691094843223691,-2.8060464312791824,-0.9106669839531183
1746277909916974600,6.288974609375,0.5828881510049104,-2.467576108446717,-1.2798793587908148
1746277909926953500,6.298953369140625,0.4925872639633715,-1.9848948830783366,-1.7236580220520494
1746277909936932600,6.3089326171875,0.5074170226961374,-1.4160644835203886,-2.1324016122892497
1746277909946912500,6.31891259765625,0.513060435410589,-0.7510814021527766,-2.4020614337459207
1746277909956891600,6.3288916015625,0.47519072348251934,-0.12324234878718852,-2.5900688079103826
1746277909966870500,6.33887060546875,0.38428587919846174,0.4714356087327003,-2.786137615716457
1746277909976849700,6.348849609375,0.16843115155696867,0.9399041843533515,-2.962268674126267
1746277909986829600,6.35882958984375,-0.21089067549332974,1.2988736898571251,-3.1173581135511395
1746277909996808400,6.368808349609375,-0.625408172956854,1.5415677629768847,-3.3402392326980825
1746277910006787600,6.37878759765625,-1.012919297812134,1.710309295657277,-3.633186990761757
1746277910016767500,6.388767578125,-1.403148303323984,1.9207161331564186,-3.899356339754164
1746277910026746600,6.39874658203125,-1.7391694794386625,2.1613526892244814,-4.111237925980985
1746277910036725500,6.4087255859375,-1.9810187722973525,2.535719670346379,-4.3420758493512865
1746277910046705400,6.418705322265625,-2.2408324686527252,2.937289131170511,-4.380097536970675
1746277910056684500,6.4286845703125,-2.535149176982045,3.1776036156773566,-4.293982265050709
1746277910066663400,6.438663330078125,-2.722909882909059,3.2694273283720015,-4.142769374798238
1746277910076642600,6.448642578125,-2.8164064972519873,3.3145939193099734,-4.05344069378972
1746277910086622500,6.45862255859375,-2.9447429543077943,3.2635224882423874,-3.9552752108529208
1746277910096601600,6.4686015625,-3.1390146495640274,3.009322101724148,-3.782025553098321
1746277910106580500,6.47858056640625,-3.2791923510611056,2.6284435467511416,-3.7579911820381877
1746277910116560400,6.488560302734375,-3.3585932200342414,2.1677748312264677,-3.891989318117499
1746277910126539500,6.49853955078125,-3.2750445837318893,1.5215122324198485,-4.033285502250492
1746277910136518400,6.508518310546875,-3.0842747591167687,0.7141039628893137,-4.150836945919692
1746277910146498600,6.51849853515625,-2.795986809557676,-0.06647416738271712,-4.282043697714806
1746277910156477400,6.5284775390625,-2.3984055415868757,-0.6938514484554529,-4.29365464053154
1746277910166456600,6.53845654296875,-1.9571435373216866,-1.164907117959857,-4.238444794484972
1746277910176436500,6.5484365234375,-1.5316474035955965,-1.4788596701294183,-4.062109445674717
1746277910186415400,6.558415283203125,-1.1338842031866312,-1.6379595142394303,-3.669327979201078
1746277910196394500,6.56839453125,-0.7350700324200093,-1.6864806763023137,-3.2024209538087245
1746277910206373400,6.578373291015625,-0.3806780639648437,-1.6579022320717571,-2.9106361020445823
1746277910216353500,6.588353515625,-0.13506072380952536,-1.5805933669418095,-2.698443842433393
1746277910226332400,6.59833251953125,0.1029834046125412,-1.470961610355973,-2.538715637291968
1746277910236311600,6.6083115234375,0.310227832558006,-1.3282792325615882,-2.432915129432082
1746277910246291500,6.61829150390625,0.46153673053085803,-1.2135972068488596,-2.3722099008396267
1746277910256270300,6.628270263671875,0.5050627146549522,-1.169856849321723,-2.2556378235965964
1746277910266249500,6.63824951171875,0.4900970545828342,-1.215806699591875,-2.1493144609063863
1746277910276229400,6.6482294921875,0.3831638894312083,-1.2875859876453877,-1.9905700061053035
1746277910286208500,6.65820849609375,0.21078268507421016,-1.2930594506204127,-1.6866636316537855
1746277910296187400,6.6681875,0.03366173884421587,-1.243835693246126,-1.4663357041209935
1746277910306166500,6.67816650390625,-0.13554185838997362,-1.1420447132885456,-1.2390116340905428
1746277910316146400,6.688146484375,-0.2759298416368663,-1.0804062954992055,-0.9350649276286364
1746277910326125300,6.698125244140625,-0.4233529842175543,-1.0241057316064834,-0.6725953099370002
1746277910336104400,6.7081044921875,-0.5019673789881169,-1.0148527500927447,-0.3751484868884086
1746277910346084400,6.71808447265625,-0.469374438419193,-1.0078834956020115,-0.09758417591750622
1746277910356063500,6.7280634765625,-0.39145547856688495,-0.9711246675252914,0.23098259253799913
1746277910366042400,6.73804248046875,-0.26028935104310513,-0.9070768505066633,0.6179805071741342
1746277910376022500,6.7480224609375,-0.058942456703633066,-0.8127069604605436,0.9812234522134065
1746277910386001700,6.758001708984375,0.11855185288339852,-0.692601740655303,1.3847212507516145
1746277910395980300,6.767980224609375,0.29573315099850295,-0.5857412023484706,1.7841554531127213
1746277910405959400,6.77795947265625,0.46676162557229395,-0.41928631930053234,2.145879225760698
1746277910415939600,6.787939697265625,0.5711721403785049,-0.1962111388862133,2.4602467884719372
1746277910425918500,6.79791845703125,0.6212568984963,0.007816811230778693,2.752145914265513
1746277910435897600,6.807897705078125,0.591564793935418,0.1823819354981184,3.0968191833913323
1746277910445877500,6.81787744140625,0.5196970969460905,0.39108138455748553,3.430538512304425
1746277910455856600,6.827856689453125,0.434222753278166,0.5387175853669643,3.6895424997121093
1746277910465835500,6.83783544921875,0.33289471465721726,0.7032219188690185,3.8800767620056864
1746277910475815400,6.8478154296875,0.221086198554188,0.8509031278640031,4.05558647364676
1746277910485794600,6.857794677734375,0.1122591824799776,0.9057283585071563,4.197459873145818
1746277910495773400,6.8677734375,0.017782397993281483,0.9430611870795488,4.323081810545921
1746277910505753600,6.877753662109375,-0.03085574151277542,0.9708014269202947,4.401183871880173
1746277910515732500,6.887732421875,-0.09039002662971615,0.9714607676118612,4.505522198233008
1746277910525711600,6.897711669921875,-0.1478431215584278,0.9822902046620845,4.572892437672615
1746277910535690500,6.9076904296875,-0.2389261719536036,0.959933411425352,4.666908107453584
1746277910545670400,6.91767041015625,-0.2918243069916963,0.9563093757092952,4.724693941468
1746277910555649500,6.9276494140625,-0.3597346446573734,1.0099766684889793,4.778514963504672
1746277910565628400,6.93762841796875,-0.42373343490250404,1.1141051514834166,4.824857027962803
1746277910575608600,6.947608642578125,-0.4777992985457182,1.3185633097112177,4.792176409110427
1746277910585587500,6.95758740234375,-0.4748941516887396,1.6008300992846487,4.780950666218995
1746277910595566600,6.967566650390625,-0.45623160986006256,1.883681995269656,4.862020345187187
1746277910605546500,6.97754638671875,-0.4629577032446861,2.1998773579299447,4.9255911923438305
1746277910615525400,6.987525390625,-0.4658727139085531,2.5214853932887316,4.971628720897436
1746277910625504500,6.99750439453125,-0.5214402873516083,2.7941794678747653,5.017282218569517
1746277910635483400,7.0074833984375,-0.6608798107672482,2.984723667040467,5.0882648032873865
1746277910645463600,7.017463623046875,-0.8094383871186525,3.086515816041827,5.067525382119417
1746277910655442400,7.0274423828125,-1.0081050293982028,3.1555431750386953,4.901193833190202
1746277910665421600,7.037421630859375,-1.1576899531226605,3.2046056043714284,4.607136652579904
1746277910675401500,7.0474013671875,-1.3030991985976694,3.342450479006767,4.216025457406044
1746277910685380400,7.05738037109375,-1.420030464541912,3.563268820405006,3.768108086904883
1746277910695359500,7.067359375,-1.4779472314596176,3.8572617036074397,3.3570319620668885
1746277910705339400,7.07733935546875,-1.4453244802743195,4.2046605983048675,2.9474755941420794
1746277910715318500,7.087318603515625,-1.3448077580362559,4.5950189292848105,2.527832716488838
1746277910725297400,7.09729736328125,-1.2569465192317961,5.01591502186954,2.135180137091875
1746277910735276500,7.107276611328125,-1.2109306179881094,5.389111205646396,1.7990806350439785
1746277910745256400,7.11725634765625,-1.1985112813979386,5.734329833695292,1.361521576949954
1746277910755235300,7.1272353515625,-1.1975853987246752,6.023809623387455,0.548403113079071
1746277910765214500,7.13721435546875,-1.1826286526113747,6.193920106333493,-0.461654219430685
1746277910775194400,7.1471943359375,-1.1273638615071773,6.297184665974974,-1.7010621593624353
1746277910785173500,7.157173583984375,-1.026064464458823,6.228002408677339,-2.96580678512454
1746277910795152400,7.16715234375,-0.9764718737721443,5.896779572755098,-3.9496430501848456
1746277910805132500,7.177132568359375,-1.07653734511137,5.3310407094717025,-4.359322752228379
1746277910815111400,7.187111328125,-1.387139417809248,4.795213000327348,-4.249411009657383
1746277910825090300,7.19709033203125,-1.818490853434801,4.160892183727026,-3.9145407571434974
1746277910835069400,7.2070693359375,-2.2978151695907116,3.2444565532445906,-3.6950200543403624
1746277910845049600,7.217049560546875,-2.6421535076737404,2.032849058908224,-3.695482995676994
1746277910855028700,7.22702880859375,-2.616319978237152,0.7303256143718957,-3.9854029303520915
1746277910865007400,7.23700732421875,-2.032388455659151,-0.428619380313158,-4.483893719270825
1746277910874987500,7.246987548828125,-1.0283423462629318,-1.4809417371004818,-4.9946355024755
1746277910884966700,7.256966552734375,0.0996282489657402,-2.396144610917568,-5.435219461348653
1746277910894945500,7.266945556640625,1.0849848554611206,-3.124852853220701,-5.767753379869461
1746277910904925700,7.27692578125,1.841303573745489,-3.5796260809659954,-6.020072190424799
1746277910914904600,7.286904541015625,2.169496248191595,-3.9199838249802585,-5.970908638805151
1746277910924883700,7.2968837890625,2.211427510470152,-4.048343078389763,-5.7302773434340954
1746277910934862600,7.306862548828125,2.0756442445397374,-4.005153925004601,-5.377835778394341
1746277910944842500,7.316842529296875,1.879820059144497,-3.8482992294728753,-4.898035661420225
1746277910954821600,7.326821533203125,1.642042399638891,-3.574288811591267,-4.248045566523075
1746277910964800500,7.336800537109375,1.4442892920076846,-3.2084120109170673,-3.5664351754814385
1746277910974780700,7.34678076171875,1.2217770061731337,-2.7460429212152957,-2.9144565371155737
1746277910984759600,7.356759521484375,0.9634370356321335,-2.334168339475989,-2.3213404220849276
1746277910994738700,7.36673876953125,0.7083528520166874,-1.9835838004797697,-1.803195669147372
1746277911004718600,7.376718505859375,0.463875402611494,-1.6858248427420854,-1.2958914591759443
1746277911014697500,7.386697509765625,0.22834581429362297,-1.4565747730851173,-0.7943956432223319
1746277911024676600,7.396676513671875,0.03447451653182507,-1.284151921543479,-0.338700039935112
1746277911034655500,7.406655517578125,-0.07821955023407935,-1.17383510530293,0.12918752092719077
1746277911044635600,7.4166357421875,-0.1345914440636523,-1.102453876656294,0.557370263388753
1746277911054614500,7.426614501953125,-0.1388917350734584,-1.0697276650965213,1.0031786789119244
1746277911064593700,7.43659375,-0.048064047678839414,-1.0647931313037873,1.407385502502322
1746277911074573600,7.446573486328125,0.04320844260752201,-1.0653542723178864,1.7723042717993258
1746277911084552400,7.456552490234375,0.1415641874194145,-1.1193798770159482,2.1311866835415363
1746277911094531600,7.466531494140625,0.3157370974987745,-1.2542226472258566,2.45099088434875
1746277911104511500,7.476511474609375,0.5120885216385126,-1.3865987350612878,2.653983646199107
1746277911114490600,7.48649072265625,0.6929823374707251,-1.4772697705894708,2.8087311403185127
1746277911124469500,7.496469482421875,0.8494611123621463,-1.5453630636066198,2.9239935962677
1746277911134448600,7.50644873046875,1.0293220049500464,-1.5913094067454336,2.9771921024918555
1746277911144428500,7.516428466796875,1.2230717221587895,-1.6485300080925225,2.9413609106540677
1746277911154407400,7.526407470703125,1.458468039485812,-1.713498447087407,2.804043859285116
1746277911164386600,7.536386474609375,1.6961073134340345,-1.7676947321772574,2.618501998451352
1746277911174366500,7.546366455078125,1.9286936879068612,-1.8244430398374796,2.4363532871872184
1746277911184345600,7.556345703125,2.125550723481178,-1.8517296906918286,2.3015783215165135
1746277911194324500,7.566324462890625,2.2364150906018914,-1.8884692295461891,2.1420909393936394
1746277911204303600,7.5763037109375,2.316341006362438,-1.867408321338892,1.9830431177318095
1746277911214283500,7.586283447265625,2.3456115245103835,-1.8421663280546665,1.8570616993695497
1746277911224262400,7.596262451171875,2.371533755143732,-1.8630191464692354,1.7702192822188139
1746277911234241500,7.606241455078125,2.3674334802180526,-1.8848077844291924,1.674208639228344
1746277911244221400,7.616221435546875,2.293358190181851,-1.9178122284084558,1.5573124445974826
1746277911254200600,7.62620068359375,2.15624572147429,-1.9455133052825926,1.439527192172408
1746277911264179500,7.636179443359375,2.009884947428107,-1.9445202025920152,1.3607020772606133
1746277911274159400,7.646159423828125,1.820566490665078,-1.9765964258104562,1.286699267938733
1746277911284138500,7.656138427734375,1.6894627608530222,-1.9276584996402262,1.093654484128952
1746277911294117400,7.666117431640625,1.594760277851671,-1.8067080611824988,0.8726531873792409
1746277911304096500,7.676096435546875,1.5319482862383127,-1.6304139211654662,0.7067220359444618
1746277911314076400,7.686076416015625,1.4542160811297595,-1.4112047685295344,0.6402244876861571
1746277911324055600,7.6960556640625,1.3945327429309486,-1.1839292138159274,0.6412006392419338
1746277911334034400,7.706034423828125,1.3668610382817685,-0.9316881446719169,0.6226081669747829
1746277911344014300,7.716014404296875,1.3218379474677144,-0.8027560598105191,0.5603501559823751
1746277911353993500,7.725993408203125,1.1481227180279792,-0.7848141604065895,0.492048188650608
1746277911363972400,7.735972412109375,0.915231588454917,-0.8448702774405479,0.3582189793974161
1746277911373952500,7.745952392578125,0.7204659722018987,-0.8267723106920719,0.15882921047508716
1746277911383931400,7.755931396484375,0.6380139720298349,-0.7697703205317259,-0.13671440930068493
1746277911393910500,7.76591064453125,0.6201608468879014,-0.6826315507829189,-0.5268564671814442
1746277911403889400,7.775889404296875,0.6552736613232643,-0.5613099409252404,-0.8843716822236776
1746277911413869600,7.78586962890625,0.6758972740918398,-0.3838087632060051,-1.2059504914879797
1746277911423848700,7.7958486328125,0.6353210066188126,-0.12050386373400687,-1.5014263067245484
1746277911433827300,7.805827392578125,0.5333440756350756,0.17487725895643233,-1.696655448836088
1746277911443807500,7.815807373046875,0.3402969537377357,0.44588849502205846,-1.809947481495142
1746277911453786600,7.82578662109375,0.13179448855519293,0.6801274590075016,-2.0309592996388672
1746277911463765500,7.835765625,-0.14419570496678352,0.8938865295439958,-2.250504552361369
1746277911473745700,7.84574560546875,-0.3759790924936533,1.0395762724608182,-2.4244635274291038
1746277911483724500,7.855724609375,-0.5814314493905752,1.154580369734764,-2.7366549151450394
1746277911493703700,7.86570361328125,-0.7599087786655873,1.2696055097967385,-3.0364819113284347
1746277911503682600,7.8756826171875,-0.9259504047375172,1.358755619367957,-3.36068463935554
1746277911513662500,7.885662353515625,-1.0068751953423023,1.5272370398074389,-3.7155724285036325
1746277911523641900,7.895641845703125,-1.050411043273285,1.7247750433832405,-3.9891035384356974
1746277911533620700,7.905620849609375,-1.079198673275113,1.9965198544204235,-4.20793742801845
1746277911543601000,7.915600830078125,-1.097408210639283,2.234644719928503,-4.336576667413115
1746277911553579800,7.925579833984375,-1.082197855091095,2.3709832816541194,-4.411955441263318
1746277911563559000,7.935558837890625,-1.0690782612770795,2.4235575185000897,-4.469663533866405
1746277911573538800,7.945538818359375,-1.0913806939780712,2.408392682594061,-4.5822120546817775
1746277911583517700,7.955517578125,-1.1515215666860341,2.380969253617525,-4.7292111266314985
1746277911593496800,7.965496826171875,-1.2600661125570536,2.352889991080761,-4.836768999552726
1746277911603475700,7.975475830078125,-1.4077742095589636,2.3256787435501813,-4.877054248189926
1746277911613456000,7.985455810546875,-1.6481956615716218,2.2411989638775585,-4.873217154245078
1746277911623434800,7.995434814453125,-1.959498576015234,1.9903683460533619,-4.7410412651568645
1746277911633414000,8.005413818359376,-2.3353373832553626,1.5579542496323584,-4.426086257946491
1746277911643393800,8.015393798828125,-2.760751830047369,0.9744991123944521,-4.052111491012573
1746277911653372700,8.02537255859375,-3.1240093881338833,0.2830716762155294,-3.7149177639871835
1746277911663351800,8.035351806640625,-3.333785526514053,-0.4510381328701973,-3.4774028470709917
1746277911673330700,8.04533056640625,-3.323071824797988,-1.1011708511084317,-3.3597695703372357
1746277911683310800,8.055310791015625,-3.039080111128092,-1.5985083783388137,-3.272579654923081
1746277911693289700,8.065289794921876,-2.5031635546565054,-1.867123074656725,-3.2088524481609464
1746277911703268900,8.075268798828125,-1.8082582132339478,-2.0242390514731405,-3.1301465757146474
1746277911713248800,8.085248779296874,-1.1345979044139385,-2.1415221995949745,-3.00865545450896
1746277911723227600,8.0952275390625,-0.5223211618393659,-2.286549679210782,-2.822201739527285
1746277911733206800,8.105206787109376,0.010215689066052436,-2.432288521966338,-2.6173694872900843
1746277911743187000,8.11518701171875,0.5182277550458908,-2.454761635059118,-2.4489684386104345
1746277911753166000,8.125166015625,0.9738999774575233,-2.407413608428836,-2.3661598070204257
1746277911763144700,8.135144775390625,1.3155379705406725,-2.3466432056456803,-2.299064000608027
1746277911773123800,8.145123779296876,1.6216263652063905,-2.393541150420904,-2.160981810085475
1746277911783104000,8.15510400390625,1.9504143751971423,-2.4210060804516074,-2.05961051684469
1746277911793083000,8.165082763671874,2.2459293534003195,-2.4225451265871523,-1.942538088864088
1746277911803062000,8.17506201171875,2.4419822329849,-2.4328058238387107,-1.7946724632129072
1746277911813042000,8.1850419921875,2.5438351722627877,-2.443119128060341,-1.6659131045699118
1746277911823021000,8.19502099609375,2.5494080039590594,-2.457560910388827,-1.5312921604171394
1746277911833000000,8.205,2.4428275977678595,-2.506485977077484,-1.3588257619947195
1746277911842979800,8.214979736328125,2.2592127594739195,-2.5869261259704825,-1.2025418520882725
1746277911852959000,8.224958984375,1.9962492207854985,-2.535496382984519,-0.9977899716109037
1746277911862937900,8.234937744140625,1.6745681201905012,-2.3539240103036163,-0.8047247295349836
1746277911872917000,8.2449169921875,1.2595295214623212,-2.1136077722311017,-0.5594727886259555
1746277911882897000,8.25489697265625,0.7700902001358568,-1.7932956219017504,-0.2552081022560596
1746277911892876000,8.2648759765625,0.18661328945755956,-1.3469377558022737,0.07624269720315932
1746277911902855000,8.27485498046875,-0.4564234791703522,-0.8579431095033884,0.4066226525604725
1746277911912834800,8.284834716796874,-1.164836390811205,-0.3599263678371906,0.779469876769185
1746277911922814000,8.29481396484375,-1.938951462548971,0.09270166457295417,1.1208972958415746
1746277911932792800,8.304792724609374,-2.7425299446582794,0.49554596763849257,1.4971587124079464
1746277911942772000,8.31477197265625,-3.486472580972314,0.6387246045172215,1.8174889829158782
1746277911952751900,8.324751953125,-4.177160012438893,0.6937900736570358,1.9386895967423914
1746277911962731000,8.33473095703125,-4.823430794551968,0.8878390660732984,2.0028701002299782
1746277911972710000,8.3447099609375,-5.398615531572699,0.997211294940114,2.1280197439432142
1746277911982689800,8.354689697265625,-5.817845152249932,0.9479507126867771,2.2366963917613027
1746277911992669000,8.3646689453125,-5.984564239192008,1.0200304449915885,2.346536238139868
1746277912002647800,8.374647705078125,-6.046539926111698,1.0678192011266947,2.5037884085565802
1746277912012628000,8.3846279296875,-6.028770460665226,0.9730518361955881,2.558645787903666
1746277912022606800,8.39460693359375,-5.934762974190711,0.880579304203391,2.474422613340616
1746277912032586000,8.4045859375,-5.760668974566459,0.8265402555018663,2.2883558518499134
1746277912042564900,8.41456494140625,-5.509162064915895,0.787420543512702,2.0389678340494632
1746277912052544800,8.424544677734374,-5.236491955727338,0.7952642427504062,1.7613672827214002
1746277912062524000,8.43452392578125,-5.0027007355093955,0.7569207758307457,1.5530395895838736
1746277912072502800,8.444502685546874,-4.8461318711817265,0.6239958219408989,1.3712404224097727
1746277912082482700,8.454482666015625,-4.677701888668537,0.4588625428855419,1.2048603581637143
1746277912092461800,8.4644619140625,-4.516979411792755,0.22690204522609708,0.9825210908085107
1746277912102441000,8.47444091796875,-4.340786978584528,0.020866846939921378,0.7643658311396837
1746277912112419800,8.484419921875,-4.120314674144983,-0.21678397131562233,0.5569505766719579
1746277912122399700,8.494399658203125,-3.9098610748946663,-0.4554571183562279,0.36063188575804234
1746277912132379000,8.50437890625,-3.718695528960228,-0.6488683973908423,0.19937983205020426
1746277912142357800,8.514357666015625,-3.571139992171526,-0.8139443933010101,0.03416705801784992
1746277912152337700,8.524337646484375,-3.4616052662193773,-0.9726566993981599,-0.14641104292869567
1746277912162316800,8.53431689453125,-3.4161434917271136,-1.07931616217494,-0.33629122522771354
1746277912172296000,8.5442958984375,-3.4731507425844668,-1.1049024388521909,-0.4819722003161907
1746277912182275800,8.55427587890625,-3.5435306852340696,-1.1307932514339685,-0.6112754565775395
1746277912192254700,8.564254638671875,-3.6371909657061097,-1.0850427231281996,-0.7087868595197796
1746277912202233900,8.57423388671875,-3.734482296156883,-0.9771832369118928,-0.7360904615089296
1746277912212212700,8.584212646484374,-3.875872296053171,-0.8646282863557339,-0.6646651014596223
1746277912222192600,8.594192626953125,-4.066021942943334,-0.7575882998287677,-0.5497352384656667
1746277912232171800,8.604171875,-4.2424017154172065,-0.6520891130030155,-0.45095834563225506
1746277912242150700,8.614150634765625,-4.4906735886693,-0.5239017090290784,-0.3558414366111159
1746277912252130800,8.624130859375,-4.738971473145485,-0.4114484652817249,-0.26469927643984553
1746277912262109700,8.634109619140625,-4.966182145929336,-0.31988661839365956,-0.19242694417238235
1746277912272088800,8.6440888671875,-5.201297892749309,-0.15443360586464405,-0.1114011043459177
1746277912282067700,8.654067626953125,-5.402583850681782,-0.023364508974552153,-0.0037304186999797817
1746277912292047600,8.664047607421875,-5.599881031239033,0.0009790741652250289,0.12013619946539401
1746277912302026800,8.67402685546875,-5.718661724442243,-0.025763386809825897,0.1595505104869604
1746277912312005600,8.684005615234375,-5.753512088549137,0.036357261538505554,0.2387789455026388
1746277912321986000,8.693986083984376,-5.720429318636655,0.09004676614999771,0.3331856604278087
1746277912331964700,8.703964599609375,-5.574504597920179,0.10720248361229896,0.444046666547656
1746277912341943800,8.71394384765625,-5.3216275689601895,0.14985036972761154,0.4758844048351049
1746277912351924000,8.723924072265625,-4.96529834883213,0.29739070894718167,0.44607203489542
1746277912361902800,8.73390283203125,-4.60391535244584,0.4951654438883066,0.3928688524961471
1746277912371882000,8.743882080078125,-4.287798900240659,0.668987056311965,0.34897535023391246
1746277912381860600,8.753860595703125,-3.9830537368774412,0.9223609288781881,0.3465612748295068
1746277912391841000,8.763841064453125,-3.6302012529492376,1.2403957819253206,0.39008769734501836
1746277912401820000,8.77381982421875,-3.227810538870096,1.3409493290424346,0.41123336122632026
1746277912411799000,8.783799072265625,-2.8710616320252416,1.3280103524923323,0.38312019641995426
1746277912421779000,8.793779052734376,-2.5086335105001925,1.3906962335079907,0.26115444343984123
1746277912431757800,8.8037578125,-2.1451438972234724,1.5682073480993508,0.20260697740316388
1746277912441737000,8.813737060546876,-1.855551879328489,1.6874445528984068,0.22812077336609363
1746277912451715800,8.8237158203125,-1.6575170321464539,1.809184680429101,0.2691074482709169
1746277912461696000,8.833696044921876,-1.4955565379083156,2.0783874057680367,0.2565881584376097
1746277912471675000,8.8436748046875,-1.3459458221554756,2.338721764996648,0.35464755065143105
1746277912481654000,8.853654052734376,-1.319053139054775,2.4574130263507366,0.5945072771281004
1746277912491634000,8.863634033203125,-1.4636322903811931,2.2987626795738936,0.9202326846778393
1746277912501612800,8.87361279296875,-1.7440011373788118,1.9508079045593738,1.3443801802739501
1746277912511592000,8.883592041015625,-2.1345172892689703,1.5469418572306632,1.7186577295467256
1746277912521570600,8.893570556640626,-2.514330260837078,1.17775140196383,1.9113222818672655
1746277912531550500,8.903550537109375,-2.6715596349000927,0.9234171599328518,1.7168018725469707
1746277912541529300,8.913529296875,-2.5326468387722967,0.7746352962195873,1.1998784780979155
1746277912551508500,8.923508544921875,-1.9592717815220355,0.6171937407106161,0.4934513334468007
1746277912561488400,8.93348828125,-0.9559919803231954,0.5631546920090913,-0.33576837039738894
1746277912571467500,8.943467529296875,0.1681821452319622,0.5363713145017623,-1.0143667201414703
1746277912581446400,8.9534462890625,1.1315439236707985,0.3862169933915138,-1.3691022413372993
1746277912591426300,8.96342626953125,1.923052467149496,0.32312545418441296,-1.4753481548771261
1746277912601405400,8.973405517578126,2.5217098496943713,0.3804173672020435,-1.4720420990690588
1746277912611384300,8.98338427734375,2.851982253023982,0.393128380215168,-1.3580971554592252
1746277912621363500,8.993363525390626,2.8983617268830537,0.3033025633394718,-1.1169026732474565
1746277912631343400,9.00334326171875,2.7497873684406278,0.2245446684449911,-0.9034005000814795
1746277912641322500,9.013322509765626,2.4821394713282583,0.20555998198986053,-0.770640965886414
1746277912651301400,9.02330126953125,2.073501971814036,0.2439770986676216,-0.5689522723719478
1746277912661281500,9.033281494140626,1.6014876864105463,0.19985738643407822,-0.17869944759309292
1746277912671260400,9.043260498046875,1.1974931173313408,0.15580957039296625,0.3026017215937376
1746277912681239300,9.0532392578125,0.9223458043742925,0.1417477272927761,0.773509507060051
1746277912691218400,9.063218505859375,0.6464794564276933,0.05362345363795757,1.1883832706153392
1746277912701198600,9.073198486328126,0.4162672637403011,-0.023739187505841253,1.417214238077402
1746277912711177500,9.083177490234375,0.21362682245895265,-0.10184066431820392,1.5463964983075855
1746277912721156400,9.09315625,0.06856032600700855,-0.22980244284272192,1.6489701530754566
1746277912731136500,9.103136474609375,-0.04758008182048797,-0.2800315778672695,1.6776257541954516
1746277912741115600,9.11311572265625,-0.006494038194417953,-0.19858312871456146,1.5586697044253348
1746277912751094500,9.123094482421875,0.032639556189626454,-0.03759294081330299,1.5573551146954296
1746277912761073700,9.13307373046875,-0.07930442286133765,0.13559271179437637,1.7660013722628354
1746277912771053600,9.143053466796875,-0.29327523645237086,0.3724877432465553,1.9434744929313659
1746277912781032400,9.153032470703126,-0.5451848816849291,0.5946393790751695,2.05730662381649
1746277912791011600,9.163011474609375,-0.7644049941062927,0.8062403947949409,2.205677568641305
1746277912800991500,9.172991455078124,-1.0113877043306827,0.8823685257077216,2.372626957207918
1746277912810970600,9.182970703125,-1.2153344059050082,0.7766776157021522,2.5146558395296332
1746277912820949500,9.192949462890626,-1.303512455573678,0.6850082167863846,2.572691848912835
1746277912830929400,9.202929443359375,-1.3127730358719825,0.6086503687709569,2.568682028749585
1746277912840908500,9.212908447265624,-1.3639596177518367,0.5366080458670854,2.5561668305695053
1746277912850887400,9.222887451171875,-1.4289374090969562,0.41187282817363735,2.505609778764844
1746277912860866600,9.232866455078126,-1.4915999092370271,0.313472075176239,2.448018590539694
1746277912870846500,9.242846435546875,-1.5211369693666696,0.22756664661467074,2.4444734652787448
1746277912880825600,9.25282568359375,-1.5726438692420721,0.11659282777011394,2.5003403139293194
1746277912890804500,9.262804443359375,-1.6025304734617472,0.06280863061249256,2.549890234518051
1746277912900784400,9.272784423828124,-1.673236579325795,0.08983750731348991,2.622271580117941
1746277912910763500,9.282763427734375,-1.7762626540362834,0.05284545500278472,2.6491221776425835
1746277912920742400,9.292742431640624,-1.8410148199319838,-0.015281155762076377,2.5749229689657684
1746277912930721500,9.302721435546875,-1.8232085296064615,-0.07254676529467105,2.485506317412853
1746277912940701400,9.312701416015624,-1.7450041769415139,-0.1535463016360998,2.4823984145253895
1746277912950680600,9.3226806640625,-1.6320254480153322,-0.23104688994586467,2.538191028895974
1746277912960659500,9.332659423828124,-1.4976789368897676,-0.33264322411417957,2.6300620878636836
1746277912970639400,9.342639404296875,-1.328818746265769,-0.40705169162750243,2.741799292296171
1746277912980618500,9.352618408203124,-1.1587205382794141,-0.41992812433540816,2.8792589670062063
1746277912990597400,9.362597412109375,-1.0357891551375389,-0.4678443062424659,3.070122315123677
1746277913000576500,9.372576416015624,-0.9275631006311624,-0.5349877511888742,3.1935049491643905
1746277913010556400,9.382556396484375,-0.781185375450179,-0.5330179124206305,3.256355080831051
1746277913020535600,9.39253564453125,-0.6771510735452174,-0.4751385549038648,3.318130861264467
1746277913030514400,9.402514404296875,-0.6859545577257872,-0.3525315814107656,3.330598713171482
1746277913040494300,9.412494384765624,-0.7472422623813152,-0.22431378229856488,3.3436510869681833
1746277913050473500,9.422473388671875,-0.8303536763101815,-0.06255202550292015,3.328343627721071
1746277913060452400,9.432452392578124,-0.9340963748574256,0.1484399184077978,3.264284704786539
1746277913070431500,9.442431396484375,-1.0275672702372074,0.3614180676996708,3.1830379156857727
1746277913080411400,9.452411376953124,-1.0478671309441328,0.6304033508956431,3.0623265466809273
1746277913090390500,9.462390625,-0.9474695781063288,1.0251315675228834,2.849012881824374
1746277913100369400,9.472369384765624,-0.8045031957387924,1.516649010297656,2.6159143200457096
1746277913110349300,9.482349365234375,-0.6538432631939649,2.108589067286253,2.277624029955268
1746277913120328400,9.492328369140624,-0.5389757979117333,2.7927970736056564,1.9057108717262743
1746277913130307300,9.502307373046875,-0.468549239641428,3.529622571390867,1.4786211851984261
1746277913140286500,9.512286376953124,-0.4916740946412086,4.129584022271633,1.0588426984667778
1746277913150266400,9.522266357421875,-0.5743260378321633,4.6162686380624764,0.5987555822223425
1746277913160245500,9.53224560546875,-0.6717115128397941,4.9005081890136,0.0903957257181406
1746277913170224400,9.542224365234375,-0.723359282490611,4.920091425883769,-0.4255874652713537
1746277913180204300,9.552204345703124,-0.6979249815046786,4.882496146982908,-0.942234673127532
1746277913190183400,9.562183349609375,-0.47909810618460175,4.843052609866858,-1.4409160161823034
1746277913200162300,9.572162353515624,-0.19915011494755744,4.7292175563722845,-2.042922124633193
1746277913210142500,9.582142578125,0.07251173051390797,4.664891506934166,-2.6102830361604688
1746277913220121300,9.592121337890624,0.21454693297855554,4.525104266059398,-2.892564438781142
1746277913230100500,9.6021005859375,0.08091646116785704,4.254029317107796,-2.9939357320219275
1746277913240079400,9.612079345703124,-0.16350070941746234,3.978514339882135,-3.0890590707838532
1746277913250059300,9.622059326171875,-0.37547987426724283,3.8244232638448477,-3.178041422572732
1746277913260038400,9.632038330078124,-0.5802145113488659,3.7817759622514244,-3.1852666976511474
1746277913270017300,9.642017333984375,-0.854461697128415,3.7731057490617035,-3.0588217534303666
1746277913279997700,9.651997802734375,-1.1610497849445789,3.737356390288472,-2.851441570276022
1746277913289976300,9.661976318359375,-1.5493132625371218,3.676818042695522,-2.636403565844893
1746277913299955500,9.67195556640625,-1.9956874952495096,3.41400472613275,-2.451117141076922
1746277913309934300,9.681934326171875,-2.440300563508272,2.877416554009914,-2.379652033539116
1746277913319914500,9.69191455078125,-2.730551337572932,2.1075877812892196,-2.460378890419006
1746277913329893600,9.7018935546875,-2.852062332522869,1.2593594255924223,-2.788324312105775
1746277913339872300,9.711872314453124,-2.8149101212143894,0.4308060767024755,-3.1135122517779465
1746277913349852700,9.721852783203126,-2.6185014139294625,-0.3678600834459066,-3.344800549264252
1746277913359831600,9.73183154296875,-2.2744787176668644,-1.0527636708140373,-3.449814875182509
1746277913369810700,9.741810791015626,-1.8557056085854768,-1.5686159289002417,-3.396742917947471
1746277913379789600,9.75178955078125,-1.3938503136247395,-1.8781898275941609,-3.1513115288183093
1746277913389769500,9.76176953125,-0.9421329663187265,-2.0268115323096514,-2.757685428214073
1746277913399748600,9.77174853515625,-0.5315018087692558,-2.046131149807572,-2.3562582984700797
1746277913409727500,9.7817275390625,-0.16298516111075878,-2.005084853670001,-2.028198310492933
1746277913419707600,9.791707763671875,0.21001637687683103,-1.9534411756724117,-1.7911334754317998
1746277913429686500,9.8016865234375,0.5891920734547078,-1.990366007965803,-1.6248589173868297
1746277913439665700,9.811665771484375,0.9636780047811567,-2.0551386321276426,-1.4969456541791557
1746277913449644500,9.82164453125,1.2304023573078215,-2.143869054982066,-1.393782216824591
1746277913459624400,9.83162451171875,1.344436002114415,-2.278382739368081,-1.3318901165351271
1746277913469603600,9.841603515625,1.3036369587361811,-2.378781388184428,-1.3643018553182482
1746277913479582500,9.85158251953125,1.1180302159726618,-2.430865211164951,-1.392213944594562
1746277913489562600,9.861562744140626,0.7871611619241535,-2.4545184739530086,-1.3063611230030656
1746277913499541500,9.87154150390625,0.35402386579513545,-2.3937194295972586,-1.1283861902922392
1746277913509520600,9.881520751953126,-0.05244315781220794,-2.3352438597530125,-0.886911137573421
1746277913519499500,9.89149951171875,-0.4053711911946535,-2.269009346345067,-0.5833060841560364
1746277913529480000,9.90147998046875,-0.6984424295075238,-2.142058206167817,-0.23328064034730195
1746277913539459000,9.911458984375,-0.9459538397811352,-2.050631383836269,0.09934650941491126
1746277913549438000,9.92143798828125,-1.1805834105193613,-2.0078665933430195,0.4094947008654475
1746277913559418000,9.931418212890625,-1.2697786744065582,-1.9400123697787521,0.6712824737727642
1746277913569397200,9.941397216796876,-1.278770374635607,-1.8391127857029437,0.8889628094062209
1746277913579375900,9.9513759765625,-1.2178618054907768,-1.7262480385452508,1.007934933528304
1746277913589355000,9.96135498046875,-1.1215873239323497,-1.5416729769170283,1.1184317825108765
1746277913599335200,9.971335205078125,-1.0866443131059407,-1.4432687167882918,1.1672583572611213
1746277913609314300,9.981314208984376,-1.0915122114032507,-1.398403739145398,1.1415063686281441
1746277913619293200,9.991293212890625,-1.1214168627362697,-1.348425364011526,1.0631272439181805
1746277913629273000,10.001273193359374,-1.1472305184286087,-1.3056798627406359,0.9686471714958548
1746277913639252200,10.011252197265625,-1.1268418834596872,-1.1472235772311687,0.9312041605472564
1746277913649231000,10.021231201171876,-1.1157067414611577,-0.9358628000080584,1.0021917137011884
1746277913659210200,10.031210205078125,-1.082913236818835,-0.5646896464914083,1.0534463923811912
1746277913669190100,10.041190185546874,-1.1216413922071455,-0.18397884930074213,1.1599489110305905
1746277913679169300,10.051169189453125,-1.2048801588427274,0.07897767512500285,1.191162379939854
1746277913689148200,10.061148193359376,-1.4006909732997417,0.322187296551466,1.1691449016600846
1746277913699128000,10.071128173828125,-1.6472633491575717,0.40621465628147124,1.167902208122611
1746277913709107200,10.081107177734374,-1.8895020797252653,0.4668529571175575,0.9990984238609671
1746277913719086000,10.091086181640625,-2.068587896287441,0.4927928695380687,0.8806281117811798
1746277913729065200,10.101065185546876,-2.2142817308574916,0.4104781589448452,0.7599632122665643
1746277913739045000,10.111045166015625,-2.3241309295862913,0.3279512669056654,0.7066252975717187
1746277913749024300,10.121024169921874,-2.386560205492377,0.24986031148731708,0.684669778612256
1746277913759003100,10.131003173828125,-2.408191022542119,0.14482523504197597,0.678369801685214
1746277913768983000,10.140983154296874,-2.3820383441537616,0.14699088864326476,0.7004483625024557
1746277913778962200,10.150962158203125,-2.3876690435171124,0.12102058108448982,0.7745575548082589
1746277913788941000,10.160941162109374,-2.3924773205816745,0.05287526561915874,0.7855401365935802
1746277913798920200,10.170920166015625,-2.409123334956169,-0.00713467418551445,0.7994242850393056
1746277913808900000,10.180900146484374,-2.3350234950006006,-0.017699322819709776,0.7993816149413585
1746277913818879200,10.190879150390625,-2.2282056267917154,-0.042890462699532506,0.8065227188676595
1746277913828858000,10.200858154296874,-2.105416282469034,-0.004663900157809257,0.8049766584694386
1746277913838838000,10.210838134765625,-1.9355109667062758,0.06897475202679634,0.7681020950585603
1746277913848817200,10.220817138671874,-1.7335633299946784,0.13059563415944575,0.7320780109971762
1746277913858796000,10.230796142578125,-1.4930384176075457,0.24499942745268344,0.6883838306993245
1746277913868775200,10.240775146484374,-1.337326462370157,0.4143915329962969,0.6058557696163654
1746277913878755000,10.250755126953125,-1.2272703428924083,0.6420838518172503,0.48092064543664453
1746277913888734200,10.260734130859374,-1.1571101804733275,0.9057283585071563,0.417056368291378
1746277913898713000,10.270713134765625,-1.103147119617462,1.2836229292333126,0.3535363745391369
1746277913908692200,10.280692138671874,-1.0634288572132586,1.726605765941739,0.28629063826203344
1746277913918672100,10.290672119140625,-1.017629229068756,2.140723158171773,0.2767816361606121
1746277913928651000,10.300651123046874,-1.0412731395065784,2.5926561940550803,0.3080775226563215
1746277913938630100,10.310630126953125,-1.130812540656328,2.9875094983667134,0.4572591993421316
1746277913948610000,10.320610107421874,-1.2743021431803703,3.3095769679307936,0.5513543641000985
1746277913958589200,10.330589111328125,-1.399548817527294,3.608344810450077,0.5675982274144887
1746277913968568000,10.340568115234374,-1.52188223477602,3.908625395619869,0.5497632955163717
1746277913978548000,10.3505478515625,-1.589298651444912,4.200836071580648,0.6031675534456968
1746277913988527000,10.360527099609374,-1.5898165378391742,4.568264777871966,0.6602554683238268
1746277913998506000,10.370506103515625,-1.5821394273400307,5.011023158174753,0.7665899369299412
1746277914008485000,10.380485107421874,-1.5411761333107947,5.23915620650053,0.9954834482342004
1746277914018465000,10.390465087890625,-1.4806547368526457,5.4091398481965065,1.2416080803245306
1746277914028444200,10.400444091796874,-1.4505378310084343,5.586541657194495,1.4406950669080019
1746277914038423000,10.410423095703125,-1.5490928977847098,5.687903013563155,1.7282254760980604
1746277914048403000,10.42040283203125,-1.734636512184143,5.5376130833745,2.119007000926137
1746277914058382000,10.430382080078125,-1.9758593437075613,5.292878444337845,2.4299732307612896
1746277914068361000,10.44036083984375,-2.2358055804014203,4.9303117911249394,2.7928642936229706
1746277914078340000,10.450340087890625,-2.5143980653762816,4.4317187108755105,3.20146905991137
1746277914088320000,10.460320068359374,-2.7677847974240777,3.798330791211128,3.548548805657029
1746277914098299100,10.470299072265625,-2.8112568594038483,2.984742956262827,3.7006659512728453
1746277914108278000,10.480278076171874,-2.577383806121349,2.084418502625823,3.5893501871228217
1746277914118257200,10.490257080078125,-2.1307401088178155,1.284810093191266,3.3267011212110518
1746277914128237000,10.500237060546874,-1.5335563059568404,0.7173878068655729,2.924277673906088
1746277914138216000,10.5102158203125,-0.8193395303428173,0.4214753537774086,2.368247719210386
1746277914148195000,10.520195068359374,-0.1539127968609333,0.162678871640563,1.8730360980927943
1746277914158175000,10.530175048828125,0.5145154565244913,-0.06935761386454105,1.4049012844711541
1746277914168154000,10.540154052734374,1.0863415307670832,-0.19659049359261987,1.0048702852606772
1746277914178133000,10.550133056640625,1.6007582030922174,-0.26714871541857715,0.7802110505253076
1746277914188112100,10.560112060546874,2.1424323001772163,-0.24204350025653837,0.6279851838380098
1746277914198092000,10.570092041015625,2.629153156325221,-0.1385281807243824,0.6790349875956774
1746277914208071000,10.58007080078125,2.981197246479988,-0.032062779214978215,1.0429694220304488
1746277914218050000,10.590050048828125,3.235304694017768,0.07367021636664867,1.6935931386560201
1746277914228030200,10.6000302734375,3.413715972319245,0.18369944783747194,2.4728923350334164
1746277914238009000,10.610009033203125,3.572743920236826,0.2885451391905546,3.1318641932874915
1746277914247988000,10.619988037109374,3.5495284643441436,0.2774053210169077,3.535780509498715
1746277914257967000,10.629967041015625,3.2177275362730025,0.19839900431931018,3.620332769885659
1746277914267947300,10.639947265625,2.6622335881501433,0.05982639993131161,3.6399849803388116
1746277914277926100,10.649926025390625,2.0584926187306642,-0.02112520561516285,3.644728959995508
1746277914287905300,10.6599052734375,1.5029554159879683,-0.0609551117002964,3.5959622987389563
1746277914297885200,10.66988525390625,0.9902648368030786,-0.19742460632920264,3.5041198813438412
1746277914307864000,10.679864013671875,0.4773357726871967,-0.39116497118771076,3.440741926410794
1746277914317843200,10.68984326171875,0.06166004509925842,-0.5989817921936512,3.3850042570978403
1746277914327822300,10.699822265625,-0.23682781143486498,-0.8105962519168853,3.2648844242453574
1746277914337802200,10.70980224609375,-0.406276615601778,-1.0082248563855887,3.1076532966166734
1746277914347781000,10.719781005859375,-0.5278957105686888,-1.1989590251654385,2.9252257684111593
1746277914357760300,10.72976025390625,-0.5455529478123411,-1.3841729692190885,2.7664439042091367
1746277914367740200,10.739740234375,-0.45306404920723287,-1.618953784996271,2.593897134026885
1746277914377719000,10.749718994140625,-0.2715080431392416,-1.8735265119582414,2.3567174404144287
1746277914387698200,10.7596982421875,-0.049356991832517086,-2.0604408301889894,2.0853554912149903
1746277914397677000,10.769677001953125,0.21410335392951965,-2.223807099571824,1.8208114053368567
1746277914407657200,10.7796572265625,0.4090793980628252,-2.3552298322051763,1.572664327508211
1746277914417636000,10.789635986328125,0.5596639638165012,-2.417568507218361,1.327695879715681
1746277914427615200,10.799615234375,0.6625608226567506,-2.422042437762022,1.0648410620987414
1746277914437594000,10.809593994140625,0.6708569418370723,-2.392304886624217,0.8113865255117416
1746277914447574000,10.819573974609375,0.6839870570451021,-2.2584318382292983,0.5746119055688381
1746277914457553200,10.82955322265625,0.6727472856283188,-2.070502205476165,0.38141865319907664
1746277914467532000,10.839531982421875,0.6631593730717897,-1.9085522326320408,0.17074059754312038
1746277914477512200,10.84951220703125,0.6553782176762819,-1.6483581586569547,-0.020588029998540876
1746277914487491000,10.859490966796875,0.5961422213861718,-1.3351228148460388,-0.16228168901652096
1746277914497470200,10.86947021484375,0.5091413622707128,-1.0540887819379567,-0.26960370735526085
1746277914507449000,10.879448974609375,0.3901245587566867,-0.8054723330318927,-0.45224546283334494
1746277914517429000,10.889428955078126,0.3171715142160654,-0.5638216314852237,-0.6070742054954171
1746277914527407400,10.899407470703125,0.35287064063940193,-0.44897301703393455,-0.7659168599739671
1746277914537386500,10.909386474609375,0.41703298741579053,-0.32910745120346546,-0.9520938038408756
1746277914547366700,10.91936669921875,0.42871699546873565,-0.134271107801795,-1.0011287606447934
1746277914557345500,10.929345458984375,0.3485504028201103,0.004113865059614181,-1.1419418374359607
1746277914567324400,10.939324462890625,0.1816138737350702,0.17965923253595828,-1.5103680303320288
1746277914577303300,10.94930322265625,-0.024456975819799116,0.49165948159396644,-1.9260370359182357
1746277914587283700,10.95928369140625,-0.30485622252225875,0.8444862465590238,-2.4393019078597424
1746277914597262600,10.9692626953125,-0.5790846670687199,1.3135977962583303,-2.833602838985622
1746277914607241700,10.97924169921875,-0.8263631453692912,1.7957354162693022,-3.1452140887260436
1746277914617221600,10.9892216796875,-1.098725869109109,2.2748791151612995,-3.3632743635877964
1746277914627200500,10.999200439453125,-1.4608195710480212,2.8297265820741653,-3.571590658548474
1746277914637179600,11.0091796875,-1.810304185978323,3.4595401503831145,-3.8038305576711893
1746277914647158500,11.019158447265625,-2.131013665062189,4.114989095208049,-3.9444516190215944
1746277914657138700,11.029138671875,-2.4278338806450366,4.701846149843931,-4.039379142950475
1746277914667117600,11.03911767578125,-2.8199872783482074,5.055051684993505,-3.948833195106685
1746277914677096700,11.0490966796875,-3.29800226547122,5.129550753399729,-3.775339499463141
1746277914687076600,11.05907666015625,-3.6977684762656686,5.035008429396152,-3.6929753967702386
1746277914697055500,11.069055419921876,-4.001849622762203,4.607757999348641,-3.6871830771043896
1746277914707034600,11.07903466796875,-4.2003289988413455,3.7724890784680842,-3.7341497032016515
1746277914717013500,11.089013427734375,-4.2660231217622755,2.6475001293987033,-3.9605294781193137
1746277914726993700,11.09899365234375,-4.043607866561413,1.4597446352928876,-4.376993725736439
1746277914736972500,11.10897265625,-3.567071719819307,0.39966801111698147,-4.896940851920843
1746277914746951700,11.11895166015625,-2.8738334348261354,-0.4681277993589639,-5.299025276529789
1746277914756930600,11.1289306640625,-2.1252128698289394,-1.0671095915526152,-5.499220516616106
1746277914766910500,11.138910400390625,-1.4212661438167093,-1.4903782584875822,-5.480186145800352
1746277914776889600,11.1488896484375,-0.7171300327122211,-1.75635091586411,-5.140022463053465
1746277914786868500,11.158868408203125,0.04244096536636352,-1.8480775979250668,-4.585213866846263
1746277914796848600,11.1688486328125,0.856807967993617,-1.7209727284908294,-4.015685840412974
1746277914806827500,11.17882763671875,1.642227108556032,-1.6265671826094388,-3.4111446605265137
1746277914816806700,11.188806640625,2.3431629623144863,-1.5444032786637543,-2.8774197688803076
1746277914826785500,11.19878564453125,2.7974872772485018,-1.4603624749302864,-2.508216454131901
1746277914836765400,11.208765380859376,2.9782033253610134,-1.5691794080018997,-2.2520266473621127
1746277914846744600,11.21874462890625,2.851153985506296,-1.792695902442932,-2.210013259758055
1746277914856723500,11.228723388671876,2.469969141063094,-2.002210759538412,-2.2732044599473475
1746277914866703600,11.23870361328125,1.9878186615705489,-2.2441455387234686,-2.268417810192704
1746277914876682500,11.2486826171875,1.4666899243861435,-2.449455929866433,-2.1368629756122828
1746277914886661600,11.25866162109375,0.9636533817965537,-2.526841951885819,-1.9369380768999456
1746277914896640500,11.268640625,0.5476789269903675,-2.565048640683293,-1.6810311787247656
1746277914906620400,11.278620361328125,0.283930338871479,-2.4861527986228467,-1.3612518200978636
1746277914916599600,11.288599609375,0.06674834468159824,-2.3010078281521795,-0.9849567935228347
1746277914926578400,11.298578369140625,-0.11364267272762954,-2.155862859636545,-0.5488341979727148
1746277914936557600,11.3085576171875,-0.247366704573296,-2.0711141998946667,-0.1298614746659994
1746277914946537500,11.318537353515625,-0.3675292805889621,-2.1000983023166655,0.25278584354519845
1746277914956516600,11.3285166015625,-0.48801791022121904,-2.1320698961168527,0.49431934845298525
1746277914966495500,11.33849560546875,-0.5934680337408558,-2.118837489578128,0.6085697047501802
1746277914976475400,11.348475341796876,-0.649333676815033,-2.114424349310994,0.7033037519335746
1746277914986454500,11.35845458984375,-0.7200532266825437,-1.988262313684821,0.7396490307733417
1746277914996433400,11.368433349609376,-0.8087181830853223,-1.848248862838745,0.8473670626923442
1746277915006412500,11.37841259765625,-0.8344406533628702,-1.7248866870641708,1.066725560671091
1746277915016392400,11.388392333984376,-0.7367045017540454,-1.5121978761076926,1.4010592220902442
1746277915026371600,11.39837158203125,-0.5414461335480213,-1.1161486400097609,1.8112533033967018
1746277915036350500,11.4083505859375,-0.44631227339208124,-0.6671282767027616,2.160562415629625
1746277915046330400,11.418330322265625,-0.4060954138159752,-0.2798579748660326,2.499136198836565
1746277915056309500,11.4283095703125,-0.4376163412392139,0.057204819256067276,2.6826106057465076
1746277915066288400,11.438288330078125,-0.50274961540699,0.36450375875532626,2.7491894025474783
1746277915076267500,11.448267578125,-0.6182137314081192,0.5617021551132202,2.767715823841095
1746277915086247400,11.458247314453125,-0.8197650622785091,0.6780114897668361,2.6637019071370363
1746277915096226600,11.4682265625,-1.0714460863869637,0.7725175734132528,2.507825116726756
1746277915106205400,11.478205322265625,-1.2735013481914996,0.7453174317985772,2.348905889880657
1746277915116184600,11.4881845703125,-1.3401777601480482,0.8063859407454729,2.186275533556938
1746277915126164500,11.49816455078125,-1.3196563656449316,1.0531716670930384,2.060637229543924
1746277915136143400,11.508143310546876,-1.2166332135438918,1.4722966583520174,1.9098802663654089
1746277915146122500,11.51812255859375,-1.0978162799835205,2.012628693178296,1.6808377019792795
1746277915156102400,11.528102294921876,-0.9927590647716075,2.67682500808239,1.5218343039810656
1746277915166081500,11.53808154296875,-0.9350362860560416,3.4490205099344253,1.528730493235588
1746277915176060400,11.548060302734376,-0.861744182286784,4.227862610194086,1.578893577286601
1746277915186039600,11.55803955078125,-0.8238846994917839,4.9408811159342525,1.5570938334107398
1746277915196019500,11.56801953125,-0.9080547556281089,5.537950352504849,1.5729355456650256
1746277915205998300,11.577998291015625,-1.1345183363717048,5.997591478547453,1.5648989542037248
1746277915215977500,11.5879775390625,-1.4147043010830878,6.299077347853779,1.6246265699356794
1746277915225956400,11.597956298828125,-1.6530711586534976,6.538553627970814,1.7223007622241973
1746277915235936500,11.6079365234375,-1.8892180020868776,6.698026981568336,1.7824200076222418
1746277915245915400,11.617915283203125,-2.1225312295295296,6.73035805633068,1.856708648148179
1746277915255894500,11.62789453125,-2.2796365388214586,6.794805101799964,1.8665087421506643
1746277915265874700,11.637874755859375,-2.3332300357125697,6.894773542505503,1.9124843113839625
1746277915275853600,11.647853515625,-2.4216321033954618,6.814926683330535,2.3004694834917783
1746277915285832400,11.65783251953125,-2.542159348005056,6.460855471262335,2.9224896214455365
1746277915295811300,11.667811279296876,-2.6446575994491575,5.88435497546792,3.5112551400512455
1746277915305791700,11.677791748046875,-2.7472914599716662,5.111687179929017,3.970409359359741
1746277915315770600,11.6877705078125,-2.9094460154771804,4.188113952651619,4.180884585919976
1746277915325749500,11.69774951171875,-3.0415128912329674,3.255914351326227,4.140271420502662
1746277915335729700,11.707729736328124,-3.007707652264833,2.4641753600925207,3.8502854348540305
1746277915345708500,11.71770849609375,-2.7320541433513164,1.84493871537745,3.3397061487346886
1746277915355687700,11.727687744140624,-2.3832478660739955,1.463690158048272,2.75149943305552
1746277915365666600,11.73766650390625,-1.910862847661972,1.170737139287591,2.1748849554926157
1746277915375646500,11.747646484375,-1.3408862006783484,0.9171528388410806,1.7262392707169054
1746277915385625600,11.75762548828125,-0.6932838777005672,0.7113754147082567,1.3890589876949786
1746277915395604700,11.767604736328124,-0.06573183371596969,0.4668178858041763,1.164649343806505
1746277915405583600,11.77758349609375,0.45446401566565037,0.22533844917118548,0.9482125784933566
1746277915415563500,11.7875634765625,0.9213485369652509,0.13813655105829237,0.8471013974934816
1746277915425542700,11.797542724609375,1.2877870631754398,0.10058803390860557,0.8332587501019239
1746277915435521500,11.807521484375,1.5832301451861857,0.07891571580469608,0.9551531914114951
1746277915445501400,11.81750146484375,1.8583885640591382,0.01674889022707939,1.13756026135087
1746277915455480600,11.82748046875,2.1258412308603525,-0.10416706143915652,1.296050449129939
1746277915465459700,11.837459716796875,2.336042901176214,-0.3656038289517164,1.4057634542584418
1746277915475438600,11.8474384765625,2.456675944247842,-0.698344083699584,1.511570684120059
1746277915485418500,11.85741845703125,2.527024907237291,-1.0498737945914267,1.5887047772049903
1746277915495397600,11.867397705078124,2.5377158125996586,-1.356594057419896,1.647712261968851
1746277915505376500,11.87737646484375,2.460028761807084,-1.595878029835224,1.7437649905353783
1746277915515355600,11.887355712890624,2.3347971388988196,-1.8170283796668052,1.7847592642247676
1746277915525335600,11.89733544921875,2.268639928510785,-2.0695184551358223,1.760940581741929
1746277915535314400,11.907314453125,2.157640390703082,-2.3244793046325443,1.7599059779971837
1746277915545293600,11.91729345703125,2.020907861223817,-2.5317297239273784,1.831786388337612
1746277915555273500,11.9272734375,1.850936494487524,-2.6863644053220748,1.8266122005701064
1746277915565252600,11.937252685546875,1.7542010443538427,-2.7411288456887006,1.7514485307753085
1746277915575231500,11.9472314453125,1.7221218985259532,-2.7015216424435375,1.6857120300173758
1746277915585210600,11.957210693359375,1.7092653395622968,-2.6833243069738146,1.6442168210685253
1746277915595190500,11.9671904296875,1.6874831313431262,-2.596892808711529,1.633491428914666
1746277915605169400,11.97716943359375,1.659646445390582,-2.475195351278782,1.6256570820271967
1746277915615148500,11.9871484375,1.669437771564722,-2.361872923481464,1.6055355004966259
1746277915625127700,11.997127685546875,1.6077124061442911,-2.2326292884528636,1.5690934832841157
1746277915635107600,12.007107666015624,1.4758337464369833,-2.129396877515316,1.5852292100489138
1746277915645086500,12.01708642578125,1.2902251039773225,-1.9911492672979831,1.5452181021779774
1746277915655065600,12.027065673828124,1.0509230113834143,-1.8417665150821207,1.468293267929554
1746277915665045500,12.03704541015625,0.8175713516265153,-1.7106781289696693,1.4001070359319447
1746277915675024400,12.0470244140625,0.6054786068670451,-1.5401269165188074,1.3528326590597628
1746277915685003500,12.05700341796875,0.33667459852211173,-1.3396797474980353,1.3561854766190051
1746277915694982700,12.066982666015624,0.05551211692877114,-1.1970891396403311,1.398074068799615
1746277915704962600,12.076962646484375,-0.2284176374208182,-1.1168775388062,1.3974363554179667
1746277915714941400,12.08694140625,-0.46549569728970525,-1.0155588525354862,1.319776777154207
1746277915724920600,12.096920654296875,-0.6664308690231293,-0.9098118284285068,1.1716525005668401
1746277915734899500,12.1068994140625,-0.760636508418247,-0.7300777770906687,0.9191875595390796
1746277915744879400,12.11687939453125,-0.7493511442940681,-0.477930231449008,0.6268821910321712
1746277915754858500,12.1268583984375,-0.7168061345200986,-0.2232072823613882,0.31084026536792514
1746277915764837400,12.13683740234375,-0.6375789416134358,0.0617787030428648,0.021874854938685892
1746277915774817800,12.14681787109375,-0.5599298847436904,0.39241526350975037,-0.27260873439013955
1746277915784796700,12.156796630859375,-0.5610773377457633,0.8054653187692165,-0.5845923245742917
1746277915794775600,12.166775634765624,-0.6554401769965886,1.1979296821177006,-0.8166326094716787
1746277915804754400,12.17675439453125,-0.8204366779297589,1.551309989312291,-1.0911939392343162
1746277915814734600,12.186734619140625,-0.9811527250647545,1.8282301571607589,-1.4648948576629162
1746277915824713700,12.196713623046875,-1.1915548863887786,2.0383651919811965,-1.8661933925911782
1746277915834692600,12.206692626953124,-1.3988058902055025,2.103313172709942,-2.305651562304795
1746277915844671500,12.21667138671875,-1.6218208648651837,2.139057270786166,-2.80821442296803
1746277915854651600,12.226651611328125,-1.7974316987931727,2.252231814545393,-3.307571181066334
1746277915864630800,12.236630859375,-1.9846669195413589,2.364309210717678,-3.727399352158606
1746277915874609700,12.246609619140624,-2.183954981654882,2.469064301177859,-4.04949604781717
1746277915884589600,12.256589599609375,-2.3664883083224297,2.5042560260683295,-4.290302407494187
1746277915894568700,12.266568603515625,-2.5289748722612857,2.6250024663865563,-4.468208074361086
1746277915904547600,12.276547607421875,-2.7072236534774303,2.807507151481509,-4.524193288694322
1746277915914526700,12.286526611328124,-2.8828841717660425,3.073691405782103,-4.555583867736161
1746277915924506600,12.296506591796875,-3.0308184787392616,3.3989871897429227,-4.592999406155943
1746277915934485800,12.30648583984375,-3.1386978386998177,3.609185937449336,-4.539880102647841
1746277915944464600,12.316464599609375,-3.251876474112272,3.6119700152099132,-4.517257644212246
1746277915954443800,12.32644384765625,-3.266998055398464,3.3657939451932903,-4.502089301174879
1746277915964423700,12.336423583984375,-3.209884421557188,2.8009219278723,-4.520489465740323
1746277915974402600,12.346402587890625,-3.0477263589203356,1.9536966117382049,-4.594396413472294
1746277915984381700,12.356381591796875,-2.794914796411991,0.936876360964775,-4.638587145115435
1746277915994361600,12.366361572265625,-2.480612700152397,-0.06777063693404198,-4.720168280737102
1746277916004340700,12.3763408203125,-2.161943056333065,-0.9104197311937808,-4.874681089317798
1746277916014319600,12.386319580078125,-1.7634663008272646,-1.4981582448393105,-5.044415724688768
1746277916024298800,12.396298828125,-1.3266057463914156,-1.878081691044569,-5.1885763583421705
1746277916034278700,12.406278564453125,-0.8588269066005945,-2.134993090087175,-5.159972195148468
1746277916044257500,12.416257568359375,-0.43996845732331274,-2.2790900108546017,-4.840149289640784
1746277916054236700,12.426236572265625,0.006976341818645596,-2.2466116365760564,-4.366352796995639
1746277916064215600,12.436215576171875,0.45651035373620685,-2.1400275771230457,-3.83254987167716
1746277916074195700,12.44619580078125,0.9329991542052477,-2.003102155420184,-3.3201758110955355
1746277916084174600,12.456174560546875,1.3319775025576353,-1.8522873245745897,-2.869041524374485
1746277916094153700,12.46615380859375,1.5922347048968075,-1.6799088966965674,-2.526993635316193
1746277916104133600,12.476133544921876,1.7571739226847887,-1.5273825857579708,-2.308697798132896
1746277916114112500,12.486112548828125,1.7936977729618548,-1.4172510629564523,-2.1367405182763934
1746277916124091600,12.496091552734375,1.7152502591907977,-1.3460703253179789,-2.043451993726194
1746277916134070500,12.506070556640625,1.5024065499335526,-1.2882353914648295,-1.9842820118770002
1746277916144050700,12.51605078125,1.2019810033351181,-1.2180629540860652,-1.9405410698279737
1746277916154029600,12.526029541015625,0.7883622813422232,-1.160671672347188,-1.882990213613212
1746277916164008700,12.5360087890625,0.4049988507509231,-1.138836272636056,-1.7508906046316026
1746277916173987600,12.545987548828125,0.09315649566836655,-1.0711217498034238,-1.599285500191152
1746277916183967500,12.555967529296876,-0.1721259874869138,-0.9910375747412442,-1.3987372088834642
