time,seconds_elapsed,z,y,x
1746552764247336000,0.0633359375,0.8498802145570516,-0.03842559224516153,0.8961879383541643
1746552764257333800,0.073333740234375,0.8544301329463719,-0.0003565583527088165,0.97507647389099
1746552764267330800,0.083330810546875,0.7220312487572431,0.013538988269865512,0.9559496024861931
1746552764277328600,0.09332861328125,0.6678577600210904,0.000032440964877605434,0.8793367567963898
1746552764287326000,0.103325927734375,0.6556757393181324,-0.01710559471026063,0.7890569125428796
1746552764297323800,0.11332373046875,0.6878302884697913,-0.08080898220539093,0.6931548444934189
1746552764307320800,0.12332080078125,0.6126116736173629,-0.17413228580802678,0.6186642516545952
1746552764317319000,0.13331884765625,0.40392099238634105,-0.3093048724941909,0.46669995851293206
1746552764327315700,0.143315673828125,0.21504326512813568,-0.2999487228669226,0.29192031471207736
1746552764337313800,0.153313720703125,0.031491116806864734,-0.1536212665684521,0.15404095328524708
1746552764347310800,0.163310791015625,0.05257365232408046,0.06617679187133908,0.09077142716273665
1746552764357309000,0.173308837890625,0.30586335373818874,0.22923194947838782,0.08363222293257713
1746552764367305700,0.1833056640625,0.7203992636412382,0.21875205651819704,0.038295536124706264
1746552764377303800,0.1933037109375,0.8629004396498203,-0.020481354753673076,0.05719122912213206
1746552764387302000,0.203302001953125,0.7550199106454849,-0.4489928907781839,0.14425518006905913
1746552764397298700,0.213298583984375,0.7053834808170795,-0.7866115652173757,0.19366043149009346
1746552764407296800,0.223296875,0.8875871371388435,-0.872640035636723,0.08102320947796106
1746552764417293800,0.2332939453125,1.23832657443583,-0.7496396789118647,-0.1203616787843406
1746552764427292000,0.2432919921875,1.5537901156902312,-0.607204846137762,-0.20357494565248488
1746552764437288700,0.253288818359375,1.8489245701432226,-0.5563605018243193,-0.05198752299919724
1746552764447286800,0.263286865234375,2.01030872579813,-0.607344839130342,0.2884279425516724
1746552764457283800,0.273283935546875,1.9600667312920093,-0.571898554956913,0.6571851209677756
1746552764467282000,0.283281982421875,1.7351316022247074,-0.4063447124019265,0.9023615124225616
1746552764477280000,0.293280029296875,1.3799375236064195,-0.2717684841737151,0.9937504869617522
1746552764487276800,0.30327685546875,0.8842553623676299,-0.2423588498160243,0.8944124531142413
1746552764497275000,0.31327490234375,0.3726894032984972,-0.11830372334122657,0.6290106544282287
1746552764507271700,0.323271728515625,0.05165887556672096,0.09571107552200556,0.4008683998826891
1746552764517269800,0.333269775390625,-0.2201391269624233,0.13289046709835528,0.3834107037991285
1746552764527266800,0.343266845703125,-0.7504349209427833,0.08087590996176004,0.4954685915533453
1746552764537265000,0.353264892578125,-1.4277958378463982,0.15831600025594234,0.5915853252667933
1746552764547261700,0.36326171875,-1.9823510438144205,0.4050847754687071,0.5833741809561849
1746552764557259800,0.373259765625,-2.2195973729223013,0.6742366474032402,0.521265880632773
1746552764567256800,0.3832568359375,-2.1464432893842456,0.8546554661348461,0.501573338169232
1746552764577254700,0.393254638671875,-1.7624392958670854,0.9079226536810397,0.5191441392384469
1746552764587252000,0.403251953125,-1.305332656738162,0.8576628312572836,0.5183277813542634
1746552764597249800,0.413249755859375,-1.0035141944766044,0.6478343781679868,0.4741039511591196
1746552764607248000,0.423247802734375,-0.9918108972012996,0.3703542383491993,0.3723156746152788
1746552764617244700,0.43324462890625,-1.0767395896852017,0.2651201322004199,0.16747918459437786
1746552764627242800,0.44324267578125,-1.0450888984024524,0.3387739819541573,-0.10673179736062884
1746552764637239800,0.45323974609375,-0.8876596178531646,0.4467074101895094,-0.3322265330720693
1746552764647238000,0.46323779296875,-0.542875289568305,0.5162824661970138,-0.4396690725179389
1746552764657235000,0.47323486328125,-0.09584697686135768,0.5508788555428386,-0.46651521306317295
1746552764667232800,0.483232666015625,0.3071978172123432,0.5779238065958022,-0.48438865034077316
1746552764677229800,0.493229736328125,0.6122264736920595,0.5290504700943828,-0.46215873488672077
1746552764687227600,0.5032275390625,0.7716881368517875,0.5283183564275503,-0.4051849479075521
1746552764697225000,0.513224853515625,0.8964864829093218,0.5865282610729337,-0.32521888279970734
1746552764707222800,0.523222900390625,1.0304004478365183,0.6662962097927928,-0.3337620355436578
1746552764717220900,0.533220947265625,1.21238432392776,0.785881789638102,-0.4430187848046422
1746552764727218000,0.543218017578125,1.3802122488945723,0.8908867632061243,-0.5493664051532745
1746552764737215700,0.5532158203125,1.389405024653673,0.9358250983461737,-0.6587479133050889
1746552764747212800,0.563212890625,1.1549708303570747,1.0013543860942125,-0.8666939867138862
1746552764757210600,0.573210693359375,0.6749953568160534,1.1462509328067303,-1.0355894678469746
1746552764767208000,0.5832080078125,0.13359072432219982,1.3354624220639466,-1.1240598515257239
1746552764777205800,0.593205810546875,-0.24601415745317934,1.5180945329308508,-1.1377208587400613
1746552764787202800,0.603202880859375,-0.448946129027009,1.7231027262568472,-1.0962079680040477
1746552764797201000,0.613200927734375,-0.40423604968488214,1.8671517162293194,-1.065650551850721
1746552764807198700,0.62319873046875,-0.11367197188735008,1.8642045568615198,-1.0696493391633033
1746552764817195800,0.63319580078125,0.27738836988210674,1.707873885203898,-1.084527247886732
1746552764827193900,0.64319384765625,0.6681576197504997,1.4741925551012158,-1.124316310504824
1746552764837191000,0.65319091796875,0.9441261859625577,1.2054396193563937,-1.1615359610263258
1746552764847188700,0.663188720703125,0.8679273279011249,0.999029742538929,-1.3573286553047597
1746552764857185800,0.673185791015625,0.6090910982757807,0.9971735932782292,-1.600873500034958
1746552764867183900,0.683183837890625,0.2873211503535509,1.1167343309432267,-1.737265983904898
1746552764877181000,0.693180908203125,-0.09638473699986934,1.2710320354685187,-1.7882412611216305
1746552764887179000,0.703178955078125,-0.2752081032335758,1.403631118404865,-1.7042136091306805
1746552764897175800,0.71317578125,-0.22627660680413245,1.4061051073029636,-1.5097542823478578
1746552764907174000,0.723173828125,-0.21245558672249315,1.2191872819408773,-1.2543263998612761
1746552764917170700,0.733170654296875,-0.30213001242876053,0.9397790966689586,-1.1299451101720333
1746552764927168800,0.743168701171875,-0.37357495396137236,0.7944274996653199,-1.1102305750723929
1746552764937166800,0.753166748046875,-0.3608060732811689,0.6730208418726921,-1.0726492516316473
1746552764947164000,0.763163818359375,-0.39802082843184466,0.5571753253385424,-1.072232925915718
1746552764957162000,0.773161865234375,-0.5275894576311111,0.48345191747993227,-1.1278396623253821
1746552764967158800,0.78315869140625,-0.7997317435532808,0.4103352433428168,-1.2306633463315666
1746552764977156900,0.793156982421875,-1.1736124024629593,0.4321773650556803,-1.2603572044581175
1746552764987153700,0.803153564453125,-1.462977625864744,0.4057978921741247,-1.184044145432487
1746552764997151700,0.81315185546875,-1.5874749431490898,0.34544892967343327,-0.9082289431512355
1746552765007148800,0.823148681640625,-1.6035738450348376,0.21665391519516705,-0.6134835610810667
1746552765017147000,0.83314697265625,-1.5841051744550465,0.047807460835576056,-0.49425625662151723
1746552765027143700,0.843143798828125,-1.543697176221013,0.014287760810554027,-0.4415432688919827
1746552765037141800,0.853141845703125,-1.2704489748835563,0.05335457356870174,-0.4780966375244781
1746552765047139800,0.863139892578125,-0.8410141865342855,0.09385989469736813,-0.5687428308723494
1746552765057137000,0.873136962890625,-0.44102994907498355,0.10631664068847894,-0.7364307993791998
1746552765067135000,0.883135009765625,-0.11675474033355712,0.14882307250648735,-1.0220927843488752
1746552765077131800,0.8931318359375,-0.04427344149053097,0.14748305607438086,-1.755547636657208
1746552765087129900,0.9031298828125,0.2906149312019348,0.37322161047905683,-1.419936502648145
1746552765097126700,0.913126708984375,0.11649170548319816,0.2984410947829485,-0.7146797169506549
1746552765107124700,0.923124755859375,-0.05956687221229076,0.007672142063081264,-0.8992946721978485
1746552765117122000,0.9331220703125,-0.3158329590886831,0.31113486440032717,-0.8412469723768532
1746552765127120000,0.943119873046875,-0.44467853471040725,0.6835203163161874,-0.7114112897392362
1746552765137117000,0.953116943359375,-0.40086277385950086,0.8685983590304851,-0.6490628970496356
1746552765147114800,0.96311474609375,-0.2188333050608635,0.9809507727518677,-0.7107341211300343
1746552765157112800,0.97311279296875,0.08861877917349338,1.035628411617875,-0.8194958899483085
1746552765167109600,0.983109619140625,0.4899520931541919,0.9435469247698783,-0.9188253020979463
1746552765177107700,0.993107666015625,0.8992699761480093,0.6905833865702152,-0.8926284192416817
1746552765187104800,1.003104736328125,1.1112386561363934,0.41856677285432814,-0.7642291991479694
1746552765197102800,1.013102783203125,1.0145511367976665,0.2735042219251394,-0.7075659394226967
1746552765207100000,1.023099853515625,0.6610837358415126,0.34810324357450007,-0.7262611414119601
1746552765217097700,1.03309765625,0.2967974192291498,0.5085261529818177,-0.7658470096081494
1746552765227094800,1.0430947265625,0.2014735894590616,0.596264934450388,-0.68676514345631
1746552765237092600,1.053092529296875,0.20984628100693226,0.5891130168691278,-0.5155538596615195
1746552765247090000,1.06308984375,0.024186931273341178,0.5141371247313916,-0.3397330362446606
1746552765257087700,1.073087646484375,-0.149228438436985,0.40910555541738863,-0.1730528200082481
1746552765267084800,1.083084716796875,-0.2994108165979385,0.33930005165487526,-0.05167641122341156
1746552765277083000,1.093082763671875,-0.44022856956422324,0.3405640802413225,0.05736439373195171
1746552765287080700,1.103080810546875,-0.5334130492180585,0.390410937950015,0.1934101099908352
1746552765297078000,1.113078125,-0.6376099212735891,0.45253670086488124,0.3877098622977733
1746552765307075800,1.123075927734375,-0.6109077923089266,0.4311024293005466,0.6893336787700652
1746552765317073000,1.133072998046875,-0.4673416174173355,0.3461445107221603,1.0142860561206937
1746552765327070700,1.14307080078125,-0.18431202677786349,0.16699162027314304,1.2282155147880316
1746552765337067800,1.15306787109375,0.10385141961872577,-0.024086247377842665,1.3311904438331723
1746552765347065900,1.16306591796875,0.20655717633366583,-0.24027342184409498,1.3915955204352735
1746552765357063000,1.17306298828125,0.0698608872115612,-0.4728700254499912,1.3891782301604747
1746552765367061000,1.18306103515625,-0.20829788252115247,-0.6258499253749847,1.2906488823473452
1746552765377057800,1.193057861328125,-0.4317828127801418,-0.6804854786649346,1.2112620418995619
1746552765387055900,1.203055908203125,-0.6184294199854136,-0.7128413956075906,1.2234013925045728
1746552765397052700,1.213052734375,-0.7610358099341392,-0.7409653740689158,1.2910524947121738
1746552765407050800,1.22305078125,-0.9346019862920045,-0.7411005447559058,1.3519295727401972
1746552765417048800,1.233048828125,-1.1289619443535803,-0.7522007615715265,1.4082944340407848
1746552765427046000,1.2430458984375,-1.324040279817581,-0.7809830578111112,1.4501324650779366
1746552765437044000,1.2530439453125,-1.4633347687393425,-0.8637678701341152,1.540642172564566
1746552765447040800,1.263040771484375,-1.5520044013172387,-0.9600997079029678,1.6651751456841826
1746552765457038800,1.273038818359375,-1.5765104815423487,-1.0617246836438774,1.7017317291870713
1746552765467035600,1.28303564453125,-1.5206442174136638,-1.109071395099908,1.7164952908158302
1746552765477033700,1.29303369140625,-1.427633925282955,-1.1137212667323648,1.7095272053688764
1746552765487030800,1.30303076171875,-1.2947592402756214,-1.0717752452760934,1.6780957097947597
1746552765497028900,1.31302880859375,-1.1814116780370474,-1.0207578824833035,1.6426497178822754
1746552765507025700,1.323025634765625,-1.0558429321289062,-1.042655533775687,1.6184282998174429
1746552765517023700,1.333023681640625,-0.9311053763478994,-1.1634773774176834,1.6366542768597603
1746552765527021000,1.34302099609375,-0.8297147938847541,-1.3111764143303035,1.6261644470274448
1746552765537019000,1.353018798828125,-0.7903437374830246,-1.4206174706496297,1.6282944447934626
1746552765547017000,1.363016845703125,-0.7414017196595668,-1.5011733548767865,1.6311013189077377
1746552765557013800,1.373013671875,-0.6268108793616295,-1.5288289851740002,1.6312456958144903
1746552765567011800,1.38301171875,-0.4613771560549736,-1.5388966440714895,1.679011071074009
1746552765577008600,1.393008544921875,-0.31761049015522,-1.5708705759592354,1.7448463560312986
1746552765587006700,1.4030068359375,-0.24271920756101606,-1.5852293561793862,1.7762655766457318
1746552765597004000,1.413004150390625,-0.3005354367136955,-1.6134033112622796,1.7966081074506044
1746552765607001900,1.423001953125,-0.4284808486253023,-1.6362711227610707,1.8147838156104086
1746552765616999000,1.4329990234375,-0.6557791996926069,-1.6455941007710992,1.7836124322772025
1746552765626996700,1.442996826171875,-0.8744687123686075,-1.6586436980888246,1.704645278546214
1746552765636993800,1.452993896484375,-1.1187842492103577,-1.628147583668679,1.5909236222982406
1746552765646991600,1.46299169921875,-1.4594430219978094,-1.556344914739579,1.4731693495333193
1746552765656989000,1.472989013671875,-1.9409651404589414,-1.46280358447209,1.4021324042797088
1746552765666986800,1.48298681640625,-2.4846026465713975,-1.40412080161795,1.2457763059198856
1746552765676983800,1.49298388671875,-2.9603000044018026,-1.4029568724051118,1.019559904870391
1746552765686982000,1.50298193359375,-3.332758521553874,-1.4435172847218811,0.7115583700597286
1746552765696979700,1.512979736328125,-3.6384669769912956,-1.5661461777858434,0.2889426140755415
1746552765706976800,1.522976806640625,-3.9168823518335816,-1.6073109857365488,-0.1347246967881918
1746552765716974800,1.532974853515625,-4.217037849318981,-1.5671376730412243,-0.524094601252675
1746552765726972200,1.54297216796875,-4.625231696718931,-1.475064954021573,-0.86310619135499
1746552765736970200,1.55297021484375,-5.235213606354594,-1.383914610543847,-1.185655306956172
1746552765746967000,1.562967041015625,-6.097593237000703,-1.2976909098133445,-1.459177064538002
1746552765756965000,1.572965087890625,-7.1280497989386316,-1.254147243902087,-1.6600234620094299
1746552765766962200,1.582962158203125,-7.904962392440438,-1.3119161267817019,-1.7341805851101875
1746552765776960300,1.592960205078125,-8.18248987853229,-1.3896978701204061,-1.680861082854867
1746552765786957300,1.602957275390625,-7.91062874763906,-1.368581578464061,-1.4771809232622384
1746552765796955100,1.612955078125,-7.207095863124728,-1.2428852606534957,-1.209253040164709
1746552765806952200,1.6229521484375,-6.191916365295648,-1.0508393516879528,-0.9188637344121933
1746552765816950000,1.632949951171875,-5.07831916333437,-0.8522794577185064,-0.6683791535466909
1746552765826948000,1.642947998046875,-4.053188180333375,-0.7102326744139195,-0.439212670519948
1746552765836945400,1.6529453125,-3.1655221327394245,-0.5555854988638311,-0.30346856755614277
1746552765846943200,1.662943115234375,-2.497766664049029,-0.3745170571170747,-0.23272037611603735
1746552765856940300,1.672940185546875,-1.975330351397395,-0.19500315133593976,-0.22687866435050963
1746552765866938000,1.682938232421875,-1.5296376712083815,-0.026048414296284315,-0.20898498800247906
1746552765876935200,1.69293505859375,-1.1487433341443538,0.10303367349505424,-0.19628800351470707
1746552765886933000,1.70293310546875,-0.8936854540139436,0.25890154994651676,-0.30206337693333624
1746552765896930300,1.712930419921875,-0.7545359265208244,0.4718237312674522,-0.4921408353701234
1746552765906928400,1.722928466796875,-0.6647387512177229,0.680648852533102,-0.691145112106204
1746552765916925200,1.73292529296875,-0.6081143621981143,0.9218031488649546,-0.884635886117816
1746552765926923300,1.74292333984375,-0.511475942698121,1.140559150905907,-1.067729184755683
1746552765936920000,1.752920166015625,-0.35384617114067074,1.3239365271821617,-1.1498267454668878
1746552765946918100,1.762918212890625,-0.12033552142977713,1.4402708501465618,-1.0987418703958391
1746552765956915200,1.772915283203125,0.15497487313449382,1.5209652660615742,-0.9224261030688882
1746552765966913300,1.782913330078125,0.4327443512886762,1.5694512106806038,-0.7121762096971272
1746552765976910000,1.79291015625,0.742298376238346,1.628429030958563,-0.4913911860466003
1746552765986908200,1.802908203125,1.0772241583317517,1.7259657144725322,-0.32402561789453027
1746552765996906200,1.81290625,1.4237170441001652,1.915564449481666,-0.2495829558506608
1746552766006903300,1.8229033203125,1.723511891579628,2.1052944096550346,-0.26168489705473186
1746552766016901400,1.8329013671875,1.952172763171792,2.2622572417363522,-0.2841854826763272
1746552766026898200,1.842898193359375,2.1190730518996714,2.3386025225311515,-0.2456263271793723
1746552766036896300,1.852896240234375,2.252775419902801,2.4045301619470116,-0.16048516098856924
1746552766046893000,1.86289306640625,2.32914963453114,2.4343954311177134,0.017157471027970314
1746552766056891100,1.87289111328125,2.3810925877362488,2.457757017482817,0.1893529435545206
1746552766066888200,1.88288818359375,2.3832728543847796,2.464211892710626,0.35336364832073447
1746552766076886300,1.89288623046875,2.452104398548603,2.4991475970134136,0.4742594339817762
1746552766086883300,1.90288330078125,2.6088497884869573,2.5752660833150145,0.6061395549938082
1746552766096881200,1.912881103515625,2.8229601566791533,2.661199568927288,0.7659621604204178
1746552766106878200,1.922878173828125,3.1416818229466674,2.757053267790377,0.8677715528175234
1746552766116876000,1.9328759765625,3.5773850240409373,2.8787942721039057,0.869635593123734
1746552766126873300,1.942873291015625,3.906113120537996,2.94438727273792,0.7871040249094367
1746552766136871200,1.95287109375,3.992995285177231,2.8802637601345777,0.6156757373631
1746552766146869200,1.962869140625,3.8965743078202006,2.7426787054792046,0.4216767215684056
1746552766156866000,1.972865966796875,3.673543551069498,2.6657813437595963,0.242286661362648
1746552766166864100,1.982864013671875,3.384338486665487,2.6222850241214037,0.08437836512476206
1746552766176861200,1.992861083984375,3.1143145080715415,2.556330204437673,-0.05214402873516082
1746552766186859000,2.00285888671875,2.877306663894653,2.4890903133794664,-0.20806699637472628
1746552766196856300,2.012856201171875,2.598917592537403,2.3735201066553593,-0.28685557866841555
1746552766206854100,2.022854248046875,2.1954145333021877,2.204340182557702,-0.2557768420547247
1746552766216851200,2.032851318359375,1.8037474578112362,2.0736641766384243,-0.12475450691580772
1746552766226849000,2.04284912109375,1.5452894138485191,2.034108119058609,0.08739917425066232
1746552766236846300,2.052846435546875,1.4664508549332618,2.0538898011103273,0.3303513137847185
1746552766246844400,2.062844482421875,1.5699983231693506,2.06374162530005,0.5616127232640982
1746552766256841200,2.07284130859375,1.8294634983479976,2.0999138856604693,0.6727519618034362
1746552766266839300,2.08283935546875,2.205951124885678,2.1453768291965125,0.6587547083720564
1746552766276836000,2.092836181640625,2.5700053863078356,2.083227831536531,0.5826657404258847
1746552766286834200,2.102834228515625,2.849610263195634,1.9216160046055912,0.4269119918733835
1746552766296832000,2.11283203125,2.8872634097635745,1.6530489468216896,0.28525223512500525
1746552766306829300,2.122829345703125,2.6956992199003693,1.4225366021439432,0.15062603027522564
1746552766316827400,2.132827392578125,2.388328384208679,1.28016811260432,-0.0686363138526678
1746552766326824200,2.14282421875,2.0332570551872253,1.282074238486588,-0.2864981435328722
1746552766336822300,2.152822265625,1.70743169439435,1.3060945810213684,-0.46277504015415905
1746552766346819000,2.162819091796875,1.4339490997791289,1.3510332084223626,-0.5861331242755055
1746552766356817200,2.172817138671875,1.2050503277778626,1.3719912407770751,-0.7004010162293911
1746552766366814200,2.182814208984375,0.9758400056093931,1.356075586503744,-0.879137873223424
1746552766376812300,2.192812255859375,0.6235363877356052,1.2638254650905727,-1.0563155180767179
1746552766386809000,2.20280908203125,0.08804594772160053,1.1628761966541408,-1.3915753544300793
1746552766396807200,2.21280712890625,-0.6201122585058212,1.1065526902772485,-1.8853768164888023
1746552766406804000,2.222803955078125,-1.3247177406877277,1.138826628024876,-2.4317852486193177
1746552766416802000,2.232802001953125,-1.89969497243762,1.274379738461226,-2.949047958025336
1746552766426799400,2.24279931640625,-2.1931582788079975,1.436522019007057,-3.41532925273478
1746552766436797200,2.252797119140625,-2.2142577654600144,1.5399128353767095,-3.659106444916129
1746552766446794200,2.262794189453125,-2.0587544845372436,1.5436255722895265,-3.7257308344244953
1746552766456792000,2.2727919921875,-1.9340975927770137,1.467826819461584,-3.7093098609775303
1746552766466790100,2.2827900390625,-1.891007808113098,1.3421335703909396,-3.616882337170839
1746552766476787200,2.292787109375,-1.994391025698185,1.22735129917413,-3.434861636200547
1746552766486785300,2.302785400390625,-2.203449955719709,1.0529992331355809,-3.2344974692881103
1746552766496782300,2.3127822265625,-2.4948230118125676,0.8677447378758341,-3.060869918131828
1746552766506780200,2.3227802734375,-2.8109084843575953,0.6875945800177753,-2.9414672936379906
1746552766516777200,2.332777099609375,-3.010274287882447,0.45676082136593754,-2.8141256928384304
1746552766526775000,2.342775146484375,-2.9963790335208174,0.16007588606793433,-2.6441671855837106
1746552766536772400,2.3527724609375,-2.7576901043891904,-0.1208294058939442,-2.475159695443511
1746552766546770200,2.362770263671875,-2.4106933607518672,-0.35701311073899267,-2.252763144943118
1746552766556767200,2.372767333984375,-1.9884476071238517,-0.5128477425079793,-1.9909025990605353
1746552766566765300,2.382765380859375,-1.5661094990372657,-0.5353431770304218,-1.701728514316678
1746552766576762000,2.39276220703125,-1.2347270886391402,-0.4249393766261637,-1.4235709136277437
1746552766586760200,2.40276025390625,-1.0664876602619886,-0.2678308889964595,-1.1039923382699488
1746552766596757200,2.41275732421875,-1.0443331115990877,-0.06251138753185514,-0.7922264824897051
1746552766606755300,2.42275537109375,-1.1114701268047094,0.17343924377625808,-0.5186211382776499
1746552766616752000,2.432752197265625,-1.2208183902740477,0.34625001692324875,-0.3308452347815037
1746552766626750200,2.442750244140625,-1.3016034070819615,0.46111587477028365,-0.1584217987179756
1746552766636747000,2.4527470703125,-1.3024749292194842,0.46735856855213637,0.005942249530553817
1746552766646745000,2.4627451171875,-1.2642770082503556,0.3874260403877124,0.2103109759092331
1746552766656743200,2.4727431640625,-1.162749063143134,0.25203230349784717,0.44738837819099425
1746552766666740200,2.482740234375,-0.9925298591256141,0.037566564263030885,0.6856739872187375
1746552766676738300,2.49273828125,-0.7920037796497345,-0.22092300734911113,0.9073854780644178
1746552766686735000,2.502735107421875,-0.5751391443133353,-0.46620939851701254,1.0371604434907435
1746552766696733200,2.512733154296875,-0.3708680330902338,-0.680832538536936,1.074241343128681
1746552766706730200,2.522730224609375,-0.23446751204431054,-0.8944628681272268,1.0457008928209544
1746552766716728300,2.532728271484375,-0.178917474257946,-1.1000461579274385,1.0151157849431038
1746552766726725000,2.54272509765625,-0.21483517533540725,-1.2631745999664068,0.9973989264667034
1746552766736723200,2.55272314453125,-0.30878479414284227,-1.4537331199184058,1.0073545032918452
1746552766746720000,2.562719970703125,-0.42784079715609546,-1.6404687205813824,1.0370990686923265
1746552766756718000,2.572718017578125,-0.5860381394684314,-1.7985466742977498,1.1104892990738153
1746552766766715400,2.58271533203125,-0.7488993819385766,-1.9260703536659478,1.2413064670294522
1746552766776713200,2.592713134765625,-0.7854968819737433,-1.9430762873940168,1.4616215350806712
1746552766786710300,2.602710205078125,-0.6590683043658733,-1.882066961288452,1.705408079612255
1746552766796708000,2.6127080078125,-0.4823743513762951,-1.8218436709940433,1.9560674325227736
1746552766806705200,2.622705078125,-0.3202437612682581,-1.7933032206863164,2.163339479127526
1746552766816703000,2.632702880859375,-0.23511808490753172,-1.7904174361169338,2.30046597636044
1746552766826700300,2.6427001953125,-0.25673370438814164,-1.7978250820249317,2.3763597139954564
1746552766836698400,2.652698486328125,-0.34182781656682487,-1.8600436377897858,2.382524666365981
1746552766846696200,2.6626962890625,-0.45182256124615666,-1.9069852755762635,2.361349776390195
1746552766856693200,2.672693359375,-0.5987117430806159,-1.9643261423021554,2.3969664486944673
1746552766866691000,2.682691162109375,-0.7763035216927527,-2.015044522148371,2.466742580232024
1746552766876688100,2.692688232421875,-0.9310872561693191,-2.003425834416598,2.5442536899358035
1746552766886686200,2.702686279296875,-1.0706634846419096,-1.9426266439303754,2.633804781523347
1746552766896683300,2.712683349609375,-1.1889666234612464,-1.8467219455324113,2.74004864923656
1746552766906681300,2.722681396484375,-1.2355004110991954,-1.6987436532869935,2.8562480937749144
1746552766916678100,2.73267822265625,-1.2097966455221176,-1.54831869854182,2.993544686877727
1746552766926676200,2.74267626953125,-1.1416741264104842,-1.4487018477529285,3.1416870836436748
1746552766936673300,2.75267333984375,-1.1341016453295945,-1.440262228448689,3.2102649453073737
1746552766946671400,2.76267138671875,-1.149822946074605,-1.4468250940956175,3.173649325093627
1746552766956668200,2.772668212890625,-1.139727668517828,-1.3989736479878425,3.1483529712736606
1746552766966666200,2.782666259765625,-1.108753853583336,-1.3358432380750775,3.0964369060754775
1746552766976663000,2.7926630859375,-1.050932948255539,-1.2710679835647345,2.969525513386726
1746552766986661000,2.8026611328125,-1.0270213267922401,-1.1699191009029746,2.8066075722932813
1746552766996658200,2.812658203125,-0.9979448699116706,-1.0591999874718487,2.4865853448212145
1746552767006656300,2.82265625,-0.9499965393006801,-0.9439819551862776,2.023370451945066
1746552767016653300,2.8326533203125,-0.9937772288382053,-0.9136164814084767,1.548039004817605
1746552767026651100,2.842651123046875,-1.1649509571015835,-0.9801096457526087,1.1430337243258952
1746552767036649200,2.852649169921875,-1.5275848303318023,-1.058861841558665,0.8282347844600677
1746552767046646000,2.86264599609375,-2.088417216873169,-1.0726943328823895,0.6046083999037742
1746552767056644000,2.87264404296875,-2.8246476713746786,-1.0273625414453447,0.3971832085639238
1746552767066641200,2.88264111328125,-3.5976194182962176,-0.9978354181878268,0.16447569192945957
1746552767076639200,2.89263916015625,-4.234593964275717,-1.0080874937415123,-0.12830021669864652
1746552767086636300,2.90263623046875,-4.570276117694378,-0.9896382293373346,-0.42545068714916706
1746552767096634000,2.912634033203125,-4.621347548761964,-0.8690821970246732,-0.7763514524877071
1746552767106631200,2.922631103515625,-4.366573746269941,-0.630400501351431,-1.2091203536957502
1746552767116629200,2.932629150390625,-3.8484459444671866,-0.30364659100417046,-1.6351111390709876
1746552767126626300,2.942626220703125,-3.231947200283408,0.014061368176154792,-2.012671363276243
1746552767136624000,2.9526240234375,-2.572180392259359,0.2964137902064249,-2.287194991376996
1746552767146621200,2.96262109375,-2.0520687231630084,0.5215244585037231,-2.4410358920454978
1746552767156619300,2.972619384765625,-1.757203148779273,0.6246752555724233,-2.446777650567889
1746552767166616300,2.9826162109375,-1.851234600651264,0.644338937267661,-2.462173372620344
1746552767176614400,2.992614501953125,-2.378640518409014,0.6054497460987418,-2.5791134063929317
1746552767186611200,3.002611083984375,-3.200855896449089,0.5365238747149705,-2.8098230272084472
1746552767196609300,3.012609375,-3.945928998097777,0.4896322866152972,-3.10281053276062
1746552767206606000,3.022606201171875,-4.566885890734196,0.42580140028297897,-3.3650779058784246
1746552767216604200,3.032604248046875,-4.9615679301321505,0.31169965867623683,-3.4816876847833393
1746552767226602000,3.04260205078125,-5.115418183150887,0.2345519206584431,-3.430765891319513
1746552767236599300,3.052599365234375,-4.965900406378507,0.16187285248730332,-3.2513311151891946
1746552767246597400,3.062597412109375,-4.511004429036379,0.1890294472211972,-2.946927312609553
1746552767256594200,3.07259423828125,-3.7282758427321907,0.4133393205296248,-2.590072022780776
1746552767266592300,3.08259228515625,-2.723105113220215,0.7674681810691952,-2.214771560201049
1746552767276589000,3.092589111328125,-1.7466548667579889,1.2001901013303546,-1.9553765276491641
1746552767286587100,3.102587158203125,-0.8832774572461843,1.6986173965588212,-1.7722364672601223
1746552767296584200,3.112584228515625,-0.23106384108066558,2.1680578859515487,-1.657455072826147
1746552767306582300,3.122582275390625,0.20483575936853884,2.4428195605918765,-1.5389315692543983
1746552767316579000,3.1325791015625,0.44377252578139303,2.5245956342637537,-1.4178934525132179
1746552767326577200,3.1425771484375,0.5140145212650299,2.5068077563777567,-1.3529267670840024
1746552767336574000,3.152573974609375,0.48265725997090336,2.362244094881415,-1.2062065120756627
1746552767346572300,3.162572265625,0.3933288712233305,2.155225438515842,-0.9392062652170657
1746552767356569300,3.1725693359375,0.34367724382579323,2.002488261305541,-0.6999035881012677
1746552767366567200,3.182567138671875,0.36885493970215316,1.959309044792503,-0.5700789383143187
1746552767376564200,3.192564208984375,0.5218079516202211,2.062759190133959,-0.4954951142340898
1746552767386562000,3.20256201171875,0.7880319534093141,2.234482953495532,-0.45349020219743247
1746552767396559400,3.212559326171875,1.0595780270040034,2.3592744314208627,-0.37244565767049786
1746552767406557200,3.22255712890625,1.3033604798823595,2.4109710086494682,-0.23785656996071336
1746552767416554200,3.23255419921875,1.4952829816639424,2.4340208987168968,-0.12119769121706485
1746552767426552300,3.24255224609375,1.6931711138516663,2.4202893104843795,-0.023828034833073615
1746552767436550100,3.252550048828125,1.8946435342669485,2.4157667184934017,0.11873977667093276
1746552767446547200,3.262547119140625,2.0841361785531043,2.3688259574897588,0.30028116969168184
1746552767456545000,3.272544921875,2.2250147217959166,2.302712440112978,0.44523207693994044
1746552767466542300,3.282542236328125,2.3352590573221446,2.2433042655937374,0.5980804594397544
1746552767476540200,3.2925400390625,2.4675065503418443,2.2105419598072764,0.7776449994295835
1746552767486537200,3.302537109375,2.6725246805399654,2.173726871498674,0.9612731355965137
1746552767496535300,3.312535400390625,2.9177134930849076,2.14111098844558,1.129813008224964
1746552767506532000,3.322531982421875,3.0929373735219237,2.095585793328285,1.2265753463655709
1746552767516530200,3.3325302734375,3.176313575866818,2.0230589017778633,1.2351660645782947
1746552767526527200,3.34252734375,3.205995597425103,1.971294520010054,1.2186404617130755
1746552767536525300,3.352525390625,3.2331659284234044,1.9743395867943763,1.2464134347796438
1746552767546522000,3.362522216796875,3.3127509217917916,1.9777938189014792,1.312362116983533
1746552767556520200,3.372520263671875,3.389599768194556,1.9522417367547749,1.4431179101407527
1746552767566517000,3.38251708984375,3.481199609005451,1.884967066644132,1.561112421402335
1746552767576515000,3.39251513671875,3.5452544402867554,1.8430930875107645,1.5880752471297979
1746552767586512100,3.40251220703125,3.571770106768608,1.814102555347979,1.558316653203964
1746552767596510200,3.41251025390625,3.5789527117490767,1.798898848736286,1.4779530766785145
1746552767606507300,3.42250732421875,3.5641818435966965,1.7663909561023114,1.358759126499295
1746552767616505000,3.432505126953125,3.506032436966896,1.725613540033996,1.228436464062333
1746552767626502400,3.44250244140625,3.445444989535212,1.6718644141897558,1.1038403625786304
1746552767636500200,3.452500244140625,3.4787218207150694,1.6240148677781223,1.0947364341467618
1746552767646498300,3.462498291015625,3.5795331419855354,1.6224407503291964,1.1771908454716205
1746552767656495000,3.4724951171875,3.7459319109320637,1.6281410077974199,1.2679805389434098
1746552767666493200,3.4824931640625,3.9137259336292742,1.6427727597400545,1.3886439771533012
1746552767676490200,3.492490234375,4.031590681031346,1.6579805580049751,1.4502332951039074
1746552767686488000,3.502488037109375,4.093867981246113,1.640660589891672,1.4160101229846476
1746552767696485400,3.5124853515625,4.010291872414946,1.5983511419504879,1.279360595613718
1746552767706483200,3.522483154296875,3.814545428431034,1.5330110931642353,1.1671031666994094
1746552767716480300,3.532480224609375,3.508601995193958,1.4676289588019251,1.0094845010578632
1746552767726478000,3.54247802734375,3.0528660598963495,1.489951265247166,0.8327069614380598
1746552767736474400,3.552474365234375,2.506574824404716,1.568686656048894,0.5706313115000724
1746552767746472400,3.562472412109375,1.866268503654003,1.6382596662297844,0.22466975612938403
1746552767756469200,3.57246923828125,1.317094990724325,1.7099881008788942,-0.17197160064280032
1746552767766467300,3.58246728515625,0.9637889178097248,1.7919132276326417,-0.5647153654545545
1746552767776464100,3.592464111328125,0.6090110187768936,1.8148668177187441,-0.8223106551080942
1746552767786462200,3.602462158203125,0.1710012943059206,1.6948304253660142,-0.9561252513140439
1746552767796459500,3.61245947265625,-0.2338034951776266,1.565778659647703,-1.0344541071414948
1746552767806457300,3.622457275390625,-0.49748950292170047,1.5632953183993696,-1.3280512690246105
1746552767816454400,3.632454345703125,-0.6245505332142114,1.7620546804636716,-1.874959175109863
1746552767826452200,3.6424521484375,-0.6113391694635153,2.0144930257454514,-2.5343618259966374
1746552767836449300,3.65244921875,-0.6006757366299629,2.2688830896168946,-3.1091075870782134
1746552767846447000,3.662447021484375,-0.7646037315487861,2.4738509509325026,-3.62055430368185
1746552767856444400,3.6724443359375,-1.2255799055874348,2.582726920714974,-4.0592876662522555
1746552767866442200,3.682442138671875,-1.6621142968088387,2.5759397447928785,-4.204491086956859
1746552767876440300,3.6924404296875,-1.8333645974397659,2.529758716115355,-4.091653227806091
1746552767886437400,3.702437255859375,-1.8777625420928001,2.496609018446505,-3.8396360305458304
1746552767896435200,3.712435302734375,-2.096235197147727,2.331061605632305,-3.6184798354953527
1746552767906432500,3.7224326171875,-2.6029057853907345,1.9819962390273809,-3.5766923656016587
1746552767916430300,3.732430419921875,-3.3205314926654097,1.5618528645060956,-3.700885731503367
1746552767926427400,3.742427490234375,-4.155922578620911,1.0499614728748798,-3.839845873904228
1746552767936425200,3.75242529296875,-5.046880653497577,0.38315439095050097,-3.79088573590219
1746552767946422300,3.76242236328125,-5.8338780031621456,-0.40566052953004833,-3.593803074878454
1746552767956420400,3.77242041015625,-6.298260770773887,-1.1528690357722342,-3.3040772014707325
1746552767966417400,3.78241748046875,-6.2571314725279805,-1.703169214644283,-2.895207062244415
1746552767976415500,3.79241552734375,-5.723564694052934,-2.0122588369525967,-2.4663199709057806
1746552767986412300,3.802412353515625,-4.936258716830611,-2.1225838364996017,-2.043380389794707
1746552767996410400,3.812410400390625,-4.095075603470206,-2.0860482957847415,-1.7132687299847602
1746552768006407200,3.8224072265625,-3.258769740757346,-1.8506351734533906,-1.5154033941507339
1746552768016405200,3.8324052734375,-2.587327692508697,-1.5520174069292842,-1.3463736921787262
1746552768026402300,3.84240234375,-2.01674255823791,-1.284016458595544,-1.1305530129373074
1746552768036400400,3.852400390625,-1.5666004974246024,-1.0702014200881123,-0.8929244065135716
1746552768046397200,3.862397216796875,-1.3446891000926493,-0.9999354592069983,-0.6807189951598643
1746552768056395300,3.872395263671875,-1.201699848306179,-0.9695169400677084,-0.5430161593437195
1746552768066392300,3.882392333984375,-1.013684875357151,-0.8880316660359502,-0.44867432634830473
1746552768076390100,3.89239013671875,-0.7566063030540943,-0.8756332261033356,-0.35085751071870325
1746552768086388200,3.90238818359375,-0.5441711745977401,-0.929935894177109,-0.2396720949500799
1746552768096385300,3.91238525390625,-0.33251930547356606,-1.0726946982085703,-0.01094575690627098
1746552768106383400,3.92238330078125,-0.039106852507591244,-1.2545854891888797,0.28430151027143
1746552768116380200,3.932380126953125,0.2570622056901455,-1.5244875949688255,0.5482487993001938
1746552768126378200,3.942378173828125,0.4766624034702778,-1.7909245088562369,0.7592688002616167
1746552768136375600,3.95237548828125,0.6221504863351583,-1.9975667331248521,0.9183470170617103
1746552768146373400,3.962373291015625,0.764210348317027,-2.134279096598923,1.1298697068482637
1746552768156370400,3.972370361328125,0.964120341721177,-2.2265961457684633,1.3811474839180706
1746552768166368300,3.9823681640625,1.1780495081275701,-2.284973515935242,1.7006576702147722
1746552768176365300,3.992365234375,1.3153554535806178,-2.316103544344753,2.01398244587481
1746552768186363100,4.002363037109375,1.3837252254515886,-2.288943004088104,2.231515189731121
1746552768196360400,4.0123603515625,1.353569156640768,-2.183941391520947,2.379688566157222
1746552768206358500,4.022358642578125,1.3248784842073917,-2.0555087806142867,2.4566636692881585
1746552768216355300,4.032355224609375,1.3551882822751997,-1.9237138536676763,2.5599884346842763
1746552768226353400,4.042353515625,1.36223761626482,-1.8235344005599616,2.6848528317153453
1746552768236350200,4.05235009765625,1.2464625346183775,-1.7778025769546626,2.8230945967137813
1746552768246348300,4.062348388671875,0.9992541989445686,-1.746617165096104,2.9496324799150226
1746552768256345300,4.072345458984375,0.7758803278446197,-1.639213605953753,3.002780717256665
1746552768266343400,4.082343505859375,0.6385434027314185,-1.5033841627940534,2.968718873178959
1746552768276340200,4.09234033203125,0.5309902059853077,-1.3160367138430475,2.8619565345495936
1746552768286338300,4.10233837890625,0.2870633762001991,-1.0804651860795915,2.6786545615971087
1746552768296335000,4.112335205078125,-0.05708382322490215,-0.8528744279369711,2.5065210483908653
1746552768306333200,4.122333251953125,-0.2880126397490501,-0.7577499201312661,2.369473461613059
1746552768316331300,4.132331298828125,-0.25284546477794645,-0.7689421991445123,2.2209294983088967
1746552768326328300,4.142328369140625,-0.014400865796208381,-0.8891400656692683,1.9760469752341507
1746552768336326400,4.152326416015625,0.24583996993005275,-1.0732717674441634,1.711079695507884
1746552768346323200,4.1623232421875,0.35749709486365316,-1.2342474884286523,1.4460592242896555
1746552768356321300,4.1723212890625,0.21489596561193464,-1.369840638614446,1.2413842084407805
1746552768366318300,4.182318359375,-0.23336042758524417,-1.3879329062744974,1.1172434495091437
1746552768376316400,4.19231640625,-0.9675690208703279,-1.2826261732809245,1.0785364099740982
1746552768386313200,4.202313232421875,-1.772981148147583,-1.0675558009501547,1.062969423007965
1746552768396311300,4.212311279296875,-2.4296564198970794,-0.8814346058584749,1.1262456711322069
1746552768406308400,4.222308349609375,-2.8685703997313974,-0.7530417424403131,1.3038456330507993
1746552768416306200,4.23230615234375,-3.1216204471707343,-0.6609460809364914,1.4572475577801465
1746552768426303500,4.242303466796875,-3.2831051405906675,-0.6020485593531281,1.4286650218963621
1746552768436301300,4.25230126953125,-3.394323874107003,-0.5398477584406733,1.2134522454202175
1746552768446298400,4.26229833984375,-3.475692243760824,-0.46051549772433936,0.871110634112358
1746552768456296200,4.272296142578125,-3.4509669678270813,-0.32830811751931904,0.46894788357019423
1746552768466293200,4.282293212890625,-3.4986563552409407,-0.21128164757229387,0.04219663521647453
1746552768476291300,4.292291259765625,-3.72010890288949,-0.11160196068026125,-0.4172393236428499
1746552768486288400,4.302288330078125,-4.0008565200716255,0.0036863603625446554,-0.8629466168791056
1746552768496286500,4.312286376953125,-4.2057863874644035,0.13932641842998564,-1.2704951521128416
1746552768506283300,4.322283203125,-4.362658034130931,0.26593429812751707,-1.6886422382503747
1746552768516281300,4.33228125,-4.602463400071859,0.39659554486908016,-2.128331294110417
1746552768526278100,4.342278076171875,-4.943220957058668,0.5028818634845316,-2.6029373495727777
1746552768536276200,4.352276123046875,-5.351408959239721,0.5893779514156282,-3.0435265691429376
1746552768546273300,4.362273193359375,-5.73362431577444,0.5938559736125171,-3.3612790981173513
1746552768556271400,4.372271240234375,-5.955471415698528,0.4567304992929101,-3.4364410143464803
1746552768566269400,4.38226953125,-5.836758527034521,0.2175717606924474,-3.2462861067593094
1746552768576266200,4.392266357421875,-5.435059886872768,-0.10110402060672641,-2.749903103774786
1746552768586264300,4.402264404296875,-4.953055537852644,-0.370556190662086,-1.9995687205970285
1746552768596261400,4.412261474609375,-4.417557499054074,-0.2341309735663235,-1.302472006610036
1746552768606259500,4.422259521484375,-3.69979852078855,0.3137204239141196,-0.9539116669178008
1746552768616256300,4.43225634765625,-2.743179932999611,1.014300376906991,-0.7213795068502425
1746552768626254300,4.44225439453125,-1.6498714858293533,1.7477435387775302,-0.6383060868442059
1746552768636251100,4.452251220703125,-0.6071124916791916,2.413445435938984,-0.6248924785196781
1746552768646249200,4.462249267578125,0.26998949180245396,2.885731377890706,-0.588069937556982
1746552768656246500,4.47224658203125,0.9602987376064062,3.106896633030474,-0.4897317284017801
1746552768666244400,4.482244384765625,1.4009060773551463,3.0590465020969506,-0.3778156602710485
1746552768676241400,4.492241455078125,1.6235335140019653,2.799853714118898,-0.24345570514202117
1746552768686239200,4.5022392578125,1.6591735671818255,2.356426494643837,-0.060305123358964915
1746552768696236300,4.512236328125,1.5623679744213819,1.890816084933281,0.02063712983727455
1746552768706234000,4.522234130859375,1.4317787700027227,1.5777368084669112,-0.009037292936444282
1746552768716231400,4.5322314453125,1.3820523238033056,1.4459244919940828,-0.08390577917695045
1746552768726229500,4.5422294921875,1.4971797551959751,1.387705088867992,-0.10922200674116611
1746552768736226000,4.55222607421875,1.7238824784576892,1.3955737764164804,-0.06996668567359447
1746552768746223900,4.562223876953125,1.9650421816170214,1.4823117102794348,-0.030503859335184097
1746552768756221000,4.572220947265625,2.1553449732422827,1.5470742514386773,0.020567571732401847
1746552768766219000,4.582218994140625,2.2560224390000103,1.5445876953199504,0.09628361471295356
1746552768776216000,4.592216064453125,2.2795248951405287,1.464553789140284,0.14882278024554252
1746552768786214000,4.6022138671875,2.314922956258058,1.3259659871831535,0.24509411999881267
1746552768796212000,4.6122119140625,2.3819980121433733,1.1873983512312174,0.3838602011322975
1746552768806209000,4.622208984375,2.5249089379966256,1.0673373358938842,0.5013298117369414
1746552768816206800,4.632206787109375,2.8045933098614215,0.96248068475537,0.6555038898825645
1746552768826204200,4.6422041015625,3.1246260587275025,0.9292312530390918,0.833271609583497
1746552768836202000,4.652201904296875,3.3872084891438483,0.8784886155344546,0.9452776940852403
1746552768846199000,4.662198974609375,3.5877246317476033,0.8270301579106598,1.0274047731518745
1746552768856196900,4.67219677734375,3.7593005110710855,0.79506594369933,1.1148583079382777
1746552768866194000,4.68219384765625,3.8360236852675675,0.7494672449544072,1.187652618253231
1746552768876192000,4.69219189453125,3.859564135330915,0.7144532147184014,1.2464777321875096
1746552768886189000,4.70218896484375,3.8637013812661167,0.7150899051867425,1.2726605134531854
1746552768896187100,4.712187255859375,3.925309403917193,0.7344882870092988,1.2693486124262212
1746552768906184000,4.722183837890625,3.9844203490555286,0.7511950916603207,1.2229399124726652
1746552768916182000,4.73218212890625,4.029098279693723,0.7516128786809742,1.176882217913866
1746552768926178800,4.7421787109375,3.9926621077001094,0.7206199206545949,1.100711709164083
1746552768936177000,4.752177001953125,3.9072552763104436,0.630304858957231,1.0172510434061288
1746552768946174000,4.762174072265625,3.775000184506178,0.5656709126137197,0.9754901692584157
1746552768956172000,4.772172119140625,3.522410155794024,0.5503069008737802,1.0252522712931036
1746552768966168800,4.7821689453125,3.242614724770188,0.6213141816414892,1.0466475260213017
1746552768976167000,4.7921669921875,2.9387177026689053,0.7917880910724401,0.9779916306853293
1746552768986164000,4.8021640625,2.6170167283296584,1.0257346479825675,0.8891516099765896
1746552768996162000,4.812162109375,2.4066005384802818,1.2152264154858887,0.7850234192430973
1746552769006159000,4.8221591796875,2.245575279265642,1.279068480799347,0.6498375346839428
1746552769016157000,4.832156982421875,2.0263743099361657,1.3467910408079624,0.45668841371685265
1746552769026154000,4.842154052734375,1.711542052322626,1.4536834355577826,0.24994535942226648
1746552769036151800,4.85215185546875,1.4339724806547165,1.5373147817075252,0.012257131765782832
1746552769046150000,4.86214990234375,1.2957885833233593,1.5032026687473057,-0.23593261616081
1746552769056147200,4.872147216796875,1.2758715844541788,1.4887151475809515,-0.470535445022583
1746552769066145000,4.88214501953125,1.2882839067816734,1.5148387460052966,-0.6814376648232341
1746552769076142000,4.89214208984375,1.2458616461157799,1.5058486532114446,-0.8872048598229885
1746552769086140000,4.902139892578125,0.9882043971419334,1.5067567079670727,-1.0789756781741977
1746552769096137000,4.912136962890625,0.5353951629459858,1.55556413962543,-1.2764444159060715
1746552769106134800,4.922134765625,0.030378771650791166,1.6046671932294965,-1.5420777583256362
1746552769116132000,4.932132080078125,-0.5029033446639776,1.6085755988448858,-1.8728870450109243
1746552769126130000,4.9421298828125,-0.9057388799011706,1.6242713267572224,-2.211921139205992
1746552769136127000,4.952126953125,-1.1841548392653465,1.790892652413249,-2.563922267001867
1746552769146125000,4.962125,-1.3725877453655004,1.9943439716860651,-2.814657023236155
1746552769156121900,4.972121826171875,-1.425608556935191,2.1466857198379934,-3.0154730255693196
1746552769166120000,4.982119873046875,-1.3376374280154704,2.235909771428257,-3.2678421050071713
1746552769176117000,4.992116943359375,-1.2379320221602916,2.253478891997039,-3.4863211898028847
1746552769186115000,5.002114990234375,-1.2371885103166103,2.1430912024773656,-3.669479370370507
1746552769196112000,5.01211181640625,-1.3561591731339693,1.9680305497780441,-3.788753400048613
1746552769206110000,5.02210986328125,-1.6874509826391935,1.792328530435264,-3.828564601433277
1746552769216107000,5.03210693359375,-2.2241887923657893,1.6114086303137243,-3.7183366325199603
1746552769226105000,5.04210498046875,-2.908464018702507,1.4026158038824796,-3.441207790356874
1746552769236102000,5.052101806640625,-3.670790452969074,1.009222416055575,-2.988049596592784
1746552769246100000,5.062099853515625,-4.399183053451776,0.50712541933842,-2.4850842926084993
1746552769256097000,5.072096923828125,-4.954390585848689,-0.11202332789748906,-1.9420769010931251
1746552769266094800,5.0820947265625,-5.221781877851486,-0.7713052750140428,-1.3946224670410154
1746552769276092200,5.092092041015625,-5.221362191134691,-1.3116222584016621,-0.9859721080452203
1746552769286090000,5.102090087890625,-5.015401227128505,-1.6159163169965147,-0.6759662476748227
1746552769296087000,5.112087158203125,-4.647673830151557,-1.6979226922929287,-0.4874298812001943
1746552769306084900,5.1220849609375,-4.020921402978897,-1.5816476983003318,-0.3564496316373348
1746552769316083000,5.1320830078125,-3.087791827327013,-1.3064071541018782,-0.2838058357089758
1746552769326080000,5.142080078125,-2.0143588779717683,-0.9868728562772273,-0.18052432493269444
1746552769336077800,5.152077880859375,-1.059562244912982,-0.695088735165447,-0.07617781527340411
1746552769346075100,5.1620751953125,-0.2687105579078197,-0.4486944923534989,-0.0657522828489542
1746552769356073000,5.172072998046875,0.3443950367063284,-0.255474059715867,-0.005556465083360672
1746552769366070000,5.182070068359375,0.8522510353416204,-0.157861534486711,0.12377952440381049
1746552769376067800,5.19206787109375,1.304032680055499,-0.19960034293308854,0.30700492498874665
1746552769386065000,5.20206494140625,1.6664841824561356,-0.3374776585333049,0.6156383279621601
1746552769396063000,5.21206298828125,1.9387550631940365,-0.5225315897196531,0.986520974099636
1746552769406060000,5.22206005859375,2.0218261451125144,-0.7540775152288377,1.311837800848484
1746552769416058000,5.23205810546875,1.886041710138321,-0.9187962221339344,1.4527777188897133
1746552769426055000,5.242054931640625,1.6156728636294602,-0.9979496922172605,1.447078630465269
1746552769436053000,5.252052978515625,1.294256551450491,-1.0323043817617,1.389397425869107
1746552769446050000,5.262050048828125,0.9756225634664296,-1.0524250865094362,1.3578203843444585
1746552769456048000,5.272048095703125,0.7236901218801737,-1.0387640792950987,1.3579822969079016
1746552769466045000,5.282044921875,0.5547884302020073,-1.063313560270518,1.4037491918265819
1746552769476043000,5.29204296875,0.4328893127173185,-1.0656640689194201,1.5193465788185596
1746552769486039800,5.302039794921875,0.3194815447241068,-1.0815665714502334,1.6888538351744413
1746552769496038000,5.312037841796875,0.17316460981965065,-1.1575177383609114,1.8707739983797071
1746552769506035200,5.32203515625,-0.05971650981605053,-1.2214056886427105,2.0565596048414707
1746552769516033000,5.332032958984375,-0.4050999730378389,-1.2566437368929386,2.2114637508273125
1746552769526030000,5.342030029296875,-0.7465911049962043,-1.2763257579624652,2.3336960457891225
1746552769536028000,5.35202783203125,-0.9783885210484266,-1.3154925239637494,2.4594676207929846
1746552769546025000,5.36202490234375,-1.1146692151069642,-1.395203481799364,2.618829915231466
1746552769556022800,5.372022705078125,-1.1363093845069407,-1.495884162427485,2.7791251066058873
1746552769566020000,5.38202001953125,-1.1108148777663707,-1.605069490420073,2.9407015699625014
1746552769576018200,5.39201806640625,-1.0543237597376107,-1.672538514059037,3.074488693639636
1746552769586015000,5.402014892578125,-1.041171432697773,-1.7309734596319495,3.136184979096055
1746552769596013000,5.412012939453125,-1.027713400709629,-1.7762730292998252,3.121692343363166
1746552769606009900,5.422009765625,-0.9537824875801801,-1.8228803205654025,3.058220280405879
1746552769616008000,5.432008056640625,-0.8566080615073441,-1.8688881846331058,2.974104657870531
1746552769626005800,5.442005859375,-0.7188818448156118,-1.911774701809883,2.861967055943608
1746552769636003000,5.452003173828125,-0.5591548087179661,-1.930862117987126,2.799211616823077
1746552769646001200,5.462001220703125,-0.4205851269394159,-1.9647607343271374,2.759302215760946
1746552769655998000,5.471998046875,-0.442666610366106,-1.974969263000041,2.731107217890024
1746552769665996000,5.48199609375,-0.5637462281614541,-1.9262503864079712,2.6707810517430306
1746552769675993000,5.4919931640625,-0.6718640730530023,-1.8343701212204993,2.5896523360639807
1746552769685991200,5.5019912109375,-0.7289777068942784,-1.7707815922766923,2.5214625969350335
1746552769695988000,5.511988037109375,-0.8350304359495639,-1.773340921370685,2.494635964807868
1746552769705986000,5.521986083984375,-1.0519558615624904,-1.7466595429331062,2.500172556146979
1746552769715982800,5.53198291015625,-1.4259364737153053,-1.6490100466944275,2.4793945565342903
1746552769725981000,5.54198095703125,-1.8618816668719051,-1.473543151281774,2.502196170929074
1746552769735979800,5.551979736328125,-2.3454180477648974,-1.3289315589904784,2.535498136550188
1746552769745977900,5.561977783203125,-2.804568175420165,-1.1471424748189747,2.483755089831352
1746552769755974700,5.571974609375,-3.1545109093815085,-1.0445831408374011,2.4288258142918346
1746552769765972700,5.58197265625,-3.381885832816362,-1.055222169882059,2.3171856404930353
1746552769775969800,5.5919697265625,-3.448308562272787,-1.1182857981689274,2.083041953575611
1746552769785967900,5.6019677734375,-3.414328551259637,-1.190851122033596,1.7692010450869797
1746552769795965000,5.61196484375,-3.4452672948807477,-1.2359529771722852,1.3392127145081758
1746552769805962800,5.621962646484375,-3.5459032595843074,-1.1634566268905997,0.8357973286688327
1746552769815959800,5.631959716796875,-3.6611850047558545,-0.911457403678447,0.29918694471418855
1746552769825958000,5.6419580078125,-3.7198189800322052,-0.5134017961941659,-0.14080547800660131
1746552769835955000,5.651954833984375,-3.6341999671965834,-0.054713294701278205,-0.34050562805235385
1746552769845952800,5.661952880859375,-3.428455860811472,0.281937557619065,-0.2999608516961336
1746552769855949800,5.67194970703125,-3.217126063248515,0.4848873571105301,-0.1860416270494461
1746552769865948000,5.681947998046875,-3.035917847704887,0.5882017472431064,-0.10589081649184226
1746552769875945000,5.691945068359375,-2.929568181529641,0.6270553556419909,-0.1573117916494608
1746552769885943000,5.701943115234375,-2.9105326416701076,0.6605836773648858,-0.4758849893569946
1746552769895939800,5.71193994140625,-2.9965175652086735,0.7324151339970528,-0.9684943190217018
1746552769905938000,5.72193798828125,-3.1729601737856865,0.7949687669351696,-1.4910709169268608
1746552769915934700,5.731934814453125,-3.407084571480751,0.7586324020542204,-1.963839820089936
1746552769925932800,5.741932861328125,-3.726703478848934,0.656763534554839,-2.344209256497025
1746552769935931000,5.751930908203125,-4.185847176763415,0.5525277917936444,-2.5658646332412958
1746552769945928000,5.761927978515625,-4.821417116641998,0.4154549244441092,-2.5602730968445537
1746552769955926000,5.771926025390625,-5.540408851572871,0.3001917378425598,-2.347512974217534
1746552769965922800,5.7819228515625,-6.10341799763143,0.28783246087655423,-1.976900377193093
1746552769975921000,5.7919208984375,-6.370995752117038,0.3740601071298122,-1.5936749668329953
1746552769985917700,5.801917724609375,-6.351082844901084,0.6040072191402316,-1.2139262926727532
1746552769995915800,5.811915771484375,-5.979584112691879,0.9117658851057291,-0.8529612294375896
1746552770005912800,5.821912841796875,-5.2526282670140265,1.3422934371277688,-0.5512392132878303
1746552770015911000,5.831910888671875,-4.289534930253029,1.933056997682899,-0.48729836377501484
1746552770025907700,5.84190771484375,-3.3530525370419024,2.5617525217473505,-0.6745850224494934
1746552770035905800,5.85190576171875,-2.4872020154148338,3.1251392689466475,-0.8758984529107808
1746552770045902800,5.86190283203125,-1.745997864153981,3.5020649946406484,-0.9417693937033415
1746552770055901000,5.87190087890625,-1.176755376663804,3.679410105015337,-0.8584785315543413
1746552770065898000,5.88189794921875,-0.7288970428735018,3.6728649211555715,-0.6475193208694457
1746552770075895800,5.891895751953125,-0.39434009409248827,3.571031855621934,-0.34076924742460246
1746552770085892900,5.901892822265625,-0.16495266179144383,3.4144992316514253,0.021261399215459824
1746552770095890700,5.911890625,-0.0015898995399475098,3.3857702730342742,0.22864567402303218
1746552770105888000,5.921887939453125,0.11654255888760089,3.5626533188551663,0.2687058817327022
1746552770115886000,5.931885986328125,0.2748930459350347,3.8131945983439683,0.19669687657654283
1746552770125883000,5.9418828125,0.5280079753041267,4.032976582431793,0.11152794559597969
1746552770135881000,5.951880859375,0.8782833022207022,4.182808831980824,0.060784431308507914
1746552770145877800,5.961877685546875,1.29308341601789,4.2591371616408225,0.05121522345244884
1746552770155875800,5.971875732421875,1.6704963407069444,4.2234512234926225,0.10862930154502391
1746552770165873000,5.981872802734375,1.9704314734399317,4.097468051564693,0.2139747591137886
1746552770175871000,5.99187109375,2.1184183873832225,3.928336935044825,0.3933592663615942
1746552770185867800,6.00186767578125,2.1016385174959895,3.832320446835458,0.6012216800749302
1746552770195865900,6.011865966796875,1.9758780484080314,3.8246526886865495,0.8155658570230007
1746552770205862700,6.021862548828125,1.9179361470490692,3.849458336380124,0.9922107101738452
1746552770215860700,6.03186083984375,2.0084692354112863,3.905406433573365,1.1860457675784826
1746552770225858000,6.041858154296875,2.199914182808995,3.9283074166893956,1.3858014472037552
1746552770235856000,6.05185595703125,2.4985528459906576,3.8991596481382844,1.6083499733954667
1746552770245853000,6.06185302734375,2.7747137199044225,3.8303374563246964,1.842722792893648
1746552770255850800,6.071850830078125,3.044943450203538,3.728553782890737,2.0536217978239057
1746552770265847800,6.081847900390625,3.252195038542151,3.622497838965058,2.273391506952047
1746552770275846000,6.091845947265625,3.4286130971997975,3.567633445355296,2.397935001465678
1746552770285843000,6.101843017578125,3.536381982523203,3.560080253496766,2.483559274998307
1746552770295841000,6.111841064453125,3.5656998469442125,3.5731028166770935,2.479726564967632
1746552770305838800,6.1218388671875,3.5965666943728922,3.562204406043887,2.4223604176700113
1746552770315836000,6.1318359375,3.5930367666810747,3.4825568688333033,2.3851889171391725
1746552770325833700,6.141833740234375,3.560710368093848,3.3474797053456307,2.400578209450841
1746552770335831000,6.1518310546875,3.4650679738938805,3.1847464731693265,2.458380410078168
1746552770345828900,6.161828857421875,3.300447320535779,3.068349167971313,2.5043513031363487
1746552770355826000,6.171825927734375,3.0620962450563907,2.983758036878705,2.4469255346059797
1746552770365823700,6.18182373046875,2.7619588677495717,2.8997078807950016,2.2838778296530244
1746552770375820800,6.19182080078125,2.4785247879624364,2.8242449357926844,2.1304875953614713
1746552770385819000,6.20181884765625,2.2888895203351973,2.7239099998623133,1.9892069010585545
1746552770395816000,6.21181591796875,2.1969839745759963,2.5687629850313067,1.8774270265281199
1746552770405814000,6.22181396484375,2.103534706506133,2.402035276391357,1.7622376358151435
1746552770415810800,6.231810791015625,1.9693068533241747,2.273636129362881,1.645733655372262
1746552770425809000,6.241808837890625,1.79096513312757,2.162746189409494,1.5108616590678692
1746552770435805700,6.2518056640625,1.5779127495557068,2.067521728360653,1.3811989218443632
1746552770445803800,6.2618037109375,1.3700275394886732,1.9771410540811716,1.2503367457032204
1746552770455800800,6.27180078125,1.2718226013243197,1.8820137697964905,1.1340712501913308
1746552770465799000,6.281798828125,1.2351309932649135,1.7529959063477814,1.013548681756854
1746552770475795700,6.291795654296875,1.2480465889394283,1.5947750370293854,0.8551689686149359
1746552770485793800,6.301793701171875,1.2344564550042152,1.4445578798159957,0.7142547695368527
1746552770495790800,6.311790771484375,1.1467612204164266,1.2465220097206533,0.6737988405078649
1746552770505789000,6.321788818359375,0.949112742203474,1.079653723566234,0.6399257970005273
1746552770515786000,6.331785888671875,0.6567454143762588,1.0017416318461299,0.5723065512359142
1746552770525783800,6.34178369140625,0.4210778788924217,0.9992994993910193,0.4769646012872457
1746552770535780900,6.35178076171875,0.30276012702584265,1.0222039165731518,0.3712187462240457
1746552770545778700,6.36177880859375,0.29090368501543995,0.9616584816522896,0.22414660903811454
1746552770555776000,6.37177587890625,0.28223054921627044,0.8013440010555088,-0.020904840862751007
1746552770565774000,6.381774169921875,0.21765023275613785,0.5916226616024971,-0.3879682209730148
1746552770575771000,6.39177099609375,0.11494506056308745,0.3618084552567452,-0.7426514274597168
1746552770585769000,6.40176904296875,-0.03467208493053913,0.10131408316083251,-1.0265694913715124
1746552770595765800,6.411765869140625,-0.21224282075464723,-0.13404869722276924,-1.2624106298565865
1746552770605763800,6.421763916015625,-0.35333763709664345,-0.31712241437733174,-1.466233997312188
1746552770615761000,6.431760986328125,-0.4802724106609821,-0.37475218104720115,-1.650774572148919
1746552770625759000,6.441759033203125,-0.5946990003079176,-0.37517822443954646,-1.8207202199220656
1746552770635755800,6.451755859375,-0.7209013679444789,-0.4291008071545511,-1.8989315868496894
1746552770645753900,6.46175390625,-0.8107488121300935,-0.5248837788689881,-1.966162125557661
1746552770655750700,6.471750732421875,-0.8932938243478536,-0.6517698179207742,-2.0542156720638274
1746552770665748700,6.481748779296875,-0.9382757063686847,-0.7244226739384233,-2.267525245267153
1746552770675746000,6.49174609375,-0.8483160339802504,-0.5039256003838032,-2.6779630722016097
1746552770685743900,6.501743896484375,-0.576838933968544,-0.007768368979170918,-3.116732675129175
1746552770695741000,6.511740966796875,-0.19796528907716274,0.5971848988395184,-3.465738420501351
1746552770705738800,6.52173876953125,0.24863340004086493,1.111617280190438,-3.5948639821082353
1746552770715735800,6.53173583984375,0.7621820573598146,1.458571938251704,-3.3685371064215897
1746552770725733600,6.541733642578125,1.1606149737238882,1.508739552347362,-2.773036726602912
1746552770735730000,6.55172998046875,1.3037889344274998,1.2228167244844137,-1.9601853892356156
1746552770745727700,6.561727783203125,0.9964940865814685,0.5820933473654091,-1.2410861022770403
1746552770755724800,6.571724853515625,0.39477556290030474,-0.12182239898666739,-0.6779664815813302
1746552770765722600,6.58172265625,-0.40561727491021154,-0.6961983038425446,-0.23229893583357333
1746552770775720000,6.591719970703125,-1.155717849332094,-1.400860192386806,0.0046603930264711374
1746552770785718000,6.601718017578125,-1.6401099702715873,-2.1382363097921013,0.11177695192098618
1746552770795714800,6.61171484375,-1.807888210877776,-2.7869422100976107,0.060063131296634674
1746552770805713000,6.621712890625,-1.8039058632433413,-3.329680429282784,-0.050887891194224356
1746552770815710000,6.6317099609375,-1.7794143960654734,-3.6873359295785426,-0.08624269769191742
1746552770825708000,6.6417080078125,-1.9167460604816675,-3.9231875894576307,0.0963473275989294
1746552770835705900,6.651705810546875,-2.1322417455524203,-3.902007146523893,0.19856910018920898
1746552770845703000,6.661702880859375,-2.1171242559194563,-3.39097222559154,-0.00419277551472187
1746552770855701000,6.671700927734375,-1.7546347595959901,-2.7143390384405848,-0.36222003173232076
1746552770865697800,6.68169775390625,-1.0245628277242183,-2.139290495020151,-0.5329623828411102
1746552770875695900,6.69169580078125,-0.2495896778523922,-1.6744512158125637,-0.5649141028970479
1746552770885693000,6.70169287109375,0.3252110282868147,-1.364104871441424,-0.5281576129078864
1746552770895691000,6.71169091796875,0.6651105071395635,-1.1215044679544866,-0.5294231027990579
1746552770905687800,6.721687744140625,0.6514899780660868,-0.94942809176296,-0.6439367862075567
1746552770915686000,6.731685791015625,0.17044892112016677,-0.866785025998205,-0.6951391501784324
1746552770925682700,6.7416826171875,-0.6751496705949306,-0.8552011173188686,-0.6819511673033237
1746552770935680800,6.7516806640625,-1.7127777315974235,-0.8658473067566752,-0.5139075537592173
1746552770945677800,6.761677734375,-2.710710326549411,-0.9520622396588325,-0.18676292706131933
1746552770955676000,6.771676025390625,-3.4127889206022024,-1.0261654406152665,0.2628045487344265
1746552770965673000,6.7816728515625,-3.8316853638023134,-1.0840987202763557,0.7348223412692546
1746552770975670800,6.7916708984375,-3.9671956580102443,-1.1102497912295162,1.1696236250877379
1746552770985667800,6.801667724609375,-3.7235154964625834,-1.021127154187113,1.565592197164893
1746552770995665700,6.811665771484375,-3.1886849816620346,-0.7634196363307535,1.871249799197912
1746552771005663000,6.8216630859375,-2.550017075768113,-0.427528370206058,2.0888544392466546
1746552771015660800,6.831660888671875,-1.9571359385371208,-0.15177710000649094,2.1649743868529794
1746552771025657900,6.841657958984375,-1.551701618978381,0.0005706394948065281,2.1198241625279186
1746552771035656000,6.851656005859375,-1.29860364074409,0.06512669829651713,2.0577064367890356
1746552771045653000,6.861653076171875,-1.2325509136438368,0.04340440357103944,2.0737316889166832
1746552771055651000,6.871651123046875,-1.302027769973874,-0.021459406005591153,2.1602128715395925
1746552771065647900,6.88164794921875,-1.4180670555144548,-0.13735636046603322,2.2907278416782617
1746552771075646000,6.89164599609375,-1.5712439393162727,-0.25634514346197246,2.430721418780088
1746552771085642800,6.901642822265625,-1.678734592220187,-0.3460449958704412,2.546538586002588
1746552771095640800,6.911640869140625,-1.7506898213624953,-0.4068482780098915,2.651616917067766
1746552771105638000,6.921637939453125,-1.7505512896746396,-0.46684974224716425,2.742806423512101
1746552771115636000,6.931635986328125,-1.6947019766807556,-0.5223408894531428,2.859395159628987
1746552771125632800,6.9416328125,-1.622176838696003,-0.5573797618694604,2.9732571011304856
1746552771135630800,6.951630859375,-1.5833949803590774,-0.5718088308468461,3.1394863587290045
1746552771145628000,6.9616279296875,-1.6289719056636094,-0.5578085086755454,3.295578837716579
1746552771155625700,6.971625732421875,-1.7616314866155385,-0.5667126767516136,3.4692572422772643
1746552771165623000,6.981623046875,-1.9126538227319716,-0.5609978062361478,3.594560030725598
1746552771175620900,6.991620849609375,-2.036937205004692,-0.5282866461150348,3.6560903119653463
1746552771185618000,7.001617919921875,-2.1625503745764494,-0.4337451988942921,3.615267303189635
1746552771195615700,7.01161572265625,-2.2961557119458913,-0.2555431794293225,3.4752737260878086
1746552771205612800,7.02161279296875,-2.4874802478343248,-0.030489830809831617,3.289507408848405
1746552771215610600,7.031610595703125,-2.651352713173628,0.2091350639976561,3.087118458110094
1746552771225608000,7.04160791015625,-2.8470412894904613,0.41864670622274275,2.9144711501628158
1746552771235606000,7.05160595703125,-3.0335873589307067,0.6190013746544718,2.7462609478801485
1746552771245602800,7.061602783203125,-3.174820122438669,0.817000419870764,2.6374235565423962
1746552771255601000,7.071600830078125,-3.2562253169715403,1.0316207834117115,2.5702140606224537
1746552771265597700,7.08159765625,-3.2595015621632335,1.2307473713532089,2.506974637377262
1746552771275595800,7.091595703125,-3.1901322578608986,1.3983179605580867,2.506508773431182
1746552771285592800,7.1015927734375,-3.0724533884197474,1.5436346323788166,2.4987895773559807
1746552771295591000,7.1115908203125,-2.9119740726500747,1.6814990884974599,2.419597382697463
1746552771305587700,7.121587646484375,-2.727727512323856,1.8306449632175266,2.2730863865256308
1746552771315585800,7.131585693359375,-2.534666361901164,1.9936285168930887,2.056191940572858
1746552771325582800,7.141582763671875,-2.2826702074289322,2.1439093869924544,1.8166086929500103
1746552771335581000,7.151580810546875,-2.0092314519554377,2.350932865663618,1.5170418090075253
1746552771345578000,7.161577880859375,-1.7540788792788982,2.7591858959048983,1.1297229918539524
1746552771355575800,7.171575927734375,-1.5796400117397307,3.370347370713949,0.6760346367359161
1746552771365572900,7.18157275390625,-1.4342571428149937,4.09510482956469,0.25338147135078903
1746552771375570700,7.19157080078125,-1.4585288297623396,4.726775423917174,-0.09127776924967765
1746552771385568000,7.201568115234375,-1.867715779852867,5.018666366404295,-0.3485591706484556
1746552771395565800,7.21156591796875,-2.7445494677871465,4.888025431798398,-0.46480771502554413
1746552771405563000,7.22156298828125,-3.718534200918674,4.466532250103354,-0.3024631899058819
1746552771415561000,7.23156103515625,-4.6617654838681215,3.8385315764352677,0.05904723225235939
1746552771425557800,7.241557861328125,-5.326736290276051,3.19488558986783,0.44027357774972914
1746552771435555800,7.251555908203125,-5.514907915091515,2.6204341355577108,0.8140706500291824
1746552771445553000,7.261552978515625,-5.069754164084792,2.3513493375100194,1.1195523109734058
1746552771455551000,7.271551025390625,-3.9554637191623447,2.5146774668395517,1.1992331659317015
1746552771465547800,7.2815478515625,-2.547892338699102,3.031001726351678,1.0672025305330752
1746552771475545900,7.2915458984375,-1.1933774256408214,3.675173782619834,0.8370271627247333
1746552771485542700,7.301542724609375,-0.11444120269417762,4.287604254451394,0.527233483800292
1746552771495540700,7.311540771484375,0.6505225943386554,4.70815197198987,0.3018944501072168
1746552771505537800,7.321537841796875,1.1599673234701156,4.907940969362855,0.2195779859483242
1746552771515536000,7.331535888671875,1.4681775325953959,4.861802610783279,0.2854202851682901
1746552771525533000,7.341532958984375,1.5943717169255018,4.5984462733849885,0.49220367147326466
1746552771535530800,7.35153076171875,1.475035143405199,4.191829173782468,0.6623480566889047
1746552771545527800,7.36152783203125,1.0467688143134117,3.7429300987675784,0.7091355268269777
1746552771555526000,7.37152587890625,0.4487982449889183,3.3236262438103554,0.6107499713987111
1746552771565523000,7.38152294921875,-0.1339572195470333,2.975137215788662,0.4652174648702144
1746552771575520800,7.391520751953125,-0.4857400284171104,2.7076345723658797,0.37896833743751046
1746552771585517800,7.401517822265625,-0.565109917730093,2.5180197630047796,0.3418582117050886
1746552771595516000,7.411515869140625,-0.31571313210129737,2.3740061366066336,0.39190906755328175
1746552771605513000,7.421512939453125,0.12162146958708762,2.3158332029707727,0.44792438476383684
1746552771615511000,7.431510986328125,0.5934814412117004,2.335506017820537,0.45772389424443244
1746552771625507800,7.4415078125,0.9587778116494416,2.4008234163835644,0.4360965843260288
1746552771635506000,7.451505859375,1.1957570142537355,2.5001228717863557,0.3351888169437647
1746552771645502700,7.461502685546875,1.303245913591981,2.570924546979368,0.13829144935905932
1746552771655500800,7.471500732421875,1.200446633374691,2.6181901560232044,-0.004895955348014831
1746552771665497900,7.481497802734375,1.1016057353943585,2.6033108590602874,-0.07216857963204383
1746552771675496000,7.491495849609375,1.0511579891830682,2.474040043763816,-0.06737082396149635
1746552771685492700,7.50149267578125,1.0232798021763563,2.274787491355091,-0.10393033007383345
1746552771695490800,7.51149072265625,0.9949684844493866,2.0834005577549335,-0.1901940705537796
1746552771705489000,7.521489013671875,0.8244424064397812,1.903534988991916,-0.19854805740118026
1746552771715485700,7.531485595703125,0.5266261655569077,1.748827242361009,-0.22994389714002608
1746552771725483800,7.54148388671875,0.25848843910098074,1.7335279664203525,-0.33307577031254765
1746552771735481300,7.5514814453125,0.1345931793630123,1.7662571005895733,-0.40600072126984593
1746552771745478100,7.56147802734375,0.0874848067075014,1.7536396110787986,-0.37171734339594836
1746552771755476200,7.571476318359375,-0.05854512794911861,1.641579312171787,-0.23070903629362582
1746552771765473000,7.58147314453125,-0.36396366052925583,1.482259103309363,-0.21298867068588734
1746552771775471000,7.59147119140625,-0.6271802971959114,1.347458418675512,-0.3058224372059107
1746552771785469200,7.60146923828125,-0.6939566623955965,1.3248521807223557,-0.3747176942557096
1746552771795466200,7.61146630859375,-0.5148673387020826,1.317518769094348,-0.32031098128557206
1746552771805464300,7.62146435546875,-0.23680676864683628,1.284977850973606,-0.09172083684206009
1746552771815461000,7.631461181640625,-0.005472293931245803,1.2192002875529229,0.20372575230002402
1746552771825459200,7.641459228515625,0.1313648649662733,1.16391766853109,0.449807714292407
1746552771835456300,7.651456298828125,0.20944412994682787,1.1033808553081006,0.5798498062223195
1746552771845454300,7.661454345703125,0.2454541854828596,1.0050931342311202,0.6480196716070175
1746552771855451100,7.671451171875,0.26945640783905983,0.8038532804626971,0.6432540646404028
1746552771865449200,7.68144921875,0.3918015155255794,0.5955016219276934,0.6313578751415014
1746552771875446000,7.691446044921875,0.693649788403511,0.47576085152067243,0.6343623176544905
1746552771885444000,7.701444091796875,1.0699965451657771,0.3820409498158842,0.681754767948389
1746552771895441400,7.71144140625,1.2785796743690967,0.17588095610626042,0.7903127578228711
1746552771905439200,7.721439208984375,1.2237912686049937,-0.09716083593890071,0.8648878140747547
1746552771915436300,7.731436279296875,1.03252343133986,-0.35093254871629176,0.8209031263977289
1746552771925434000,7.74143408203125,0.8123416342794895,-0.47391610043682153,0.7549825012445449
1746552771935431200,7.75143115234375,0.5946306112468243,-0.4830724897082895,0.7359393626004457
1746552771945429000,7.761428955078125,0.3807441149383783,-0.381961162577942,0.7832885582745075
1746552771955426300,7.77142626953125,0.22285481566190718,-0.12654979283474385,0.9320148924082517
1746552771965424400,7.78142431640625,0.12023965983986853,0.2711521789062768,1.0938485453963278
1746552771975421200,7.791421142578125,0.05535246938765049,0.7368853382136672,1.1985212182700633
1746552771985419300,7.801419189453125,0.07290273912549018,1.239841070652008,1.2331482950150965
1746552771995416000,7.811416015625,0.13854396281540393,1.6463940189771353,1.2625935852080583
1746552772005414100,7.8214140625,0.25289456461668014,1.9113696281403303,1.2499240732491015
1746552772015411200,7.8314111328125,0.4190308832347393,2.0766680346295234,1.1629682588517665
1746552772025409300,7.8414091796875,0.57856210449934,2.1014465020552278,0.930458895137906
1746552772035406000,7.851406005859375,0.6777455323070287,1.9534587113291024,0.554011016088724
1746552772045404200,7.861404052734375,0.8430565060168504,1.7557688781924545,0.17752309729009866
1746552772055401000,7.87140087890625,1.1479694271624088,1.5579481121525167,-0.0724094026505947
1746552772065399300,7.8813994140625,1.5192670838415623,1.406541891285032,-0.2225160852268338
1746552772075396400,7.891396240234375,1.9318173728853463,1.3635164040289818,-0.4192065320625901
1746552772085394200,7.901394287109375,2.3072388314962384,1.3389870890587567,-0.7177648234844207
1746552772095391200,7.91139111328125,2.5277275025486943,1.3971607533469796,-1.0809878947794436
1746552772105389000,7.92138916015625,2.5083687220841644,1.5785943020790814,-1.6043766858503221
1746552772115386400,7.931386474609375,2.3133318876743316,1.8052081780135631,-2.2389333570331336
1746552772125384200,7.94138427734375,1.976055743062496,2.0607225697398186,-2.848307363903522
1746552772135381200,7.95138134765625,1.5536702887028455,2.3039041341155766,-3.328783772704005
1746552772145379300,7.96137939453125,1.1186048009902239,2.4311934202060104,-3.661203124934435
1746552772155376000,7.971376220703125,0.698853202265501,2.4724735250994563,-3.9217560953497883
1746552772165374200,7.981374267578125,0.2426829672038555,2.3910654079571363,-4.139111144551634
1746552772175371300,7.991371337890625,-0.3864104701370001,2.1238409969538448,-4.414088946160674
1746552772185369300,8.001369384765624,-1.1052771173834801,1.782114741065353,-4.6699943830311295
1746552772195366100,8.0113662109375,-1.7760493035465479,1.3881616004638373,-4.837790743815899
1746552772205364200,8.0213642578125,-2.4145909527122975,0.9747067637957632,-4.859948215088248
1746552772215361000,8.031361083984375,-2.9861218434005976,0.5859227694604545,-4.867633508893848
1746552772225359000,8.041359130859375,-3.426933181288838,-0.00838993494361639,-4.532611280688643
1746552772235356200,8.051356201171876,-3.726003806146979,-0.5491803810618817,-4.164005931833386
1746552772245354200,8.061354248046875,-3.8959833561897277,-0.874881677083671,-3.8835219340234994
1746552772255351300,8.071351318359374,-3.8263995323538778,-0.9794887373752892,-3.697929804307222
1746552772265349000,8.08134912109375,-3.481249877887964,-0.9002668782308697,-3.505079081764817
1746552772275346200,8.09134619140625,-2.9894711538285015,-0.7646271124243735,-3.2542741829037665
1746552772285344000,8.101343994140626,-2.5033190374791623,-0.7073359300591051,-3.0892285821318626
1746552772295341300,8.11134130859375,-2.05913500828743,-0.6960832991607486,-3.059510904738307
1746552772305339100,8.121339111328124,-1.5589724867641925,-0.6139794548392296,-3.023051936390996
1746552772315336200,8.131336181640625,-0.9702215812057257,-0.44077129813879723,-2.881563152295351
1746552772325334300,8.141334228515625,-0.09884615867733955,-0.2013134304612875,-2.526556705203652
1746552772335331300,8.151331298828126,0.6394879901051521,-0.172830993951112,-1.8497721268832683
1746552772345329400,8.161329345703125,1.0907383044213055,-0.2491185532093048,-1.308185708081722
1746552772355326200,8.171326171875,1.3761422229766844,-0.2231587670445442,-0.8899988744556904
1746552772365324300,8.18132421875,1.4518395612567663,-0.1157325576789677,-0.604151888307929
1746552772375321000,8.191321044921875,1.4193155942708253,-0.06717062521427869,-0.3753302731961012
1746552772385319200,8.201319091796876,1.3513929816454648,-0.15928119202628732,-0.07628536730110645
1746552772395316200,8.211316162109375,1.2543857288330793,-0.2758177595645189,0.24653613550066947
1746552772405314300,8.221314208984374,1.1615689134478568,-0.3049707888126373,0.5174801515489816
1746552772415311000,8.23131103515625,1.0489882439285516,-0.3173842801839113,0.7276683778613805
1746552772425309200,8.24130908203125,0.9666355394124985,-0.38464974407479163,0.8439630994677543
1746552772435306200,8.25130615234375,0.9217588713318109,-0.43507542458474635,0.9095733434975146
1746552772445304000,8.261303955078125,0.862684751072526,-0.4508252207718789,1.0127338582426308
1746552772455301400,8.27130126953125,0.7630278605341911,-0.4193551467530429,1.1610808376699686
1746552772465299200,8.28129931640625,0.6581564502179622,-0.3724634855881333,1.303719376322627
1746552772475296300,8.291296142578124,0.43577159015536304,-0.3256574568800628,1.4246598779082298
1746552772485294000,8.301294189453126,0.10557634371519088,-0.28339462455958125,1.5449445459336042
1746552772495291100,8.311291015625,-0.28308278213143345,-0.3444850530773401,1.6281319477081297
1746552772505289000,8.3212890625,-0.6342015741348266,-0.4588289328768849,1.6621674883008002
1746552772515286300,8.331286376953125,-0.8864940812051296,-0.5758515303663909,1.6364461870670317
1746552772525284400,8.341284423828125,-1.2446709750264882,-0.7093107372634112,1.5266735607057809
1746552772535281200,8.35128125,-1.6977455821603535,-1.000681893660128,1.3689450049489735
1746552772545279200,8.361279296875,-2.05077926787436,-1.3414920576170086,1.2463485528498888
1746552772555276000,8.371276123046876,-2.1770441793531177,-1.7108831500224768,1.2309925782859326
1746552772565274000,8.381274169921875,-2.1335656876325606,-2.093403042461723,1.323581430134177
1746552772575271200,8.391271240234374,-1.9780361032247542,-2.4134853295579553,1.5320295347809791
1746552772585269200,8.401269287109375,-1.735882128331065,-2.5814286975979805,1.8069477151572704
1746552772595266000,8.41126611328125,-1.3354536542356013,-2.519887894964218,2.109034472966194
1746552772605264100,8.42126416015625,-0.8640934488266706,-2.2711840600356457,2.3822470184683797
1746552772615261200,8.43126123046875,-0.37174598496854305,-1.9409920284658668,2.5459043797522782
1746552772625259300,8.44125927734375,0.06883329772949218,-1.5935910879418254,2.6362358080625534
1746552772635256300,8.45125634765625,0.3668108666539192,-1.2480460044175385,2.56673264824748
1746552772645254100,8.461254150390625,0.5432803632378578,-0.9426312712296843,2.462024319538474
1746552772655251200,8.471251220703126,0.6968208196550607,-0.7663428303010761,2.432816345232725
1746552772665249000,8.4812490234375,0.7211328386127949,-0.6966612451791763,2.458866732290387
1746552772675246300,8.491246337890624,0.7453402281522751,-0.6062804247692227,2.4768390268325806
1746552772685244200,8.501244140625,0.7954448600143194,-0.5054790403708815,2.485332714411616
1746552772695241200,8.5112412109375,0.8490595458239316,-0.4550362625956535,2.4880215151041747
1746552772705239300,8.5212392578125,0.844523071438074,-0.3986256624571979,2.4890643021553753
1746552772715236000,8.531236083984375,0.7454138779103755,-0.3097853494875133,2.4571762949854135
1746552772725234200,8.541234130859374,0.6206079330682754,-0.21190102157965301,2.3847224686712023
1746552772735231200,8.551231201171875,0.49202480777502056,-0.10917144559770822,2.2984692495852705
1746552772745229000,8.56122900390625,0.31540450454354285,-0.04008841089084744,2.185558909720182
1746552772755226000,8.57122607421875,0.058198506468534465,0.0035609073519706725,2.0840876632362604
1746552772765224000,8.581223876953125,-0.27900048125386234,0.00885872149914503,1.9834423461824655
1746552772775221000,8.591220947265626,-0.6542319702506065,0.09531520807221532,1.9359277308136225
1746552772785218000,8.601218017578125,-1.1102426308363675,0.16787264089137316,1.9726625934928654
1746552772795216100,8.611216064453124,-1.5669441962957382,0.20730667952671647,1.972782420480251
1746552772805213000,8.621212890625,-1.9222633625984191,0.29442601392269135,1.8147580966472625
1746552772815211000,8.6312109375,-2.1477356672823427,0.368517670571804,1.5239818374037741
1746552772825209000,8.641208984375,-2.217238242575526,0.33756504455581304,1.1192670642912388
1746552772835206100,8.6512060546875,-2.2089234186947344,0.21936419706717133,0.6144815591424703
1746552772845204200,8.661204345703124,-2.2919454007744786,0.05786620577424764,0.10756722527146338
1746552772855201000,8.671200927734375,-2.4948551605165004,0.022929478558152912,-0.33339901091754437
1746552772865199000,8.68119921875,-2.8266297851026057,0.12166399355456232,-0.6481161177188157
1746552772875196000,8.69119580078125,-3.2364877663224934,0.3276949540570378,-0.9264385535806416
1746552772885194000,8.701194091796875,-3.6438662056863307,0.5851208784930407,-1.190094166186452
1746552772895191000,8.71119091796875,-3.97800171418488,0.842012111530453,-1.470450738224387
1746552772905188000,8.72118798828125,-4.23089803236723,1.1080386910513043,-1.801622136220336
1746552772915186200,8.731186279296875,-4.450266759479046,1.3684469922989606,-2.127813407716155
1746552772925184000,8.74118408203125,-4.6216322109222405,1.5383198670968412,-2.4447283168226477
1746552772935181000,8.75118115234375,-4.827468671765923,1.618297366914153,-2.723465763226151
1746552772945178000,8.76117822265625,-5.079543736693263,1.5730572723485527,-2.9204624995321034
1746552772955176200,8.77117626953125,-5.245076244199276,1.342000299400091,-3.0008401045829056
1746552772965173000,8.781173095703124,-5.248026910698414,0.938628611459583,-2.9027386267930266
1746552772975171000,8.791171142578126,-5.13904338888824,0.48202480728626246,-2.6783751601338386
1746552772985168000,8.80116796875,-5.057133751964569,0.06709931354373692,-2.389643558460474
1746552772995166000,8.811166015625,-5.01201626086533,-0.20065803529247642,-2.116820889058709
1746552773005163000,8.8211630859375,-4.892421328669786,-0.1966736418314278,-1.9390981775432823
1746552773015161000,8.8311611328125,-4.482239522323012,0.049866000800579784,-1.8068787415742873
1746552773025158100,8.841158203125,-3.6816748350769277,0.5214670292280614,-1.619685021880269
1746552773035156000,8.851156005859375,-2.715788652727008,0.9161129743993282,-1.3633411935925484
1746552773045153000,8.861153076171876,-1.7546318369865417,1.136367982826382,-1.123683127167821
1746552773055151000,8.871151123046875,-0.9303916751205921,1.3189457331575452,-0.8533382460564375
1746552773065148200,8.881148193359374,-0.3132598937302828,1.3864477822832761,-0.6209101308852434
1746552773075146000,8.89114599609375,0.08862696247994899,1.3737402764014899,-0.39790100144445895
1746552773085143000,8.90114306640625,0.3576701133430004,1.2928726958766579,-0.22208149320185183
1746552773095141000,8.91114111328125,0.541661237603426,1.2115810447208584,-0.07154606381952762
1746552773105138200,8.92113818359375,0.612837299066782,1.111977711000666,-0.0008867197066545486
1746552773115136300,8.93113623046875,0.6444634404301643,1.05805322858952,0.0685229166060686
1746552773125133000,8.941133056640625,0.7208218729674816,1.068301431685686,0.09844166952967644
1746552773135131100,8.951131103515625,0.9075684334158897,1.1247064788661896,0.15063713619112967
1746552773145128000,8.9611279296875,1.1458780078411102,1.1814609240062535,0.20461364105045796
1746552773155126000,8.9711259765625,1.3982166921406984,1.1985673224341125,0.26432196756005283
1746552773165123000,8.981123046875,1.6123820053905247,1.2342531875170766,0.35735505604445933
1746552773175121200,8.99112109375,1.7279612722039221,1.2226638720102607,0.5360042347550392
1746552773185118000,9.001117919921874,1.6681921554177999,1.1490513771802187,0.7877332627236843
1746552773195116000,9.011115966796876,1.4325234508901834,1.1266598048910499,0.930341406238079
1746552773205113000,9.021113037109375,1.1844067681998014,1.2255572553642093,0.9178782305061817
1746552773215111000,9.03111083984375,1.064499116793275,1.3838590809643267,0.8998463147312402
1746552773225108200,9.041108154296875,1.1174100382477044,1.593429467639327,0.8920195666283368
1746552773235106000,9.05110595703125,1.2773767283201216,1.7399173751965165,0.8642553613901138
1746552773245103000,9.06110302734375,1.4478104518711565,1.8572078298419712,0.7299643798440695
1746552773255101000,9.071100830078125,1.6234166096240281,2.0497133922085164,0.5819868182510137
1746552773265098000,9.081097900390626,1.849741147223115,2.1180288035437465,0.6712187608867883
1746552773275096000,9.091095947265625,2.0916244884818793,2.081484787261486,0.9604682489544153
1746552773285093000,9.101093017578124,2.302482576879859,2.077386704292893,1.2722767748326063
1746552773295091200,9.11109130859375,2.431525720900297,2.181943057310581,1.471886908507347
1746552773305088000,9.121087890625,2.5106810906797645,2.2809471830286085,1.6040566601157187
1746552773315086000,9.131086181640624,2.51274153034091,2.3361266339369116,1.6867811205536125
1746552773325083100,9.141083251953125,2.531238141018152,2.321917345190048,1.6555208898931741
1746552773335081200,9.151081298828124,2.690431508630514,2.261829810104519,1.6060130548804998
1746552773345078000,9.161078125,2.954686256173253,2.200869291576743,1.5124632490456102
1746552773355076000,9.171076171875,3.2197558272302147,2.1469980006575584,1.4104302770256996
1746552773365073000,9.181072998046876,3.422638114443421,2.10867879139632,1.3247779464423655
1746552773375071000,9.191071044921875,3.5532793413102626,2.024923672736436,1.2649369334638119
1746552773385068300,9.201068359375,3.598447101292014,1.930465958276391,1.246294192314148
1746552773395066000,9.211066162109375,3.603351824468374,1.8948922483310102,1.239566929885745
1746552773405063200,9.221063232421875,3.637019116270542,1.898427875111252,1.195030453544855
1746552773415061000,9.23106103515625,3.7646705136716365,1.9545977983616292,1.0978051740676165
1746552773425058000,9.24105810546875,3.898134396743774,2.0504685944899914,0.9575748656004667
1746552773435055900,9.251055908203124,3.9325621515244245,2.1166997468970714,0.8220341762542724
1746552773445053200,9.26105322265625,3.722113812971115,2.0338070902854204,0.7792652941077948
1746552773455051300,9.27105126953125,3.3147751210957765,1.932134037619084,0.8585194480866193
1746552773465048000,9.281048095703126,2.7438053714215753,1.893985508749634,0.9762456638008356
1746552773475046100,9.291046142578125,2.172681892490387,1.9858885702908038,1.0427350287526844
1746552773485043000,9.30104296875,1.7309633766293524,2.0906452681861816,1.0939648652523755
1746552773495041000,9.311041015625,1.470885622510314,2.1066144062124192,1.1590057849615811
1746552773505038000,9.3210380859375,1.4016718010306357,2.0091360287569464,1.2555734773129223
1746552773515036200,9.3310361328125,1.3501269072324036,1.8467355356663464,1.377049400949478
1746552773525033000,9.341032958984375,1.1183131245672702,1.6933358028940855,1.451381296095252
1746552773535031000,9.351031005859374,0.7178133388012647,1.684063824418932,1.3275287064552306
1746552773545028000,9.361028076171875,0.32491175307929515,1.8139805364035069,0.9406739996820688
1746552773555026200,9.371026123046875,0.003440495842695236,1.8915553589932619,0.3887047185540199
1746552773565023200,9.381023193359376,-0.23828794711530207,1.8820665228970348,-0.2515197691321373
1746552773575021000,9.39102099609375,-0.36021745973825453,1.8406755049750207,-0.9782201787441969
1746552773585018000,9.40101806640625,-0.4366401896834373,1.7518568193152546,-1.687017267397046
1746552773595016000,9.411015869140625,-0.5008031575143337,1.6789520343631505,-2.3392595251351596
1746552773605013200,9.42101318359375,-0.6987059027493,1.5744937348924577,-2.930330982595682
1746552773615011000,9.431010986328126,-1.1799684934914112,1.4982454847313462,-3.4637481234669685
1746552773625008000,9.441008056640625,-1.7538842334896325,1.5122165808081627,-3.9879192970871924
1746552773635006000,9.451005859375,-2.1897937708109616,1.6576853744506834,-4.3823084910184145
1746552773645003000,9.4610029296875,-2.2887661862164737,1.833460312899202,-4.593848131939769
1746552773655001000,9.4710009765625,-2.0868343315958975,1.9789602323323487,-4.5991129206001755
1746552773664998100,9.480998046875,-1.7538789727926254,2.078230461640656,-4.550433353105187
1746552773674996200,9.490996337890625,-1.4883406151801346,2.14713507104069,-4.598052013370395
1746552773684993000,9.500992919921876,-1.3777110797286032,2.1254894948132335,-4.762557515916228
1746552773694991000,9.5109912109375,-1.4451298344850538,2.049488351280987,-5.056879484942555
1746552773704988000,9.52098779296875,-1.673119090425968,1.885485537560284,-5.3183039774954315
1746552773714986000,9.530986083984375,-1.8396949695050715,1.6464264599420129,-5.3984916129320855
1746552773724983000,9.540983154296875,-1.9669500610649584,1.1998258711278438,-5.328107578629255
1746552773734980400,9.55098046875,-2.0288474220514296,0.6927987975973635,-5.07505402405858
1746552773744978200,9.560978271484375,-2.0577298176646233,0.15197021142579614,-4.702088726428151
1746552773754975200,9.570975341796874,-2.0753286027193067,-0.33311675991006195,-4.248457654455304
1746552773764973000,9.58097314453125,-2.047219529566169,-0.7338615334130824,-3.693976098245382
1746552773774970400,9.590970458984375,-1.8757588010549544,-1.0890862994305788,-3.104882078337669
1746552773784968200,9.60096826171875,-1.584883757612109,-1.2926184288546443,-2.4904981343507764
1746552773794965200,9.61096533203125,-1.2429741079807282,-1.300243663036078,-1.9809557900637387
1746552773804963300,9.62096337890625,-0.8498971656918525,-1.1388254589810967,-1.5886071620494127
1746552773814960000,9.630960205078125,-0.38626258609890934,-0.8613703074730932,-1.3811509910494089
1746552773824958200,9.640958251953125,0.06377250720858574,-0.5856280973628163,-1.3412971195667982
1746552773834955300,9.650955322265625,0.3731722183793783,-0.4342847125984728,-1.3316905023097991
1746552773844953300,9.660953369140625,0.5833218662470578,-0.3732617963589728,-1.3498685485571622
1746552773854950100,9.6709501953125,0.6975994028121233,-0.4162001898534596,-1.40798639100492
1746552773864948200,9.6809482421875,0.8105816388696432,-0.607247808496654,-1.3215870414465665
1746552773874945300,9.6909453125,0.9136778562068939,-0.8391485387928783,-1.1112982773691416
1746552773884943400,9.700943359375,1.035056164687872,-1.0739964284569024,-0.8139449778228998
1746552773894940200,9.710940185546875,1.2078063484877348,-1.2743386757984756,-0.4135346239060163
1746552773904938200,9.720938232421876,1.4372645079374313,-1.3772783873997627,-0.00963993500471115
1746552773914935300,9.730935302734375,1.6820640289038418,-1.491306625378877,0.39077977126240726
1746552773924933000,9.74093310546875,1.9203326867967843,-1.5906803150616586,0.8163274890452623
1746552773934930400,9.750930419921875,2.1224264539808035,-1.6610140804819762,1.1854694289952517
1746552773944928300,9.76092822265625,2.2169301995396613,-1.6765861820146442,1.4795061513394117
1746552773954925300,9.77092529296875,2.1377122859179973,-1.6597846848174929,1.7505688253313303
1746552773964923100,9.780923095703125,1.9588152699261903,-1.6786076048396528,1.993482678681612
1746552773974920200,9.790920166015624,1.6710761864215136,-1.707183564852178,2.2496154945671556
1746552773984918000,9.80091796875,1.312973526880145,-1.7061233882747588,2.5007436340332028
1746552773994915300,9.810915283203125,0.9615139586150646,-1.7079907895818351,2.730245632624626
1746552774004913400,9.820913330078126,0.6735545103579759,-1.6205886927217243,2.898787843340635
1746552774014910200,9.83091015625,0.496527964413166,-1.5035665336236357,3.0192870308995245
1746552774024908300,9.840908203125,0.3400590533286333,-1.3980382668338716,3.138832863256335
1746552774034905000,9.850905029296875,0.17460194914638996,-1.2825332343004643,3.2532775730818506
1746552774044903200,9.860903076171875,0.06725041245222091,-1.1082757146775721,3.354612625965476
1746552774054900200,9.870900146484376,-0.05321896449029445,-0.9176105194807052,3.4021786792606115
1746552774064898300,9.880898193359375,-0.16997312030196188,-0.7160667873948812,3.4347511615633963
1746552774074895000,9.89089501953125,-0.33066812464892864,-0.5465468176878988,3.4414036051899193
1746552774084893200,9.90089306640625,-0.514730560579896,-0.39335371340364217,3.3400890105724335
1746552774094890200,9.91089013671875,-0.785486360579729,-0.33598113636523486,3.109229752153158
1746552774104888300,9.920888427734376,-1.1649568023204804,-0.36876989176720376,2.7564333823263643
1746552774114885400,9.930885498046875,-1.5166811590015887,-0.4908626321278512,2.4086247377842662
1746552774124883200,9.94088330078125,-1.827528730893135,-0.6262776492677629,2.221335156500339
1746552774134880300,9.95088037109375,-2.1233722103983164,-0.7328649235911667,2.163087550193071
1746552774144878000,9.960878173828124,-2.3574872557431457,-0.8011553466156125,2.1933137616306544
1746552774154875400,9.97087548828125,-2.564239662387967,-0.8391668051019311,2.265181897011399
1746552774164873200,9.980873291015625,-2.7190076147735116,-0.8767674908302724,2.3141472957104443
1746552774174870300,9.990870361328126,-2.713990663394332,-0.957806482399255,2.358246549677849
1746552774184868400,10.000868408203125,-2.6370149757415056,-1.118319992699474,2.398921674415469
1746552774194865200,10.010865234375,-2.5595851145803925,-1.3294614280834793,2.5117531038254497
1746552774204863200,10.02086328125,-2.5312363874524832,-1.5821742063924669,2.620828980094194
1746552774214860300,10.0308603515625,-2.5620845301806927,-1.7848830367349087,2.6874241435080766
1746552774224858400,10.0408583984375,-2.6017291428267955,-1.9205759940333664,2.6510458391815424
1746552774234855200,10.050855224609375,-2.6058488531053063,-1.8378734531663357,2.437942017683387
1746552774244853200,10.060853271484374,-2.5735341449558735,-1.5039059947110711,1.9848107119262217
1746552774254850000,10.07085009765625,-2.6746336355179547,-1.0181560294218361,1.3752069879531859
1746552774264847400,10.080847412109375,-2.911788779211044,-0.5580265353403985,0.773610044825077
1746552774274845200,10.09084521484375,-3.192025524261594,-0.1763224893286824,0.24012451489269732
1746552774284842200,10.10084228515625,-3.4663825636237857,0.054375879440456625,-0.17148820104002951
1746552774294840300,10.11084033203125,-3.7851112441539763,0.15228753374665974,-0.46037236292660233
1746552774304837000,10.120837158203125,-4.1091982368469235,0.0980836498722434,-0.6202601425439119
1746552774314835200,10.130835205078125,-4.362311412650347,-0.10734233047440647,-0.6785942580908536
1746552774324832300,10.140832275390625,-4.49817066642642,-0.3269786224812269,-0.7283329792499542
1746552774334830300,10.150830322265625,-4.527162367632985,-0.46060061872452496,-0.8905898260861634
1746552774344827100,10.1608271484375,-4.520751331546903,-0.5665829128921032,-1.117699961104989
1746552774354825200,10.1708251953125,-4.485271437364816,-0.6223601835630834,-1.3438234231740236
1746552774364822300,10.180822265625,-4.417064747101068,-0.5801563879534601,-1.5517682544738054
1746552774374820400,10.1908203125,-4.357916977083683,-0.38717137150689956,-1.796306494155526
1746552774384817200,10.200817138671875,-4.415109521380066,-0.060166591671109194,-2.019454739806056
1746552774394815200,10.210815185546876,-4.523569311577082,0.23623685980439185,-2.210213458505273
1746552774404812300,10.220812255859375,-4.702699551802874,0.40308863321542737,-2.4290000018149613
1746552774414810000,10.23081005859375,-4.88680115070045,0.37949279970303174,-2.6846242836564778
1746552774424807400,10.240807373046875,-5.003197579115629,0.16360826144516466,-2.926205427098274
1746552774434805200,10.25080517578125,-4.865115973114967,-0.16586276237368583,-3.1933851221770047
1746552774444802300,10.26080224609375,-4.452960236346722,-0.4551632499761879,-3.4105203911483284
1746552774454800100,10.270800048828125,-3.7175019352614878,-0.5860860702633858,-3.4809248837172984
1746552774464797200,10.280797119140624,-2.7996272118866443,-0.4761684824734926,-3.3700445883750914
1746552774474795300,10.290795166015625,-1.9079004907250403,-0.13420315713211894,-3.175021197968721
1746552774484792300,10.300792236328125,-1.1699720001339913,0.35794162376075983,-2.8474346727222204
1746552774494790400,10.310790283203126,-0.535334957191348,0.9201647340081631,-2.445426820480823
1746552774504787200,10.320787109375,-0.0011795651733875275,1.363320296934992,-2.030051537144184
1746552774514785300,10.330785400390624,0.47577919089496135,1.5973203375980256,-1.6311515877902507
1746552774524782000,10.340781982421875,0.859818255725503,1.6449842983096836,-1.2869909443616867
1746552774534780200,10.3507802734375,1.1671265475749968,1.5521481937021016,-1.0005126745730637
1746552774544777200,10.360777099609376,1.3778916969925163,1.3913129041016101,-0.7152998946756124
1746552774554775300,10.370775390625,1.384492702692747,1.218214345255494,-0.3150923698544502
1746552774564772000,10.380772216796874,1.2096084294736384,1.0850785250939428,0.1467541572779417
1746552774574770200,10.390770263671875,1.0043348632097244,1.101187583047524,0.5200421109914779
1746552774584767200,10.400767333984374,0.9150479755163192,1.3146626490108668,0.725481681472063
1746552774594765300,10.410765380859376,0.9447159685492516,1.5872107392549515,0.7414917360305786
1746552774604762400,10.420762451171875,0.9259709360688925,1.8951102749958633,0.6305611718058586
1746552774614760200,10.43076025390625,0.7014706912875175,2.1723118901342153,0.40183950993716716
1746552774624757200,10.44075732421875,0.44816403873860833,2.1885710971482095,0.13842062869668006
1746552774634755000,10.450755126953124,0.27008126173913477,1.9981576847553253,-0.09988894572854042
1746552774644752400,10.46075244140625,0.19192074821591376,1.705111434753239,-0.3582055353939533
1746552774654749200,10.470749267578125,0.209760940811038,1.3943668848447501,-0.5483411537587642
1746552774664747300,10.480747314453126,0.3078431293785572,1.1767357951804995,-0.6059545538157224
1746552774674744000,10.490744140625,0.49688978346288204,1.094395804015547,-0.5844827267199755
1746552774684742100,10.5007421875,0.8800783689439297,1.1373192191366106,-0.4028735291600227
1746552774694739500,10.510739501953125,1.490161985388398,1.2941186042845247,-0.15726152276694774
1746552774704737300,10.5207373046875,2.178972517067194,1.4885647793248296,0.13878420131206512
1746552774714734300,10.530734375,2.7413696687072515,1.6787909985825418,0.35082302392721176
1746552774724732200,10.540732177734375,3.1435189752459523,1.8226564486816523,0.4707154777646064
1746552774734728200,10.550728271484376,3.3836347223103043,1.9466995924577115,0.538492544439435
1746552774744726300,10.560726318359375,3.6285540702641006,1.9942355428755283,0.6073316873878241
1746552774754723300,10.570723388671874,3.782961372643709,1.9592695895649492,0.700212800180912
1746552774764721200,10.58072119140625,3.853628315541148,1.9118809386633335,0.8286942186653613
1746552774774718200,10.59071826171875,3.884650645792484,1.8824692584790288,0.998397289854288
1746552774784716000,10.600716064453126,3.9146746126562353,1.8453028725147247,1.171029984754324
1746552774794713300,10.61071337890625,3.924474122136831,1.8496748039886355,1.2870692702949047
1746552774804711200,10.620711181640624,4.000216468602419,1.9021447036772965,1.3728145398586988
1746552774814708200,10.630708251953125,4.064601554751396,1.9500946417234837,1.4644459448516367
1746552774824706000,10.6407060546875,4.070528022190929,1.9976161252245306,1.4951315904945135
1746552774834703000,10.650703125,3.941014338049292,2.13124908125326,1.4586656078845261
1746552774844701200,10.660701171875,3.6606326315701008,2.310259348361194,1.409935186985135
1746552774854698200,10.6706982421875,3.2766356523156164,2.465364277616143,1.4087784181654452
1746552774864696300,10.6806962890625,2.92393748216629,2.5498802976459265,1.3672270951151848
1746552774874693000,10.690693115234374,2.762571446689963,2.3949469255656,1.2271814955651759
1746552774884691200,10.700691162109376,2.7304852865993974,2.097463569898903,0.9682055652081966
1746552774894688300,10.710688232421875,2.7031647334754467,1.7186678125493227,0.6189759479522705
1746552774904686300,10.720686279296874,2.6329420272141695,1.3572493064582347,0.1154138471186161
1746552774914683100,10.73068310546875,2.5252830320060253,1.0757714753054082,-0.4021948992460966
1746552774924681200,10.74068115234375,2.3528806387305257,0.8381337357271462,-0.7745522941112518
1746552774934678000,10.750677978515625,2.1753455587416886,0.6634264265101403,-0.9520154779076576
1746552774944676000,10.760676025390625,1.91625623113811,0.6005348668545484,-0.9649848495960235
1746552774954673400,10.77067333984375,1.5725538528710603,0.7389233468472958,-0.8753127619773149
1746552774964670200,10.780670166015625,1.2036872227311133,0.9692799895066767,-0.8059969414278865
1746552774974668300,10.790668212890624,0.9488041146457195,1.2223945535495877,-0.780725137527287
1746552774984665000,10.8006650390625,0.7751204493880272,1.425967307244986,-0.9299258111745119
1746552774994663200,10.8106630859375,0.6336930400907993,1.6230542060524225,-1.090593635253608
1746552775004660200,10.82066015625,0.5158505045205355,1.731982198283076,-1.2280153160408138
1746552775014658300,10.830658203125,0.30578385876119135,1.794209375745803,-1.5042302582293747
1746552775024655000,10.840655029296874,0.00374620079100132,1.7948409516476094,-1.8261691329777239
1746552775034653200,10.850653076171875,-0.30864626245498655,1.8213392286032437,-2.1438386598438024
1746552775044650000,10.86064990234375,-0.6571838057935238,1.9399132933184504,-2.4531568302109834
1746552775054648000,10.87064794921875,-0.8994669600248336,2.1362658865019677,-2.805692211014032
1746552775064645400,10.880645263671875,-1.0379051243782043,2.325201481427252,-3.1447163683369754
1746552775074643200,10.890643310546874,-1.1229665033310652,2.5939164232492447,-3.509102638192475
1746552775084640300,10.90064013671875,-1.232298984709382,2.9589193636983633,-3.784961898811161
1746552775094638000,10.91063818359375,-1.3597691803246736,3.342832756322622,-4.014093018263578
1746552775104635100,10.92063525390625,-1.4607149416297673,3.6544238400578495,-4.083762182295322
1746552775114633000,10.930633056640625,-1.5226251620978115,3.8062194986343383,-4.036308357203007
1746552775124630300,10.94063037109375,-1.6891139474153518,3.7420445481047033,-3.8560312850296494
1746552775134628400,10.95062841796875,-1.9671996519118546,3.485011860769987,-3.493386890405416
1746552775144625200,10.960625244140624,-2.3466280080765483,3.013094606000185,-3.1702959230124947
1746552775154623200,10.970623291015626,-2.992690700396895,2.2329097128294406,-2.917536382952332
1746552775164620300,10.980620361328125,-3.777542854726314,1.4457751466512678,-2.7341204282313583
1746552775174618400,10.990618408203124,-4.532928676074743,0.5726708545036614,-2.4358476757526395
1746552775184615200,11.000615234375,-5.1992807077080005,-0.4057748035594821,-1.9875930361211298
1746552775194613200,11.01061328125,-5.65203148971498,-1.3863736941337585,-1.5233078836649656
1746552775204610000,11.020610107421875,-5.744612742778658,-2.131541780589521,-1.0512222865909338
1746552775214608100,11.030608154296875,-5.347378096288442,-2.5013518290594217,-0.6036971302777528
1746552775224605200,11.040605224609376,-4.530317032271624,-2.4982097316414116,-0.15888123292326925
1746552775234603300,11.050603271484375,-3.544249647158384,-2.224711939457059,0.1497691211849451
1746552775244600300,11.060600341796874,-2.5357933201044798,-1.7881506602287291,0.34652795708179474
1746552775254597000,11.07059716796875,-1.6107412524461746,-1.3786828473702073,0.49328036079406734
1746552775264595200,11.08059521484375,-0.9221119225531816,-1.030201125872135,0.720386404159665
1746552775274592300,11.09059228515625,-0.4067518318980932,-0.7884802816987038,0.9839315421283245
1746552775284590300,11.10059033203125,-0.043729251611232756,-0.6621198008909821,1.2324410235285759
1746552775294587100,11.110587158203124,0.1581517496049404,-0.713635176333785,1.4134429028451443
1746552775304585200,11.120585205078125,0.25637831507921216,-0.9717346161171794,1.399134976029396
1746552775314582000,11.13058203125,0.2902449288457632,-1.3449249546751378,1.2831991508632898
1746552775324580000,11.140580078125,0.33976854594945904,-1.8005410629853604,1.1802566627830267
1746552775334577200,11.1505771484375,0.37102293139100073,-2.1946987862482668,1.1438503014057875
1746552775344575200,11.1605751953125,0.4100771769285202,-2.51194804187566,1.1178326475739477
1746552775354572300,11.170572265625,0.46190205671191215,-2.730417189799249,1.141640808662772
1746552775364570000,11.180570068359375,0.523624645653367,-2.819706123319268,1.2020721887499093
1746552775374567200,11.190567138671875,0.5674959360837936,-2.845614763818681,1.324159522283077
1746552775384565000,11.20056494140625,0.660040364268422,-2.8502187504827976,1.5346166286647318
1746552775394562300,11.210562255859376,0.6945201414972544,-2.87225814833343,1.8365414739102124
1746552775404560100,11.22056005859375,0.6376718805938959,-2.9301655629009007,2.1378613389998673
1746552775414557200,11.23055712890625,0.533826306194067,-2.988917611598968,2.4122148712307214
1746552775424555300,11.24055517578125,0.430076008862257,-2.9959575932383538,2.650839502954483
1746552775434552300,11.25055224609375,0.45108664818704125,-2.8975957109466193,2.822794152462482
1746552775444550400,11.26055029296875,0.5077092836409807,-2.67363585665226,2.979242605280876
1746552775454547200,11.270547119140625,0.5011626384764909,-2.499475513793528,3.1249715111643073
1746552775464545300,11.280545166015624,0.4890747257977724,-2.387190612350404,3.23604645229578
1746552775474542000,11.2905419921875,0.48840778632164,-2.2381872148409485,3.2832799126356838
1746552775484540200,11.3005400390625,0.39855391239523885,-2.0767481141284105,3.2842835367202756
1746552775494537200,11.310537109375,0.12228782454133033,-2.0014172710731626,3.211509976932406
1746552775504534300,11.3205341796875,-0.26559856336712834,-1.8600886459752917,3.1166385671049355
1746552775514532000,11.330531982421874,-0.5544096600174904,-1.6037255284652112,3.051750792130828
1746552775524529200,11.340529052734375,-0.7689911528527736,-1.2990610291227698,2.9217507857769727
1746552775534527200,11.35052734375,-0.874853912293911,-1.034250401262939,2.8133067776709795
1746552775544524300,11.360524169921876,-0.9314058205991983,-0.9436997772440314,2.5658354071468112
1746552775554522400,11.3705224609375,-1.114913545256853,-0.9681216863170266,2.1772850023716686
1746552775564519200,11.380519287109376,-1.470312791058421,-1.1064330094203352,1.7654577669054268
1746552775574517200,11.390517333984375,-1.8910966554403303,-1.296024145644903,1.360080145969987
1746552775584514000,11.40051416015625,-2.2310271139532327,-1.4686527488917112,1.2139765615552662
1746552775594512100,11.41051220703125,-2.449920040246844,-1.5232237125128507,1.2798778974860905
1746552775604509200,11.42050927734375,-2.5648703615069386,-1.4982906390473245,1.3912708185255527
1746552775614507300,11.43050732421875,-2.431581835001707,-1.4123141910761594,1.5586217736303805
1746552775624504000,11.440504150390625,-2.024876180332899,-1.3014040851175783,1.8093699738681315
1746552775634502100,11.450502197265624,-1.4624199919819831,-1.2555755231395362,2.170631974223256
1746552775644499200,11.460499267578125,-1.1344704786419868,-1.2894237244665623,2.331024196231365
1746552775654497000,11.4704970703125,-1.0184195026636123,-1.330278881946206,2.2239719347447156
1746552775664494300,11.480494384765626,-1.1017658943921327,-1.2486506923124194,1.872003247913718
1746552775674492200,11.4904921875,-1.4425164371162653,-1.0877136959031224,1.3541057477355003
1746552775684489200,11.5004892578125,-2.001595842510462,-0.8396177637398242,0.8886164801865816
1746552775694487000,11.510487060546875,-2.4935791492313144,-0.5693219824671745,0.562234070032835
1746552775704484400,11.520484375,-2.786600557053089,-0.335648835670948,0.2817255223035812
1746552775714482400,11.530482421875,-2.933665679976344,-0.08230185111165046,-0.02224748764336109
1746552775724479200,11.540479248046875,-3.034913054576516,0.16898527830839155,-0.34760172379314896
1746552775734477300,11.550477294921874,-3.1708430355012416,0.397065427403152,-0.7473352013617753
1746552775744475000,11.560474853515625,-3.430092522102594,0.6196230136841535,-1.201576514187455
1746552775754473000,11.570472900390625,-3.7344519010186192,0.8845809410601854,-1.6188883185446261
1746552775764469800,11.5804697265625,-3.975329280105233,0.9495464574456214,-2.022735076650977
1746552775774466800,11.590466796875,-4.139838289782404,0.8689820976510644,-2.396542085802555
1746552775784465000,11.60046484375,-4.213121552658081,0.7105722816318273,-2.7986306020647285
1746552775794462000,11.6104619140625,-4.251470864796638,0.5699594035878777,-3.175241562721133
1746552775804459800,11.620459716796875,-4.385248636123538,0.4365963505417108,-3.5020921749085185
1746552775814456800,11.630456787109376,-4.521974151340126,0.3364107599541545,-3.7908787216395137
1746552775824455000,11.640454833984375,-4.610557274678349,0.2661880536928773,-4.03135979488492
1746552775834452000,11.650451904296874,-4.72732312092781,0.14663842194378376,-4.053610789659619
1746552775844449800,11.66044970703125,-4.802082301574945,-0.03891644450202584,-3.7787767804354426
1746552775854446800,11.67044677734375,-4.671047106954455,-0.15996829750761388,-3.3188872325897214
1746552775864445000,11.68044482421875,-4.259287676027417,-0.07969415283128618,-2.847292049381137
1746552775874442000,11.69044189453125,-3.5201445489495993,0.3173218824721873,-2.453978960248828
1746552775884440000,11.700440185546874,-2.5040818385452033,0.871070740493387,-2.1079513539046046
1746552775894436900,11.710436767578125,-1.4485393506675959,1.2636704206593334,-1.7890309501945971
1746552775904435000,11.72043505859375,-0.5522317314565182,1.6007535269170998,-1.5178373432993888
1746552775914431700,11.730431640625,0.14854980852305888,1.886463588812202,-1.2776444393455981
1746552775924429800,11.740429931640625,0.6619423984974623,2.0837141537487507,-1.00738314486444
1746552775934427000,11.750427001953126,0.9067641312956809,2.2009357809416947,-0.7683715596497058
1746552775944425000,11.760425048828125,0.9278606953382491,2.278996925743669,-0.5942249530553817
1746552775954421800,11.770421875,0.8898089048415422,2.3081398719891904,-0.48551966366469856
1746552775964419800,11.780419921875,0.8569494222909212,2.3351724019519984,-0.44550914031565186
1746552775974417000,11.7904169921875,0.9171405638813972,2.3317881663411852,-0.43351533566117284
1746552775984414000,11.8004140625,1.127312423580885,2.270777232800424,-0.39681086812019345
1746552775994412000,11.810412109375,1.4642004456579685,2.1076351275622844,-0.37373423617631196
1746552776004408800,11.820408935546874,1.8802303935110567,1.8944341292999685,-0.3452063530892133
1746552776014407000,11.830406982421875,2.2696277705043553,1.6828410046257078,-0.3010527385860681
1746552776024403700,11.84040380859375,2.498067108300328,1.507146730197966,-0.24540713147073984
1746552776034401800,11.85040185546875,2.5429554668188095,1.3700947595059871,-0.1894277623564005
1746552776044398800,11.86039892578125,2.4637282008469104,1.2455156091570854,-0.13744769201129675
1746552776054397000,11.87039697265625,2.319718958362937,1.1548017574004827,-0.09407821362316608
1746552776064393700,11.880393798828125,2.1643512865185737,1.1223098660532385,-0.09356997184008359
1746552776074391800,11.890391845703125,2.069977304819226,1.1468830932304261,-0.059921676999330514
1746552776084388900,11.900388916015626,2.158307914701104,1.2446885106831789,0.07447159587740898
1746552776094387000,11.910386962890625,2.467148822945356,1.3329066001012921,0.294294204236567
1746552776104384000,11.920384033203124,2.7827012115269896,1.3962341400213538,0.514907670712471
1746552776114381800,11.9303818359375,2.999399258124828,1.502158128130436,0.6760466194346547
1746552776124379000,11.94037890625,3.1711469868838784,1.559070394180715,0.7904685329064727
1746552776134376700,11.950376708984376,3.3041163644373417,1.5175100110411643,0.8710495515748858
1746552776144374000,11.9603740234375,3.447268113309145,1.3688465130105614,0.9712024089366197
1746552776154372000,11.9703720703125,3.5649656874507665,1.2409521006338298,1.0751324467495083
1746552776164369000,11.980368896484375,3.622076983204484,1.1493316554263233,1.163923952141404
1746552776174367000,11.990366943359374,3.6740310423254963,1.0290680301889776,1.2365540118053555
1746552776184363800,12.00036376953125,3.7244086459100245,0.9483829666242003,1.257276774099469
1746552776194361000,12.010361083984375,3.8204175353348253,0.8469301325798034,1.2840332635998726
1746552776204359000,12.02035888671875,3.9007694214224813,0.7769408697482199,1.3308753865346312
1746552776214356000,12.03035595703125,3.928812443602085,0.7253866235997527,1.364705175422132
1746552776224353800,12.040353759765624,4.011657315549254,0.7033408690735697,1.3895330349475143
1746552776234350800,12.050350830078125,4.083458815434575,0.6955914970558136,1.3971139915958046
1746552776244348700,12.0603486328125,4.161103780651092,0.6144456841114908,1.4164526060551403
1746552776254346000,12.070345947265626,4.232579701843857,0.44950573567114765,1.4444550039634108
1746552776264344000,12.080343994140625,4.264529668334126,0.22514833342656493,1.4052031900271773
1746552776274340900,12.0903408203125,4.338537738353014,0.029261092732474205,1.3543445249274373
1746552776284339000,12.1003388671875,4.388033882927894,-0.10138897502794861,1.2714262954831124
1746552776294335700,12.110335693359374,4.327732851222157,-0.1577487217620015,1.2052891049697994
1746552776304333800,12.120333740234376,4.2118554782450195,-0.12946060224752873,1.1719976607427
1746552776314331000,12.130330810546875,4.058223836413026,-0.028238654349558055,1.1053399534866213
1746552776324329000,12.140328857421874,3.911339330753684,0.14221578319594264,1.0082891537934542
1746552776334325800,12.15032568359375,3.7464345997571944,0.44940695147179066,0.9556295767515898
1746552776344323800,12.16032373046875,3.5376246760606764,0.7455575241647661,0.8702060864880681
1746552776354320600,12.170320556640625,3.197567376297712,0.9960403514645993,0.6784674168407917
1746552776364318700,12.180318603515625,2.925612721902132,1.160351500482112,0.43913755945712324
1746552776374316000,12.19031591796875,2.703546426269412,1.2186761175483465,0.08205898226648568
1746552776384312800,12.200312744140625,2.3407342738628385,1.1487382926430552,-0.33054683635681864
1746552776394311000,12.210310791015624,1.7533821291863918,0.9644212243638932,-0.7831324909299612
1746552776404308000,12.220307861328125,0.9900859731048345,0.7724497688740491,-1.1903043018057942
1746552776414306000,12.23030615234375,0.134065940618515,0.7569840503253042,-1.5979568819358945
1746552776424302800,12.240302734375,-0.6926870808511972,0.9092819593355059,-1.9488579395353793
1746552776434301000,12.250301025390625,-1.438784849372506,1.0930562259748577,-2.124726255355775
1746552776444297700,12.260297607421874,-2.0713865870952604,1.3345166656464338,-2.1986831797093154
1746552776454295800,12.2702958984375,-2.650016496133804,1.664183358167857,-2.3407941873565314
1746552776464292900,12.28029296875,-3.2405238899707793,2.0962964258156718,-2.5628753882974387
1746552776474291000,12.290291015625,-3.7492350441306828,2.605696292892098,-2.899982021561265
1746552776484288000,12.3002880859375,-4.020663628825545,3.089545392996073,-3.151479578861594
1746552776494285800,12.310285888671874,-4.004803211870789,3.405882794475555,-3.17851079365015
1746552776504283000,12.320282958984375,-3.920495866155624,3.567790097221732,-3.0899574809283017
1746552776514280700,12.33028076171875,-3.955965238943696,3.6159301510125395,-3.1068098315298553
1746552776524278000,12.340278076171876,-4.0803345459342,3.6022716280162332,-3.2162112864911556
1746552776534275800,12.35027587890625,-4.294584030336141,3.5240281123846766,-3.4088679477661845
1746552776544273000,12.36027294921875,-4.671385545128584,3.274105549316108,-3.6752486014217136
1746552776554270700,12.370270751953125,-4.994065593633056,2.840122596143186,-4.009795613330603
1746552776564267800,12.380267822265624,-5.2408618413746355,2.24427354901731,-4.249146221241355
1746552776574264800,12.390264892578125,-5.371092733874916,1.397756673413515,-4.292510731193423
1746552776584263000,12.400262939453125,-5.3435483088672155,0.3908481603235006,-4.058499146223068
1746552776594260000,12.410260009765626,-5.231287372821569,-0.5953162554234266,-3.6295483419984578
1746552776604257800,12.4202578125,-5.168535440832376,-1.4681316476270556,-3.1262551212340592
1746552776614254800,12.4302548828125,-5.098749956944585,-2.2159785979032516,-2.5831962917923925
1746552776624252700,12.440252685546875,-4.908821259328723,-2.8290324623301624,-1.9703923104733228
1746552776634250000,12.45025,-4.542812941229343,-3.2270135432735083,-1.367612295040488
1746552776644247800,12.460247802734376,-3.9997207940399644,-3.3449808742672205,-0.8346826454252004
1746552776654244900,12.470244873046875,-3.3223984555810686,-3.2539293149888513,-0.42275253410637376
1746552776664242700,12.48024267578125,-2.5245903735667468,-2.9607872033968565,-0.09690086982846259
1746552776674240000,12.490239990234375,-1.729451803022623,-2.645454595045745,0.14757891766428946
1746552776684238000,12.500238037109375,-0.9677642511814832,-2.32376940279752,0.358413040664792
1746552776694235000,12.51023486328125,-0.33979017325937744,-2.0371765667185184,0.5197253001272678
1746552776704233000,12.52023291015625,0.1277180328965187,-1.7874033489927648,0.6304957053542137
1746552776714229800,12.530229736328126,0.3898164791882038,-1.5873609613806008,0.7089356203407049
1746552776724227800,12.540227783203125,0.44780455777645106,-1.4358219079136847,0.810451290488243
1746552776734225000,12.550224853515624,0.3895902692168951,-1.3586468982964752,0.9449754962682724
1746552776744221200,12.56022119140625,0.3396393666118383,-1.3421487679600714,1.170557691067457
1746552776754219300,12.57021923828125,0.15498364096283912,-1.3001616838410497,1.4537082777380943
1746552776764216300,12.58021630859375,-0.08104337548315524,-1.2475833553418516,1.7859604567080736
1746552776774214100,12.590214111328125,-0.2882937947779894,-1.2362801633000373,2.1362907286822796
1746552776784211500,12.60021142578125,-0.42717151959240435,-1.2590148499384521,2.4592829118758437
1746552776794209300,12.610209228515625,-0.4966021986931562,-1.2883034882649778,2.701505860352516
1746552776804206300,12.620206298828125,-0.4669879816740751,-1.3070923598870634,2.7868630073815583
1746552776814204200,12.6302041015625,-0.4218044396013021,-1.3124199846506117,2.7380945925593374
1746552776824201500,12.640201416015625,-0.4662485614836216,-1.3043427689179776,2.586901576051116
