time,seconds_elapsed,z,y,x
1744475515509578500,0.05657861328125,0.7021177570194006,-0.3264771026998758,0.12137940445952117
1744475515519574500,0.066574462890625,0.863607711136341,-0.36499388035982844,0.020582403975352645
1744475515529570600,0.076570556640625,0.8868407026857137,-0.49122532796040175,-0.1628489675104618
1744475515539566600,0.086566650390625,0.6648556555956602,-0.6579904460012912,-0.4009595852974802
1744475515549562400,0.096562255859375,0.3316571356862783,-0.7407771580204368,-0.6516931724879891
1744475515559558700,0.10655859375,0.053451604202389716,-0.6382692619651555,-0.850761673566699
1744475515569554700,0.1165546875,-0.0333446357190609,-0.4768520808234811,-0.9167113786838949
1744475515579550500,0.126550537109375,0.05745733271241188,-0.3781389008760452,-0.8876994384068995
1744475515589546500,0.13654638671875,0.24824820011556148,-0.33673400055915115,-0.8670331555403769
1744475515599542500,0.14654248046875,0.4222200346648693,-0.3061569298572838,-0.9235895208250731
1744475515609538600,0.15653857421875,0.4874573537290096,-0.25012641507759686,-1.0033319697774945
1744475515619534600,0.16653466796875,0.4744324524611234,-0.255479612673819,-1.0465835939396173
1744475515629530400,0.1765302734375,0.4671902262479067,-0.31159532151892777,-0.9850800545763224
1744475515639526700,0.186526611328125,0.4357178141415119,-0.3671152564279735,-0.8638518220905214
1744475515649522400,0.1965224609375,0.476689875999093,-0.38814065493047234,-0.7436262638412415
1744475515659518500,0.2065185546875,0.5756354033976793,-0.43869653769135475,-0.6274474236994981
1744475515669514500,0.216514404296875,0.669143708178401,-0.476581739449501,-0.539238394370675
1744475515679510500,0.226510498046875,0.6845692408472299,-0.5261582557842135,-0.41721535824537276
1744475515689505500,0.236505615234375,0.6700824503332377,-0.5873666115932166,-0.28912345053516325
1744475515699501600,0.24650146484375,0.5569909086823464,-0.6942423474691808,-0.20891477231048047
1744475515709497300,0.256497314453125,0.3953519014835357,-0.7929312697581946,-0.2012493522491306
1744475515719493600,0.26649365234375,0.23755378762185572,-0.8681653744406997,-0.22649339135996996
1744475515729489700,0.27648974609375,0.12079320206940174,-0.9328747241079807,-0.20638854176849125
1744475515739485400,0.2864853515625,0.041322774991393085,-0.9919178647071123,-0.1876880790822208
1744475515749481500,0.2964814453125,-0.03718786714375019,-1.0193846944339573,-0.21014526395350694
1744475515759477500,0.3064775390625,-0.13761924918591975,-1.0372848005227744,-0.20659904271401464
1744475515769473500,0.3164736328125,-0.16097849746346474,-1.0400367295794188,-0.1565692296538502
1744475515779469600,0.326469482421875,-0.15376491282284258,-0.9960643168620764,-0.12176182790584862
1744475515789465300,0.33646533203125,-0.22506080127358435,-0.9812918412744999,-0.07394435713291168
1744475515799461600,0.346461669921875,-0.26622458631098267,-0.9399399863190948,-0.04301240857876837
1744475515809457700,0.356457763671875,-0.21470073530077932,-0.8399800211809575,-0.0299901376593858
1744475515819453400,0.366453369140625,-0.12389116808474063,-0.7176540565863251,-0.024372516973316667
1744475515829449500,0.376449462890625,0.07766483896076679,-0.5948039219871163,-0.03658938979394734
1744475515839445500,0.386445556640625,0.2879647089540958,-0.4935441262967884,-0.09679368312694132
1744475515849441500,0.396441650390625,0.3260164994508028,-0.5213901645995677,-0.0505769986141473
1744475515859437600,0.4064375,0.26448037299215793,-0.5705376418672502,0.01666376922689378
1744475515869433600,0.41643359375,0.1551098976910114,-0.5061833892479538,0.02373867604918778
1744475515879429600,0.4264296875,-0.002057517051696777,-0.31284678288474677,-0.08557451610676944
1744475515889425400,0.43642529296875,-0.1881236940205097,-0.06593260785192251,-0.2846357837270945
1744475515899421400,0.44642138671875,-0.26380758829712864,0.10439999341219663,-0.38153610556628553
1744475515909417700,0.456417724609375,-0.2402513561427593,0.13879910662025213,-0.39910621251575645
1744475515919413500,0.46641357421875,-0.13936287798285482,0.05097045491114258,-0.3488156296275556
1744475515929409500,0.476409423828125,-0.01795417436361313,-0.07271452307701111,-0.24393556108083575
1744475515939405600,0.486405517578125,0.07200666706860065,-0.25323767896592614,-0.14297127773836255
1744475515949401600,0.496401611328125,0.1727659658908844,-0.40714974517449737,-0.11013280144315213
1744475515959397600,0.506397705078125,0.41738837672471996,-0.475034656137973,-0.08669246901972219
1744475515969393400,0.516393310546875,0.7377250769734383,-0.5127855639919638,-0.008237429529335349
1744475515979389400,0.526389404296875,1.0160749853640794,-0.5462561641782522,0.10705564075382426
1744475515989385700,0.5363857421875,1.1716104149907827,-0.5742103390306234,0.2534760360327549
1744475515999381500,0.546381591796875,1.246006607544422,-0.5909221121177077,0.3550252248574048
1744475516009377500,0.55637744140625,1.193788344529271,-0.6887814517147839,0.4060108408050611
1744475516019373300,0.566373291015625,0.9774579622000455,-0.774117409825325,0.32122670789100227
1744475516029369600,0.57636962890625,0.6038362464874982,-0.7915629040144383,0.12735020423112436
1744475516039365600,0.58636572265625,0.048363341152667993,-0.7978177266255021,0.027081410605832933
1744475516049361400,0.596361328125,-0.4854863459169864,-0.7548737801730633,0.07149170328378678
1744475516059357700,0.606357666015625,-0.8241285181850194,-0.6425377330645918,0.20373682168330995
1744475516069353500,0.616353515625,-1.006597547444701,-0.4477905292510986,0.36479013794865456
1744475516079349500,0.626349609375,-0.9944196183949708,-0.2669274738833308,0.46037506634034214
1744475516089345500,0.636345458984375,-0.8992752368450164,-0.10457038154304027,0.4638506334964186
1744475516099341600,0.646341552734375,-0.6578279489159584,-0.01270443714186549,0.37035833000242707
1744475516109337600,0.656337646484375,-0.31963468945920465,-0.08205328317806124,0.33618162737339735
1744475516119333600,0.666333740234375,0.06503448996841907,-0.24942601172327994,0.3073566610358655
1744475516129329400,0.676329345703125,0.39434009409248827,-0.44755043688490986,0.21691022804379462
1744475516139325700,0.68632568359375,0.6830933230757713,-0.6277667187817394,0.07670783049687743
1744475516149321500,0.696321533203125,1.0310936907976864,-0.684891604669392,-0.18167064542360603
1744475516159317500,0.7063173828125,1.3310019355237483,-0.6735169548265636,-0.44290246494859453
1744475516169313500,0.7163134765625,1.4478233113527297,-0.7113445811785757,-0.6683475893646478
1744475516179309600,0.7263095703125,1.386066820141673,-0.6924192236952483,-0.8482805242754519
1744475516189305600,0.7363056640625,1.190071369832754,-0.6584327829413116,-0.9074304131846874
1744475516199301400,0.74630126953125,0.9580471592873334,-0.5673528743512928,-0.8852565022341906
1744475516209297400,0.75629736328125,0.7407476396650076,-0.5374703617848455,-0.7560685429155826
1744475516219293700,0.766293701171875,0.6513613832503556,-0.5680576616197824,-0.5662155408844352
1744475516229289500,0.77628955078125,0.799386291116476,-0.6054645783416926,-0.32346739948987957
1744475516239285500,0.786285400390625,1.2073691261142492,-0.7020816627927124,-0.13992350754030047
1744475516249281500,0.796281494140625,1.6840888127297162,-0.9169893188424408,-0.02059884365350008
1744475516259277600,0.806277587890625,2.1053923170715567,-1.1894427165403962,0.0513668338175863
1744475516269272600,0.8162724609375,2.31581552118361,-1.4224930552631616,0.012467486580833792
1744475516279268600,0.8262685546875,2.182902257731557,-1.5786157832585275,-0.06415332321971655
1744475516289264400,0.836264404296875,1.8891268166720867,-1.5910617155946791,-0.1446289087522775
1744475516299260700,0.8462607421875,1.556013636958599,-1.4608356453999876,-0.21386231171526013
1744475516309256400,0.85625634765625,1.1868138293415307,-1.2972656701385974,-0.3765948863044381
1744475516319252500,0.86625244140625,0.6707394529372454,-1.1300449172846971,-0.49914695127252484
1744475516329247500,0.87624755859375,0.1467670167595148,-0.8541128836907446,-0.616425678947568
1744475516339243500,0.886243408203125,-0.3305985665440559,-0.4569628467440605,-0.7327695003926754
1744475516349239600,0.896239501953125,-0.8665478562414646,-0.07229366731643676,-0.7981381176862865
1744475516359235600,0.906235595703125,-1.3370499835163354,0.1899786742374301,-0.7727656298901885
1744475516369231400,0.9162314453125,-1.6209136868923901,0.2973302109315991,-0.7110279895100742
1744475516379227600,0.9262275390625,-1.6544950539767742,0.45161330240964886,-0.7415639975491911
1744475516389223700,0.9362236328125,-1.4535603937000035,0.7547191010680049,-0.8495240945957601
1744475516399219500,0.946219482421875,-1.306925478887558,1.174120717311278,-0.864817890643701
1744475516409215500,0.956215576171875,-1.5269658216506241,1.4425500471249222,-0.7475096811458468
1744475516419211500,0.96621142578125,-2.070264305067062,1.3959500623829662,-0.496974685267359
1744475516429207600,0.97620751953125,-2.762534037289023,1.1605638280585409,-0.1814867402240634
1744475516439203600,0.98620361328125,-3.3000165279030798,0.9247769770439713,0.14450935575952753
1744475516449199400,0.996199462890625,-3.500601644089818,0.8856086766727268,0.3763929339915514
1744475516459195600,1.006195556640625,-3.353376946690678,0.9498129263620823,0.6291092194318771
1744475516469191400,1.01619140625,-2.9210271476775405,1.0471630743280052,0.8257280623361468
1744475516479187500,1.0261875,-2.343590832337737,1.0662333201747387,1.0175867781665175
1744475516489183500,1.03618359375,-1.7588205208480356,0.9953629636596888,1.2292984877191484
1744475516499179500,1.046179443359375,-1.1920938155710696,0.8979157850600779,1.2975121922455728
1744475516509175600,1.056175537109375,-0.7432324422180652,0.8041864579398185,1.2658382662177086
1744475516519171600,1.066171630859375,-0.5888683944582939,0.7320109371103346,1.2629727937839925
1744475516529167400,1.07616748046875,-0.7024164477050304,0.6806622965365647,1.1587803056426345
1744475516539163600,1.08616357421875,-1.002610523635149,0.7243863605160266,0.916532953377068
1744475516549159400,1.096159423828125,-1.3226777592927217,0.9001311960872262,0.5728598012045025
1744475516559155500,1.106155517578125,-1.4767261652320622,1.1372777180824427,0.25094101939611135
1744475516569151700,1.11615185546875,-1.4350199438810347,1.3235850833959877,-0.02836618058620952
1744475516579147500,1.1261474609375,-1.2223013223081827,1.3963079359099269,-0.20300384949995204
1744475516589143600,1.1361435546875,-0.8494722182780504,1.37281220177114,-0.26865687322551385
1744475516599139300,1.146139404296875,-0.5049322201430797,1.2531284222483634,-0.19390498083569108
1744475516609135600,1.156135498046875,-0.4460808027237653,1.0759137333203106,-0.12715391447404398
1744475516619131600,1.166131591796875,-0.46527357897162436,0.9410818498305976,-0.18035718820486216
1744475516629127400,1.17612744140625,-0.35972353874146934,0.8384528116136789,-0.3162569566544145
1744475516639123500,1.18612353515625,-0.10536123965978622,0.801331579965353,-0.39271570776104925
1744475516649119500,1.196119384765625,0.17341770779788493,0.8185616778381168,-0.39548973905164747
1744475516659115500,1.206115478515625,0.4311643886208534,0.8220436016697437,-0.3095477048067376
1744475516669111600,1.216111572265625,0.6377993063658476,0.7404169464059174,-0.17724261811459435
1744475516679107300,1.226107421875,0.7343956402897834,0.703318072719872,0.04222613530559465
1744475516689103600,1.236103515625,0.6641156508833169,0.6834846604809165,0.2555011851848103
1744475516699099600,1.246099609375,0.5809498764187098,0.6765750272229314,0.3858338027602061
1744475516709095400,1.256095458984375,0.5928729539245366,0.7056468079283833,0.4770864375686273
1744475516719091500,1.266091552734375,0.7826122664481401,0.7683736054763197,0.5130681437930092
1744475516729087500,1.27608740234375,1.0912602824687958,0.7960109694644808,0.5472276395589113
1744475516739082500,1.28608251953125,1.3746674742490053,0.7949052001796663,0.5758424702771008
1744475516749078500,1.29607861328125,1.4431968205958603,0.7908668115090578,0.468924941086024
1744475516759074600,1.306074462890625,1.4263871400922536,0.7659777963809669,0.18148111420087515
1744475516769070600,1.316070556640625,1.44118314268589,0.5643972394160927,-0.10606507708020507
1744475516779066600,1.326066650390625,1.263791270560026,0.14026340701915324,-0.15734306357055902
1744475516789062400,1.3360625,0.8187146764427423,-0.20310497178686782,-0.07249430445507168
1744475516799058400,1.346058349609375,0.2834638904035091,-0.2774864599617198,-0.04975296888016164
1744475516809054700,1.3560546875,-0.2664759307235479,-0.09310229952940717,-0.1114138907622546
1744475516819050500,1.366050537109375,-0.5938870994031429,0.15364261988373473,-0.14624153158068656
1744475516829046500,1.376046630859375,-0.8232260163873434,0.27791414732187986,-0.1150843959685415
1744475516839042300,1.386042236328125,-1.0384417154729366,0.34985962225515393,-0.07065634843818842
1744475516849038600,1.39603857421875,-1.3151701601415873,0.32815990468766537,-0.11065437763184309
1744475516859034600,1.40603466796875,-1.798192161771655,0.16864254755163563,-0.1357279555466026
1744475516869030400,1.416030517578125,-2.45125216563344,-0.04343801357969641,-0.17377952684760092
1744475516879026400,1.4260263671875,-2.96765270525217,-0.06855100105623714,-0.2442013358775526
1744475516889022500,1.4360224609375,-3.164713738965988,0.10228605173183604,-0.2883913368683308
1744475516899018500,1.4460185546875,-3.040360798588395,0.26829149224553256,-0.2926748594064265
1744475516909014500,1.4560146484375,-2.75823254070282,0.39836142203044145,-0.25201880469545723
1744475516919010600,1.466010498046875,-2.1919518256276844,0.42467637830842286,-0.1427711520563811
1744475516929006600,1.476006591796875,-1.5933862130194902,0.15150081294891424,0.03135536159798503
1744475516939002600,1.486002685546875,-1.1771212873667478,-0.20533492279602214,0.2792109821993857
1744475516948998400,1.495998291015625,-0.9202192406743764,-0.48455575053598726,0.5161049176730216
1744475516958994700,1.50599462890625,-0.8146329600870609,-0.5572987325225025,0.5745433703772723
1744475516968990500,1.515990478515625,-0.7129220596283674,-0.3949709028093144,0.4733370584398508
1744475516978986500,1.525986572265625,-0.5548720168322324,-0.14563167432034388,0.4231612610377371
1744475516988982500,1.535982421875,-0.4868699092298746,0.02619238249437185,0.5833654131278395
1744475516998978600,1.545978515625,-0.5549374832838774,-0.004831586016557412,0.8905343695718795
1744475517008974600,1.555974609375,-0.7871668610125779,-0.10392645761631429,1.1574204154662788
1744475517018970400,1.565970458984375,-1.0512655412107705,-0.046690366439148784,1.3082120115667581
1744475517028966400,1.57596630859375,-1.2152946584165096,0.14587788590006528,1.2169395030140877
1744475517038962700,1.585962646484375,-1.243136605066061,0.372492492486909,1.0563444519102574
1744475517048958500,1.59595849609375,-1.1246008265346288,0.5634712836775928,0.9156468912575393
1744475517058954500,1.60595458984375,-1.0123334607481955,0.6249206817008555,0.8654007320329546
1744475517068950500,1.615950439453125,-1.0339923348486424,0.46605738629307597,0.9154981304366141
1744475517078946600,1.625946533203125,-1.1250269429922104,0.28574343444174155,0.8946318680185824
1744475517088942600,1.635942626953125,-0.9929109673976898,0.23318017564751206,0.736598995552957
1744475517098938400,1.6459384765625,-0.4287503132164478,0.3714095195557922,0.5403890987757594
1744475517108934700,1.6559345703125,0.506595184919238,0.6335984936751425,0.40170700613129884
1744475517118929700,1.6659296875,1.5991595357239246,0.9444663777023553,0.3080593659451231
1744475517128925400,1.675925537109375,2.670788650527596,1.2508736290588973,0.22279218048816546
1744475517138921500,1.68592138671875,3.4241929426699875,1.363730339040607,0.11388621742622926
1744475517148917500,1.69591748046875,3.834954010209441,1.2960121629461645,0.001876936320401728
1744475517158913500,1.70591357421875,3.9254076035946603,1.091706418801099,-0.08231960596404969
1744475517168909600,1.71590966796875,3.872459272739291,0.8353340950712561,-0.13208974517472089
1744475517178905600,1.725905517578125,3.867036078646779,0.619220131971687,-0.16612345913648605
1744475517188901400,1.7359013671875,4.056343429493904,0.5307824815187603,-0.16115926085785032
1744475517198897700,1.745897705078125,4.427977186259627,0.5417878596577793,-0.10147405949551612
1744475517208893400,1.7558935546875,4.879837741428614,0.6271300283133984,-0.014519706402905284
1744475517218889500,1.765889404296875,5.200957116487622,0.8372699585046619,0.05513824211508035
1744475517228885500,1.775885498046875,5.337453499123454,0.9981268023498355,0.1333082358526997
1744475517238881500,1.785881591796875,5.231513582792878,1.0057334048960358,0.2271971191825345
1744475517248877600,1.795877685546875,4.947538820257782,0.9860785640943794,0.1969004728572443
1744475517258873300,1.805873291015625,4.513132673236727,1.0010190166600048,0.052829828175390135
1744475517268869600,1.81586962890625,3.888994227954745,0.9243884161178022,-0.17982092590369284
1744475517278865700,1.82586572265625,3.1808056265890596,0.7790781009726225,-0.31033859945610165
1744475517288861400,1.835861328125,2.301255665433407,0.6982691918324678,-0.2817206999979913
1744475517298857500,1.845857421875,1.522656141757965,0.7481341697197407,-0.02732416985314339
1744475517308853500,1.855853515625,1.0321692110747098,0.792797268114984,0.3848338684700429
1744475517318849500,1.865849609375,0.8506710726737976,0.7676795587975531,0.8636573954969644
1744475517328846300,1.875846435546875,0.9278121800214052,0.6876536897938698,1.0823603521764278
1744475517338842400,1.88584228515625,1.1075491539686917,0.5521807684542611,1.1037701468866319
1744475517348838400,1.89583837890625,1.1089426541537046,0.2638409425774589,1.0222657297629862
1744475517358834400,1.90583447265625,0.7856932813286781,-0.13395920144156553,0.7971052675072103
1744475517368830500,1.91583056640625,0.20300854394137857,-0.598709331927821,0.7106238656885921
1744475517378826500,1.925826416015625,-0.5437076487392187,-0.9828329332366585,0.6751550774224102
1744475517388822300,1.935822265625,-1.2222422855973243,-1.1544977329526096,0.6943645125441252
1744475517398818600,1.945818603515625,-1.7316846766412257,-1.2425855470545588,0.8184436774816364
1744475517408814300,1.955814453125,-2.0322756429344415,-1.2692188485667109,1.0034041582308708
1744475517418810400,1.965810302734375,-2.0992221040040255,-1.2935077789098024,1.2154941995766013
1744475517428805400,1.975805419921875,-1.9860674339890478,-1.2939971698619424,1.3948705965831876
1744475517438801400,1.985801513671875,-1.7615034763216972,-1.3151276361741124,1.5250170256704092
1744475517448797400,1.99579736328125,-1.6126269200623033,-1.385385852140188,1.5956746162176132
1744475517458793500,2.00579345703125,-1.6356383778154848,-1.5445686983585356,1.6958099379226563
1744475517468789200,2.015789306640625,-1.702344015866518,-1.7128142642155288,1.7971221944525837
1744475517478785500,2.02578564453125,-1.7938491641312837,-1.8098674019962548,1.9267415309257805
1744475517488781600,2.035781494140625,-1.8078011171162127,-1.861490621727705,2.090776054958999
1744475517498777300,2.04577734375,-1.772048835733533,-1.8448495757892727,2.2135699293263253
1744475517508773400,2.0557734375,-1.708919887125492,-1.703974978069216,2.2312711518421766
1744475517518769400,2.065769287109375,-1.737847875446081,-1.3889230863556266,2.1544449556626377
1744475517528765400,2.075765380859375,-1.8485393702179191,-1.1321948618602007,2.0032380567595363
1744475517538761500,2.085761474609375,-1.9921932233929633,-1.021461646838486,1.7301992603890597
1744475517548757200,2.09575732421875,-2.2588713986903426,-1.0209556700777263,1.4951599398061632
1744475517558753500,2.10575341796875,-2.7344243796139955,-1.2755844380758703,1.4621199861221015
1744475517568749300,2.115749267578125,-3.1895828072845935,-1.699398902325332,1.5071910077311097
1744475517578745300,2.125745361328125,-3.353068319132924,-2.0175959601968527,1.540557563021034
1744475517588741400,2.135741455078125,-3.219255476492643,-2.106577873594314,1.5759768130570648
1744475517598737400,2.1457373046875,-2.930957005539536,-2.008954096318781,1.667616839747876
1744475517608733400,2.1557333984375,-2.6565584651231764,-1.8485748799227177,1.7452577133111655
1744475517618729500,2.1657294921875,-2.4247844299465418,-1.5900561918139458,1.7227324316397308
1744475517628725200,2.175725341796875,-2.3212065665721893,-1.3218543140806256,1.6167226649433373
1744475517638721500,2.185721435546875,-2.64170634842813,-1.0830028878636657,1.5221160435318946
1744475517648717300,2.19571728515625,-3.3683360308915375,-0.7592017263747751,1.4144398049280047
1744475517658713300,2.20571337890625,-4.213094080129266,-0.3080200933806598,1.2604121495157479
1744475517668709600,2.215709716796875,-4.79174035578072,-0.11748159330338238,1.0732311431728303
1744475517678705400,2.225705322265625,-4.639540792578458,-0.12875263664126396,0.8400823125116527
1744475517688701400,2.235701416015625,-4.001292573401332,-0.17693083048537372,0.5942629469782114
1744475517698697200,2.245697265625,-3.2139193761616944,-0.2771204396609217,0.5105621888540685
1744475517708693500,2.255693603515625,-2.631088508301973,-0.3746886142916977,0.6093839437425136
1744475517718689500,2.265689453125,-2.5731062749326226,-0.42943646884970366,0.7547003233022987
1744475517728685300,2.275685302734375,-3.2231115673989055,-0.3946934375748038,0.7309504682719707
1744475517738680300,2.285680419921875,-4.548443640592694,-0.18093232121169567,0.4608749056212604
1744475517748676400,2.29567626953125,-6.149265556570887,0.38122766067162156,-0.03909077815562487
1744475517758672400,2.30567236328125,-7.612228569388389,1.2175653798274695,-0.450425992321223
1744475517768668400,2.31566845703125,-8.548475400277972,1.7594168793059886,-0.7651607809096574
1744475517778664400,2.32566455078125,-8.712945246988534,1.9019775304168463,-1.0585348015613854
1744475517788660200,2.33566015625,-8.20760853769779,1.6958805189408361,-1.2522440406292676
1744475517798656500,2.345656494140625,-7.2947794072747225,1.3655188298925756,-1.250120764864981
1744475517808652300,2.35565234375,-6.162809513276815,1.1439400985810906,-1.144594251640886
1744475517818648300,2.3656484375,-4.965383689028024,1.239600247633457,-1.0990255096428097
1744475517828644600,2.37564453125,-3.852105636018514,1.6284076959095894,-1.0759211859744042
1744475517838640400,2.385640380859375,-2.8668916528642177,2.221488593496382,-1.0452032454971223
1744475517848636400,2.395636474609375,-2.0087918914943934,2.8719945289611815,-1.2278440511271356
1744475517858632400,2.405632568359375,-1.3723136045992375,3.3656861009046435,-1.4754120138935745
1744475517868628500,2.41562841796875,-0.8709189109325408,3.622512744273245,-1.7566300250664353
1744475517878624500,2.42562451171875,-0.51414486964643,3.5555566385924813,-1.9916535635583101
1744475517888620300,2.435620361328125,-0.28956279180049893,3.2040082230001685,-2.1104203743666408
1744475517898616300,2.4456162109375,-0.1460872178018093,2.718764453667402,-2.242684233999252
1744475517908612600,2.455612548828125,0.027250410497188567,2.3094291811473666,-2.392413023173809
1744475517918608400,2.4656083984375,0.341340909832716,2.098734320487082,-2.5928976015955207
1744475517928604400,2.4756044921875,0.7781938654839992,2.0085969534441825,-2.7424136248022317
1744475517938600200,2.48560009765625,1.2544617166787386,1.9618238040924072,-2.733200098516047
1744475517948596500,2.495596435546875,1.7578771025180815,1.8628788612157106,-2.57758721973896
1744475517958592500,2.505592529296875,2.2589333580106494,1.751980299564451,-2.408105682346225
1744475517968588300,2.51558837890625,2.74665023945868,1.688154308602959,-2.2360420195057986
1744475517978584300,2.525584228515625,3.2167911322057243,1.698071891505271,-2.099756357011199
1744475517988580400,2.535580322265625,3.6110423789709802,1.7173704662151634,-1.954382840436697
1744475517998576400,2.545576416015625,3.9527416007220744,1.7146803503483532,-1.9108470655709504
1744475518008572400,2.555572509765625,4.220357933652401,1.695175585541874,-1.9702271830394862
1744475518018567400,2.5655673828125,4.404079593321681,1.6089952855616807,-2.104837167406827
1744475518028563500,2.5755634765625,4.506427038118243,1.490075037757307,-2.325138791454583
1744475518038559500,2.5855595703125,4.582346494716406,1.3327328509695828,-2.5368764391660688
1744475518048555300,2.59555517578125,4.562207377529144,1.1858775714047252,-2.6515023507773874
1744475518058551300,2.60555126953125,4.498289908891916,1.083005079820752,-2.6647905791565774
1744475518068547600,2.615547607421875,4.451353385671973,1.1372827595837414,-2.694263926400244
1744475518078543400,2.62554345703125,4.396162244325876,1.3730579932257532,-2.6992534052506088
1744475518088539400,2.635539306640625,4.418770966497063,1.659128997387737,-2.599177412517369
1744475518098535400,2.645535400390625,4.373782654735446,1.8848820187091826,-2.397651800610125
1744475518108531500,2.655531494140625,4.242186319100856,1.9138256429903209,-2.1239538096785546
1744475518118527500,2.665527587890625,3.9354789157539605,1.7179842141993342,-1.8249302388325332
1744475518128523300,2.675523193359375,3.528254205647111,1.4801795205563306,-1.7083138840563594
1744475518138519300,2.685519287109375,3.260228122872114,1.3553437650978564,-1.8475513820938765
1744475518148515600,2.695515625,3.1934546802818775,1.2913462169617413,-2.0011057209059593
1744475518158511400,2.705511474609375,3.2984979400336742,1.2403078113809227,-1.9143416296884417
1744475518168507400,2.71550732421875,3.4037586419284342,1.1417086132019758,-1.5900193669348954
1744475518178503400,2.72550341796875,3.5016397549659013,1.0652192477613687,-1.3339727680280804
1744475518188499500,2.73549951171875,3.687874274238944,1.0250573332428932,-1.3053266653887927
1744475518198495500,2.74549560546875,3.9958921756625174,1.0517115314126013,-1.3993069715954363
1744475518208491300,2.7554912109375,4.358709588766097,1.0606637764140963,-1.4461353582657872
1744475518218487600,2.765487548828125,4.7242345072627066,0.9520508414819836,-1.4901913576133548
1744475518228483300,2.7754833984375,4.955249833026528,0.7612675728634,-1.5292169615782796
1744475518238479400,2.785479248046875,4.908395727393031,0.5455465546041727,-1.521510332723707
1744475518248475400,2.795475341796875,4.712064761519432,0.3942909942537546,-1.5640895375169812
1744475518258471400,2.805471435546875,4.374453685864806,0.3294447203338146,-1.6337696613341568
1744475518268467500,2.815467529296875,3.8721822093635794,0.2715998496085405,-1.6642099539138375
1744475518278463500,2.82546337890625,3.1640093900889155,0.21799071675688028,-1.5920811217702924
1744475518288459300,2.835459228515625,2.3005215059399604,0.27761837924569843,-1.470668034236878
1744475518298455600,2.84545556640625,1.453356395560503,0.45213484206572174,-1.2685789432279766
1744475518308451300,2.855451416015625,0.7385913384139537,0.5889687860928475,-1.0932498488508164
1744475518318446300,2.8654462890625,0.18782500333487986,0.5902469893351197,-0.9030931876979768
1744475518328441300,2.87544140625,-0.31671558714210984,0.43829847828447815,-0.7727738862618804
1744475518338437400,2.885437255859375,-0.9982377153784036,0.16447101575434206,-0.8211716411408037
1744475518348433200,2.89543310546875,-1.7826836269944906,-0.07722937015295028,-0.9094790893428027
1744475518358429200,2.90542919921875,-2.4332903924852607,-0.2199061949893832,-1.0791722236596046
1744475518368425500,2.915425537109375,-2.7982933329343793,-0.16675971121340988,-1.255937926711142
1744475518378421200,2.925421142578125,-2.9485470227658745,-0.010273118341714143,-1.335725603044778
1744475518388417300,2.935417236328125,-2.7994641302794214,-0.018398557130247354,-1.337181939332932
1744475518398413000,2.9454130859375,-2.571069216147065,-0.18390593019500373,-1.3705097700476645
1744475518408409300,2.955409423828125,-2.373524198308587,-0.49505847638249395,-1.3626606639824808
1744475518418405400,2.9654052734375,-2.1262311069607733,-0.7739981673598288,-1.2615328241087496
1744475518428401200,2.975401123046875,-1.9508248556941747,-0.9329232394248247,-1.1049841257862747
1744475518438397200,2.985397216796875,-1.9868167910516261,-1.019636915629357,-0.9848427386891097
1744475518448393500,2.9953935546875,-2.6007161663919685,-1.0135198940537868,-0.970389777379483
1744475518458389200,3.00538916015625,-3.6030046184659,-0.944255876756832,-0.9102153677280992
1744475518468385300,3.01538525390625,-4.5885243065685035,-0.7707949143391102,-0.6265708600606769
1744475518478381300,3.02538134765625,-5.36778433997929,-0.4594727837383747,-0.2126184856666252
1744475518488377300,3.03537744140625,-5.87473140707612,-0.22725611936077475,0.33999924943279475
1744475518498373400,3.045373291015625,-6.20355010446608,-0.1871157225543633,0.9488631513565778
1744475518508369200,3.055369140625,-6.3943684443980455,-0.23904994446374475,1.5106450937077402
1744475518518365400,3.065365478515625,-6.435794095242023,-0.41486620130334045,1.96541802919209
1744475518528361200,3.075361328125,-6.239574188527465,-0.6653191083889454,2.236342171496153
1744475518538357200,3.085357177734375,-5.796664417055249,-0.8956230710130184,2.335483075336367
1744475518548353300,3.095353271484375,-5.069344414240121,-1.1209590359661727,2.308883383832872
1744475518558349300,3.105349365234375,-4.227133711397648,-1.2998422426283358,2.2741867489829657
1744475518568345300,3.115345458984375,-3.325326325726509,-1.4137025766946374,2.3290886981241403
1744475518578341000,3.125341064453125,-2.4217782338678835,-1.4314737957067787,2.4002706048063933
1744475518588337200,3.135337158203125,-1.6076006163328884,-1.3419723884798587,2.4388963957987726
1744475518598333400,3.14533349609375,-0.9514899927288293,-1.2041101973835378,2.4466484712302683
1744475518608329200,3.1553291015625,-0.5517056617558003,-1.1022696061305701,2.4164909411147235
1744475518618325200,3.1653251953125,-0.40312954974770543,-1.0673381396114825,2.388851677430421
1744475518628320300,3.1753203125,-0.48173956060409545,-1.076969891309738,2.5108885959506035
1744475518638316300,3.18531640625,-0.7432207517802715,-1.0631770744092761,2.7301380805969235
1744475518648312300,3.195312255859375,-0.9901303967684507,-0.983839918322116,3.039858402024209
1744475518658308400,3.205308349609375,-1.1513760207355022,-0.7393934485770761,3.280077609463036
1744475518668304100,3.21530419921875,-1.1826268990457056,-0.4041942198371514,3.4319898801565167
1744475518678300400,3.225300537109375,-0.9827297651231288,-0.11838102636113762,3.5148102021843193
1744475518688296200,3.235296142578125,-0.6323994931489229,0.060611138834524896,3.509250522230565
1744475518698292200,3.245292236328125,-0.15948153690397737,0.16141674275025725,3.3706939921945334
1744475518708288300,3.255288330078125,0.3579354862809181,0.22463329657651482,3.149203742884099
1744475518718284300,3.2652841796875,0.8633645500302314,0.28390739638730883,2.9041169294089078
1744475518728280300,3.2752802734375,1.3783750965952872,0.3324190965021029,2.649869781139493
1744475518738276400,3.2852763671875,1.9057272383391857,0.3824199391961097,2.408621522913873
1744475518748272000,3.295272216796875,2.358960250905156,0.432106930167973,2.202318613602221
1744475518758268400,3.305268310546875,2.7482202652543783,0.42974772675596173,1.9715385578989981
1744475518768264200,3.31526416015625,3.000675269410014,0.3761524762991816,1.7106477338314054
1744475518778260200,3.32526025390625,3.09484642201364,0.2663785347636789,1.4925257919102906
1744475518788256300,3.33525634765625,3.0024159755975006,0.11216076360680162,1.4077198490232228
1744475518798252300,3.345252197265625,2.73654210242033,-0.009989186833798885,1.3771665975883602
1744475518808248300,3.355248291015625,2.321661909124255,-0.05235533339828252,1.2875475553311406
1744475518818244000,3.365244140625,1.9161176994502542,-0.03954904331713915,1.2163592189081012
1744475518828240400,3.375240478515625,1.5584873335957525,0.010402663005515933,1.1104482364110648
1744475518838236400,3.385236328125,1.0670248358786105,0.11198657608367502,0.8735629957005381
1744475518848232200,3.395232177734375,0.5766220763474702,0.2590755182739347,0.7965687494777143
1744475518858228200,3.405228271484375,0.07300093880295754,0.25401801568865773,1.2287949221111834
1744475518868224300,3.415224365234375,-0.47068566714823246,0.14465762339010835,1.841883711721003
1744475518878220300,3.42522021484375,-0.8791355351358652,0.017741116134822366,2.4656173755943773
1744475518888216300,3.43521630859375,-0.9629378539383411,0.004771159924566746,2.9159757095068692
1744475518898212000,3.445212158203125,-0.7084457909971476,0.1159451775163412,3.104881201554835
1744475518908208400,3.45520849609375,-0.3370779916912317,0.14808540588170288,2.884966823258996
1744475518918204400,3.465204345703125,0.11600713683664798,0.26161197794899343,2.378218931996077
1744475518928200200,3.4752001953125,0.5958551846057176,0.327600407641381,1.8333878321848809
1744475518938196200,3.4851962890625,1.0295230804800988,0.2740732539847493,1.2675430243089794
1744475518948192300,3.495192138671875,1.1890145542562007,0.17623685687184332,0.7845056789793073
1744475518958188300,3.505188232421875,1.0829910512953995,0.09818462602868676,0.3980221436060965
1744475518968184300,3.515184326171875,0.6907154885172844,0.033706162507832045,0.04548442471548915
1744475518978179300,3.525179443359375,-0.024058920979499816,-0.11621624954268335,-0.26254049097076054
1744475518988175400,3.53517529296875,-1.0348480748951434,-0.38000907866209743,-0.5010146083079278
1744475518998171400,3.54517138671875,-2.092709945631027,-0.5880586855106056,-0.7172673953562975
1744475519008167200,3.555167236328125,-3.066916212558746,-0.564413313768059,-0.7881262075640261
1744475519018163200,3.5651630859375,-3.861129484951496,-0.35278102612718937,-0.6488295266851782
1744475519028159500,3.575159423828125,-4.381092100965977,-0.17810367365702987,-0.35881256137639284
1744475519038155300,3.5851552734375,-4.677657465004921,-0.1028694228440523,-0.20165318380966782
1744475519048151300,3.5951513671875,-4.666518815875053,-0.08249810433611274,-0.46314358120560645
1744475519058147000,3.60514697265625,-4.375193106055259,-0.11802636770457028,-1.0461975902967153
1744475519068143400,3.615143310546875,-3.998942795404792,-0.210225343452394,-1.721572155688703
1744475519078139400,3.625139404296875,-3.6855969769567247,-0.3250910551689565,-2.2218895755127073
1744475519088135200,3.63513525390625,-3.314002383157611,-0.3860977509260177,-2.445491117888689
1744475519098131200,3.645131103515625,-3.068113897910714,-0.39515564825907346,-2.366373157510161
1744475519108127200,3.655127197265625,-3.004325024089217,-0.3577216973997652,-2.110650091469288
1744475519118123300,3.665123291015625,-3.180122320500016,-0.24747750800400972,-1.8271490839257836
1744475519128119300,3.675119384765625,-3.564727787041664,-0.15571677754297852,-1.593619437253475
1744475519138115000,3.685114990234375,-3.9896488973587747,-0.023663784182071684,-1.3482701734498141
1744475519148111400,3.695111328125,-4.264359572464228,0.21506766891703008,-1.1809224332153796
1744475519158107400,3.705107421875,-4.339627287155389,0.688563132788986,-1.1522029000137
1744475519168103200,3.715103271484375,-4.228188773408532,1.287261431866139,-1.2764607825189829
1744475519178099500,3.725099365234375,-3.7542023111492395,1.8297655500344931,-1.4979244360834358
1744475519188095200,3.73509521484375,-2.953138442209363,2.241716558010876,-1.7221785971492527
1744475519198091300,3.74509130859375,-1.999635356092453,2.485092475914955,-1.807683043694496
1744475519208087300,3.75508740234375,-1.0783879414141178,2.501782329431176,-1.6970013396643102
1744475519218083300,3.765083251953125,-0.2689554725795984,2.4469988921031356,-1.5665343003205954
1744475519228079400,3.775079345703125,0.43697395168244835,2.4572210109099744,-1.615558443469554
1744475519238075100,3.7850751953125,1.0034487280249595,2.480379475918412,-1.7614520383954047
1744475519248071200,3.7950712890625,1.4803361724227666,2.498970194619894,-1.9396759774312375
1744475519258067500,3.8050673828125,1.9381950912237167,2.447263534388691,-2.081748845025152
1744475519268063200,3.815063232421875,2.3402514587819576,2.2986372996285556,-2.2295020963430403
1744475519278059300,3.825059326171875,2.6532103237390516,2.073415608704835,-2.4108820151917634
1744475519288055300,3.83505517578125,2.9031828634291887,1.8201381822504101,-2.632219558158517
1744475519298051300,3.84505126953125,3.185051593595743,1.5868651406876741,-2.8281480807110664
1744475519308047400,3.85504736328125,3.46126448995769,1.3861965840011834,-2.846293393732607
1744475519318043100,3.865043212890625,3.788837571200728,1.1851751222237943,-2.7718460555136204
1744475519328040200,3.875040283203125,4.124844718790054,1.0339318368330597,-2.6789573439359664
1744475519338036000,3.885035888671875,4.436653829190135,0.9565478606402873,-2.549441029445827
1744475519348032300,3.8950322265625,4.704276591861248,0.9269605316281319,-2.445131052404642
1744475519358027300,3.90502734375,4.941248195680975,0.9302306393399834,-2.368309678530693
1744475519368023000,3.91502294921875,5.099532631754875,0.9447779278695583,-2.364204873560369
1744475519378019000,3.92501904296875,5.268768669953942,0.9513920853123068,-2.4277111310482025
1744475519388015400,3.935015380859375,5.461546911782026,0.9592194179370999,-2.525940034610033
1744475519398011100,3.94501123046875,5.6138633793622255,0.9520815288811921,-2.608602243466675
1744475519408007200,3.955007080078125,5.764430957448482,0.9746703773081302,-2.6822502480015156
1744475519418003200,3.965003173828125,5.786566801410913,0.9268336903780698,-2.9204233365654946
1744475519427999200,3.974999267578125,5.696222513619065,0.7835156450286507,-3.229920078369975
1744475519437995300,3.984995361328125,5.5833051594913,0.61470601554811,-3.3434695929214358
1744475519447991000,3.994990966796875,5.437226709517836,0.5734335094392299,-3.3422935348793863
1744475519457987000,4.004987060546875,4.992772631213069,0.6680681879013777,-3.2428564245715736
1744475519467983400,4.0149833984375,4.2151358150899405,0.7431025322280824,-3.0445062278300523
1744475519477979100,4.024979248046875,3.2153216441750523,0.8682821326881647,-2.595868434099853
1744475519487975200,4.03497509765625,2.1542408113926648,1.0502623555175958,-2.24383968764469
1744475519497971000,4.044970947265625,1.2288199104219675,1.1998140345595776,-2.1065105074465276
1744475519507967200,4.05496728515625,0.4850958852946758,1.262384472502023,-2.1557351416036483
1744475519517963300,4.06496337890625,-0.001342062258720398,1.1411733372814952,-2.185370547541231
1744475519527959000,4.074958984375,-0.33979894108772274,0.8700045725665986,-1.9683773173891006
1744475519537955000,4.084955078125,-0.5803168392121791,0.5307774400174617,-1.6468325565248727
1744475519547951000,4.094951171875,-0.8591402103334664,0.2120839769311249,-1.36145435693264
1744475519557947100,4.104947021484375,-1.1344617108136414,-0.04409077840000391,-1.236359804407507
1744475519567943200,4.114943115234375,-1.3939181181639433,-0.25521073260456323,-1.1423098670307545
1744475519577939200,4.124939208984375,-1.801642594486475,-0.5220530124224723,-0.9762458829965441
1744475519587935200,4.134935302734375,-2.379476969233155,-0.8130532896801829,-0.7880314419526606
1744475519597931300,4.14493115234375,-3.0463036326408384,-1.0620746661253273,-0.6486430642023682
1744475519607927000,4.154927001953125,-3.5579596080809828,-1.2925110229574144,-0.4552657970352098
1744475519617923300,4.16492333984375,-3.8323160629212856,-1.4733013053499162,-0.09856065626684575
1744475519627919000,4.174919189453125,-3.8777106173962355,-1.6277229285158217,0.2665818022508174
1744475519637915100,4.1849150390625,-3.6584915278881787,-1.6505251274324952,0.5760903075583279
1744475519647911200,4.1949111328125,-3.3176708425372836,-1.6097385051444173,0.8798073699828237
1744475519657907200,4.2049072265625,-2.916837294772267,-1.6730125613115727,1.1672599646963178
1744475519667903200,4.2149033203125,-2.3771897350788116,-1.8396851787634192,1.4137885014124214
1744475519677899000,4.22489892578125,-1.8557710750371217,-1.977435799244046,1.7239099509865043
1744475519687895000,4.23489501953125,-1.5046715722560882,-2.187170436570048,2.168131097318232
1744475519697891300,4.244891357421875,-1.3777765461802483,-2.4772405933707953,2.650992355428636
1744475519707887000,4.25488720703125,-1.494554082867503,-2.8005162696808577,3.065764119914174
1744475519717883100,4.264883056640625,-1.8942858068704604,-3.081670714098215,3.349599473978579
1744475519727879200,4.274879150390625,-2.5524317356944084,-3.151074505192041,3.369690952631831
1744475519737874200,4.284874267578125,-3.243148393255472,-2.964210748104751,3.0012434246867894
1744475519747870200,4.2948701171875,-4.023782637628913,-2.699294614043832,2.462831544268131
1744475519757866200,4.3048662109375,-5.124558351939917,-2.4469451160892843,2.061553905997425
1744475519767862000,4.314862060546875,-6.502160710597038,-2.131357217802852,1.8144675892680882
1744475519777858300,4.3248583984375,-7.880071696811914,-1.7833236784636974,1.773436198438704
1744475519787854000,4.33485400390625,-8.679264511182904,-1.3919307437390087,1.9550768140502273
1744475519797850000,4.34485009765625,-8.75467543373704,-0.8520668378811329,2.244121427195519
1744475519807846100,4.35484619140625,-8.239661964562535,-0.23974874038286506,2.3898780978687104
1744475519817842200,4.36484228515625,-7.034249817734956,0.3644532706771046,2.3533088010147214
1744475519827838200,4.374838134765625,-5.25735880266726,0.7815206718191504,2.167073404958844
1744475519837834200,4.384834228515625,-3.2612399302631614,0.8399383739963173,1.8571359336495399
1744475519847830000,4.394830078125,-1.4324077155560255,0.7827939066253602,1.4627337341062723
1744475519857826300,4.404826416015625,0.005589782831072807,0.7194413783945143,1.0102015632860362
1744475519867822000,4.414822021484375,0.8758148662805557,0.7283214349426329,0.5370673704745248
1744475519877818000,4.424818115234375,1.338691905504465,0.7150159631676971,0.34574919126164166
1744475519887814100,4.434814208984375,1.5784282978624105,0.7472010535880923,0.5294623388309031
1744475519897810200,4.44481005859375,1.7224387093901634,0.8873372540310025,0.7975377406403422
1744475519907806200,4.45480615234375,1.8516922812908887,1.1303880316339432,1.0835995385825634
1744475519917802000,4.464802001953125,2.0083143371105194,1.388329650507122,1.3685603895455598
1744475519927798300,4.47479833984375,2.1973995696395634,1.5682481185011565,1.639611519230157
1744475519937794300,4.484794189453125,2.4445155508548018,1.6959763805307446,1.8219629134595392
1744475519947790000,4.4947900390625,2.7313825277000663,1.77303346285671,1.8502175325632095
1744475519957786000,4.5047861328125,2.9703678094297645,1.7609005419924855,1.8241259367123246
1744475519967782100,4.5147822265625,3.0371529424577948,1.6918895496085284,1.7024845933809876
1744475519977778200,4.524778076171875,2.9194501076191663,1.644722432503104,1.524468744137883
1744475519987774200,4.534774169921875,2.773459920451045,1.6107967820256948,1.317350719051063
1744475519997770000,4.54477001953125,2.6784605003297326,1.576371949854493,1.135681827193126
1744475520007766300,4.554766357421875,2.7323469888180494,1.5427017354428767,0.9969435839146376
1744475520017762300,4.56476220703125,2.9039006563097236,1.531076471839845,0.9755446028593927
1744475520027758000,4.574758056640625,3.1538521532118318,1.5120657741606234,0.9470200077079236
1744475520037754000,4.584754150390625,3.4025732315361497,1.5228379280656574,0.8821855703562498
1744475520047750100,4.594750244140625,3.618759236958623,1.546172041901946,0.7771700753942131
1744475520057746200,4.60474609375,3.7414264162063597,1.5625024144560098,0.6291548121392726
1744475520067742200,4.6147421875,3.712251175126433,1.5166183228984473,0.44811797110717744
1744475520077738000,4.624738037109375,3.540412260952592,1.4459347211271523,0.2932175514483824
1744475520087734300,4.634734375,3.295207666316628,1.411266727849841,0.12139233700633048
1744475520097730000,4.64472998046875,2.9953666416078804,1.317472007343173,-0.03893474734369665
1744475520107725000,4.65472509765625,2.669635388839245,1.1829597842618822,-0.05106109233666211
1744475520117721000,4.66472119140625,2.4209523044377566,1.0915426065415144,-0.017310378301050512
1744475520127717400,4.67471728515625,2.224118649739027,0.9723977562010288,0.06603355660890228
1744475520137713200,4.684713134765625,1.8874235198855398,0.8128799789398908,0.1471233650496695
1744475520147709200,4.694709228515625,1.5348136125415563,0.7054480704858899,0.12899437297526747
1744475520157705000,4.704705078125,1.3742261602222918,0.7393921334028244,0.10309783390560187
1744475520167701200,4.714701171875,1.4743044910430907,0.7733522706717252,0.17148231928851454
1744475520177697300,4.724697265625,1.7642665112942457,0.7210311318039894,0.29918489888757466
1744475520187693000,4.734693115234375,2.1069933225274085,0.5484744247496127,0.3517563592545688
1744475520197689000,4.744689208984375,2.399121580901742,0.41988545423746104,0.25024697271734475
1744475520207685000,4.75468505859375,2.649292858034372,0.3539627832576632,0.07279697719607502
1744475520217681200,4.76468115234375,2.8024434383511543,0.2855167312800884,-0.006650416066218167
1744475520227677200,4.77467724609375,2.7521336393058298,0.17619038738161324,0.06311113895671441
1744475520237673000,4.7846728515625,2.504395726799965,0.07122019286602735,0.15596896220576018
1744475520247669200,4.794669189453125,2.154538333034515,0.05535305390954017,0.12582392624560743
1744475520257665300,4.804665283203125,1.4576321731835602,0.17527677966803312,-0.13504778212956153
1744475520267661000,4.8146611328125,0.2333148348778486,0.4213026275590062,-0.42400275336317717
1744475520277657300,4.8246572265625,-1.137114855670929,0.7472495689049363,-0.535752890342474
1744475520287653000,4.834653076171875,-2.387741524231434,1.079636772431433,-0.5178522727970034
1744475520297649200,4.844649169921875,-3.3789404270142316,1.3347238786563276,-0.8045926275879144
1744475520307645200,4.854645263671875,-4.029477634400129,1.513075827986002,-1.237727731759846
1744475520317641200,4.86464111328125,-4.187915799731016,1.546364057342708,-1.499710296586901
1744475520327636700,4.87463671875,-3.7531981025427577,1.4762544560670852,-1.600169297288358
1744475520337632800,4.8846328125,-2.89827521764338,1.3925465375497936,-1.8515896976992487
1744475520347628500,4.894628662109375,-2.17890529704988,1.3001435636624694,-2.2800065411776305
1744475520357624800,4.904624755859375,-1.9755302578836678,1.1130172101162374,-2.786436306402087
1744475520367620600,4.91462060546875,-2.1681728906333446,0.8881064848378301,-3.241010796704888
1744475520377616600,4.92461669921875,-2.6171616897583005,0.6988409273058176,-3.5319302638113497
1744475520387612700,4.93461279296875,-3.3498592939585445,0.6037273792855441,-3.628307109765708
1744475520397608700,4.944608642578125,-4.22418246037662,0.5433249330319464,-3.462397001118958
1744475520407604700,4.954604736328125,-5.0802486700922245,0.38156799854189155,-3.029343730011582
1744475520417600500,4.9646005859375,-5.681568549844623,0.2127745895437896,-2.4985794417366383
1744475520427596500,4.974596435546875,-5.837173537576199,0.09501629819087684,-1.9682937307588755
1744475520437592800,4.9845927734375,-5.345668954282999,0.031488121132180094,-1.4543484753377736
1744475520447588600,4.994588623046875,-4.209679303249716,0.04308160135746002,-1.0595458783000706
1744475520457583600,5.00458349609375,-2.652584885317087,0.16537066800780592,-0.8575259070046246
1744475520467579600,5.01457958984375,-1.023362219762802,0.2224802832610905,-0.8009811590924859
1744475520477575400,5.024575439453125,0.4527840997546911,0.2103692089024931,-0.8892809354446828
1744475520487571700,5.03457177734375,1.6014672281444071,0.07312712246589362,-0.9548040126476436
1744475520497567700,5.044567626953125,2.2298206607729196,-0.2543267893768847,-0.8685198139015584
1744475520507563500,5.0545634765625,2.3955612580716608,-0.6674327395420521,-0.6247790812730789
1744475520517559800,5.064559814453125,2.242878295266628,-0.9976501247487962,-0.4000790761359036
1744475520527555600,5.0745556640625,2.0016794291406868,-1.1260449609283356,-0.2222805229052901
1744475520537551600,5.084551513671875,1.7501701814025639,-1.1296186546966434,-0.08549260997697711
1744475520547547600,5.094547607421875,1.607732133758068,-1.1631544290736318,0.06451470387801528
1744475520557543700,5.104543701171875,1.4510001878231762,-1.1538478176765143,0.2077816035620868
1744475520567539700,5.114539794921875,1.193764379131794,-1.2107841221895068,0.3141932290576398
1744475520577535700,5.12453564453125,0.8008201233118772,-1.3232932608425616,0.5366194440439344
1744475520587531500,5.134531494140625,0.5218441919773816,-1.4711359440095721,0.9303890447720885
1744475520597527800,5.14452783203125,0.4652975443691015,-1.7342482435189186,1.2678642190873621
1744475520607523600,5.154523681640625,0.42239714479744433,-1.996719030254334,1.4200316335856913
1744475520617519600,5.16451953125,0.32244156357347964,-2.2115827010318636,1.473252790033072
1744475520627515600,5.174515625,0.24961364324986934,-2.374633620855212,1.4510561557941137
1744475520637511700,5.18451171875,0.23995617258846758,-2.472800565096736,1.3837521134585142
1744475520647507700,5.1945078125,0.2649643571168184,-2.4611039898231626,1.3594748735532163
1744475520657503500,5.20450341796875,0.3054986120790243,-2.4113189453043042,1.3426853590548038
1744475520667499500,5.21449951171875,0.3511117777407169,-2.354631866312027,1.3377074245117604
1744475520677495800,5.224495849609375,0.39228316156268117,-2.273242746131122,1.3134328149549663
1744475520687491600,5.23449169921875,0.40981823373138904,-2.190001129951328,1.334081781360507
1744475520697487600,5.244487548828125,0.4208499153554439,-2.039981248875707,1.4576397719681262
1744475520707483600,5.254483642578125,0.43162732995748515,-1.8396961385488508,1.5523124443531036
1744475520717479700,5.264479736328125,0.41537236072719097,-1.725057221325487,1.5748025085806845
1744475520727475700,5.274475830078125,0.5183078345447778,-1.6775472821317612,1.4949287613987923
1744475520737471500,5.284471435546875,0.871972219377756,-1.5846835588648915,1.4897291469290852
1744475520747467800,5.2944677734375,1.3457786488950252,-1.4295144783325493,1.496925634304434
1744475520757463800,5.3044638671875,1.699835247915983,-1.2004106852784753,1.4318524197608231
1744475520767459600,5.31445947265625,1.7959060966610907,-0.9286441008009017,1.3388478267185389
1744475520777455600,5.32445556640625,1.7315718639165163,-0.662462184587866,1.2308935018256306
1744475520787451600,5.33445166015625,1.6087509554117918,-0.447655504694581,1.1153859850741923
1744475520797447700,5.34444775390625,1.5685376029670237,-0.2882274515435099,1.1050576294139027
1744475520807443700,5.354443603515625,1.6364111157536505,-0.047594950596056874,1.0855747841782868
1744475520817439500,5.364439453125,1.780153816255927,0.22534703433644024,1.0691850826524198
1744475520827435800,5.374435791015625,2.022846720331907,0.4184260857420042,0.9265053352065384
1744475520837430800,5.3844306640625,2.209588020083308,0.42620347827784716,0.6291991627376526
1744475520847426600,5.394426513671875,2.4252713366806504,0.30935784479044376,0.35805377889834344
1744475520857422600,5.404422607421875,2.7322254082649944,0.2271783048842102,0.1901589992403984
1744475520867419000,5.4144189453125,2.9052386269152164,0.1529157486476004,0.13737228868752718
1744475520877414700,5.42441455078125,2.8440701647251845,0.015424217494577168,0.14598163853548465
1744475520887410700,5.43441064453125,2.7262627004683018,-0.06333572322651744,0.1374048757828772
1744475520897406500,5.444406494140625,2.6028274594575165,-0.18551942980624733,0.33091851921342313
1744475520907402800,5.45440283203125,2.367800559964776,-0.4232941667024046,0.739479007968679
1744475520917398800,5.464398681640625,1.7957886077612637,-0.6503470185760408,1.109279704088345
1744475520927394600,5.47439453125,1.039420205116272,-0.6098033381983637,1.3676942742355167
1744475520937390600,5.484390625,0.5058627789914608,-0.4275756799465045,1.3995093622997403
1744475520947386600,5.49438671875,0.07604103715121746,-0.31309516815524546,1.2377182332791388
1744475520957382700,5.504382568359375,-0.37983050722479816,-0.3322496216867119,0.8111616307146847
1744475520967378700,5.514378662109375,-1.1042653099924324,-0.5487739556854591,0.19914331988058984
1744475520977374500,5.52437451171875,-2.234344860199094,-0.902855871810764,-0.529754453645274
1744475520987370800,5.534370849609375,-3.811098502847552,-1.3252959789671004,-0.9266117181904614
1744475520997366800,5.54436669921875,-5.521721102237701,-1.5382937097422777,-1.018249918250367
1744475521007362600,5.554362548828125,-7.090257536160945,-1.348153707463294,-0.9127124452408403
1744475521017358600,5.564358642578125,-8.314767182168364,-0.9192689542122184,-0.6744025785546749
1744475521027354600,5.574354736328125,-9.204006178167463,-0.5135467941554263,-0.3773688663516193
1744475521037350700,5.5843505859375,-9.836946938586234,-0.24093064364381134,-0.06573905804120003
1744475521047346700,5.5943466796875,-10.06698669731617,-0.1131948558948934,0.3030878246102482
1744475521057342700,5.6043427734375,-9.882803849875927,-0.17655414266008881,0.5874629846397788
1744475521067338800,5.6143388671875,-9.215243026974797,-0.27659228760097176,0.6657664137650281
1744475521077334500,5.62433447265625,-8.204365610253811,-0.22931604756526647,0.5336902587242425
1744475521087330600,5.63433056640625,-7.097660505893826,-0.06540949729327113,0.2795064945472404
1744475521097326800,5.644326904296875,-6.125159873840213,0.15246858940199018,0.008396602146420627
1744475521107322600,5.654322509765625,-5.150905676117539,0.4750607404273003,-0.12035055460212751
1744475521117318700,5.664318603515625,-4.07496278976798,0.8915691194470972,-0.1847167899201624
1744475521127314700,5.674314697265625,-2.9968215165913104,1.2651935385733841,-0.22397620264096185
1744475521137310700,5.684310791015625,-1.9036866724222898,1.6396179489709435,-0.25923863641377537
1744475521147306800,5.694306640625,-0.9236305104225874,1.9860614426396785,-0.3373335738874972
1744475521157302500,5.704302490234375,-0.17619360225200653,2.277923159032315,-0.38500465845968573
1744475521167297500,5.714297607421875,0.3417944988191128,2.5214140816181896,-0.3942566535927355
1744475521177293600,5.72429345703125,0.7316881348967552,2.6534774502426384,-0.3982921927191317
1744475521187289600,5.73428955078125,0.997300726789236,2.754673094655573,-0.3274881429059431
1744475521197285600,5.74428564453125,1.1616343798995017,2.8306773069277402,-0.1870620013394393
1744475521207281700,5.75428173828125,1.3741542640298605,2.8693475215837356,0.05563068354083225
1744475521217277700,5.764277587890625,1.5724731888502834,2.8652520689636467,0.2841616268767044
1744475521227273700,5.774273681640625,1.7106179232150316,2.7732383866548536,0.5191259094620123
1744475521237269800,5.784269775390625,1.7838357196390628,2.664485166469216,0.7455688492763787
1744475521247265500,5.794265625,1.8611504299879074,2.5493799469083545,0.8949829464785755
1744475521257261800,5.80426171875,1.9912217480123042,2.467531100261211,0.9797263455234467
1744475521267257600,5.814257568359375,1.998165283539891,2.3998364511728285,1.1402561493713408
1744475521277253600,5.824253662109375,1.9377794961601496,2.3578759627997874,1.3830891195051371
1744475521287249700,5.834249755859375,1.9301549926310777,2.333568766147643,1.562737830647081
1744475521297245700,5.84424560546875,1.9943565389066933,2.3399558368362485,1.5977721730187535
1744475521307241700,5.85424169921875,2.1443869413763283,2.3297100448928774,1.5956113417230546
1744475521317237500,5.864237548828125,2.355034017372131,2.3957325229853392,1.5760434485524892
1744475521327234000,5.874234130859375,2.6062013198047875,2.483257077181339,1.499477803005278
1744475521337230000,5.88422998046875,2.8621009114563463,2.456822074720263,1.344839760609716
1744475521347226000,5.89422607421875,3.04844532084465,2.354829142449796,1.1985239947490394
1744475521357222100,5.90422216796875,3.2111329603135585,2.283087409927696,1.0584984881389885
1744475521367218000,5.914218017578125,3.3587206458061933,2.2105834608614443,0.9886346783179789
1744475521377214000,5.9242138671875,3.5336744771301745,2.1527795066684483,1.0037664887372404
1744475521387210200,5.934210205078125,3.7577228864908214,2.0931440992645918,1.0789205869860947
1744475521397206000,5.9442060546875,3.9829228039741515,1.9754224135950207,1.256278264581412
1744475521407202000,5.9542021484375,4.173175911238789,1.8428680465832352,1.4562000945538283
1744475521417198000,5.964197998046875,4.276602967965602,1.6916963651239871,1.6061588930919766
1744475521427194000,5.974194091796875,4.326071640011668,1.5690101889148353,1.6533032138437032
1744475521437190100,5.984190185546875,4.391098531195521,1.484885798551142,1.5759864576682447
1744475521447186000,5.99418603515625,4.470003725606203,1.4594962134897709,1.5114645933970807
1744475521457182200,6.00418212890625,4.509311653643846,1.452940215975046,1.4121908569574355
1744475521467178000,6.014177978515625,4.356677206155657,1.4724623703077435,1.2217946148950607
1744475521477173000,6.024173095703125,3.952094534990191,1.59325586463809,1.0258407387055457
1744475521487169000,6.0341689453125,3.4499171665132042,1.779516833526641,0.8198771443508565
1744475521497165000,6.0441650390625,2.8509634313702583,2.046705004172772,0.5868439394259825
1744475521507161000,6.0541611328125,2.3282588231712578,2.349751546924561,0.39969201304707674
1744475521517157000,6.0641572265625,1.8201263456821442,2.495961660453677,0.2528562966992147
1744475521527153000,6.07415283203125,0.997528105804324,2.370585368377715,0.17869489928213877
1744475521537149200,6.084149169921875,-0.20697569400668142,2.0786444492690266,0.08975319916405715
1744475521547145200,6.094145263671875,-1.4389479309797286,1.7368287615314124,-0.0006342336497735232
1744475521557141000,6.10414111328125,-2.260112923184037,1.4090496363222598,-0.0505570335383527
1744475521567137000,6.114136962890625,-2.4526520955592392,1.1200134987443684,-0.03923486280143261
1744475521577133000,6.124133056640625,-1.9652239679247139,0.8772305782973766,-0.03868457197491079
1744475521587129000,6.134129150390625,-0.91394615175426,0.6593325082600117,0.033712190389819444
1744475521597125000,6.144125,0.372243997618556,0.4894778997711837,0.15537216535639017
1744475521607121000,6.154120849609375,1.434694949710369,0.2681451791100204,0.16683730649426579
1744475521617117200,6.1641171875,2.0918945375949143,-0.05411401363387704,0.15559665829464792
1744475521627113200,6.17411328125,2.3230226760834456,-0.42285161056667564,0.27219701178409156
1744475521637109000,6.18410888671875,2.161006652265787,-0.7991064512617886,0.4477365340415388
1744475521647105000,6.19410498046875,1.6700538576364516,-1.0804844753019511,0.6062259181030094
1744475521657101000,6.20410107421875,1.036529159849882,-1.219230098169297,0.7781787409801035
1744475521667097000,6.21409716796875,0.3903554083704948,-1.2473913399010896,0.9848391584925353
1744475521677093000,6.224093017578125,-0.1506885741174221,-1.2244604000382124,1.189616684867814
1744475521687089000,6.2340888671875,-0.6934954746246338,-1.13597986029163,1.238082536546886
1744475521697085200,6.244085205078125,-1.3417477859437466,-1.057082556926459,1.2684139619246124
1744475521707081000,6.2540810546875,-1.9776509032994507,-1.1242466062694787,1.353547675461322
1744475521717077000,6.264076904296875,-2.502406014287472,-1.262129474827647,1.4200642206810414
1744475521727073000,6.274072998046875,-2.8847213240653273,-1.4138020915463565,1.438892985922098
1744475521737069000,6.284069091796875,-3.028450580564141,-1.5179986713409424,1.4028367531567811
1744475521747064000,6.29406396484375,-3.0125860719561577,-1.4855588755071163,1.3698269023500382
1744475521757060000,6.30406005859375,-3.1158062079340216,-1.3510693026490508,1.4203107427880166
1744475521767056000,6.314055908203125,-3.2428023562967776,-1.1098663448698818,1.3722332328394053
1744475521777052200,6.32405224609375,-3.2014591230392453,-0.8248718838982284,1.3476080562792718
1744475521787048200,6.334048095703125,-2.7950796315848825,-0.5979013034805655,1.3122146713368594
1744475521797044000,6.3440439453125,-2.042802297645807,-0.3758306239336729,1.2397002008765936
1744475521807040000,6.3540400390625,-1.276661858049035,-0.144390643016994,1.0086195547915995
1744475521817036000,6.3640361328125,-0.6193821906656026,0.09995864996388554,0.5719955855906009
1744475521827032000,6.374031982421875,-0.05647767402529716,0.33168694630265233,0.0038859015226364135
1744475521837028000,6.384028076171875,0.13755378273427485,0.4811404256671667,-0.6434804207421839
1744475521847023900,6.39402392578125,-0.5445172115564346,0.4411468534529209,-1.1194606871671975
1744475521857020200,6.404020263671875,-1.9835709409981965,0.3014664339534938,-1.1555354785025118
1744475521867016200,6.41401611328125,-3.680753628578782,0.22405805397182701,-0.8513163848400116
1744475521877012000,6.424011962890625,-5.049921336367726,0.20769860145375132,-0.13383183960169553
1744475521887008300,6.43400830078125,-5.536213153448701,0.3738629771225154,0.9338730874955654
1744475521897004000,6.444004150390625,-5.02923218408227,0.7292601770974695,1.941939538449049
1744475521907000000,6.454,-3.7474458226263523,1.1811525887094438,2.68544992082566
1744475521916996000,6.46399609375,-1.8883026408076284,1.5999674911059438,3.2259745556145902
1744475521926992100,6.4739921875,0.017602292186021804,1.881597005689144,3.4746833589792248
1744475521936988200,6.48398828125,1.6142665039628743,1.9347078336298464,3.4539214337185022
1744475521946984000,6.49398388671875,2.749492184886336,1.6611987893991171,3.2584590673729776
1744475521956980000,6.50397998046875,3.4214445207446813,1.1743195278190075,2.995934504623711
1744475521966976300,6.513976318359375,3.7102106092095375,0.6911608941972255,2.715828984737396
1744475521976972000,6.523971923828125,3.771382578530907,0.23881211711987851,2.430358430686593
1744475521986967000,6.533967041015625,3.698095808523893,-0.15918752239346504,2.201917339324951
1744475521996963000,6.543963134765625,3.518805409300327,-0.4468021027356386,1.9927242615297436
1744475522006958800,6.553958740234375,3.116346890681982,-0.6448392880052328,1.8182897779047489
1744475522016955100,6.563955078125,2.6132787108451128,-0.7053834808170795,1.820035160267353
1744475522026951200,6.573951171875,1.9553163218945264,-0.6302515213347971,2.036312643365562
1744475522036947000,6.583947021484375,1.0522422772884368,-0.43906274065524337,2.406971417619288
1744475522046943200,6.593943115234375,-0.039974867513775825,-0.1776139904439449,2.854725706513226
1744475522056939000,6.60393896484375,-1.0165005172997712,0.1413238027922809,3.296822992558777
1744475522066935000,6.61393505859375,-1.7643939370661972,0.44932679890766736,3.684573479127884
1744475522076931000,6.62393115234375,-2.3037650179058313,0.7756698999643326,3.91410645737946
1744475522086927000,6.633927001953125,-2.6978818246364593,1.0510915728833525,3.9210380102083087
1744475522096923100,6.643923095703125,-2.9347599049538373,1.2121319566018878,3.6359631774768233
1744475522106919200,6.653919189453125,-2.849656440424919,1.2867556743010877,3.1678482375994323
1744475522116915000,6.6639150390625,-2.4841315219283104,1.2323701502494513,2.6341990415379404
1744475522126911200,6.6739111328125,-2.0441110421568154,1.0135938360728323,2.1316618998378516
1744475522136907000,6.683906982421875,-1.8141238903969525,0.8078969298303127,1.7283195841223
1744475522146903000,6.693903076171875,-1.7351345248341559,0.6347730904124677,1.438203250092268
1744475522156899000,6.703899169921875,-1.7989409343123435,0.6039001055039465,1.1859972522616387
1744475522166895000,6.71389501953125,-1.8821616538345813,0.6627591217078268,0.9397072004765271
1744475522176891100,6.72389111328125,-1.8976357018202543,0.8398837211996316,0.8524585406124592
1744475522186887000,6.733886962890625,-1.7930179740041494,1.1199459864661097,1.0698612283483147
1744475522196883000,6.743883056640625,-1.5632225454241035,1.4464640056982636,1.4805235116884112
1744475522206879200,6.753879150390625,-1.3796452626615763,1.7475556149899958,1.8475579579651356
1744475522216874200,6.763874267578125,-1.2863432941079138,2.0570035492166876,2.131198666240275
1744475522226870000,6.7738701171875,-1.0283744949668645,2.3334119681507346,2.3184812332615254
1744475522236866000,6.783865966796875,-0.6036065293848514,2.4656103613317013,2.429446284277737
1744475522246862000,6.793862060546875,-0.055123921328783035,2.4843027868419885,2.5246575935840605
1744475522256858000,6.803858154296875,0.5346574963212013,2.390970715411007,2.5515286493748426
1744475522266854100,6.813854248046875,1.042133555728197,2.2081644170209764,2.5474384574517606
1744475522276850000,6.823849853515625,1.4569851074516773,1.9968674988143145,2.4710630737796424
1744475522286846200,6.83384619140625,1.6883482237398624,1.742578849490732,2.3422084380686283
1744475522296842000,6.843842041015625,1.7322949174940585,1.4682335005663334,2.220452236185968
1744475522306838000,6.853838134765625,1.61315591237247,1.2033115212865173,2.0561343651667237
1744475522316834000,6.863833984375,1.3022452121168375,0.9945935136571525,1.970386172993481
1744475522326830000,6.873830078125,0.8667793269097804,0.8796243415661156,1.8432704899042844
1744475522336825900,6.883825927734375,0.40691432898342605,0.7652221557080745,1.6516732745543121
1744475522346822100,6.893822265625,0.09223112445175648,0.7134440376758575,1.4576312964007259
1744475522356818000,6.90381787109375,-0.05961831013858318,0.7000372974835336,1.3627888204067944
1744475522366814000,6.91381396484375,-0.15991525214612484,0.6760081871204078,1.3584925845175981
1744475522376809700,6.923809814453125,-0.3604536065816879,0.6456906441375613,1.410634567426145
1744475522386806000,6.933805908203125,-0.652533934161067,0.659310442558676,1.5009987289622426
1744475522396802000,6.943802001953125,-0.9926035088837146,0.6582470511108637,1.4361135843366384
1744475522406797800,6.9537978515625,-1.3241028236597776,0.604107172383368,1.211590250940621
1744475522416793900,6.9637939453125,-1.675396387708187,0.46076399259269235,0.8297221004083752
1744475522426790000,6.973789794921875,-2.0685779594153164,0.2801651411190629,0.48958618245124813
1744475522436786000,6.983785888671875,-2.5648726995944977,0.10733356264606117,0.3214350168794393
1744475522446781000,6.993781005859375,-3.1009412317574023,0.08844766039028763,0.2695192439422011
1744475522456777000,7.00377685546875,-3.578825870499015,0.192901283685863,0.3140406688444316
1744475522466772700,7.013772705078125,-3.758031514048576,0.32060338836088775,0.4799484394036233
1744475522476769000,7.02376904296875,-3.434755253216624,0.48672450940981504,0.6130114865899086
1744475522486764800,7.033764892578125,-2.9336627573668954,0.6416212027415633,0.5557292181834578
1744475522496760800,7.0437607421875,-2.8974177240312096,0.7451565421484411,0.13620003003776074
1744475522506757000,7.053757080078125,-3.540007187283039,0.9187238875500857,-0.4311981447599828
1744475522516753000,7.0637529296875,-4.645308854585886,1.155990528793633,-0.9400874319657683
1744475522526749000,7.0737490234375,-5.820333461934328,1.5578746085248887,-1.3333967217057943
1744475522536745000,7.083744873046875,-6.764219993922114,2.0879205193974077,-1.4604440157338976
1744475522546741000,7.093740966796875,-7.09907095721364,2.6732202615886926,-1.2770754072859882
1744475522556737000,7.103737060546875,-6.649574793088436,3.2849341095834967,-0.9033221741482615
1744475522566732800,7.11373291015625,-5.4714282543271775,3.892534677040577,-0.6192811414439231
1744475522576728800,7.123728759765625,-3.9473680909901856,4.3060213701516385,-0.4276852412682026
1744475522586725000,7.13372509765625,-2.19511233548522,4.456329420518875,-0.22413228825181722
1744475522596721000,7.143720947265625,-0.5527198072344064,4.3302132698610425,-0.0719037181507796
1744475522606717000,7.153717041015625,0.6274485927432775,4.048233480535448,0.061573243598639964
1744475522616712700,7.163712646484375,1.3144815933555365,3.7751182579278946,0.1535373876772821
1744475522626709000,7.173708984375,1.6334551885575055,3.6326223426163193,0.09801712397467345
1744475522636705000,7.183705078125,1.74094584146142,3.606763094216585,-0.03211275583654642
1744475522646700800,7.19370068359375,1.7997808922678231,3.5816926581069826,-0.12848744636643677
1744475522656695800,7.20369580078125,1.7416501903384922,3.4289895292967554,-0.1624566437246278
1744475522666692000,7.213692138671875,1.5611194356650113,3.2213907349556683,-0.22579043072238564
1744475522676688000,7.22368798828125,1.357245214805007,3.066570175600052,-0.33087632403951134
1744475522686684000,7.233683837890625,1.1150070687592029,2.984912175349891,-0.37914683580957353
1744475522696680000,7.243679931640625,1.021191305464506,2.954635110507905,-0.28361509890984743
1744475522706676000,7.253676025390625,1.017702294304967,2.9147207410097122,-0.11308394286632537
1744475522716672000,7.263672119140625,1.005627825629711,2.8280905053049326,0.06385302509889006
1744475522726667800,7.273667724609375,1.0476754077643156,2.744855757257342,0.18005400400720536
1744475522736663800,7.283663818359375,1.107091473329067,2.6633129078194497,0.2086213423218578
1744475522746660000,7.29366015625,1.1128478448987007,2.4974393317908046,0.18311127268597482
1744475522756655900,7.30365576171875,1.0790858605504035,2.3755416756108403,0.10607252973429858
1744475522766652000,7.31365185546875,1.0978986975699663,2.2669842702582477,-0.06897066037356853
1744475522776647700,7.323647705078125,1.271203008121252,2.1665239543825385,-0.219858300727047
1744475522786644000,7.33364404296875,1.611941275885701,2.082329713653028,-0.34501572588793933
1744475522796640000,7.343639892578125,2.0637959858357906,1.9961136117070912,-0.4651836721984669
1744475522806635800,7.3536357421875,2.5225930622696877,1.9172171851247548,-0.6453496486801654
1744475522816631800,7.3636318359375,2.8505969361454246,1.7369833675712345,-0.7740817539900541
1744475522826628000,7.373628173828125,2.9241274517804383,1.4973475129783154,-0.7858730948749929
1744475522836624000,7.383623779296875,2.7914854064852,1.207554127292335,-0.7677830922372638
1744475522846620000,7.393619873046875,2.579942842954397,0.9933847223892808,-0.7320955466538668
1744475522856616000,7.403615966796875,2.153419558137655,0.8774263931304216,-0.7506686566334217
1744475522866612000,7.413612060546875,1.6221394292950628,0.938789793370664,-0.7545153221242129
1744475522876607000,7.42360693359375,1.115857548108697,1.0383689424976705,-0.6851001328535378
1744475522886602800,7.433602783203125,0.701561292180419,1.1895952767536044,-0.5238620346058159
1744475522896598800,7.443598876953125,0.3709451899796724,1.360244104360044,-0.20370649961028248
1744475522906595000,7.453594970703125,0.2120961057603359,1.5230977480456231,0.1924786012943834
1744475522916590800,7.4635908203125,0.2586567814052105,1.5975813266217707,0.5201591249672696
1744475522926587000,7.4735869140625,0.362098451179266,1.5533499707072973,0.7174499123163521
1744475522936583000,7.4835830078125,0.5777800142109394,1.4572227155998347,0.7641710392199457
1744475522946579000,7.493578857421875,0.9923615168213844,1.3560472371920942,0.7038107516076415
1744475522956575000,7.503574951171875,1.454270003274083,1.2075567576408386,0.6584615706443786
1744475522966570800,7.51357080078125,1.814286972004175,1.0101119853064418,0.5899170997936278
1744475522976566800,7.52356689453125,1.988508397400379,0.7706994180753827,0.5232342580962925
1744475522986563000,7.53356298828125,1.8735861331909893,0.5330532759949564,0.3553364827636629
1744475522996558800,7.543558837890625,1.5012293228477238,0.36921266709864137,0.16875884914137423
1744475523006555000,7.553554931640625,1.104292197999358,0.1884118633121252,-0.04383022776767611
1744475523016551000,7.563551025390625,0.8335200313866138,0.05479278967827558,-0.26595161458849903
1744475523026547000,7.573546875,0.615948124563694,-0.0066296472728252405,-0.4049189173825085
1744475523036543000,7.58354296875,0.047620998352766036,0.003827303203195333,-0.41833720188215373
1744475523046538800,7.593538818359375,-1.2236989141464232,0.11199366341158747,-0.2483535601861775
1744475523056535000,7.60353515625,-2.741916781195998,0.44920536448508497,-0.20395605392456054
1744475523066530800,7.61353076171875,-4.093566367951035,1.058106347016245,-0.6070148765236139
1744475523076526800,7.62352685546875,-4.9945916633337735,1.8026131930842995,-1.4387639527149498
1744475523086521900,7.63352197265625,-5.291268671053648,2.4851795696765184,-2.5090976208806035
1744475523096518000,7.643517822265625,-4.946530519998073,2.8216210170298814,-3.5145845767349004
1744475523106514000,7.653513916015625,-4.206634528726339,2.6242189147934316,-4.012167310898006
1744475523116510000,7.663510009765625,-3.450686397320032,1.9698311694592237,-3.9340222872048614
1744475523126505700,7.673505615234375,-3.2043180196017027,0.8871070985369384,-3.412268696120381
1744475523136501800,7.683501708984375,-3.223353559461236,-0.35697803942561146,-2.6758599624425172
1744475523146498000,7.693498046875,-3.5157612192988394,-1.296534579385072,-2.028456230776757
1744475523156493800,7.703493896484375,-4.16763464372456,-1.6869757663428782,-1.8350711090967058
1744475523166489900,7.71348974609375,-4.968293438994884,-1.6134829523697494,-1.9736459054417907
1744475523176486000,7.72348583984375,-5.6577188877016305,-1.3709443620726465,-2.1395191892094907
1744475523186482000,7.73348193359375,-6.128967449429631,-1.1185195338595657,-2.105938260516524
1744475523196478000,7.74347802734375,-6.391123763388395,-0.9509284133233129,-1.8045429921030998
1744475523206473700,7.7534736328125,-6.305502412465215,-0.8491891635529697,-1.3165198211848734
1744475523216470000,7.763469970703125,-5.806930959525704,-0.7999441441949456,-0.789723852019012
1744475523226466000,7.773466064453125,-5.0488510767877095,-0.913337226075679,-0.3317562121465802
1744475523236461800,7.7834619140625,-4.023721262830495,-1.207340338411182,0.02619973240047693
1744475523246457900,7.793457763671875,-2.8376486072450873,-1.414943808927387,0.16378040314167738
1744475523256454000,7.803453857421875,-1.617271530997753,-1.4808391535088419,0.108989074768126
1744475523266450000,7.813449951171875,-0.5236708228826522,-1.484294846920669,-0.02172200246453285
1744475523276446000,7.823446044921875,0.43615971269011494,-1.4742984996937214,-0.11419891837090253
1744475523286441700,7.833441650390625,1.2131436178624628,-1.4660077873408794,-0.15406827968358994
1744475523296438000,7.84343798828125,1.7730664883434772,-1.3984199596278368,-0.14464154903814197
1744475523306433000,7.85343310546875,2.152585445401072,-1.344376088620722,-0.1349672733724117
1744475523316428800,7.8634287109375,2.2981208745390176,-1.3101460483692586,-0.05352890722230076
1744475523326424800,7.8734248046875,2.169474036359787,-1.3492111075617372,0.2202875955224037
1744475523336421400,7.88342138671875,1.8051526484340428,-1.4252191192261874,0.6309064781121909
1744475523346417200,7.893417236328125,1.402805188974738,-1.4134382266700267,0.9712589614294469
1744475523356413200,7.9034130859375,1.010633671092987,-1.2958178094178436,1.1862176170140504
1744475523366409000,7.913408935546875,0.606753595238924,-1.163699057344347,1.3211544952481984
1744475523376405200,7.9234052734375,0.2296644956767559,-1.0847593761421739,1.4004966197714208
1744475523386401300,7.9334013671875,-0.044884266865253444,-1.0168116290755569,1.4846886685438454
1744475523396397000,7.94339697265625,-0.16429039849042892,-0.9206701262470334,1.4783189873814582
1744475523406393000,7.95339306640625,-0.24238603008389473,-0.8695720994334667,1.4523928112253546
1744475523416389000,7.96338916015625,-0.31810207306444643,-0.8858821598518639,1.3859423169791698
1744475523426385200,7.97338525390625,-0.4305681762933731,-0.8101504809107631,1.2735276516765355
1744475523436381200,7.983381103515625,-0.5634563053041696,-0.6630831660304218,1.1270505577743053
1744475523446377000,7.993376953125,-0.7164736146301031,-0.5186620182773098,0.9955264105930924
1744475523456373200,8.003373291015626,-0.8388333353638648,-0.3271587282884866,0.9274724266730249
1744475523466369300,8.013369384765625,-0.9011328474104404,-0.2223445645848289,0.7888752723656595
1744475523476365000,8.023364990234375,-0.8559434601187705,-0.26710063849315047,0.6340856926701962
1744475523486361300,8.033361328125,-0.6608043343782425,-0.42684203190971165,0.5131524976082146
1744475523496357000,8.043357177734375,-0.4060200104922056,-0.5367297725506126,0.32330300270840523
1744475523506353200,8.053353271484376,-0.06935352221131325,-0.5380013999216258,0.18171740717478096
1744475523516349200,8.06334912109375,0.4127092789977789,-0.5024852653823793,0.11072028247490524
1744475523526345200,8.07334521484375,1.0935562844514846,-0.4081484008230269,0.029448358932882546
1744475523536340200,8.08334033203125,1.8826298558682202,-0.2575740276698023,-0.07635404862314463
1744475523546336300,8.093336181640625,2.610209970924258,-0.12014335985854267,-0.22955153682157395
1744475523556332000,8.10333203125,3.1703724953800436,-0.09263619812130927,-0.3838687862975523
1744475523566328000,8.113328125,3.5708623442739245,-0.15444997247755526,-0.3485854741334915
1744475523576324400,8.123324462890626,3.7390883286476133,-0.2455238897182047,-0.2132902474483475
1744475523586320100,8.133320068359374,3.7250972126960753,-0.35773353396803137,0.002844447911996394
1744475523596316200,8.143316162109375,3.6136698048651215,-0.3903698752872646,0.117113746371679
1744475523606312200,8.153312255859374,3.3890900651067493,-0.46239437027350067,0.09332557775811291
1744475523616308200,8.16330810546875,3.040890959942341,-0.49389761590957637,0.09723946326621807
1744475523626304300,8.17330419921875,2.705444953367114,-0.425810752633214,0.05531769946836866
1744475523636300000,8.183300048828125,2.3238234710723162,-0.45396585688516494,-0.11252587972530163
1744475523646296300,8.19329638671875,1.842864831712842,-0.7093382097922265,-0.3289555851100012
1744475523656292000,8.2032919921875,1.1763193233340978,-1.164423718357086,-0.3371383070437237
1744475523666288000,8.2132880859375,0.39220892728269097,-1.4507920980304478,-0.20002982039153575
1744475523676284200,8.2232841796875,-0.40884558930695053,-1.4974420593939721,0.024524168437649495
1744475523686280200,8.2332802734375,-1.275878598716855,-1.0884684597931802,0.17385452831257134
1744475523696276200,8.243276123046876,-1.9455670812964438,-0.4671892033345997,0.2377925282811746
1744475523706272000,8.25327197265625,-2.2784376844257115,-0.12915917161554097,0.48233095062598585
1744475523716268000,8.26326806640625,-2.353392679905891,-0.2167562065258622,0.86235069681257
1744475523726264300,8.273264404296874,-2.3607833746790883,-0.5019285082824528,1.0798140286944806
1744475523736260000,8.283260009765625,-2.3409189827799795,-0.6397463487803936,0.9945182564638555
1744475523746256100,8.293256103515626,-2.4069530051797625,-0.6217284615308046,0.5911879234470426
1744475523756251100,8.303251220703125,-2.575271344012022,-0.4551683645427227,-0.04152238921672106
1744475523766247200,8.3132470703125,-2.774664620065689,-0.18836831643134355,-0.6129609985116868
1744475523776243200,8.3232431640625,-3.2508424548894164,0.007812281186133622,-0.7260802318871021
1744475523786239200,8.3332392578125,-4.013501482111216,0.03214563519284129,-0.4615472519248724
1744475523796235000,8.343235107421876,-4.740595859476923,0.056650254113227126,-0.024003099139034745
1744475523806231300,8.353231201171875,-5.195466702377796,0.1462004689179361,0.4900038233414292
1744475523816227000,8.36322705078125,-5.444282473248243,0.24703385588973759,1.1429949997507034
1744475523826223000,8.37322314453125,-5.60447420424819,0.26288214401528237,1.843295332084596
1744475523836219100,8.38321923828125,-5.4975283257454635,0.3971528134256601,2.4291283043697476
1744475523846215200,8.393215087890624,-4.8633524705737825,0.7522229734033345,2.6552228326052427
1744475523856211200,8.403211181640625,-3.7912709358274936,1.1459249157227576,2.5631626808062196
1744475523866207200,8.413207275390626,-2.6008319017261265,1.4689366803996264,2.3790251338124273
1744475523876203000,8.423203125,-1.3909563457489014,1.6178085604839025,2.1456439557000992
1744475523886199300,8.43319921875,-0.33782208805680275,1.5937426252417266,1.9456855931095778
1744475523896195000,8.443195068359374,0.3243769155502319,1.446821440833807,1.8033175419613718
1744475523906191000,8.453191162109375,0.7308914315611124,1.34780708598271,1.6700329609788953
1744475523916187100,8.463187255859374,1.0262608638137578,1.344837276391685,1.5727441147461532
1744475523926183200,8.47318310546875,1.3591168538957834,1.4319175939515232,1.5437890922881663
1744475523936179200,8.48317919921875,1.653262297311425,1.498712517721206,1.6492271965764462
1744475523946175000,8.493175048828125,1.8022610186457633,1.538676717710495,1.905850718588382
1744475523956171300,8.503171142578125,1.8112030345141887,1.5928898078046738,2.245483070937544
1744475523966167300,8.513167236328124,1.6474503961622715,1.6770676819212733,2.560470080721378
1744475523976163000,8.5231630859375,1.2624813570052384,1.8114510179258883,2.6634754049047826
1744475523986158000,8.533157958984376,0.8015542828053236,2.0374467619620265,2.5008131921380756
1744475523996154000,8.543154052734375,0.42242227923870085,2.256532142087817,2.169894453728944
1744475524006150100,8.553150146484375,0.19242694417238235,2.474644731658697,1.7069778131470084
1744475524016146200,8.563146240234374,0.2615378897994757,2.6636767726957795,1.1478802145089952
1744475524026142200,8.57314208984375,0.6008592765033245,2.7958798420518636,0.590927445879951
1744475524036138000,8.583137939453126,1.167167464107275,2.816477808922529,0.1104181577231735
1744475524046134300,8.59313427734375,1.8332260657519102,2.662446646378934,-0.24834815335869787
1744475524056130000,8.603130126953126,2.584106392374635,2.4020704938352107,-0.4990372803529724
1744475524066126000,8.6131259765625,3.3401129759699106,2.154408569175005,-0.6333929611656814
1744475524076122000,8.6231220703125,3.9333465799003835,1.8995158164784312,-0.7076607780992984
1744475524086118100,8.6331181640625,4.274599811449646,1.6414108237370848,-0.7361801856189966
1744475524096114200,8.6431142578125,4.437942699956894,1.4358850362777709,-0.720063017424196
1744475524106110200,8.653110107421876,4.475784647095203,1.3513696007698774,-0.7314056646935642
1744475524116106200,8.663106201171875,4.424249690169096,1.3391905026763677,-0.8205319549977779
1744475524126102300,8.673102294921875,4.359100633910298,1.3461770005628466,-0.9597456337682903
1744475524136098000,8.68309814453125,4.444622616112232,1.333533207567036,-1.0756588087111711
1744475524146094000,8.693093994140625,4.541106721833348,1.2873720526337622,-1.0668960218671708
1744475524156090400,8.70309033203125,4.519029330059886,1.1946657118856907,-0.9323078109402209
1744475524166086100,8.713086181640625,4.394519153293967,1.1239786029830574,-0.7737081714373082
1744475524176082200,8.723082275390626,4.162576191291213,1.078131920826435,-0.615236615293473
1744475524186078000,8.733077880859375,3.697232469692826,1.0847200670450925,-0.4975721397038549
1744475524196073000,8.743072998046875,3.0359020656138656,1.1632549668386578,-0.4423973649706691
1744475524206069200,8.7530693359375,2.4989257709562778,1.2868228943184017,-0.4743431667424738
1744475524216065300,8.763065185546875,2.0222347259134055,1.3731249209821224,-0.6875020794287323
1744475524226061000,8.77306103515625,1.4225930085062979,1.2724509623557327,-1.1180805579204112
1744475524236057000,8.78305712890625,0.836861743029952,0.9841378783553838,-1.6701456275731323
1744475524246053000,8.79305322265625,0.45864276265501974,0.6249053380012511,-2.051294231659174
1744475524256049200,8.803049072265624,0.2839759315788746,0.27451222992390395,-2.0521020409107207
1744475524266045200,8.813045166015625,0.27397359300255775,-0.08721651116013526,-1.8070272101342677
1744475524276041200,8.823041259765626,0.19998481220602987,-0.5220125342816114,-1.4676754282921551
1744475524286037200,8.833037353515625,-0.1682131248921156,-0.8945069995298981,-1.1060238440975547
1744475524296033000,8.843032958984375,-0.9463818559348582,-1.1072817352041602,-0.8138942705489695
1744475524306029000,8.853029052734374,-2.069679198655486,-1.0470809490025044,-0.7319661481205374
1744475524316025300,8.863025390625,-3.444563530525565,-0.6150602358132601,-1.0096548161234706
1744475524326021000,8.873021240234374,-4.652641097170115,-0.1928358172342181,-1.5660643447212874
1744475524336017200,8.88301708984375,-5.657367590045928,-0.11966858195364474,-2.236756012994051
1744475524346013200,8.89301318359375,-6.263494577819109,-0.17551117294579743,-2.759779477883875
1744475524356009000,8.903009033203125,-6.199881645086407,-0.2453989481642842,-2.776115695656836
1744475524366005000,8.9130048828125,-5.522231974369287,-0.25169249535053967,-2.2918673671022054
1744475524376001000,8.9230009765625,-4.793300444704294,-0.24180823019593953,-1.70144502120018
1744475524385997000,8.9329970703125,-4.447288035929203,-0.14013707722574473,-1.3023325981393457
1744475524395993000,8.9429931640625,-4.470311768642068,0.1741647267729044,-1.1663345204144715
1744475524405988900,8.95298876953125,-4.731633385342359,0.5981767594210803,-1.2577242256060241
1744475524415983900,8.96298388671875,-4.98682219837606,0.9570369593314826,-1.4781990142636001
1744475524425980200,8.972980224609374,-5.195339861127734,1.282338734641671,-1.5895404973767697
1744475524435976000,8.982975830078125,-5.074247383850812,1.5441880284778773,-1.4487551853753626
1744475524445972000,8.992971923828126,-4.503735899338126,1.6471198490336536,-1.1712841787111012
1744475524455968300,9.00296826171875,-3.531912728154659,1.55216982101202,-0.8528263510115445
1744475524465964000,9.012964111328126,-2.501761286643147,1.273504270800948,-0.6927280704487114
1744475524475960000,9.0229599609375,-1.5859499255388974,0.9230575328402221,-0.5112275574276224
1744475524485955800,9.032955810546875,-0.8082429667890071,0.5972244271323085,-0.2462981620263308
1744475524495952100,9.0429521484375,-0.07922083623111248,0.4395157451197505,-0.04701321431850083
1744475524505948200,9.0529482421875,0.5259212321579456,0.48856487657949327,0.019993982228683305
1744475524515944000,9.06294384765625,0.9955834014773368,0.5975127425543963,-0.08185339495809749
1744475524525940000,9.07293994140625,1.4153431835085153,0.6522096706427634,-0.1731984207577072
1744475524535936000,9.08293603515625,1.8317273516267536,0.5430684740528464,-0.153154918565182
1744475524545932000,9.09293212890625,2.1641578097730876,0.2921329345494509,-0.06631051951991394
1744475524555928000,9.102927978515625,2.4143349321246146,-0.0628859336324036,0.1354063406431116
1744475524565923800,9.112923828125,2.5430174261391163,-0.4292775519609451,0.3312094649840146
1744475524575920000,9.122920166015625,2.50423673684597,-0.7447377322144806,0.4475413402630016
1744475524585916200,9.132916259765626,2.3934359364807603,-0.930828020711243,0.46807387721464033
1744475524595912000,9.142911865234375,2.3239286850124596,-0.9626794952630996,0.5754775459548458
1744475524605908000,9.152907958984375,2.432327100411057,-0.8581807176515459,0.7691725007690489
1744475524615903200,9.1629033203125,2.663333073824644,-0.757006846679002,0.9999407199040055
1744475524625899000,9.17289892578125,2.7032301999270913,-0.642346156015247,1.209101575930044
1744475524635895000,9.18289501953125,2.5781010144799947,-0.5966090717129409,1.410845579828322
1744475524645891000,9.19289111328125,2.4247066885352133,-0.5591086314886808,1.6130290711224078
1744475524655887000,9.20288720703125,2.2935271170079705,-0.5749510743953288,1.6950114810213446
1744475524665883100,9.212883056640624,2.2121090629935263,-0.6728276573881506,1.7083767201595008
1744475524675879000,9.22287890625,1.9938374834686516,-0.7920669080138206,1.6746771335229276
1744475524685875000,9.232875,1.577461498656869,-0.8796656964898109,1.5495964633926749
1744475524695871200,9.242871337890625,1.2686024702340364,-0.8504457394853234,1.541027957011759
1744475524705867000,9.252866943359376,1.2351187183052301,-0.7892246703252196,1.6142685497894882
1744475524715863000,9.262863037109375,1.3723054212927817,-0.7265655311860144,1.7119868734806776
1744475524725858800,9.27285888671875,1.5601181496679781,-0.6499905332885683,1.9079440376058219
1744475524735855000,9.282855224609374,1.7371435265690087,-0.673506725693494,2.038909966382384
1744475524745851100,9.29285107421875,1.895077249509096,-0.7458277194082736,1.8325982892423867
1744475524755847000,9.302846923828126,2.0284113687217236,-0.8962306084521114,1.4283514259025454
1744475524765843000,9.312843017578125,2.1437842993080616,-1.178290038885176,1.0059094921153038
1744475524775839000,9.3228388671875,2.1175591402053833,-1.5004882952220737,0.7170300794690847
1744475524785835000,9.3328349609375,1.899691465306282,-1.6902293613113462,0.48497021308839317
1744475524795831000,9.3428310546875,1.6704893264442682,-1.8090736212700604,0.33990948879010974
1744475524805827000,9.3528271484375,1.4537164610445499,-1.8174444131217895,0.40191191758625205
1744475524815822000,9.362822021484375,1.2706161481440066,-1.6311233846090734,0.5047746914938092
1744475524825818000,9.372818115234375,1.0037363127946852,-1.3752661707945166,0.5758876245930791
1744475524835814000,9.38281396484375,0.4190133475780487,-1.097279250497371,0.6146908179789781
1744475524845810000,9.392809814453125,-0.5331090978354215,-0.8345553657837211,0.7538841846138239
1744475524855806200,9.40280615234375,-1.5423065986454485,-0.5793957788445055,0.9559539864003658
1744475524865802000,9.412802001953125,-2.362431141886115,-0.362667190977931,1.2406833666950463
1744475524875798000,9.422798095703126,-2.972669072109461,-0.28775355042144657,1.512876213760674
1744475524885794000,9.4327939453125,-3.2613854762136936,-0.31103461889624595,1.6898954531818626
1744475524895790000,9.4427900390625,-3.1490134810090065,-0.40453912428468464,1.792659808216244
1744475524905786000,9.4527861328125,-2.565993228057027,-0.5411658553019165,1.7622659851267932
1744475524915782000,9.462781982421875,-1.7774065633744,-0.7375602418005466,1.5187106190025805
1744475524925778000,9.47277783203125,-1.222640345004201,-0.9351973218366503,1.0332092216469346
1744475524935774200,9.482774169921875,-1.2991916697651147,-1.064114793650806,0.3246063403919339
1744475524945770000,9.49277001953125,-1.977313049647212,-1.048477517927438,-0.23557105283942073
1744475524955766000,9.50276611328125,-3.1222131523668764,-0.8319184414088725,-0.49163595458790654
1744475524965762000,9.512761962890625,-4.783066050937771,-0.564236934287846,-0.3134106273125857
1744475524975758000,9.522758056640624,-6.458900245541334,-0.2944007333509624,0.15032951328037306
1744475524985754000,9.532754150390625,-7.455579041039943,0.09556392213627696,0.5183617932217195
1744475524995750000,9.54275,-7.421589677676558,0.5533408617421984,0.7152052021294831
1744475525005745000,9.552744873046874,-6.5084712089180945,0.8835181341342627,0.7907943307947367
1744475525015741200,9.5627412109375,-5.006895849111676,1.0278216833896934,0.6655220105499029
1744475525025737000,9.572737060546874,-3.31370486151576,0.9881218334250151,0.36671263044383373
1744475525035733000,9.58273291015625,-1.7831202648460864,0.7894710463017225,0.09309059082530438
1744475525045729000,9.59272900390625,-0.5338567013323307,0.5910644431978463,-0.048856093105673785
1744475525055725000,9.60272509765625,0.5035650234431028,0.6016299686148763,-0.09002097412161529
1744475525065721000,9.61272119140625,1.2841302942335604,0.7309376087903976,0.04890943072810769
1744475525075716900,9.622716796875,1.775897912377119,0.9559612929239869,0.19339849261827766
1744475525085713200,9.632713134765625,2.0231798978090283,1.1726567091733218,0.2739895212240517
1744475525095709200,9.642709228515624,2.1238778218328953,1.3409826467901467,0.24630466483235358
1744475525105705000,9.652705078125,2.152257528620958,1.4007114315658806,-0.000386076708137989
1744475525115701000,9.662700927734376,1.9746260025203226,1.2734849815785885,-0.41855950286332516
1744475525125697000,9.672697021484375,1.387670748206973,1.0318155753314495,-0.8471510818541049
1744475525135693000,9.682693115234375,0.19975334153771399,0.7488961670681834,-0.9778267224472016
1744475525145689000,9.692689208984374,-1.4162690661817787,0.5997931085765361,-0.6011790830422192
1744475525155684900,9.702684814453125,-2.808687885698676,0.8721279944613576,-0.02899080615742132
1744475525165681200,9.71268115234375,-3.6021909639954566,1.3576950043991207,0.5474175361078232
1744475525175677200,9.72267724609375,-3.732058283880353,1.7530334618791936,1.0256087565805763
1744475525185672000,9.732671875,-3.3013211807608602,1.9926184630677102,1.2933099182501435
1744475525195668000,9.74266796875,-2.4177163912564517,2.120414529636502,1.3584741720780729
1744475525205664000,9.7526640625,-1.3705308128356932,2.144593277603388,1.2409588226355612
1744475525215660000,9.762659912109376,-0.4532108007341623,2.0031383957773445,1.075438663154468
1744475525225656000,9.772656005859375,0.3529033373326063,1.897492493957281,0.9042080170720815
1744475525235652000,9.782652099609376,1.0391875654041767,1.9847259562522173,0.7790578619021922
1744475525245648100,9.792648193359375,1.6087918719440697,1.9455007380619644,0.9666129622545093
1744475525255644200,9.80264404296875,2.2833961836159227,1.902625180670619,1.1699199776858091
1744475525265640000,9.812639892578124,3.0032723001658916,2.102469707623124,1.0259853348080068
1744475525275636000,9.822635986328125,3.719595692670345,2.3604177562370894,0.7305879916351288
1744475525285632300,9.83263232421875,4.327767338013649,2.4945643608763812,0.4777534135773778
1744475525295628000,9.8426279296875,4.802292729455233,2.4530790887996554,0.36345132709294553
1744475525305624000,9.8526240234375,5.091997560074925,2.2941747672617434,0.3546145616972819
1744475525315619800,9.862619873046874,5.2265422241210935,2.1035878979980946,0.3729587582917884
1744475525325616000,9.8726162109375,5.251224245434999,2.002955148164928,0.31387992532476783
1744475525335612200,9.882612060546874,5.148605582481623,1.9654300118908286,0.21155401650657876
1744475525345608200,9.892608154296875,4.9636792231976985,1.9358140413060783,0.08158544647060334
1744475525355604200,9.902604248046876,4.724270747619867,1.8901152431875465,-0.0272967247237917
1744475525365599200,9.91259912109375,4.511161665424704,1.8036857907518744,-0.15269580402029678
1744475525375595000,9.922594970703125,4.323467594993114,1.6581106141254305,-0.3915175840176642
1744475525385591300,9.93259130859375,4.153246637409925,1.4371414660796522,-0.5065461581457406
1744475525395587300,9.94258740234375,4.012137208020687,1.2914543535113334,-0.39001938134916125
1744475525405583000,9.9525830078125,3.7914907160580156,1.2987737366139889,-0.1642504318062216
1744475525415579100,9.9625791015625,3.532229539018869,1.4922171643525362,-0.14188821347570046
1744475525425575200,9.9725751953125,3.2092092987745997,1.7328206949338316,-0.376077072975412
1744475525435571200,9.9825712890625,2.7861481371104717,1.8678730162411927,-0.8947297023698687
1744475525445567200,9.992567138671875,2.2554314873695374,1.7119851199150085,-1.558518605516851
1744475525455563000,10.00256298828125,1.6622241869241,1.2767355078071354,-2.043969880120456
1744475525465559300,10.012559326171875,0.9764286191523075,0.7240189154431224,-2.2375646990284324
1744475525475555000,10.02255517578125,0.16204934156537054,0.3009983780503273,-2.232639517585933
1744475525485551000,10.032551025390624,-0.6977496249377727,0.10520575683712959,-2.3285220041520893
1744475525495547100,10.042547119140625,-1.5981354533731937,0.1887035397350788,-2.619744399727881
1744475525505543200,10.052543212890624,-2.3892285479187962,0.4151221853584051,-2.8860736154571174
1744475525515539200,10.062539306640625,-2.9496482620060442,0.5275257447451352,-2.920175791545212
1744475525525535200,10.07253515625,-3.569794422781467,0.37181232820302246,-2.488440325038135
1744475525535530000,10.082530029296874,-4.369469467711449,0.11232377214878797,-1.6293886697709559
1744475525545526300,10.0925263671875,-5.075847804784774,-0.0009825812965631483,-0.7334203655168414
1744475525555522300,10.102522216796874,-5.535159260481596,0.1262760173946619,-0.17873207122106105
1744475525565518000,10.11251806640625,-5.535395407325029,0.30585692399740216,0.01526807708479464
1744475525575514000,10.12251416015625,-5.198774511751532,0.2667375042691827,0.02006210642829537
1744475525585510100,10.13251025390625,-4.672082879742979,0.04053133235275745,-0.18476751546040177
1744475525595506200,10.142506103515625,-4.107196249374747,-0.2466504095301032,-0.4099924212545156
1744475525605502200,10.152502197265624,-3.652750353887677,-0.6335708750158549,-0.6879027691841125
1744475525615498000,10.162498046875,-3.3621757546961306,-1.1551543702304363,-0.9051387220509349
1744475525625494300,10.172494384765624,-3.364205799219012,-1.6575862979903817,-1.1925266540303825
1744475525635490300,10.182490234375,-3.6972301316052674,-2.2216448069714008,-1.7979156829178333
1744475525645486000,10.192486083984376,-4.218336656957865,-2.517256377416849,-2.641544143603742
1744475525655482000,10.202482177734375,-4.881795889759063,-2.5132848434373734,-3.283438025806844
1744475525665478100,10.21247802734375,-5.154529127311706,-2.1453043484821914,-3.5399817605808375
1744475525675474200,10.22247412109375,-4.786747954320908,-1.5648228202275931,-3.3368785240933296
1744475525685470200,10.23247021484375,-3.850019477394223,-1.077209691414982,-2.6626626272171734
1744475525695466000,10.242466064453126,-2.540000708666444,-0.7351511348322033,-1.8072610188901423
1744475525705461200,10.252461181640625,-1.0947598150223492,-0.4919419517971575,-0.869645676126331
1744475525715457300,10.262457275390625,0.41723698555529115,-0.38863150718733663,-0.20852496927529574
1744475525725453000,10.272453125,1.7049550751477478,-0.28538199898451566,0.12243833892792462
1744475525735449000,10.282448974609375,2.555388247412443,-0.22230492669418453,0.37171778178736564
1744475525745445400,10.2924453125,2.964847000181675,-0.17542130270525813,0.5613045340977609
1744475525755441200,10.302441162109375,2.9829087265729903,-0.0853447259388864,0.6829673586085439
1744475525765437200,10.312437255859376,2.8398358881562946,0.012160977914929389,0.6832777397319674
1744475525775433000,10.322432861328124,2.6840520367264746,0.09218246300444007,0.5868954869501293
1744475525785429200,10.33242919921875,2.5316519825160504,0.0612947189182043,0.4822881343975663
1744475525795425300,10.34242529296875,2.3025649944663047,-0.11377265578284859,0.44963703390061854
1744475525805421000,10.352421142578125,2.139678033033013,-0.24990736549943685,0.5850836152225732
1744475525815417000,10.3624169921875,2.0752304030418394,-0.41849451133571564,0.7303812900818883
1744475525825413000,10.3724130859375,1.9829758977144956,-0.7017378908563405,0.9176520205348729
1744475525835409200,10.3824091796875,1.6648007594138383,-1.1206574226710944,1.116905595856905
1744475525845405200,10.3924052734375,1.2258318345218897,-1.4464607908278704,1.1491709119066595
1744475525855401000,10.40240087890625,0.6016121406972408,-1.5445409335687756,0.9326622504010796
1744475525865396200,10.412396240234376,-0.044320203241705894,-1.3772367402151227,0.6402855702236294
1744475525875392300,10.422392333984375,-0.5902291614174843,-1.1930852377612142,0.39035760032758116
1744475525885388000,10.432387939453125,-0.8877735996216535,-1.312589203737676,0.1553339157052338
1744475525895384000,10.442384033203124,-0.9778139360308646,-1.7933866611860692,-0.2836072443969548
1744475525905380400,10.45238037109375,-0.8607686883181334,-2.497582539653778,-0.7493744521044194
1744475525915376000,10.462376220703124,-0.3943371714830398,-3.256147575560212,-0.6584799830839038
1744475525925372200,10.4723720703125,0.3364350176125765,-3.7188378600403666,-0.22452289500460026
1744475525935368000,10.482367919921876,1.1870008763462305,-3.7655572333782907,0.3520481818079948
1744475525945364200,10.4923642578125,1.9573603949427603,-3.382118764789402,0.8827518259368836
1744475525955360300,10.5023603515625,2.495398181352019,-2.7718676828235385,1.1895264493010937
1744475525965356000,10.51235595703125,2.7957851495057344,-2.130058848555386,1.4416646425925195
1744475525975352000,10.52235205078125,2.869928828603029,-1.5382403721198439,1.6354706200331448
1744475525985348400,10.532348388671876,2.659987270528078,-1.2204141933873296,1.9615577005021272
1744475525995344100,10.54234423828125,2.2244670247852802,-1.1197902113825082,2.3254262300938366
1744475526005340200,10.552340087890625,1.7905553832828998,-0.959911199593544,2.5556746631383893
1744475526015336200,10.562336181640624,1.4851456185311078,-0.6476384172044694,2.735857627287507
1744475526025331200,10.572331298828125,1.362273272100091,-0.22460297450348735,2.923362897148728
1744475526035327200,10.5823271484375,1.3748808247387407,0.230014916549623,3.0548081338748334
1744475526045323000,10.592322998046875,1.4238421317845582,0.6155624862469733,3.0158757611513134
1744475526055319000,10.602319091796875,1.3607149367421865,0.8731655208155512,2.8644109419643877
1744475526065315300,10.6123154296875,0.8326479247272014,0.9739562376894056,2.7167183347925543
1744475526075311000,10.62231103515625,-0.3723100485920906,1.048630662662536,2.497440793095529
1744475526085307100,10.63230712890625,-2.02888366240859,1.2251840381376444,2.282592466017604
1744475526095303200,10.64230322265625,-3.5884909399449825,1.4489021926306187,2.143104500350356
1744475526105299200,10.65229931640625,-4.722608951887488,1.4199189669914543,1.6692156532466411
1744475526115295200,10.662295166015625,-5.291095068052411,1.0459383548386394,0.907642010108754
1744475526125291000,10.672291015625,-5.107708339425921,0.5171729852959513,0.2120406492460519
1744475526135287000,10.682287109375,-4.312618284198641,-0.14552446935251354,-0.409549645923078
1744475526145283300,10.692283447265625,-3.4087411065161226,-0.843344383047521,-1.0172757394559682
1744475526155279000,10.702279052734376,-2.7531933774918316,-1.4995248570173978,-1.3790961043462155
1744475526165275100,10.712275146484375,-2.696210676553845,-1.9208160863995551,-1.6532015070348978
1744475526175271200,10.722271240234376,-3.3690298583745952,-2.0937286211542783,-1.8582035628810525
1744475526185267200,10.73226708984375,-4.350801592120528,-2.106135098262876,-1.7556915751725435
1744475526195262200,10.74226220703125,-5.186510657984018,-2.068346196486056,-1.454563141001761
1744475526205258200,10.75225830078125,-5.762784943807125,-1.841439036693424,-1.0558606869813054
1744475526215254000,10.76225390625,-5.810088546773791,-1.416704096598178,-0.6940917600173503
1744475526225250300,10.772250244140626,-5.2890965877115725,-0.8055144186079501,-0.4792392682209611
1744475526235246000,10.78224609375,-4.15954076911807,-0.18388912519067524,-0.40382505773119626
1744475526245242000,10.7922421875,-2.65634686819911,0.25324557001143694,-0.4174081774037331
1744475526255238100,10.802238037109374,-0.9776029236286878,0.4347895933806896,-0.4642966967634856
1744475526265234200,10.812234130859375,0.6295546251118183,0.5104682269603014,-0.42699419026412067
1744475526275230200,10.822230224609376,1.8783903186023234,0.5952104569613933,-0.3667285586653277
1744475526285226000,10.83222607421875,2.7022306674957273,0.7021981287792325,-0.3856194293571636
1744475526295222000,10.842221923828125,2.9861820491552353,0.7421522457659244,-0.3988796372182667
1744475526305218300,10.85221826171875,2.624878547745943,0.6971086966857314,-0.42641562319118526
1744475526315214000,10.862214111328125,1.7663199366927145,0.7024217084020375,-0.45269116077423094
1744475526325210000,10.872210205078124,0.8321382216393947,0.8396826456695795,-0.5612424286469817
1744475526335206000,10.882205810546875,-0.05891279221773147,0.9380500809192657,-0.7261366382494568
1744475526345201700,10.89220166015625,-0.7842080112069845,0.9623615153551102,-0.8206568965516984
1744475526355198000,10.902197998046875,-1.2557844897150992,1.131421027943492,-0.8975769084945321
1744475526365193000,10.91219287109375,-1.4402794718444347,1.416915839652717,-0.9260109758183359
1744475526375188700,10.922188720703126,-1.4296288984924554,1.6432129047229884,-0.738449664920941
1744475526385184800,10.932184814453125,-1.2844272313535212,1.7694027051389216,-0.45177254809197037
1744475526395181000,10.94218115234375,-1.0582225207418203,1.9376921101376414,-0.2394782163457945
1744475526405176800,10.9521767578125,-0.6921463981032371,2.163725555835664,-0.17137927903914824
1744475526415172900,10.9621728515625,-0.1684860966145992,2.4273893517479297,-0.22507886665323748
1744475526425168600,10.972168701171874,0.4790256254702806,2.6262963055893778,-0.3495535154480487
1744475526435165000,10.9821650390625,1.309248953399062,2.672530818019807,-0.47782067012730983
1744475526445161000,10.992160888671876,2.163281611460447,2.551471658490598,-0.5297863466208801
1744475526455156700,11.00215673828125,2.951983426955342,2.4725302237227558,-0.647840004191175
1744475526465152800,11.01215283203125,3.575255610796809,2.3940946926504374,-0.7984618697479366
1744475526475148800,11.022148681640624,3.977632296350598,2.2164488457635043,-0.9157000096842646
1744475526485144800,11.032144775390625,4.1647272318452595,2.1148907977789637,-0.9209467512313276
1744475526495140900,11.042140869140624,4.202331863096356,2.1467513324201106,-0.8327623448871075
1744475526505136600,11.05213671875,4.152481498256326,2.2636387592226264,-0.7558810575194657
1744475526515133000,11.0621328125,4.1704041084378956,2.4554195144459605,-0.6992817298758774
1744475526525129000,11.07212890625,4.316159317806362,2.6566628022804855,-0.6131196231395006
1744475526535123700,11.082123779296875,4.465257992383838,2.717502178646624,-0.4170565874870866
1744475526545119700,11.09211962890625,4.56268259382546,2.650557178881764,-0.12540982901938258
1744475526555116000,11.102115966796875,4.623551196286082,2.606301565308869,0.0721494365401566
1744475526565111800,11.11211181640625,4.704180730271339,2.483474811585247,0.10006225646883249
1744475526575107800,11.12210791015625,4.729747133204341,2.3083222428187726,0.13155571136325597
1744475526585104000,11.132103759765625,4.689281851825117,2.0265388528481125,0.24333660880699753
1744475526595100000,11.142099853515624,4.420208305823802,1.7001386147767303,0.3689318773958832
1744475526605096000,11.152095947265625,4.000038189426064,1.448801800996065,0.5618404676053673
1744475526615091700,11.162091796875,3.592089256697893,1.3092626896634698,0.7912933663580566
1744475526625087700,11.172087646484375,3.211135882923007,1.299371702507138,1.0538360492859036
1744475526635084000,11.182083984375,3.0579613372087477,1.319437754458189,1.3526194547004997
1744475526645079800,11.192079833984375,3.0930764897316694,1.2584262363955379,1.6937456988692283
1744475526655075800,11.202075927734375,3.1549013700038193,1.173058860233426,1.7952951251558957
1744475526665071600,11.212071533203124,3.0968314583510157,1.1007418120414019,1.532353213777393
1744475526675068000,11.22206787109375,2.9786598369568584,1.078801490651071,1.0600178066607564
1744475526685064000,11.23206396484375,2.688434197333455,0.9685656306922436,0.48678201175071295
1744475526695059700,11.242059814453125,2.146179670011997,0.7645601846680045,-0.03635506958141923
1744475526705055700,11.2520556640625,1.232327041760087,0.5287906501144171,-0.4101922546755522
1744475526715051000,11.262051025390624,0.10357435624301432,0.2561860073775053,-0.5146341875333339
1744475526725046800,11.272046875,-1.0959843883812428,-0.13283610656261444,-0.56737683974877
1744475526735042800,11.282042724609376,-2.338670911592245,-0.5530848411545157,-0.8607036602579057
1744475526745038800,11.292038818359375,-3.4427480055361985,-0.9903092604666948,-1.2872072174608706
1744475526755035000,11.302034912109375,-4.314725485610961,-1.5422268114075064,-1.7013707869201897
1744475526765031000,11.312031005859374,-5.147804202970862,-2.2544778399065137,-2.227519544223696
1744475526775026700,11.322026611328125,-5.680943111422658,-2.722493118801713,-2.8334672299072143
1744475526785022700,11.332022705078124,-5.8260109230488535,-2.871543570323288,-3.206595901405811
1744475526795019000,11.34201904296875,-5.811874261146784,-2.930970741803944,-3.082464787085354
1744475526805014800,11.352014892578126,-5.9008080976188175,-3.026707244028151,-2.4892303063720465
1744475526815010800,11.3620107421875,-6.201956113272905,-3.1635403112724423,-1.8192041162706911
1744475526825006800,11.3720068359375,-6.755569654476642,-3.2351673313736913,-1.3094967906802892
1744475526835003000,11.3820029296875,-7.477009367081522,-3.188052236716449,-0.9659195000976324
1744475526844999000,11.3919990234375,-8.130723450937866,-3.1152456514418123,-0.6415694725543261
1744475526854994700,11.40199462890625,-8.611510825383663,-2.9507927558660505,-0.3158791363179683
1744475526864990700,11.41199072265625,-8.75103503140807,-2.681322904023528,-0.18227905964553356
1744475526874987000,11.421987060546876,-8.510127257183195,-2.4033517658174035,-0.1021963458880782
1744475526884982800,11.431982666015625,-8.004935509321093,-2.196030911634862,-0.12140928814113139
1744475526894978800,11.441978759765625,-7.412471720719337,-2.104663856666535,-0.46450171781629324
1744475526904973800,11.451973876953126,-6.746458127260207,-2.100209069214761,-0.6434843662649393
1744475526914969900,11.461969970703125,-5.7151452407538885,-1.9711130259633063,-0.5043851076543331
1744475526924966000,11.4719658203125,-4.273657562163472,-1.7402850394651292,-0.17666852628737686
1744475526934962000,11.4819619140625,-2.669900177255273,-1.4937407206580042,0.07980009742379188
1744475526944957700,11.491957763671875,-1.2057149291664362,-1.2070938163042069,0.2035892664387822
1744475526954954000,11.5019541015625,-0.038892332974076266,-0.8639897692564874,0.29672873790711163
1744475526964949800,11.51194970703125,0.8906570461034774,-0.4348604666598141,0.3500573002517223
1744475526974945800,11.52194580078125,1.6468547683566808,0.09494885897785425,0.3511792900189757
1744475526984941800,11.53194189453125,2.2659885372191666,0.636107846147567,0.27874124579578635
1744475526994937900,11.541937744140625,2.4618062928736206,0.9442864910908043,-0.002813596116006374
1744475527004934000,11.551933837890624,2.100211699563265,1.0357809718310833,-0.26014453574493523
1744475527014929700,11.5619296875,1.5292729295492171,1.112990760500729,-0.19853300596252083
1744475527024925700,11.57192578125,1.1369096884876488,1.3118763792932033,0.026009178264439103
1744475527034922000,11.581921875,1.1534902364104986,1.5491012272216378,0.32759573146626353
1744475527044917800,11.591917724609376,1.4127023136109114,1.723621489433944,0.7242481941543519
1744475527054913800,11.601913818359375,1.670622012913227,1.774055207119882,1.0895257137611507
1744475527064909800,11.611909912109375,1.7533394590884446,1.7977970249742268,1.2153576406501232
1744475527074905900,11.62190576171875,1.7113468220114707,1.7757751627802847,1.1989578561216592
1744475527084902000,11.63190185546875,1.4352087444514035,1.630969070830196,1.170296702043712
1744475527094897000,11.64189697265625,0.9612351416736841,1.3684347173392772,1.2016861120417714
1744475527104892700,11.651892578125,0.6444879903495311,1.106817624823749,1.234887832158804
1744475527114889000,11.661888916015625,0.6328454833507537,0.9455031734041869,1.218073621610552
1744475527124884700,11.671884765625,0.894186389273405,0.8434946051731705,1.253066609058529
1744475527134880800,11.681880859375,1.256728492566943,0.7767996346466243,1.3404483937829732
1744475527144876800,11.691876708984376,1.573436480924487,0.7461193958312272,1.232490269497782
1744475527154872800,11.701872802734375,1.664428418970108,0.7079606378287077,0.9653699764560908
1744475527164868900,11.711868896484376,1.47378368203938,0.6402652580879629,0.6158680450648069
1744475527174865000,11.721864990234375,1.1540846951723098,0.5927269695825874,0.27439532554596663
1744475527184860700,11.731860595703125,0.9349620517760515,0.6036252340853214,0.012443082791939376
1744475527194857000,11.74185693359375,0.9366682711720467,0.6725751439318061,-0.1624837874598801
1744475527204852700,11.751852783203125,1.1577362034171819,0.7154577155858278,-0.23011231250949202
1744475527214848800,11.761848876953126,1.459413795903325,0.7412903682395815,-0.21760792798437176
1744475527224845000,11.771844970703125,1.808188655129075,0.8552905491679906,-0.24013876261375844
1744475527234840800,11.7818408203125,2.168149509757757,1.0047013584345579,-0.3265972219482064
1744475527244836900,11.7918369140625,2.49069745631516,1.0969932731628418,-0.4924793466094881
1744475527254832600,11.80183251953125,2.7567858490258454,1.1800158397644758,-0.6125882196765393
1744475527264829000,11.811828857421874,2.9483067842692137,1.2100298697561025,-0.6313748993415386
1744475527274825000,11.821824951171875,3.0852129167497155,1.2175044434204696,-0.5469131667822599
1744475527284820000,11.831820068359375,3.198628868049383,1.240120764376223,-0.4561973057316616
1744475527294815700,11.841815673828124,3.3313492392778397,1.214416998799145,-0.26843376852674405
1744475527304811800,11.851811767578125,3.4526772788763043,1.1869953233882784,-0.05818944637924432
1744475527314807800,11.861807861328124,3.577590191224217,1.1598448661342262,0.13148330371417105
1744475527324803800,11.871803955078125,3.5882834346741435,1.0970587396144866,0.26369408145267514
1744475527334800100,11.881800048828126,3.4619144782990214,1.0138348052218555,0.39257882004100825
1744475527344796000,11.8917958984375,3.292149447789788,0.9873992182388901,0.4917938120307401
1744475527354792000,11.9017919921875,3.1215082189679144,1.0230892480403184,0.5038719339678064
1744475527364788000,11.9117880859375,2.9627737010389565,1.0754863747537136,0.4373727052090689
1744475527374784000,11.921783935546875,2.890115876585245,1.2094199211642145,0.35329978930428624
1744475527384780000,11.931780029296876,2.955594018667936,1.3149305061668157,0.2928800265897065
1744475527394775800,11.94177587890625,3.0706419550836084,1.3740350215643644,0.19336307424502447
1744475527404772000,11.951772216796876,3.1156261751919985,1.294601127104461,0.006224349840986542
1744475527414767900,11.961767822265625,3.0349457878023385,1.0752139875531197,-0.22325035431813448
1744475527424764000,11.971763916015625,2.889698527956009,0.7963453159853816,-0.33113530376926065
1744475527434760000,11.981760009765624,2.6390800915777683,0.5757543536022305,-0.21306392787918446
1744475527444756000,11.991755859375,2.4489123245090245,0.44398266140073533,0.10140981688657776
1744475527454752000,12.001751953125,2.247902845430374,0.33314357485175133,0.46313722453005607
1744475527464747000,12.0117470703125,1.8928379461497067,0.3257154706776142,0.6184332193776965
1744475527474742800,12.02174267578125,1.3969395118117331,0.41101416551768777,0.5010984506664797
1744475527484739000,12.031739013671874,0.8377396949082613,0.32114450950026513,0.38161527174971993
1744475527494735000,12.041735107421875,0.11945640050768852,-0.03491612281948328,0.4145241829326376
1744475527504731000,12.05173095703125,-0.8649719852268696,-0.5974111818760633,0.5414288170870393
1744475527514727000,12.061726806640625,-1.9114777646899221,-1.1114441155806183,0.7211449674420058
1744475527524723000,12.071722900390625,-2.8370138164728878,-1.394707514975965,0.8435610945381223
1744475527534719000,12.081718994140624,-3.423364090630412,-1.5697528239756822,0.8353567452944815
1744475527544715000,12.091715087890625,-3.3493431611299513,-1.7184975705489516,0.7646176139436662
1744475527554710800,12.101710693359376,-2.551792268747091,-1.8277929347872732,0.6272573810201137
1744475527564707000,12.11170703125,-1.3503607159882782,-2.0052903131142257,0.44092637910265475
1744475527574703000,12.121703125,-0.3528384554028511,-2.494229137572646,0.3509686429429799
1744475527584699000,12.131698974609375,-0.0032446810096502304,-2.904256922401488,0.37807109633684155
1744475527594695000,12.14169482421875,-0.8487076636463403,-2.663250656238198,0.3058590794218704
1744475527604691000,12.15169091796875,-2.8594489356428383,-1.924600281113386,0.2812991135850549
1744475527614687000,12.16168701171875,-4.9950411606669425,-0.9627256724923848,0.2313219440275803
1744475527624683000,12.17168310546875,-6.566437075674534,0.10227847121357918,0.24448555964641272
1744475527634677800,12.181677734375,-7.264156305474042,1.0826201721563935,0.5409433716576546
1744475527644674000,12.191674072265625,-6.939159796720743,1.7264596354693174,0.9983270741622895
1744475527654670000,12.201670166015624,-5.4974926699101925,2.065686621887982,1.485585471253097
1744475527664665900,12.211665771484375,-3.211304809749126,1.9157494506597519,1.9764904812179505
1744475527674662000,12.221661865234376,-0.9473808038443327,1.488104760597646,2.2320948893152175
1744475527684658200,12.231658203125,0.8407499826401471,1.0612167341217398,2.176165058431029
1744475527694654000,12.241654052734376,2.1551585107594726,0.779445619110763,1.9512183850564062
1744475527704650000,12.25164990234375,2.9083547131091354,0.5653767519727348,1.6203450932241976
1744475527714645800,12.261645751953125,3.151080350410938,0.4569157927319407,1.3258394381940364
1744475527724642000,12.27164208984375,2.986336362934112,0.4453232623547315,1.1294185290146619
1744475527734638000,12.28163818359375,2.5823259386986495,0.5533949300169945,1.0591663043979556
1744475527744633900,12.2916337890625,2.1402444347441194,0.7736375173538923,1.0761764759097248
1744475527754630000,12.3016298828125,1.7103624871492384,1.0266635993957518,1.1579584678657353
1744475527764626000,12.3116259765625,1.2952554993599652,1.170140050177276,1.2781021199852227
1744475527774622000,12.3216220703125,0.8770429467707872,1.2783499572664498,1.4074334332972764
1744475527784617000,12.331616943359375,0.4825549686402082,1.4161629754588008,1.5597002165168523
1744475527794613000,12.341613037109376,0.08108779914677143,1.582852836306393,1.7031243525892494
1744475527804609000,12.351609130859375,-0.31753976300656794,1.8001275137484072,1.7829301491014657
1744475527814605000,12.36160498046875,-0.6087947456777095,1.8738857006594538,1.8675939070388674
1744475527824600800,12.371600830078124,-0.7020242335170507,1.8890546282187104,1.8589964668244123
1744475527834596900,12.381596923828125,-0.6778945853888988,1.8229735518068073,1.6609177805006503
1744475527844593200,12.39159326171875,-0.6139192490845918,1.6687842760920524,1.2786406107760966
1744475527854589000,12.4015888671875,-0.501281880941987,1.56017075663805,0.8998369623810052
1744475527864585000,12.4115849609375,-0.36172435716986656,1.5467340596988797,0.5010349204435944
1744475527874580700,12.421580810546875,-0.2197515889495611,1.5719573482826352,0.07642915968596935
1744475527884577000,12.431576904296875,-0.01449848095178604,1.5999413337513804,-0.21866510888710616
1744475527894573000,12.441572998046874,0.24635960988998412,1.5916788245797155,-0.38272564414441584
1744475527904568800,12.45156884765625,0.5657581525057553,1.488546951407194,-0.4286503599733114
1744475527914564900,12.46156494140625,0.8847843546777963,1.310157300415635,-0.41207112722471356
1744475527924561000,12.471560791015625,1.1613923878371715,1.1180758086800575,-0.3927738676890731
1744475527934556000,12.481555908203125,1.3711363775134087,0.9602388241127133,-0.4100672400563955
1744475527944552000,12.491552001953124,1.461914965069294,0.8258145715758204,-0.521774633872509
1744475527954548000,12.5015478515625,1.3181442075163126,0.6307236688911915,-0.6009916707113385
1744475527964544000,12.5115439453125,1.010652375793457,0.38372546883672476,-0.5157866455040871
1744475527974540000,12.5215400390625,0.6446832206606865,0.1989797268167138,-0.2730363121524453
1744475527984535800,12.531535888671876,0.48607846659123893,0.14427169281244276,-0.051941491900384426
1744475527994531800,12.54153173828125,0.56261634734869,0.18820318899750707,0.10106193503066897
1744475528004528000,12.551528076171875,0.8364601764917373,0.11288622833713889,0.19588862893357872
1744475528014524000,12.56152392578125,1.1803034245342015,-0.09648761285245418,0.2815371601246297
1744475528024520000,12.57152001953125,1.3869839349865913,-0.4566735084086656,0.44998248633742327
1744475528034516000,12.581515869140626,1.3447189107090234,-0.8436508186481892,0.7492468802019954
1744475528044512000,12.591511962890625,1.0154887099087238,-1.0961223355472087,1.04420290934816
1744475528054508000,12.601508056640625,0.605013473573327,-1.2117281981065868,1.3091454930245876
1744475528064503000,12.6115029296875,0.235693838968873,-1.265918199586123,1.5763374630630016
1744475528074498800,12.621498779296875,-0.10760054301917553,-1.3511907370716332,1.8070393389634787
