time,seconds_elapsed,z,y,x
1745460114006214100,0.042214111328125,3.745409348362684,1.5887129605114458,4.808429040253162
1745460114016185000,0.05218505859375,2.8773464113831517,2.0177689786762,6.217091723084449
1745460114026157000,0.062156982421875,2.783256507322192,2.9715692941740155,6.2745812045007945
1745460114036129000,0.07212890625,2.723097514435649,1.6688965042948722,4.911714642682671
1745460114046101000,0.08210107421875,3.9925510485410687,0.8394351006492972,2.92600785869956
1745460114056073200,0.0920732421875,5.008478734388947,1.1220558182269333,1.79161804407835
1745460114066045000,0.102044921875,4.554826619628072,1.690806722807884,1.2569257687047124
1745460114076016000,0.11201611328125,3.5613860753983255,2.0827806722909212,1.2135457689225673
1745460114085988000,0.121988037109375,2.2690356498301028,2.626124163892865,1.1046442263074219
1745460114095960000,0.1319599609375,1.840700931677222,2.660043092368543,0.9488396974157541
1745460114105932000,0.14193212890625,1.6890549107044934,2.478946520505845,0.4518133550263941
1745460114115904000,0.151904052734375,-3.5210979041516777,1.5092884184017776,-1.1280405917249618
1745460114125876200,0.161876220703125,-6.439750723913312,0.3478025070622563,-2.7268463455751535
1745460114135847200,0.17184716796875,-5.450913874086737,0.5555839644938707,-3.595546703675389
1745460114145819100,0.181819091796875,-2.3518624015986918,0.6218547182589769,-3.9857054204300044
1745460114155791000,0.191791015625,0.8294067508488893,0.26203268757909537,-3.125080816757679
1745460114165763000,0.20176318359375,2.0902672286540267,0.7129068620592355,-0.6649087009571493
1745460114175735000,0.211735107421875,2.1637883919388052,0.6144459033071994,-0.9391250166743993
1745460114185707000,0.22170703125,2.4736954681098458,0.21451193473041055,-2.7167472686260936
1745460114195679200,0.23167919921875,2.8358190537303685,0.21018968761712312,-3.1549586531490084
1745460114205650200,0.241650146484375,2.8245278443872928,0.2722194428116083,-3.0654464322671293
1745460114215622100,0.2516220703125,2.8478783248364925,0.528563271099329,-2.7615806820869446
1745460114225594000,0.261593994140625,4.125070344239473,1.042457965376973,-2.456297174063325
1745460114235566000,0.271566162109375,5.287223195055127,1.6983000011727214,-2.331203206060082
1745460114245538000,0.2815380859375,4.958091193932295,2.2015587351456283,-2.541803374174237
1745460114255510000,0.291510009765625,3.8348803604513404,1.5340008348539471,-3.0005379067659375
1745460114265481000,0.30148095703125,4.481638633820414,0.6340995750650763,-2.87702404756099
1745460114275453200,0.311453125,4.087318997994065,0.5097016265019774,-2.996568710874021
1745460114285425200,0.321425048828125,3.677627605512738,0.5303833261333406,-3.0785534588605166
1745460114295397000,0.331397216796875,3.353928150832653,0.9480470126681029,-2.1299897288419305
1745460114305369000,0.341369140625,3.505046933060884,1.9634867688685655,-0.7721300354003906
1745460114315341000,0.351341064453125,3.5938171034038064,2.8950831436038014,-0.31706776158064603
1745460114325313000,0.36131298828125,3.7055163139134644,2.9956150634109973,0.5030522150827571
1745460114335284000,0.371283935546875,3.835881061926484,2.775130484011769,0.8286235645819455
1745460114345256200,0.381256103515625,4.6605900103479625,2.142388168774545,-0.972042951413989
1745460114355228200,0.391228271484375,6.66168900925219,0.7005605907052755,-3.5415824737757444
1745460114365200100,0.4012001953125,8.016556973531841,0.5168824779167771,-5.220006100350618
1745460114375173000,0.411173095703125,7.753829581686854,1.6936172501839697,-4.191277677379548
1745460114385145000,0.42114501953125,7.066971937641501,2.098489113554358,-1.4498235452592372
1745460114395116000,0.431115966796875,4.999834824684262,2.98918444584161,0.9693529816776514
1745460114405088300,0.441088134765625,0.9516834694743156,5.057283974090218,1.63324183806777
1745460114415060000,0.45106005859375,-2.155098889526725,6.44686026365757,0.4685200135469436
1745460114425032200,0.4610322265625,-3.486169798633456,6.368114059200883,-1.1313099687844514
1745460114435004000,0.47100390625,-3.8690532636880874,5.716572058686614,-2.4113901108443736
1745460114444976000,0.48097607421875,-3.341851928591728,5.4704182005018,-1.9706839868962764
1745460114454948000,0.490947998046875,-1.9027046756476163,4.825231998755037,-1.2514806550413369
1745460114464919000,0.5009189453125,-0.5744581763118505,4.16709513002038,-0.562353312498331
1745460114474891300,0.510891357421875,-0.46001405100822446,3.7853529439553615,-0.5718132147610188
1745460114484863000,0.520863037109375,-1.3407242881149053,3.6731942992404103,-0.7789560820281505
1745460114494835200,0.530835205078125,-2.5592963607668877,3.91957115252614,-1.4353659808397292
1745460114504807000,0.540806884765625,-3.684070790302753,4.174512712800502,-1.6271166331857443
1745460114514779100,0.550779052734375,-4.024204077911377,4.056803448221087,-1.7209908486694097
1745460114524751000,0.560751220703125,-4.187262596519291,3.754769881904125,-1.8823329187482594
1745460114534722000,0.57072216796875,-3.922379780206084,3.2945115007460117,-1.857057607716322
1745460114544694300,0.5806943359375,-3.606227672165632,2.888528899654746,-1.6801403673648834
1745460114554666000,0.590666015625,-3.427218427971005,2.5629388089224694,-1.4542004451692103
1745460114564638200,0.60063818359375,-3.4239842683553694,2.1877473596751686,-1.3938292708367108
1745460114574610000,0.61060986328125,-3.6893574985340236,2.0564459153339265,-1.1475210988730191
1745460114584582100,0.62058203125,-3.830513397413492,1.9395491361811756,-1.072361520731449
1745460114594553000,0.630552978515625,-4.227284518045186,1.9450895269125699,-1.2478653871536254
1745460114604525000,0.640525146484375,-4.398033006633818,1.510709098854661,-0.7720102084130048
1745460114614497300,0.650497314453125,-3.5621301717638967,0.5284118799299001,0.5620242266744375
1745460114624469000,0.660468994140625,-2.7624048579514024,1.2980100587651133,-0.3337234205663204
1745460114634441200,0.670441162109375,-4.592674119724333,2.6700030531078576,-1.248129006525874
1745460114644413000,0.680412841796875,-4.787958499154448,2.0750319578602907,-0.44732817243635653
1745460114654385200,0.69038525390625,-3.2146909450560806,0.9102437901049851,-0.9910369902193545
1745460114664356000,0.700356201171875,-2.0199930844664573,1.0177776976287365,-0.7247504445880651
1745460114674328000,0.710328125,-1.3715835367590188,0.7892527273759246,-1.0942676475912332
1745460114684300300,0.72030029296875,-1.6046987574115394,0.6254255624830722,-0.8360293838590384
1745460114694272000,0.73027197265625,-1.764124910866469,0.8146493266999721,-1.1070791983693837
1745460114704244200,0.740244140625,-1.6481470001243055,0.6218482885181903,-1.4503092829495667
1745460114714216000,0.7502158203125,-1.4628564837031066,0.4352916976839304,-1.4550953481823206
1745460114724188200,0.760188232421875,-1.523661957799643,0.4511731574267149,-1.9990818138629196
1745460114734159000,0.7701591796875,-1.423184983050078,0.4189204085975885,-2.594846397575736
1745460114744131000,0.780131103515625,-1.2870176862381397,0.2171113035738468,-2.616996854585409
1745460114754103300,0.790103271484375,-1.2426631423354149,0.09248772956132888,-2.7468706042110917
1745460114764075300,0.8000751953125,-1.2581015344858169,-0.08776654625833034,-2.942533461564779
1745460114774047200,0.810047119140625,-1.227353345000744,-0.33605741647183895,-2.5137936697423457
1745460114784019200,0.820019287109375,-0.867733266633749,-0.44267596271634096,-2.6050416283756492
1745460114793990100,0.829990234375,0.0019108020573854446,-0.6201660345196723,-2.664965058940649
1745460114803962000,0.839962158203125,-0.8693822028845548,-0.4033101670116186,-2.853395626953244
1745460114813934000,0.84993408203125,-2.889142647638917,0.048119011002779,-4.437997645014524
1745460114823906300,0.85990625,-2.521946581059694,-0.3417126657545566,-4.784130465298891
1745460114833878300,0.869878173828125,-1.9973392079792915,-0.7963602212935685,-4.805941899612546
1745460114843850200,0.879850341796875,-2.0826780886992813,-0.690529610556364,-4.77100327270031
1745460114853822200,0.889822265625,-1.9714853664070366,-0.8740513637393712,-4.068288718831539
1745460114863793200,0.899793212890625,-1.368100955340266,-0.8071668619900941,-3.1071546994447705
1745460114873765000,0.90976513671875,-0.31485505396723745,-0.6081693072557449,-2.1167682820886373
1745460114883737000,0.919737060546875,0.28992928702533244,-0.02141103681921959,-3.0651550481051206
1745460114893709000,0.929708984375,0.24195348388552665,0.0985521441668272,-4.234714375784993
1745460114903681300,0.939681396484375,-0.002217091527581215,-0.060014615979790686,-4.545751917290687
1745460114913653200,0.9496533203125,-0.06973638404905795,0.36671734315156934,-4.8800382324367755
1745460114923624200,0.959624267578125,0.20028379515260455,1.1159317823886872,-5.402500848573446
1745460114933596200,0.96959619140625,0.23647505247443912,1.6619097141474484,-5.719112390819191
1745460114943568100,0.979568115234375,-0.03935571270212531,1.5440630869239569,-5.411957243704795
1745460114953540000,0.9895400390625,0.0680320643492043,1.3962854318171738,-5.524596365413069
1745460114963512000,0.999511962890625,0.7255952248491346,1.7747686160862446,-6.096932727265358
1745460114973484300,1.009484375,0.8666425487875938,2.034876765343547,-6.4264715556234115
1745460114983456300,1.019456298828125,0.6412618679098785,2.0247136832475663,-6.751389153921604
1745460114993427200,1.02942724609375,0.18363865756094455,1.7941180442005396,-7.269124741536379
1745460115003399200,1.039399169921875,-0.7317711370050907,1.875492843595147,-7.834738517135381
1745460115013371100,1.04937109375,-1.7894611583054065,1.9528917250961064,-7.841151891309022
1745460115023343000,1.059343017578125,-2.8919939454168078,1.113234798389673,-8.418672377800942
1745460115033315000,1.069315185546875,-3.313580942875147,-0.28143150779306886,-8.395222528630494
1745460115043287300,1.079287353515625,-3.0057097564458846,-1.6974153272926806,-7.496962021785974
1745460115053259000,1.089259033203125,-2.2150860329777,-3.151265643849969,-6.310091493821144
1745460115063230200,1.099230224609375,-0.9761854580461978,-4.35538658182323,-4.946262808972596
1745460115073202200,1.1092021484375,0.053814044306613504,-4.404162010908126,-3.782170806787908
1745460115083174100,1.119174072265625,1.3598007445067166,-3.994757618674636,-2.81479730848968
1745460115093146000,1.12914599609375,1.8779776461482047,-3.025405221518874,-2.163304992336035
1745460115103118000,1.1391181640625,1.7600351573348045,-2.567223646634817,-1.935363667190075
1745460115113090300,1.14909033203125,1.4374965631276369,-2.372733340191841,-1.8456372190356254
1745460115123061200,1.159061279296875,1.5879589272737502,-1.534140827846527,-1.6521739175528287
1745460115133033200,1.169033203125,1.4714379956960677,-2.533569798836112,-1.4362626374185083
1745460115143005200,1.179005126953125,0.9370914650201797,-3.605390636819601,-1.1165636505514382
1745460115152977200,1.18897705078125,0.38984329412989316,-3.351683002254367,-0.5680909793674945
1745460115162949000,1.19894921875,-0.17466683107614517,-2.9139906731694936,-0.06804243961274624
1745460115172921000,1.208921142578125,-0.7493208222210407,-2.1792525030523535,0.5351338816612958
1745460115182893300,1.218893310546875,-1.1921791557669639,-1.3276140466511248,1.1550544169872998
1745460115192864300,1.2288642578125,-1.5404814290449023,-0.75234338491261,1.740930643892288
1745460115202836200,1.238836181640625,-1.6436273307427762,-0.618812866345048,2.5655045677572486
1745460115212808200,1.24880810546875,-2.298511627422273,-0.7613748326301574,3.54153454298079
1745460115222780200,1.2587802734375,-5.523769266939163,-1.6636001514524221,4.207839228340983
1745460115232752000,1.268752197265625,-3.9505873452976346,-2.093875482279062,2.1721751120120287
1745460115242724000,1.27872412109375,-3.0912638873517513,-1.8200059341728687,1.1213450396090745
1745460115252695000,1.288695068359375,-2.6854996051862834,-0.9280985957473515,-0.11463000326454639
1745460115262667300,1.298667236328125,-2.0836416730344296,-0.16769640754163265,-1.3219681497186422
1745460115272639200,1.30863916015625,-1.050798215959966,-0.05805296051800251,-1.8348820162653923
1745460115282611200,1.318611083984375,-0.10213234074115753,-0.17363719576746225,-1.8437047896683214
1745460115292583200,1.328583251953125,-0.027223960881680248,-0.26075024655312296,-1.3168401391804216
1745460115302555100,1.33855517578125,0.35696517994403837,-0.12096768185347317,-0.6944535060018301
1745460115312527000,1.348527099609375,0.7129346268489957,0.07870148853212594,-0.20018238060474394
1745460115322498000,1.358498046875,0.5394912000879645,0.13277882341742514,0.29408991383612154
1745460115332470300,1.36847021484375,0.3217803231857717,0.17802812420278785,0.49355917773544783
1745460115342442200,1.378442138671875,-0.13569807186499236,0.3497007418990135,0.26247370934486386
1745460115352414200,1.388414306640625,-0.7532967401146888,0.7134571894183754,0.03926058176457882
1745460115362386200,1.39838623046875,-1.1337924332499503,1.0358379627153276,-0.10415127934813499
1745460115372358100,1.408358154296875,-1.2137398301899431,1.168057106423378,-0.5096732771903276
1745460115382330000,1.418330078125,-0.9404805229365825,1.0969213769704103,-0.4902320791393518
1745460115392301000,1.428301025390625,-0.4873204294763505,0.8957745352476835,-0.13670914860367775
1745460115402273300,1.438273193359375,0.08729469096288084,0.7810799423143268,0.34180385116934775
1745460115412245200,1.448245361328125,0.5346550851684063,0.9326704337075352,0.770930011960864
1745460115422217200,1.45821728515625,0.6861900469820946,1.2130749365404248,0.7442828280538321
1745460115432189200,1.468189208984375,0.6352163041353225,1.2969164183095097,0.5238239676177502
1745460115442161200,1.4781611328125,0.6352572206676006,1.3236542031094432,0.40030104832351204
1745460115452132400,1.48813232421875,0.6901192761898041,1.3587630720220505,0.6231979495614767
1745460115462104000,1.49810400390625,0.8248154044706374,1.4694709334068,0.5725023660689592
1745460115472076300,1.508076171875,0.9945570541042834,1.5908476344525813,0.7614747858732939
1745460115482048300,1.51804833984375,1.1618693576991557,1.6145125876784323,1.3435048587441443
1745460115492020200,1.528020263671875,1.205299334102869,1.527548005452752,1.7573381733357905
1745460115501992200,1.5379921875,1.0574082817494868,1.406915839163959,1.6291519384056328
1745460115511964200,1.547964111328125,1.0772726736485958,1.47397496682778,1.4939771597623823
1745460115521935000,1.55793505859375,0.8669874167025089,1.7799862046040593,1.4773913511425256
1745460115531907000,1.567906982421875,0.6845990514636039,2.2610870289131997,1.201897416704893
1745460115541879300,1.57787939453125,0.5329413400530815,2.377754821615666,1.0483651435941457
1745460115551851300,1.587851318359375,0.3919640856761485,2.238948554602265,1.2928209656894207
1745460115561823200,1.5978232421875,0.35732754698302593,2.1817650703951714,1.3534978449702262
1745460115571795200,1.607795166015625,0.29887185088302937,2.0863338347278533,1.3183002748608588
1745460115581767200,1.61776708984375,0.21468670677542684,1.8691222856499254,1.3850064974337815
1745460115591738000,1.627738037109375,-0.08629296657443046,1.7279301464132963,0.9170634069919585
1745460115601710000,1.6377099609375,-0.3562234216660261,1.7650132380083203,-0.13574059583246706
1745460115611682300,1.647682373046875,-0.6950514718949794,2.1147271316498517,-1.322058166089654
1745460115621654300,1.657654296875,-0.7659832032084465,2.3050430750176307,-1.8433838871508836
1745460115631626200,1.667626220703125,-1.7508645934075115,3.03608034479022,-2.364133854150772
1745460115641598200,1.67759814453125,-0.5729992096751928,2.966718639272451,-2.769280004417896
1745460115651569200,1.687569091796875,1.4640309343099593,0.7712999412517995,-1.806249211499095
1745460115661541000,1.697541015625,2.0247703818708658,-0.7505133930064737,0.6634644934982061
1745460115671513000,1.70751318359375,2.0135493151545525,-0.16160652970131487,2.3074422451138497
1745460115681485000,1.717485107421875,2.2646137417346237,1.2335606752082704,1.95529118745327
1745460115691457300,1.727457275390625,2.2520073581397533,2.347514435522258,1.335859312427044
1745460115701429200,1.73742919921875,1.8186966051399707,2.7747476221740244,0.5443810179561376
1745460115711401200,1.747401123046875,1.0884482207227497,2.6339561726927756,-0.36192134104669094
1745460115721372200,1.7573720703125,0.10340784056968987,2.336142269897461,-0.5892682074308395
1745460115731344100,1.76734423828125,-0.6193155551701783,2.101910758566111,-0.5128519072264432
1745460115741316600,1.777316650390625,-0.9188683375220745,2.052422797297686,-0.12473229508399962
1745460115751288300,1.787288330078125,-0.6847673937678337,2.1082081051446497,0.5351555089712142
1745460115761260500,1.797260498046875,0.027233532427623865,2.093165288183093,1.3588584952205418
1745460115771232300,1.807232177734375,0.7636486227810383,2.0025978591598568,2.0741192269295454
1745460115781204500,1.81720458984375,0.9457821364760398,1.8060604109287262,2.597553902968764
1745460115791175400,1.827175537109375,1.0052753589302301,1.6560212406307457,2.5291893917948007
1745460115801147400,1.8371474609375,0.8837790500927716,1.6226555621236562,2.226613973686099
1745460115811119600,1.84711962890625,0.4213035774070769,1.4125602747917174,2.0737755280584094
1745460115821091300,1.85709130859375,0.27624855219721794,1.2328875982522964,2.209264194956422
1745460115831063600,1.8670634765625,0.4144646712977439,1.305826869995892,2.4698177498936653
1745460115841035300,1.87703515625,0.49592941399812696,1.549329629150033,2.4624124420732256
1745460115851007500,1.887007568359375,0.2609960380077362,1.8823209360495208,2.0697095937937497
1745460115860978400,1.896978515625,-0.38086277288198467,2.302617016914487,1.2722861271828412
1745460115870950400,1.906950439453125,-0.8754764281064271,2.8500805110558867,0.14438684362471102
1745460115880922600,1.916922607421875,-1.3995365425676107,3.3153011907964944,-0.6591133125513792
1745460115890894300,1.926894287109375,-1.2445417956888676,3.2275504266291857,-0.793886524656415
1745460115900866600,1.936866455078125,-0.18056641050875186,2.811641767068207,-0.36752339883744717
1745460115910838300,1.94683837890625,0.7389438051134347,2.641292214669287,-0.011600421422719954
1745460115920809500,1.9568095703125,1.1517822634488344,2.8445412893682716,-0.10344809951484203
1745460115930781400,1.966781494140625,1.0505436566770077,3.209586899915337,-0.5581687202900648
1745460115940753400,1.97675341796875,0.5175859500110149,3.5047573024645446,-1.3663596646308898
1745460115950725600,1.9867255859375,-0.29891733399257064,3.5952643796026704,-2.0630273395508527
1745460115960697300,1.996697265625,-0.9175209415011107,3.5651647171542047,-2.234690897157788
1745460115970669600,2.006669677734375,-0.9768032246183603,3.513096968525648,-2.1473539744883774
1745460115980641300,2.016641357421875,-1.0386493668742478,3.2982249683111906,-2.003176389700174
1745460115990612500,2.026612548828125,-0.9306845205873251,2.9582018630787728,-1.435347860661149
1745460116000584400,2.03658447265625,-0.7838028644721955,2.559080672189593,-0.8719394861519336
1745460116010556400,2.046556396484375,-0.5503975017666817,2.1348465212233365,-0.6895815160512924
1745460116020528600,2.056528564453125,-0.3846528128147125,1.7338821866855025,-0.7816027971446514
1745460116030500400,2.066500244140625,-0.18586795098297296,1.527591260072589,-0.7933166158139705
1745460116040472600,2.07647265625,0.01833703620135784,1.509718626512587,-1.0920078859657047
1745460116050444300,2.0864443359375,0.12934884896874427,1.3233471829868853,-1.1907067451268434
1745460116060415500,2.09641552734375,0.21458558448851106,1.1195610788017512,-0.8982955781579017
1745460116070387500,2.106387451171875,0.19886545278728007,1.0405775584578514,-0.41963761695623397
1745460116080359400,2.116359375,0.24332767658187074,1.0572815866298972,-0.17587328425645826
1745460116090331600,2.12633154296875,0.41132922281622886,1.2053563249871133,-0.37872050015628334
1745460116100303400,2.136303466796875,0.42139001358151434,1.2643822221904992,-0.5689011267066002
1745460116110275600,2.146275634765625,0.29095629198551176,1.224913915959373,-0.6403542515456676
1745460116120247300,2.156247314453125,0.22224165219962597,0.9981514253344386,-0.9025912295252084
1745460116130218500,2.166218505859375,0.13762392536103724,0.7723806491605937,-0.9886743527412414
1745460116140190500,2.1761904296875,-0.019620061749219892,0.5995489245571196,-0.9889344649821519
1745460116150162400,2.186162353515625,-0.23670564635992047,0.45081601455211634,-0.7908698071837424
1745460116160134700,2.196134765625,-0.30038696815371513,0.2959818650625646,-0.47970016373097896
1745460116170106400,2.2061064453125,-0.1602221261382103,0.26844255462139843,0.11831249116957188
1745460116180078600,2.21607861328125,-0.021402855796052608,0.3578263268180191,0.592462035036087
1745460116190050300,2.22605029296875,0.1710018788278103,0.4122659191444516,0.45866789709627626
1745460116200021500,2.236021484375,0.3111842565000057,0.3843878782682121,-0.11611761147379875
1745460116209993500,2.245993408203125,0.3913233766198158,0.2554711371064186,-0.629613077300787
1745460116219965400,2.25596533203125,0.3406944286227226,-0.041896775487065316,-0.43702772769629955
1745460116229937700,2.265937744140625,0.3343757469952106,-0.28781477908939124,0.111409872174263
1745460116239909400,2.275909423828125,0.40321255185604093,-0.39814737742096185,0.666562459513545
1745460116249881600,2.285881591796875,0.5168576357364654,-0.46063627455979583,1.1221814904332161
1745460116259853300,2.295853271484375,0.4655518113911152,-0.3968541227400303,1.3255617902964352
1745460116269824500,2.305824462890625,0.3551286121666431,-0.2952724016189575,1.073816395714879
1745460116279796500,2.31579638671875,0.4382394415736198,-0.35928456280231474,-0.07646773813068866
1745460116289768400,2.3257685546875,0.32765608335137364,-0.7818421588584781,-0.9281921192497015
1745460116299740700,2.33574072265625,0.10668342817425727,-1.2023624038681386,-1.2211264333099126
1745460116309712400,2.34571240234375,0.1140460658967495,-1.4181091410905122,-0.9648667761743068
1745460116319684600,2.3556845703125,0.24799627118110656,-1.489431040765345,-0.37016309969127176
1745460116329656300,2.36565625,0.28305472508072854,-1.5730457280412316,0.3162298494517803
1745460116339627500,2.37562744140625,0.3497527643471956,-1.60007226665467,0.8534487206935882
1745460116349599500,2.385599609375,0.34457565397024154,-1.5218641145974396,0.9306699075400828
1745460116359571500,2.395571533203125,0.33464345802068707,-1.4322382042080164,0.10441139158904551
1745460116369543700,2.405543701171875,0.17447393885254858,-1.4852698294326663,-0.899900675266981
1745460116379515400,2.415515380859375,-0.07415711853418033,-1.5734750593692064,-1.1180799003332853
1745460116389487600,2.425487548828125,-0.2801882297337055,-1.5570751287102698,-1.0162532645404339
1745460116399459300,2.435459228515625,-0.34283611682653425,-1.449229086497426,-0.7657517325401306
1745460116409430500,2.445430419921875,-0.3717582599282265,-1.4721680635362864,-0.23335224427878856
1745460116419402200,2.45540234375,-0.3478343635052442,-1.6682546992599963,0.42136254105269905
1745460116429374500,2.46537451171875,-0.254543500867486,-1.7475789958655834,0.6357347750514746
1745460116439346400,2.475346435546875,-0.2242699431568384,-1.7055039412021635,0.18447101673185826
1745460116449318400,2.485318359375,-0.26312311316430564,-1.7796470357775687,-0.7431248901903629
1745460116459290600,2.49529052734375,-0.4761860181301832,-2.010025232681632,-1.389381059256196
1745460116469262300,2.505262451171875,-0.7358949389368296,-2.1479794129103422,-1.7120833195924758
1745460116479234600,2.515234619140625,-0.7896598468720912,-2.2214789488852023,-1.6578472870141268
1745460116489205200,2.525205322265625,-0.7038742452979088,-2.3265543573409317,-1.4205986198186873
1745460116499177500,2.535177490234375,-0.5565484256118536,-2.44817524240613,-1.1610878519326449
1745460116509149400,2.5451494140625,-0.31906010444164273,-2.5518846232056616,-0.800745889031887
1745460116519121400,2.555121337890625,-0.14789980191541835,-2.686744344550371,-0.40756840897798535
1745460116529093400,2.56509326171875,0.07970830922080203,-2.7121207778692242,-0.19166063597500324
1745460116539065300,2.5750654296875,0.2245464402769692,-2.6282068153858185,-0.7594020712524652
1745460116549037600,2.58503759765625,0.211803278559912,-2.6250322770029304,-1.6653958026975393
1745460116559008300,2.59500830078125,0.12254210982965305,-2.698755100339651,-2.004851629436016
1745460116568980500,2.60498046875,0.11867957091629504,-2.6538001063257455,-1.7983441374629734
1745460116578952400,2.614952392578125,0.2377331993093714,-2.565351423022151,-1.3983283358216285
1745460116588924400,2.62492431640625,0.3715262047380209,-2.470191259381175,-1.142331129014492
1745460116598896400,2.634896484375,0.453854980389215,-2.4458430000662803,-1.0464853211969136
1745460116608868400,2.644868408203125,0.5241279190003871,-2.453476855945587,-1.0031927074372768
1745460116618840600,2.654840576171875,0.7045242336392402,-2.395455459609628,-1.05492231015265
1745460116628811300,2.664811279296875,0.7351268771737813,-2.2122657148599623,-1.4413386255085467
1745460116638783500,2.674783447265625,0.5720412148306145,-2.101184343987703,-2.2268349229604003
1745460116648755500,2.68475537109375,0.3854974834779277,-2.1037743604809043,-2.7432190959662197
1745460116658727400,2.6947275390625,0.1826847361032851,-2.1571569911003112,-2.715664734086394
1745460116668699400,2.704699462890625,0.2220195521478541,-2.1863550285339355,-2.3850094689190384
1745460116678671400,2.71467138671875,0.4200058657467365,-2.164988999900222,-2.0325953764081
1745460116688643300,2.724643310546875,0.4174257495930418,-2.002265120074153,-1.663406090185046
1745460116698615600,2.734615478515625,0.16202712973356245,-1.6821540452748536,-1.244486850631237
1745460116708586500,2.74458642578125,0.07414192553162574,-1.2615998979955911,-0.9388725032180547
1745460116718558500,2.754558349609375,0.09964465211126952,-1.0147715015500782,-0.94861648311913
1745460116728530400,2.764530517578125,0.08265906705148518,-0.8816618387430906,-1.5882237156897783
1745460116738502000,2.774501953125,-0.05176116689741611,-0.9813993933022022,-2.228394427362084
1745460116748473900,2.784473876953125,-0.3065419836521148,-1.225180092614889,-2.510844756808877
1745460116758445800,2.79444580078125,-0.5178518344055861,-1.4331366143524646,-2.5062948384195565
1745460116768417800,2.804417724609375,-0.5238081855267286,-1.5116197839587926,-2.3278952505558728
1745460116778388700,2.814388671875,-0.3367717022210359,-1.3782488398671149,-2.158346493145823
1745460116788361000,2.82436083984375,-0.22019874819517135,-1.2208844412475823,-1.9328280112326144
1745460116798333000,2.8343330078125,-0.18451828993968664,-1.1456342622131108,-1.6251859573841094
1745460116808305000,2.844304931640625,-0.13098843286931514,-1.188629938852787,-1.7406740387827158
1745460116818276900,2.85427685546875,-0.19908289493024348,-1.3491226986259222,-2.1411714864611624
1745460116828248800,2.864248779296875,-0.2936064411681145,-1.4826736754596233,-2.4348165791392327
1745460116838220800,2.874220703125,-0.39432942656800146,-1.5099515584856271,-2.4205922389537093
1745460116848191700,2.884191650390625,-0.4374233759503811,-1.4410270753413439,-2.406968787270784
1745460116858163700,2.894163818359375,-0.3528400628380477,-1.1955144376695155,-2.4719600226193665
1745460116868136000,2.904135986328125,-0.11341697421297431,-0.7653969277530908,-2.6210242104053494
1745460116878108000,2.91410791015625,0.175378632607311,-0.24251170229017732,-2.6951959465533495
1745460116888080000,2.924079833984375,0.3528724307376891,0.2573720022916794,-2.7795629135012625
1745460116898051800,2.9340517578125,0.32088213223703205,0.5252542926818132,-2.8626936166524883
1745460116908023800,2.94402392578125,0.27313663072176275,0.4843208092689514,-2.900709166792035
1745460116917996000,2.95399609375,0.21839557123072445,0.2171077964425087,-2.8872499657601116
1745460116927966700,2.963966796875,0.16042963140904903,-0.10646072533428669,-2.897629905477166
1745460116937939000,2.97393896484375,0.23571079010367393,-0.3258288679242134,-2.904987867024541
1745460116947911000,2.983910888671875,0.5107634105145931,-0.34122400545477866,-2.7194442526251077
1745460116957883000,2.9938828125,0.8665713101822883,-0.14218553418815136,-2.472351067763567
1745460116967854800,3.003854736328125,1.170407907333225,0.21166765121519565,-2.2209709993630646
1745460116977826800,3.013826904296875,1.2805395762652159,0.6825006178796291,-2.155336789935827
1745460116987799000,3.023799072265625,1.3755793283969162,1.233177521109581,-2.1996704371809956
1745460116997770800,3.033770751953125,1.334122697892785,1.7222253589004277,-2.3759236606657503
1745460117007742000,3.043741943359375,1.0909931559652088,2.046032365608215,-2.750039297375083
1745460117017713700,3.053713623046875,0.745354768134281,2.083084623673558,-2.879468225842714
1745460117027686000,3.063685791015625,0.5476479107975959,2.0252590421706436,-2.7139234433770176
1745460117037657900,3.073657958984375,0.37481534594390536,2.0029566094696523,-2.5694594428628683
1745460117047629800,3.0836298828125,0.2652999092141166,2.0751275271892546,-2.2552403487116095
1745460117057602000,3.09360205078125,0.19693771786140277,2.206378410387039,-1.8582669835060834
1745460117067573800,3.10357373046875,0.04031798186302185,2.2453993381768464,-1.388899997740984
1745460117077545000,3.113544921875,-0.15511282030045986,2.084265942412615,-0.9552870469242334
1745460117087516700,3.1235166015625,-0.33314357485175133,1.8795821587353945,-0.6387292806923389
1745460117097489000,3.133489013671875,-0.5440753130078315,1.6940940739154815,-0.5110673618972301
1745460117107460900,3.1434609375,-0.7351438283085823,1.4519371764123439,-0.4846604164868593
1745460117117432800,3.153432861328125,-0.9418237542390823,1.275555942633748,-0.37964872091710566
1745460117127405000,3.163405029296875,-1.1109481487572193,1.2278875980079174,-0.256794494664669
1745460117137376800,3.173376708984375,-1.1615151374340056,1.308654494637251,-0.055602060234546655
1745460117147349000,3.183348876953125,-1.2516425676047802,1.4690736046522854,0.3057821051955223
1745460117157319700,3.193319580078125,-1.3109972583711147,1.5970938353657722,0.6874135243624448
1745460117167292000,3.2032919921875,-1.2393886507093905,1.7860761920422314,0.9338602280139923
1745460117177263600,3.213263671875,-1.2372960623443126,2.0159441013365984,1.1516922470778226
1745460117187235800,3.22323583984375,-1.3017454459011555,2.1090040778279304,1.0364981801897286
1745460117197207800,3.233207763671875,-1.30005851572752,2.100044818563759,0.9165852680861949
1745460117207179800,3.2431796875,-1.2340379373311996,2.088211757428944,1.0400894826799632
1745460117217152000,3.253152099609375,-1.113054838712886,2.198798915043473,1.215644787028432
1745460117227123700,3.263123779296875,-1.0116904866695404,2.379779459311068,1.3202315351843834
1745460117237095000,3.273094970703125,-0.949312721754983,2.572882110787928,1.5421294885128736
1745460117247066600,3.283066650390625,-0.9271395414568483,2.6808514871194955,1.927737410095334
1745460117257038800,3.293038818359375,-0.9320563934624194,2.7417373329758643,2.1997551928550005
1745460117267010800,3.3030107421875,-0.8420248248815536,2.744668125730753,2.2115157732754946
1745460117276982800,3.312982666015625,-0.7237819648820907,2.5724726532042026,1.9052280566453932
1745460117286954800,3.322954833984375,-0.4815725334741175,2.333031152139604,1.5757161162942648
1745460117296926700,3.3329267578125,-0.21912088983058928,1.9788649552643298,1.459699042585492
1745460117306898000,3.34289794921875,0.11824176402091979,1.6454638985201715,1.4259656998097896
1745460117316869600,3.35286962890625,0.4313831459380686,1.3217308338314293,1.5224726018846033
1745460117326841900,3.362841796875,0.6082862116336822,1.2539634117677807,1.622782987895608
1745460117336813800,3.372813720703125,0.5190718046545982,1.5439729244224727,1.7763912488520144
1745460117346785800,3.382785888671875,0.14746215941682458,1.977905316451937,1.9090847320735453
1745460117356757800,3.3927578125,-0.10520224970579146,2.37084635740146,1.827254590126872
1745460117366729700,3.402729736328125,-0.14441650811061263,2.3065037952199576,1.6490174993485212
1745460117376702000,3.412701904296875,-0.0473440080422908,1.814536124459654,1.3695043923974037
1745460117386672600,3.422672607421875,0.07428104174137115,1.3402385504245757,1.1986743630051613
1745460117396644900,3.432644775390625,0.15461656121611594,1.0919311674676835,1.1693185046613215
1745460117406616800,3.442616943359375,0.23708434347920118,0.8837119031406938,1.2791864080905913
1745460117416588800,3.4525888671875,0.1997953540485352,0.7757844662547111,1.4917039541333912
1745460117426560800,3.462560791015625,0.15621113693118094,0.8135890039920807,1.72319098906219
1745460117436532700,3.47253271484375,0.10665529805831611,0.8926200167395174,1.8805501269847154
1745460117446504700,3.482504638671875,0.0734172645188868,1.028487307691574,1.9981360574454068
1745460117456477000,3.492476806640625,-0.05378668137565255,1.1077483298026025,2.022365658816695
1745460117466448000,3.50244775390625,-0.21302447265163063,1.128654047448188,2.068623552122712
1745460117476419800,3.512419921875,-0.39166590644717214,1.0996547474570573,2.255623795071244
1745460117486391800,3.522391845703125,-0.5887419915996491,0.9772758836314082,2.488262922644615
1745460117496363800,3.53236376953125,-0.6959937211811542,0.7736410244852304,2.5320786834955213
1745460117506335700,3.542335693359375,-0.5712180253468454,0.6048024611711502,2.3255010488957164
1745460117516307700,3.5523076171875,-0.3036274113796651,0.4464685599323362,2.0651333719193934
1745460117526280000,3.562280029296875,-0.012135697343200445,0.2400426818281412,1.9439707520157097
1745460117536252000,3.572251953125,0.17144370431117711,0.019460487273335457,1.9597849917411803
1745460117546222800,3.582222900390625,0.2266543540753424,-0.13842603552415966,1.9316946232885122
1745460117556194800,3.59219482421875,0.23265841679573057,-0.24654614543803036,1.7913187688708305
1745460117566166800,3.602166748046875,0.1446608382605016,-0.18007548518665134,1.5779799695730208
1745460117576138800,3.612138671875,-0.08659574891328811,0.06384096933491527,1.3914894297122955
1745460117586110700,3.62211083984375,-0.2625111187458038,0.1874950407281518,1.231819676759839
1745460117596083000,3.6320830078125,-0.30052023914456366,0.354561918194592,1.0418757815748452
1745460117606054700,3.6420546875,-0.30478607989549633,0.4640702675964683,1.0753618715912103
1745460117616027000,3.65202685546875,-0.17072364640831947,0.4489589154433459,1.200994914907217
1745460117625997800,3.661997802734375,0.15530731995925307,0.3678922321498394,1.4242653256326914
1745460117635969800,3.6719697265625,0.38472996970415113,0.2545828099645674,1.7697873205423353
1745460117645941800,3.681941650390625,0.49260450735911726,0.15734408648386597,2.0992425622701645
1745460117655913700,3.691913818359375,0.5471813161991537,0.06267704012207687,2.2090923455208538
1745460117665886000,3.701885986328125,0.5016588975608348,-0.02408522446453571,2.050447259441018
1745460117675857700,3.711857666015625,0.4967674722574651,-0.12154139008820056,1.909441290426254
1745460117685830000,3.721829833984375,0.46965281696915623,-0.11549158852994441,1.837448651883006
1745460117695801900,3.7318017578125,0.44332960431948304,-0.006389554906636476,1.7163620198249816
1745460117705772800,3.741772705078125,0.42957112808004017,0.1426535900913179,1.6807997080564498
1745460117715744800,3.751744873046875,0.4506535174667835,0.33120683463551104,1.6733230885654686
1745460117725716700,3.761716796875,0.5074607887726277,0.5871325105763971,1.6983704360604286
1745460117735689000,3.77168896484375,0.6331177974861115,0.8560646753456443,1.7380448593229054
1745460117745661000,3.781660888671875,0.8067033361315726,1.1201851289842277,1.6266607061117886
1745460117755633000,3.7916328125,0.8306756748061627,1.3260026659317314,1.3043582587480544
1745460117765604900,3.80160498046875,0.6462227782528847,1.4321069790437817,1.0465542947798967
1745460117775577000,3.8115771484375,0.4205680296741426,1.5215145705074071,0.9299328254371881
1745460117785548000,3.821548095703125,0.22550854504108428,1.5932013579718767,0.4210650194108486
1745460117795520000,3.83152001953125,-0.1149183186866343,1.6217276336237787,-0.2766547949105501
1745460117805492000,3.841491943359375,-0.5402630612432956,1.472640357223153,-0.7964139973074197
1745460117815464000,3.8514638671875,-0.8370774316072463,1.2244153187874705,-0.858087486410141
1745460117825436000,3.861435791015625,-0.7918751848340034,1.0598505603350699,-0.5007879599452019
1745460117835408000,3.871407958984375,-0.5146329454243183,0.9401054790791123,0.15179624309837816
1745460117845380000,3.881380126953125,-0.1735503942668438,0.8832206124924122,0.8880483249098062
1745460117855351800,3.891351806640625,0.12220350725874304,0.803577386130765,1.487539820191264
1745460117865324000,3.901323974609375,0.2414192308783531,0.5802032958351075,1.8065987555891274
1745460117875295000,3.911294921875,0.3102349929511547,0.32478366972021755,1.7768997828960418
1745460117885267000,3.921266845703125,0.3724010878764093,0.14421141399256884,1.5465537346959113
1745460117895239000,3.931239013671875,0.3615418402098119,-0.05000087922662496,1.2954291023612021
1745460117905211000,3.9412109375,0.43828971045613285,-0.14959705255366862,1.0496890856742858
1745460117915183000,3.95118310546875,0.6239153040505945,-0.14057364201210437,0.9450795411646365
1745460117925154800,3.96115478515625,0.7679400363646447,-0.0004454056799411773,0.8288993858486413
1745460117935127000,3.971126953125,0.8218914067827164,0.28297654527798294,0.7923936557501554
1745460117945098800,3.9810986328125,0.8690285671412944,0.5823936454862356,0.7392302208393812
1745460117955070000,3.991070068359375,0.8310089253485202,0.8685254399247467,0.7157955692380666
1745460117965042000,4.0010419921875,0.8599427588880062,1.0859703593671322,0.536036383458972
1745460117975014000,4.011013916015625,0.9370457261823117,1.183638268045336,-0.1115010575890541
1745460117984986000,4.020986083984375,0.8129973217092454,1.2190510883405803,-0.7422527835309505
1745460117994957800,4.030957763671875,0.7119112751506269,1.1266085130952297,-1.1630419086098671
1745460118004930000,4.040929931640625,0.6404837231442332,0.9948876742981374,-1.507982304239273
1745460118014901800,4.05090185546875,0.647047027182579,0.8979540712438523,-1.7612287510335445
1745460118024874000,4.0608740234375,0.670200085363537,0.9122634593643247,-1.877568480825424
1745460118034845000,4.070844970703125,0.7429856278501451,1.0357327487751842,-1.9938865833073853
1745460118044817000,4.08081689453125,0.8652711143039167,1.266394000404328,-2.020243259835243
1745460118054789000,4.0907890625,0.9984848220072686,1.6403703747734426,-2.253702471619844
1745460118064760800,4.1007607421875,0.9934067880906164,2.1321540672689676,-2.892804677277803
1745460118074733000,4.110733154296875,0.8821088518582284,2.522098264490068,-3.652554539054632
1745460118084704800,4.120704833984375,0.653241644039005,2.790581735643744,-4.429209358403086
1745460118094677000,4.130677001953125,0.33151875012889503,3.050487640327215,-5.034299988865852
1745460118104649000,4.14064892578125,0.04827800095677375,2.985495235934853,-5.649746009126305
1745460118114621000,4.150620849609375,0.014624737679958342,2.686537423801422,-5.869423948317766
1745460118124592000,4.160592041015625,0.2637200561441481,2.366704873682558,-5.206748559370637
1745460118134563800,4.170563720703125,0.6141561265803873,1.8599340399354696,-3.8628684375733133
1745460118144536000,4.1805361328125,0.528231262665987,1.2031503393754361,-2.464552961233258
1745460118154507800,4.1905078125,0.2386229512233287,0.6804357943043112,-1.2802777104586363
1745460118164480000,4.20047998046875,-0.01459426947645843,0.36411212908923624,-1.1514642835408448
1745460118174452000,4.210451904296875,-0.3582441869039088,0.15983166551589964,-1.8174778769999742
1745460118184424000,4.220423828125,-0.6716682582199573,-0.33708851308524607,-2.360784543722868
1745460118194396000,4.23039599609375,-0.9340039473336189,-0.9712743051290511,-2.3628514131247997
1745460118204368000,4.240367919921875,-0.9523089078962802,-1.3118664424210786,-1.927832102641463
1745460118214339000,4.250339111328125,-0.8330172694962471,-1.3554261826843021,-1.3925111739754676
1745460118224310800,4.260310791015625,-0.5853461020836607,-1.3192346331015228,-0.6807149035066365
1745460118234283000,4.270282958984375,-0.25792145286798474,-1.2357996863067149,0.02051905641555786
1745460118244255000,4.2802548828125,0.07422847130391746,-1.1575631849378347,0.5784352632492781
1745460118254227000,4.29022705078125,0.31011344893071796,-1.0964911688596009,1.0489929201036692
1745460118264199000,4.300198974609375,0.4198141790995374,-1.0743822129040956,1.4448562782406806
1745460118274171000,4.3101708984375,0.42816582785937934,-0.983503379844129,1.6232102733969687
1745460118284142800,4.320142822265625,0.39233346697781235,-0.752455320854485,1.3559347167283295
1745460118294113800,4.33011376953125,0.28202479751110077,-0.5659259102880955,0.8120137174993753
1745460118304086000,4.3400859375,0.10441197611093521,-0.5120780002444982,0.5311398435890674
1745460118314058000,4.35005810546875,-0.11614212486054748,-0.39789223361611364,0.4770885199278593
1745460118324030000,4.360030029296875,-0.3498118741232902,-0.24054741647988556,0.6799632083564996
1745460118334002000,4.370001953125,-0.5241536379635334,-0.09222907862514257,1.086876952818036
1745460118343974000,4.379973876953125,-0.6209153915822505,-0.10204115532636641,1.7139824312120675
1745460118353945900,4.38994580078125,-0.5322188709974288,-0.1692851380378008,2.385792143729329
1745460118363918000,4.39991796875,-0.32670565075874325,-0.1769631253197789,2.8773399816423653
1745460118373890000,4.40989013671875,-0.1088567170927301,-0.10585340709090232,2.966901594623923
1745460118383861000,4.419861083984375,0.02680379924084991,0.029939795711636543,2.348404954621196
1745460118393833000,4.4298330078125,-0.019636464894749222,-0.04419511555731296,1.5964368327617644
1745460118403805000,4.439804931640625,-0.2584405631049536,-0.3162684278964996,1.2492372600287198
1745460118413777000,4.44977685546875,-0.5306827474713325,-0.46547933067679403,1.0250456428050994
1745460118423748900,4.459748779296875,-0.7051672077178954,-0.47443946672379966,0.815968008083105
1745460118433721000,4.46972119140625,-0.801704504930973,-0.3825210614830255,0.7311117963135242
1745460118443692800,4.47969287109375,-0.8924129498600959,-0.3307113792687654,0.69568450910151
1745460118453665000,4.4896650390625,-0.8736474591135979,-0.3480412842541933,0.5546428842514753
1745460118463637000,4.499636962890625,-0.9052689243018627,-0.4193693214088678,0.37335342016518114
1745460118473608000,4.50960791015625,-0.8862077385444194,-0.5159294149756432,0.2149894891142845
1745460118483580000,4.519579833984375,-0.8547755853831768,-0.6849585324257612,0.018116671448946
1745460118493551900,4.5295517578125,-0.7720108660001307,-0.8242126893371343,-0.27218261793255805
1745460118503524000,4.539524169921875,-0.6832242559790611,-0.9258107770711183,-0.682715137413144
1745460118513495800,4.549495849609375,-0.7470797652959823,-1.0901952835857867,-1.4687486104816196
1745460118523468000,4.559468017578125,-0.8667360722899436,-1.2934592635929583,-2.190385891485214
1745460118533440000,4.56943994140625,-0.8691700945038348,-1.4739806659162045,-2.408134908440709
1745460118543412000,4.579411865234375,-0.8001146053910255,-1.4810527962595224,-2.266677688527107
1745460118553384200,4.58938427734375,-0.7727379381656646,-1.406410519990325,-1.7723796751230954
1745460118563355000,4.59935498046875,-0.6525964780032635,-1.4111170902460812,-1.1327233427137136
1745460118573327000,4.6093271484375,-0.43689621027112,-1.4978016864866017,-0.6344710387259721
1745460118583298800,4.619298828125,-0.26932781302332875,-1.6061925031006334,-0.3752636377006769
1745460118593271000,4.62927099609375,-0.13602525799274442,-1.7957412614881991,-0.3107452805608511
1745460118603242800,4.63924267578125,0.026339723109768235,-1.9532330858796834,-0.3889876271486282
1745460118613215000,4.649215087890625,0.23460136755704877,-2.066509336447716,-0.5200497097760438
1745460118623187000,4.65918701171875,0.33437399342954155,-2.1600994742929935,-0.7448661808997392
1745460118633159000,4.669158935546875,0.4391372671961784,-2.2358780611157414,-0.8846370551615953
1745460118643131100,4.679131103515625,0.5034101251423359,-2.266450309512019,-0.9891840558290481
1745460118653101800,4.689101806640625,0.5584761788040399,-2.2210405574679375,-1.0603554411172866
1745460118663074000,4.699073974609375,0.6110229431211948,-2.1397651267945763,-1.154533607983589
1745460118673045800,4.709045654296875,0.706281306439638,-1.9671622425109148,-1.241966976764798
1745460118683018000,4.71901806640625,0.6865045928239822,-1.8045652039349078,-1.2090624860286712
1745460118692990000,4.728989990234375,0.6533627862006426,-1.7734820834070444,-1.1664315510481595
1745460118702962000,4.7389619140625,0.6854425165504217,-1.8247049056440592,-1.2555360679119825
1745460118712934100,4.74893408203125,0.6491746868610382,-1.932830349320173,-1.699164216786623
1745460118722905900,4.75890576171875,0.6211410170316696,-2.0304513501167296,-2.023964910706878
1745460118732878000,4.768878173828125,0.5338724468907341,-2.1512188332229853,-2.3841239182561633
1745460118742849300,4.778849365234375,0.4728180395344272,-2.2707740179300306,-2.8070845421552657
1745460118752821200,4.7888212890625,0.3920470512518659,-2.3048218334823845,-2.946470801013708
1745460118762793200,4.798793212890625,0.38495559515357014,-2.1704992877542972,-2.7257255248516796
1745460118772765200,4.80876513671875,0.5194347196828574,-1.96651809938848,-2.377429389053583
1745460118782737200,4.818737060546875,0.7581154655080288,-1.839272944700718,-1.8630267452538012
1745460118792709400,4.82870947265625,1.0453787481945007,-1.7151310167253015,-1.4116718015193939
1745460118802681000,4.83868115234375,1.200617898288369,-1.6646230647593736,-1.217242869874835
1745460118812653300,4.8486533203125,1.2663380324333906,-1.7520277919679879,-1.3915513890326023
1745460118822625300,4.858625244140625,1.2662310649275779,-1.8626064740151165,-1.5417922193825244
1745460118832596200,4.86859619140625,1.191882876234129,-2.011884596812725,-1.3935095373630524
1745460118842568200,4.878568115234375,1.1209773022752254,-2.0861200458467004,-1.2890607363730668
1745460118852540200,4.8885400390625,1.1125193435966967,-2.0369594168365,-1.3818793053239584
1745460118862512400,4.898512451171875,1.1008920341670512,-1.8904104267418382,-1.4015765239626168
1745460118872484000,4.908484130859375,1.005648210830614,-1.6990946586817501,-1.2614555210888385
1745460118882456300,4.918456298828125,0.9219664496678859,-1.4863555788427592,-1.0562345617949962
1745460118892428000,4.928427978515625,0.819075326448679,-1.268767305406928,-0.8283984505891799
1745460118902400300,4.938400146484375,0.7114268526345491,-1.060925349959731,-0.6252291631281376
1745460118912372200,4.948372314453125,0.5661936213135719,-0.8687479966342448,-0.5558908384859561
1745460118922344200,4.95834423828125,0.4565168565422296,-0.7260445760518311,-0.60045712544322
1745460118932315400,4.9683154296875,0.1986678113233298,-0.6828647750169038,-0.7086912901908159
1745460118942287000,4.978287109375,0.0284428351521492,-0.5417237814456224,-0.9895417832255363
1745460118952259300,4.98825927734375,-0.04942486943695694,-0.40560383090674873,-1.1838900508493184
1745460118962231000,4.99823095703125,-0.14508304572794586,-0.21479016714990137,-1.2388222489982843
1745460118972203300,5.008203369140625,-0.27954174852371216,-0.02190028164088726,-1.2154939803808926
1745460118982175200,5.01817529296875,-0.43597675733864305,0.11373743833899497,-1.140072536432743
1745460118992147200,5.028147216796875,-0.6025719256401062,0.2022322988718748,-1.0044283867120742
1745460119002119400,5.038119384765625,-0.7550999901443719,0.20773732602894304,-0.8816694375276565
1745460119012091100,5.048091064453125,-0.8356120352298021,0.18669278443455695,-0.8887339690864086
1745460119022062300,5.058062255859375,-0.8618161515444517,0.1929693804860115,-0.9025742783904075
1745460119032034000,5.068033935546875,-0.8317524371922016,0.2814829457193613,-0.9787462484449148
1745460119042006300,5.07800634765625,-0.8363046936690807,0.4565624492496252,-1.1605196966558695
1745460119051978200,5.087978271484375,-0.939558147394657,0.6473375345617532,-1.4516022453695534
1745460119061950200,5.0979501953125,-1.068887122619152,0.812484257620573,-1.5498083525776862
1745460119071922200,5.107922119140625,-1.1940180616319178,0.952939607015252,-1.6686738014549016
1745460119081894100,5.11789404296875,-1.2662228816211223,1.081951186853647,-1.8169366097301243
1745460119091866400,5.127866455078125,-1.3025251981019974,1.1973194412648678,-1.8883266062051056
1745460119101838300,5.13783837890625,-1.2657003190517424,1.2404478043735025,-1.9742752893865108
1745460119111810300,5.147810302734375,-1.1212170293152333,1.2575731266975403,-2.021364372819662
1745460119121781200,5.15778125,-0.8916156620025634,1.3411433903098107,-2.163324281558394
1745460119131753200,5.167753173828125,-0.6621744536876678,1.605158483877778,-2.355133386093378
1745460119141725200,5.17772509765625,-0.5401368045151234,1.9358008895635603,-2.672881823414564
1745460119151697200,5.187697265625,-0.4874865798234939,2.2498101403564212,-2.8694325695186853
1745460119161669400,5.19766943359375,-0.46041857668850567,2.5103023204952475,-2.9235394227594136
1745460119171641300,5.207641357421875,-0.5311059413194656,2.7131296626508234,-2.9798680437028406
1745460119181613300,5.21761328125,-0.5972293955683707,2.778383932849765,-2.919512066939473
1745460119191585300,5.227585205078125,-0.632075156565383,2.602693603944778,-2.685093654733896
1745460119201557200,5.23755712890625,-0.7049415822684765,2.160309902173281,-2.261125315096974
1745460119211528200,5.247528076171875,-0.6678302874922752,1.627831503456831,-1.8038123397409915
1745460119221500200,5.257500244140625,-0.5103776260674,1.115120466005802,-1.3984557615935802
1745460119231472000,5.26747216796875,-0.34941790636964143,0.6419476582169532,-1.0198416444212197
1745460119241444400,5.2774443359375,-0.19630473545379937,0.248918646723032,-0.7339087335556745
1745460119251416300,5.287416259765625,-0.08017660258598625,-0.08520166420638561,-0.4859983870923519
1745460119261388300,5.29738818359375,0.006781549898907542,-0.328399595195055,-0.28747487961053847
1745460119271360300,5.3073603515625,0.09770743697099388,-0.4467828135132789,-0.11989654549062251
1745460119281332200,5.317332275390625,0.1575637205839157,-0.4356576083868742,0.03391688264906406
1745460119291304400,5.327304443359375,0.15047105890922247,-0.3125836019039154,0.16113924098312854
1745460119301276200,5.337276123046875,0.015945757150650025,-0.08609656721949577,0.28304946438372136
1745460119311247400,5.347247314453125,-0.10621807568483053,0.11590484550595283,0.4079635457754135
1745460119321219300,5.35721923828125,-0.18880626945719123,0.39216099648773667,0.5321867222934961
1745460119331191300,5.36719140625,-0.29824038457907737,0.7013081942021846,0.6811983031094074
1745460119341163300,5.377163330078125,-0.32390228377580643,0.9784183316648006,0.8293903842359781
1745460119351135200,5.38713525390625,-0.239290548286587,1.2183797649502754,1.0168389554738997
1745460119361107500,5.397107421875,-0.13092954228892922,1.4565595755159855,1.26232938131392
1745460119371079200,5.4070791015625,-0.07415018190331757,1.6984084299832582,1.477934956499934
1745460119381051400,5.417051513671875,-0.04038330218419432,1.8355355117380618,1.6138526624649763
1745460119391023000,5.427023193359375,-0.03970657196640968,1.8828923061966896,1.6657529455721378
1745460119400995300,5.436995361328125,-0.07675130431242287,1.8649118283480404,1.7156196770250796
1745460119410966300,5.44696630859375,-0.1656979272007942,1.8035604108065366,1.7907219720214604
1745460119420938200,5.456938232421875,-0.1731307075500488,1.8168784498021004,1.9249141693681477
1745460119430910500,5.466910400390625,-0.21431962702870366,1.913954968458414,2.0262129818946124
1745460119440882200,5.476882080078125,-0.3477286381084472,1.9804484250634908,2.179161902159452
1745460119450854400,5.4868544921875,-0.4858581018388271,1.962560886195302,2.334422606498003
1745460119460826000,5.496826171875,-0.567431638675928,1.9180168110698461,2.4657845488548276
1745460119470798300,5.50679833984375,-0.7551929291248322,1.8898352572023867,2.5164064825892445
1745460119480770300,5.516770263671875,-0.9850431566320359,1.8369421636655925,2.453723524183035
1745460119490742300,5.5267421875,-1.1662240457773208,1.557846697604656,2.5057021332234144
1745460119500714200,5.53671435546875,-1.0808956864513457,1.243067631483078,2.3876503388166426
1745460119510685200,5.546685302734375,-0.9431729038257152,0.9072890319526195,2.1413000812768934
1745460119520657400,5.556657470703125,-0.8535410751521587,0.7648448468282818,2.1810785494357345
1745460119530629000,5.566629150390625,-0.5347229627728461,0.8093520970746875,2.1819050633877515
1745460119540601300,5.576601318359375,-0.37665655336380005,0.8149661375641822,2.2054420063197613
1745460119550573300,5.5865732421875,-0.18123101189732552,0.9690186351567506,2.500174894234538
1745460119560545300,5.596545166015625,0.1846772798936814,1.2155725985750556,2.785700393342972
1745460119570517200,5.606517333984375,0.3693406043272465,1.383892106451094,3.118834615844488
1745460119580489200,5.6164892578125,0.5242752915818244,1.41759125469625,3.524695636382699
1745460119590461200,5.626461181640625,0.5852946276247502,1.278411332064867,3.765630298614502
1745460119600433400,5.636433349609375,0.6653870590586215,1.0886506844922899,3.8216719193100928
1745460119610404400,5.646404296875,0.7523357130628079,0.9955395623356104,3.758663966733217
1745460119620376300,5.656376220703125,0.8046913387220352,1.00330815051049,3.7036154487282036
1745460119630348300,5.666348388671875,0.7973251938682049,0.9929080447882414,3.5166333259582516
1745460119640320300,5.6763203125,0.7321252111397684,1.0182026450425385,3.2546348329097032
1745460119650292200,5.686292236328125,0.5654853269137442,1.1763424119487405,3.2849218346238134
1745460119660264200,5.69626416015625,0.505697870753333,1.4091013665094971,3.685706867071986
1745460119670236400,5.706236328125,0.6264893192570656,1.555006798003614,4.00306659733653
1745460119680208100,5.7162080078125,0.7815185529273003,1.5516925588890909,4.046644457778334
1745460119690180400,5.726180419921875,0.9387200891353189,1.4536319976314902,3.751830905842781
1745460119700152000,5.736152099609375,0.9291407982766627,1.2671917266532777,3.225352624323964
1745460119710124300,5.746124267578125,0.7190951222401112,1.047282901315391,2.793086996462941
1745460119720095200,5.75609521484375,0.38244448911547657,0.8521022745206952,2.5302754334658384
1745460119730067200,5.766067138671875,0.02573525669388473,0.7807140316113829,2.411978724387288
1745460119740039400,5.776039306640625,-0.19817403645701706,0.7016063003659248,2.305365438839793
1745460119750011100,5.78601123046875,-0.261822551959753,0.6126742174595594,2.22517604983747
1745460119759983400,5.7959833984375,-0.1580430285334587,0.6032555239900946,2.1518635608673096
1745460119769955000,5.805955078125,0.10445062762089073,0.6449596995145082,2.019329652121663
1745460119779927300,5.81592724609375,0.4472293151717633,0.7494809812188148,1.860328592211008
1745460119789899300,5.825899169921875,0.7219113487046211,0.8691945713579654,1.794501490560174
1745460119799871200,5.835871337890625,0.9121721278190612,1.0446405701130628,1.78837277854681
1745460119809843200,5.84584326171875,0.933351693969965,1.192173310548067,1.6917361126124857
1745460119819815200,5.855815185546875,0.8077659969270229,1.445097685781121,1.4892045385330914
1745460119829786400,5.865786376953125,0.6551940202157944,1.7506407215237616,1.2545768674910067
1745460119839758000,5.875758056640625,0.4494633578341454,1.923663877046108,0.8517290572941303
1745460119849730300,5.885730224609375,0.19212876494340597,1.8374276090949773,0.5151087462425231
1745460119859702300,5.895702392578125,0.009977788656949996,1.6834984456211328,0.15564824235141275
1745460119869674200,5.90567431640625,-0.053394978644326324,1.5390899746865032,-0.052934886851906775
1745460119879646200,5.915646240234375,-0.09607450200691818,1.4052590118676422,-0.16113631837368012
1745460119889618200,5.9256181640625,-0.1458745979644358,1.2474790181845425,-0.3206792300760746
1745460119899590100,5.935590087890625,-0.2817128089524805,1.1216507445573807,-0.4510194281697273
1745460119909562400,5.945562255859375,-0.44689606462940573,1.0127122309327126,-0.4709124616414308
1745460119919534000,5.9555341796875,-0.6067115096628666,0.891553118160367,-0.5854097784370184
1745460119929506300,5.96550634765625,-0.7961831111609935,0.7822229748696088,-0.5971013852745294
1745460119939477200,5.975477294921875,-0.9224737416028976,0.6358773983925581,-0.5190016620278358
1745460119949449200,5.98544921875,-0.9870132145959883,0.5547036745280027,-0.4433195213168859
1745460119959421200,5.995421142578125,-0.9200563051976263,0.5970972936213016,-0.43049043488204475
1745460119969393200,6.00539306640625,-0.8397628712989389,0.6624217064470053,-0.41774376603364943
1745460119979365400,6.015365478515625,-0.7969732386253774,0.7223679333657026,-0.31312837630510326
1745460119989337000,6.025337158203125,-0.6892297069389373,0.7853565967202186,-0.1784042640388012
1745460119999309300,6.035309326171875,-0.6050410191673785,0.7557324428290129,-0.1338876614421606
1745460120009281300,6.04528125,-0.5525941350281238,0.7410971837550401,-0.19378478852212427
1745460120019253200,6.055253173828125,-0.5757307535309344,0.71028761947155,-0.1779986058473587
1745460120029225500,6.0652255859375,-0.6134370185256004,0.6158072547882795,-0.1484884337246418
1745460120039197200,6.075197265625,-0.6157378428138792,0.49835225723087784,-0.18760931475758552
1745460120049168400,6.08516845703125,-0.5820026003420352,0.37217093238234517,-0.29931320144236084
1745460120059140000,6.09514013671875,-0.5873066250342875,0.26829963901937004,-0.46331250803172586
1745460120069112300,6.1051123046875,-0.6089631610471755,0.13635142120718954,-0.6344757149010897
1745460120079084000,6.115083984375,-0.47267253011651333,-0.08436930503547191,-0.8018266700059175
1745460120089056300,6.12505615234375,-0.290336698782444,-0.3411532783061266,-0.9954963077157736
1745460120099028200,6.1350283203125,-0.09143449418134987,-0.5346890605032444,-1.2713666742503642
1745460120109000200,6.145000244140625,0.1764471386216581,-0.6323556540071964,-1.5702321319252253
1745460120118972400,6.154972412109375,0.2959528581637889,-0.6654553750544786,-1.853506637236476
1745460120128944000,6.164944091796875,0.33018706313371654,-0.7022685636669397,-2.050078426128626
1745460120138916400,6.174916259765625,0.3280699248492718,-0.7699918543279171,-2.279833522698283
1745460120148888300,6.184888427734375,0.371681176104024,-0.8326338962018489,-2.5090105271190404
1745460120158860300,6.1948603515625,0.4139947156984359,-0.8152619056403636,-2.774087696960568
1745460120168831200,6.204831298828125,0.47561384426541625,-0.7057751104831695,-3.021334026557207
1745460120178803200,6.21480322265625,0.4543314022619277,-0.6185346339255571,-3.2033623263120647
1745460120188775400,6.224775390625,0.3425263932902366,-0.5934124676287174,-3.3458518118828535
1745460120198747100,6.2347470703125,0.308722323365882,-0.5800643257558346,-3.588046118786931
1745460120208719400,6.24471923828125,0.25295886202454565,-0.5158236165136099,-3.7868250623345374
1745460120218691300,6.25469140625,0.2552431735694408,-0.3912771993905306,-3.8817864885330198
1745460120228663300,6.264663330078125,0.32850020602531727,-0.17699089010953903,-4.057566249287128
1745460120238635300,6.27463525390625,0.35232056900858877,0.25654081216454505,-4.339292940634489
1745460120248607200,6.284607177734375,0.3919675197422504,0.8233569492906332,-4.506930895987153
1745460120258579200,6.2945791015625,0.4759937834937125,1.4714543623089789,-4.614689844438433
1745460120268551400,6.304551513671875,0.39811435193419453,2.1477304065853358,-4.808673370403051
1745460120278522400,6.3145224609375,0.20859248155355453,2.6876117750346658,-4.946369776478409
1745460120288494300,6.324494384765625,-0.08742094769105314,2.778479794439673,-5.005599379560351
1745460120298466300,6.33446630859375,-0.44628348568901416,2.3275936372607946,-5.019395849722623
1745460120308438300,6.344438232421875,-0.6232498258791863,1.5911638607949017,-5.081391994908452
1745460120318410200,6.35441015625,-0.726528998567909,0.7146265254586934,-5.024205295830964
1745460120328382200,6.36438232421875,-0.697142891216278,-0.27413375200033185,-4.8555277682974936
1745460120338354400,6.3743544921875,-0.6251415579099208,-1.2521265517294407,-4.676461825479567
1745460120348326100,6.384326171875,-0.543130725634098,-2.111386589050293,-4.513598537182808
1745460120358298400,6.39429833984375,-0.4852011723000556,-2.758131418415904,-4.364403708754479
1745460120368270000,6.40427001953125,-0.43117147594876587,-3.1792057901769875,-4.251492784367501
1745460120378242300,6.4142421875,-0.41137481552362437,-3.43961146107614,-4.111374996364116
1745460120388214300,6.42421435546875,-0.32899931465387344,-3.529180672842264,-3.896765446478128
1745460120398185200,6.434185302734375,-0.18762100519537925,-3.5357039371311663,-3.653485390163958
1745460120408157400,6.444157470703125,0.01905537707116455,-3.3676778592437504,-3.373986311738193
1745460120418129200,6.454129150390625,0.2332849877288565,-3.1181834584593773,-3.0639515175342558
1745460120428101400,6.464101318359375,0.3701940793514252,-2.8864240363299847,-2.7491435175791383
1745460120438073000,6.474072998046875,0.5775637411117553,-2.636398889669776,-2.31258896035254
1745460120448045300,6.48404541015625,0.7027133848249912,-2.413297405770421,-1.858135466080904
1745460120458017300,6.494017333984375,0.7689724481523037,-2.047923878443241,-1.5244892024040222
1745460120467989200,6.5039892578125,0.7140320666968822,-1.6168208646208047,-1.2075380529403685
1745460120477961200,6.513961181640625,0.5534101275861263,-1.2410106989532708,-0.8709253406733274
1745460120487933200,6.52393310546875,0.41353520842790603,-1.0183896920472384,-0.6088426764726639
1745460120497905200,6.5339052734375,0.23907292348053305,-0.8568851248830557,-0.44363983931243417
1745460120507876000,6.5438759765625,0.10849778411984443,-0.7402981423318385,-0.3270224616229534
1745460120517848300,6.553848388671875,-0.04938976159095764,-0.6812696147799492,-0.25752631607055665
1745460120527820300,6.5638203125,-0.20686580389142034,-0.6799193692147731,-0.2652700620651245
1745460120537792300,6.573792236328125,-0.37608847115226085,-0.7155413022160529,-0.33423487721979617
1745460120547764200,6.58376416015625,-0.585892082061246,-0.7502402751535177,-0.3878554082483053
1745460120557736200,6.593736083984375,-0.767403664465621,-0.8115309024184941,-0.39306992802619933
1745460120567708200,6.603708251953125,-0.880454874106124,-0.8852852899372577,-0.34000761540234087
1745460120577680400,6.613680419921875,-0.9345218337278812,-0.9371814813911914,-0.29445991619229317
1745460120587652000,6.623652099609375,-0.9210206201851368,-0.9496861581772565,-0.2648690800487995
1745460120597624300,6.633624267578125,-0.893220832176879,-0.8816624232649802,-0.2488227851331234
1745460120607596000,6.643595947265625,-0.860021011755988,-0.7863415161043406,-0.19782558834552763
1745460120617568300,6.653568359375,-0.7776116816818713,-0.6313385859191417,-0.1278396134495735
1745460120627540200,6.663540283203125,-0.6755085670351981,-0.46439679613709445,0.009406710770726204
1745460120637511200,6.67351123046875,-0.5864637444693594,-0.24584932228028772,0.1043120228677988
1745460120647483400,6.6834833984375,-0.5323123944997787,-0.001266074413061142,0.16587562185525892
1745460120657455000,6.693455078125,-0.5340751663886011,0.15022680182456968,0.2849123356461525
1745460120667427300,6.70342724609375,-0.6060637132786214,0.2741986339300871,0.45127954041063784
1745460120677399000,6.71339892578125,-0.6829835060257464,0.42829964683949945,0.5677794292002916
1745460120687371300,6.723371337890625,-0.7725006222784518,0.5631997001945972,0.6631833384692668
1745460120697343200,6.73334326171875,-0.8881995699487626,0.6582412058919668,0.7519903336912394
1745460120707315200,6.743315185546875,-1.008237131345272,0.7354770057857036,0.8702233298838138
1745460120717287400,6.753287353515625,-1.1453741499722003,0.8161199837744235,0.9918442149490118
1745460120727259100,6.763259033203125,-1.2262519596301018,0.8663836055904627,1.123365731781721
1745460120737231400,6.7732314453125,-1.2713771956443787,0.9339981751799583,1.23267541680634
1745460120747203300,6.783203369140625,-1.2798293821692466,1.0592314055234193,1.2363602427989244
1745460120757174500,6.793174560546875,-1.2574832564570009,1.1942279049903153,1.2219962018817663
1745460120767146200,6.803146240234375,-1.250907092937082,1.3979519037246704,1.21339145514369
1745460120777118500,6.813118408203125,-1.2943944986164568,1.5134353089481591,1.2072563133895395
1745460120787090400,6.82309033203125,-1.3215491936542092,1.5457716444075107,1.239690264004469
1745460120797062400,6.8330625,-1.2564546440616249,1.5652870767384766,1.2660498631417751
1745460120807034400,6.843034423828125,-1.1760347342390567,1.5854811389833687,1.2793600110918282
1745460120817006300,6.85300634765625,-1.036995681383088,1.6629495785892008,1.3215794426620007
1745460120826978600,6.862978515625,-0.877452550484985,1.699231436803937,1.406622701436281
1745460120836950500,6.872950439453125,-0.7094985149204731,1.7002900059461592,1.5014783291727303
1745460120846922500,6.882922607421875,-0.6150022220157086,1.709026270109415,1.5749796187132596
1745460120856894500,6.89289453125,-0.5099987097524106,1.7091408363997935,1.5945178473979233
1745460120866866400,6.902866455078125,-0.46152796270251273,1.6266232967108487,1.5742957281023262
1745460120876837400,6.91283740234375,-0.5344258795224129,1.4691039997905493,1.5455185464292764
1745460120886809300,6.922809326171875,-0.6140846687793732,1.2742796390876174,1.5271891090124845
1745460120896781600,6.932781494140625,-0.7133562132619321,1.194665127363801,1.509748729389906
1745460120906753500,6.94275341796875,-0.8368842471227049,1.1888596559554339,1.5030109455674885
1745460120916725500,6.9527255859375,-0.925397227834165,1.2124164726316928,1.4193185168802738
1745460120926697500,6.962697509765625,-1.0167011544384061,1.2401993825703859,1.353063545206189
1745460120936669400,6.97266943359375,-0.965615110323578,1.2678227180331945,1.2760755825936794
1745460120946641400,6.982641357421875,-0.7740506281994283,1.2584157150015234,1.0734107375234365
1745460120956613600,6.992613525390625,-0.5420598815321922,1.0791168402105569,0.8891068940520286
1745460120966585300,7.00258544921875,-0.3269407746888697,0.8415040158778428,0.7633627915769815
1745460120976557600,7.0125576171875,-0.17326295562759042,0.6330497737511992,0.83253861913383
1745460120986529300,7.022529296875,-0.10646949316263198,0.5173626626491546,1.0347095432072877
1745460120996500500,7.03250048828125,-0.051277621164172886,0.5774678795218467,1.3331284261584282
1745460121006472400,7.042472412109375,-0.0250606453679502,0.7343681677609681,1.6222428896695376
1745460121016444400,7.0524443359375,-0.07502002354040742,0.8749234703987836,1.8905851987868547
1745460121026416600,7.062416748046875,-0.2211483040049672,0.9187249104633927,2.132826851963997
1745460121036388400,7.072388427734375,-0.2680709448300302,0.9730889533355832,2.3208628677010537
1745460121046360600,7.082360595703125,-0.23532032948136328,1.0872691670060157,2.4338965416848657
1745460121056332300,7.092332275390625,-0.14166954749003052,1.1851344979524612,2.6166829663306475
1745460121066304500,7.102304443359375,0.05245134111866355,1.2536986233517526,2.820347343832254
1745460121076276500,7.1122763671875,0.23297866172604262,1.3423951439365744,3.0319191334575413
1745460121086248400,7.12224853515625,0.30823709713220593,1.4026689953744411,3.298675050166249
1745460121096220400,7.132220458984375,0.34389190948978066,1.4317989360079169,3.4858892281264064
1745460121106192400,7.1421923828125,0.457091587690264,1.5368696682885288,3.5569793648719785
1745460121116164400,7.152164306640625,0.43682139146924015,1.6567507239490746,3.583711888974905
1745460121126135300,7.16213525390625,0.35254034923911093,1.7758935284629462,3.621194355151057
1745460121136107500,7.172107421875,0.24924115667566657,1.881684683972597,3.5939217328220603
1745460121146079500,7.18207958984375,0.11914411968812345,1.8890549204796552,3.474108773961663
1745460121156051500,7.192051513671875,-0.004480944806337356,1.7765648518532513,3.2860411940425633
1745460121166023400,7.2020234375,-0.045732846518605944,1.5154241446778178,2.8301550366193053
1745460121175995400,7.211995361328125,0.038137715214490886,1.3200360126122832,2.298832822200656
1745460121185967400,7.22196728515625,0.12928922773599624,1.1712339828938245,1.843086365509033
1745460121195939600,7.231939697265625,0.25568624116182326,0.9568830839440225,1.493293853673339
1745460121205911300,7.241911376953125,0.18348726639151572,0.8448547876104712,1.3144248947322368
1745460121215883500,7.251883544921875,-0.02401668927296996,1.0372583509072661,1.21605862852633
1745460121225855200,7.261855224609375,-0.18589578883796928,1.2825661136567592,1.1833861929804086
1745460121235827500,7.271827392578125,-0.27935134051814675,1.2839140211343765,1.0370528914630412
1745460121245799400,7.28179931640625,-0.13476619784235955,1.3885282418191431,0.7959095549166202
1745460121255770400,7.291770263671875,-0.03276011382937431,1.5253946268111467,0.5141407779932021
1745460121265742600,7.30174267578125,0.18175474351048468,1.7553154353365301,0.12320435486435889
1745460121275714300,7.31171435546875,0.3400584688067436,2.0907149724215266,-0.2845277202427387
1745460121285686500,7.3216865234375,0.23211006219796834,2.349075985750556,-0.5986883622050285
1745460121295658200,7.331658203125,0.06179908824376761,2.6132769572794436,-0.9597112931072711
1745460121305630500,7.34163037109375,-0.14120061480402946,2.9001673150002953,-1.3494874402850865
1745460121315602400,7.3516025390625,-0.3040018707152456,3.0802292831182476,-1.6609750636458396
1745460121325574400,7.361574462890625,-0.3357682973321527,3.100315208813548,-1.8765917447477578
1745460121335546400,7.37154638671875,-0.13647183271646499,3.008862082996964,-2.062359231030941
1745460121345518300,7.381518310546875,0.13966682936549185,2.849382299658656,-2.191741397747397
1745460121355490600,7.391490478515625,0.39468883446492253,2.6961153994858265,-2.325745963567495
1745460121365462500,7.401462646484375,0.7697171290397644,2.7208997121304273,-2.4209371068686245
1745460121375434500,7.4114345703125,1.139907555129379,2.9156407784640788,-2.4880641852021217
1745460121385405400,7.421405517578125,1.3715152938283979,3.2656016326040027,-2.5368852069944143
1745460121395377400,7.43137744140625,1.4607659411646425,3.6958833931714294,-2.56078396897614
1745460121405349400,7.441349365234375,1.3691092555999755,4.108351264628768,-2.6146312944978476
1745460121415321300,7.4513212890625,1.1132969038404523,4.414384129714966,-2.730428587976098
1745460121425293600,7.46129345703125,0.7134205837350338,4.378106363153457,-2.640033446779847
1745460121435265500,7.471265625,0.3715548463106155,4.00983711438477,-2.3826696277946233
1745460121445237500,7.481237548828125,0.029115035325288773,3.4971985576480624,-2.009237881696224
1745460121455209500,7.49120947265625,-0.2625462631244212,2.955740149140358,-1.650763466233015
1745460121465181400,7.501181396484375,-0.4513000717420131,2.38679810590148,-1.348393799829483
1745460121475153400,7.5111533203125,-0.6250011995911597,1.752889377233386,-1.0077268437355755
1745460121485125600,7.521125732421875,-0.7552056424759328,1.1627128227859735,-0.7325064655423164
1745460121495097300,7.531097412109375,-0.7968808841668069,0.6200707574516534,-0.6070803429752588
1745460121505069600,7.541069580078125,-0.7372188810169696,0.09298165055811404,-0.6473848808348178
1745460121515040500,7.55104052734375,-0.6737246062278747,-0.4089706769913435,-0.7810597763091325
1745460121525012500,7.561012451171875,-0.5682580064974725,-0.8966559942573309,-1.0638432832330464
1745460121534984400,7.570984375,-0.4420832575201988,-1.3921651370167731,-1.320686877736449
1745460121544956400,7.580956298828125,-0.30335619322285057,-1.7238240262687206,-1.5562591361522673
1745460121554928600,7.5909287109375,-0.24417605530582367,-1.9068360763639212,-1.6960931387782097
1745460121564900400,7.600900390625,-0.23089688701592384,-2.00859256953001,-1.7228034510493277
1745460121574872600,7.61087255859375,-0.12015315060019492,-2.01226687412858,-1.767442218720913
1745460121584844300,7.62084423828125,0.007613982135057449,-2.0100953753083943,-1.8320429934471845
1745460121594816500,7.63081640625,0.13139832884445785,-2.0103928969502447,-1.9042483979582785
1745460121604788500,7.64078857421875,0.27341011390089986,-2.0411492697417737,-1.933420131906867
1745460121614760400,7.650760498046875,0.4069429705560207,-2.040637813088298,-1.9481635275304316
1745460121624732400,7.660732421875,0.4900995388008654,-2.044695564046502,-1.9164578911900518
1745460121634704400,7.670704345703125,0.5825732398368418,-2.0074094972252845,-1.822728052613139
1745460121644675600,7.680675537109375,0.6037094052374362,-1.9876906512767076,-1.7765350412368774
1745460121654647300,7.690647216796875,0.546534761923924,-1.9595085128873586,-1.6000509316056966
1745460121664619500,7.70061962890625,0.45632586401477454,-1.9553923097401855,-1.2822937264561651
1745460121674591500,7.710591552734375,0.34962139305248857,-1.9365104991376398,-1.0523650268852711
1745460121684563500,7.7205634765625,0.23871771683469414,-1.8905121335506438,-0.8413783436715603
1745460121694535400,7.730535400390625,0.10396759334430097,-1.9141572130322455,-0.6401788949787617
1745460121704507400,7.74050732421875,-0.0033048867642879484,-1.9310095636337994,-0.45056467013955115
1745460121714479400,7.750479248046875,-0.09332344973310827,-1.9344518130421637,-0.2556412329763174
1745460121724451600,7.76045166015625,-0.13127411794289945,-1.91386904374063,-0.059577978128194806
1745460121734423300,7.77042333984375,-0.14743629432320593,-1.8265350436806678,0.09036825318932533
1745460121744394500,7.78039453125,-0.2071767695367336,-1.7395780602395534,0.2362520573735237
1745460121754366700,7.79036669921875,-0.2633388017416,-1.7321563858062028,0.4363783238768577
1745460121764338700,7.800338623046875,-0.2880653197843581,-1.7439309947520494,0.6551356410920619
1745460121774309600,7.8103095703125,-0.3013070056080818,-1.602155794930458,0.7957020496457815
1745460121784281900,7.82028173828125,-0.29445407097339626,-1.451232243013382,0.9170534701198338
1745460121794253600,7.830253662109375,-0.2907177339892834,-1.355976802304387,1.0054121370524167
1745460121804225800,7.840225830078125,-0.26362295244522393,-1.3184376375049351,1.1108768370866775
1745460121814197500,7.850197509765625,-0.2557634711164981,-1.252832654172182,1.20087742600739
1745460121824169700,7.860169677734375,-0.2542727941673249,-1.1460253073573112,1.2554273468405008
1745460121834141700,7.8701416015625,-0.343708004290238,-1.0832324588358402,1.3139718902677298
1745460121844113700,7.88011376953125,-0.40766302845887836,-1.1117986281067131,1.3352601774901152
1745460121854085600,7.890085693359375,-0.39476263035349546,-1.1490589759647845,1.3337901049375533
1745460121864057600,7.9000576171875,-0.3602045271914452,-1.1798790616422892,1.330208154797554
1745460121874029600,7.910029541015625,-0.2730477833945304,-1.2444915268063546,1.2538766102671624
1745460121884001800,7.920001708984375,-0.20468546417765318,-1.3185223931789398,1.1455436613202095
1745460121893973500,7.929973388671875,-0.1549308878622949,-1.3409084125101565,1.0260738168090582
1745460121903945700,7.93994580078125,-0.12606624710150063,-1.2950181834727525,0.9154863669335842
1745460121913916700,7.949916748046875,-0.1384006818871945,-1.2369371659040451,0.8258429208874702
1745460121923888600,7.959888671875,-0.11218385222144424,-1.1587398275017737,0.6999754842936993
1745460121933860600,7.969860595703125,-0.0712252343673259,-1.0121142650395631,0.577073911768198
1745460121943832600,7.97983251953125,-0.037603535272553563,-0.878464504006505,0.47263738573789593
1745460121953804800,7.9898046875,-0.020549378488585353,-0.7787842325925827,0.3934586350828409
1745460121963776500,7.999776611328125,-0.010752937747910618,-0.6894213570535183,0.3067436437040567
1745460121973748700,8.009748779296874,0.04716390223503113,-0.5849082586556673,0.1603396150380373
1745460121983720400,8.019720458984375,0.028677739886566994,-0.5134703313857316,0.023562077373266217
1745460121993692700,8.029692626953125,0.0028571429967880245,-0.511423920249939,-0.06648468877673148
1745460122003664600,8.03966455078125,0.02531096686720848,-0.5762199252873659,-0.14072598302960396
1745460122013636600,8.04963671875,0.0517698616605252,-0.6616010377138852,-0.13529343658685683
1745460122023608600,8.059608642578125,0.06490991374067961,-0.674397390922904,-0.09158172063231468
1745460122033580500,8.06958056640625,0.016006474361941216,-0.6070265669614077,-0.04200783464610577
1745460122043551700,8.0795517578125,-0.05624854144454002,-0.49367725115716454,0.04962298582494259
1745460122053523500,8.0895234375,-0.1531154359381646,-0.46329497237503525,0.1463011528134346
1745460122063495700,8.09949560546875,-0.193861287824437,-0.505036265039444,0.22304420075416564
1745460122073467600,8.109467529296875,-0.21446579403374344,-0.564766803380847,0.24540333207845685
1745460122083439600,8.119439697265625,-0.1434113131234422,-0.6224947697281837,0.22551906643509864
1745460122093411600,8.12941162109375,-0.025029300381615757,-0.6458382359147071,0.15033143124282358
1745460122103383600,8.139383544921875,0.12833758956696836,-0.5988286474585532,0.01284545304775238
1745460122113355500,8.14935546875,0.3158814744055271,-0.4834229836463928,-0.07731821748018264
1745460122123327700,8.15932763671875,0.4614461296379566,-0.4113151942908764,-0.15013210927844048
1745460122133299700,8.1692998046875,0.6683318072736263,-0.3491653198480606,-0.3302367474943399
1745460122143271700,8.179271728515625,0.8291209196448326,-0.20129414123892783,-0.5053916543483734
1745460122153243600,8.18924365234375,0.931816739487648,-0.00834288093149662,-0.5743389338463545
1745460122163215600,8.199215576171875,0.917907456600666,0.1388192726254463,-0.6291822846680879
1745460122173187800,8.209187744140625,0.7833610389888286,0.23231004174947736,-0.6541817013680935
1745460122183159600,8.21915966796875,0.6444517499923705,0.4062824608206749,-0.6607827070683241
1745460122193130800,8.229130859375,0.5542401121368632,0.4773679213911295,-0.6482675088882446
1745460122203102500,8.2391025390625,0.4672959881773218,0.4589823698729276,-0.6442483363747596
1745460122213074700,8.24907470703125,0.3996445571761578,0.34494507180452344,-0.6580114887893199
1745460122223046700,8.259046630859375,0.3259738293528557,0.20432488723695277,-0.6744540895462036
1745460122233018600,8.2690185546875,0.2717068171143532,0.04172375700771808,-0.6606751550406217
1745460122242990800,8.278990966796876,0.26034835122134536,-0.07374854229986667,-0.5990490122109651
1745460122252962600,8.288962646484375,0.2664343931367621,-0.18173954594135283,-0.5134773456484079
1745460122262934800,8.298934814453125,0.3253319877853617,-0.22987843068838118,-0.388277433052659
1745460122272906500,8.308906494140626,0.41532380887772885,-0.26574820097088814,-0.16740823825001716
1745460122282878700,8.318878662109375,0.5065442949822172,-0.2691431041061878,0.09223287801742554
1745460122292850700,8.3288505859375,0.6147229666829109,-0.27007424747645853,0.2795136914730072
1745460122302822700,8.33882275390625,0.6945651496827602,-0.25769290480911733,0.3545551961928606
1745460122312794600,8.348794677734375,0.7321791332840919,-0.23888591300845144,0.35102000780403614
1745460122322766600,8.3587666015625,0.744165339154005,-0.19254560211598873,0.2779191157579422
1745460122332737800,8.36873779296875,0.6875543941378593,-0.1946551416158676,0.20325930383205412
1745460122342709500,8.37870947265625,0.5960533009937032,-0.20729367391467093,0.131024088704586
1745460122352681700,8.388681640625,0.5098655848920345,-0.16371815156042574,0.05285831448435783
1745460122362653700,8.39865380859375,0.4565045450499281,-0.18841829305291175,-0.008308394140005112
1745460122372625700,8.408625732421875,0.46859717043638227,-0.24702362675666809,-0.04994564190804958
1745460122382597600,8.41859765625,0.5107143106758594,-0.3432376833647489,-0.07454699920117855
1745460122392569600,8.428569580078126,0.5992296294748782,-0.4235772944927215,-0.013540449574589728
1745460122402541600,8.43854150390625,0.7208370705366134,-0.4278337828934192,0.06039981590509414
1745460122412513800,8.448513671875,0.840522603625059,-0.3590156827330589,0.091737787976861
1745460122422485500,8.458485595703126,0.8673989201128482,-0.26162439903914925,0.13820435559749603
1745460122432457700,8.468457763671875,0.8527063778936862,-0.24254560455977917,0.1625274804711342
1745460122442429400,8.478429443359374,0.7441524796724319,-0.20761574547588824,0.09620236617028713
1745460122452401700,8.488401611328126,0.6145125388026237,-0.19630115525722502,-0.040133857467770574
1745460122462373400,8.498373291015625,0.49513914040327067,-0.17340309475064278,-0.2323258238404989
1745460122472345600,8.508345703125,0.43051911298725754,-0.02499415600299835,-0.48948389112055296
1745460122482316800,8.51831689453125,0.355664034217596,0.1876367872864008,-0.7479647314369678
1745460122492288500,8.52828857421875,0.26910215104129165,0.3285474792331457,-0.9329308382093906
1745460122502260700,8.5382607421875,0.2304875024974346,0.28652093988656996,-1.1590887870699167
1745460122512232400,8.548232421875,0.20848262797091155,0.19376257669031619,-1.419706054893136
1745460122522204700,8.55820458984375,0.17861699347402898,0.08176116836369036,-1.6605869411110876
1745460122532176600,8.5681767578125,0.17999997226502745,-0.06725859575867653,-1.7874854743182658
1745460122542148600,8.578148681640625,0.23528412565682083,-0.1681073264300823,-1.81310273065567
1745460122552120600,8.58812060546875,0.29543723679184913,-0.1407581317335367,-1.8697627755105495
1745460122562092500,8.598092529296874,0.38557285026907917,0.0452303038239479,-2.0697522638916968
1745460122572064500,8.608064453125,0.4942915836632251,0.34447862333655355,-2.233807100060582
1745460122582036500,8.618036376953125,0.5658745088944211,0.7564215941369533,-2.3773370345950124
1745460122592008700,8.6280087890625,0.5665057560026645,1.2531348519891499,-2.4332167427271605
1745460122601980700,8.637980712890625,0.5609422035913915,1.7171154685407877,-2.4504262362033127
1745460122611952600,8.64795263671875,0.5058488235313445,2.0087311012178657,-2.5149761575251817
1745460122621924600,8.657924560546874,0.3298923910360783,2.0456530109018085,-2.6595687528550624
1745460122631895600,8.6678955078125,0.1365232706427574,1.9518746570080518,-2.7632161743342873
1745460122641867500,8.677867431640625,-0.023881226325035095,1.8148878605067729,-2.849890833702683
1745460122651839700,8.68783984375,-0.26138313762918114,1.583141882380843,-2.8112866700202224
1745460122661811700,8.697811767578125,-0.5590519693979993,1.2764017458081245,-2.6318396189302207
1745460122671783700,8.70778369140625,-0.9180359783511608,0.8929735063523053,-2.422200843194127
1745460122681755600,8.717755615234376,-1.1970201660573483,0.48534956779479976,-2.1277543710052966
1745460122691727600,8.7277275390625,-1.4363655132710933,0.017693477600812912,-1.8871938027828932
1745460122701699600,8.737699462890625,-1.6261504185020923,-0.46293841402232644,-1.6412690771788359
1745460122711671600,8.747671630859376,-1.7273182981252668,-0.8610007435083389,-1.3409838158339262
1745460122721643800,8.757643798828125,-1.6311667853593825,-1.12275256831944,-1.0838602353453635
1745460122731615500,8.767615478515625,-1.3896072692275045,-1.2947978187203406,-0.7946364662408828
1745460122741587700,8.777587646484376,-1.0396844090104103,-1.2808867822676897,-0.524318473136425
1745460122751560000,8.787559814453125,-0.6508195314586163,-1.171831948786974,-0.2686328164964914
1745460122761532000,8.797531982421875,-0.37628362839817997,-1.0843044719815254,-0.0942167453110218
1745460122771503900,8.80750390625,-0.15200375750237144,-1.0110819993823765,0.037571313503384586
1745460122781476000,8.81747607421875,0.08669629581146873,-0.9157102388173342,0.16087094543576239
1745460122791447000,8.827447021484375,0.29724808560609817,-0.7565887673974037,0.20004326439499853
1745460122801419000,8.8374189453125,0.48958267531991,-0.44349838501513,0.0833113204151392
1745460122811391000,8.847390869140625,0.5878571715891361,-0.11199965476095676,-0.16368308024704456
1745460122821363000,8.857363037109375,0.5071522342801094,0.033572599256038664,-0.38942251143455503
1745460122831335000,8.8673349609375,0.370384633487463,0.06883037512004375,-0.6206658007353544
1745460122841307000,8.877306884765625,0.2703893047749996,0.11715806043744087,-0.8675678469389676
1745460122851279000,8.887279052734375,0.19771918709529562,0.23652444457411764,-1.0282482382386922
1745460122861250800,8.897250732421876,0.12654434947464616,0.28909692785441876,-1.0309288556247949
1745460122871223000,8.90722314453125,0.09472878648638725,0.25881986301243304,-0.9361240812927484
1745460122881194800,8.91719482421875,0.07869301296472549,0.21699498371779918,-0.7785790654093027
1745460122891167000,8.9271669921875,-0.011650690305233,0.18323299936950205,-0.6016401977479457
1745460122901139000,8.937138916015625,-0.1962111388862133,0.09973521647155284,-0.4274988518506288
1745460122911111000,8.94711083984375,-0.36998946015741674,-0.03950315834879875,-0.2551426358044147
1745460122921083000,8.957082763671876,-0.4789864259710535,-0.15766133573949337,-0.09036357701420783
1745460122931054800,8.967054931640625,-0.5372211727967485,-0.23473697663545606,0.06646773764193058
1745460122941026800,8.97702685546875,-0.6457306838870048,-0.2710597513824701,0.2055225725889206
1745460122950997800,8.986997802734376,-0.7780301993548869,-0.3271095553845167,0.3623819442957639
1745460122960970000,8.996969970703125,-0.8985819938838482,-0.3396089714735746,0.6457797837257385
1745460122970942000,9.00694189453125,-0.983576152819395,-0.332351547691226,0.9866016381204128
1745460122980914000,9.016913818359376,-1.0781529636144638,-0.3419365376383066,1.316071492895484
1745460122990886000,9.026885986328125,-1.1313432865321635,-0.38444121589064595,1.6400614549547432
1745460123000857900,9.03685791015625,-1.1360229687809944,-0.4578203403562307,1.9657289948374033
1745460123010829800,9.046829833984376,-1.1441747110545635,-0.5125742593288422,2.231026529431343
1745460123020802000,9.056802001953125,-1.1921487606287002,-0.5475485420763492,2.42023684964478
1745460123030773800,9.066773681640624,-1.2432535094439983,-0.6412725354343652,2.4292484236180782
1745460123040746000,9.07674609375,-1.2175064892470835,-0.7783107698619365,2.125272491061687
1745460123050718000,9.086718017578125,-1.1543348705410956,-0.8768097225368022,1.8459616286844014
1745460123060690000,9.09668994140625,-1.1122983943223952,-0.9193027103513479,1.628425962218642
1745460123070662100,9.106662109375,-1.0527356137633324,-0.9401970298200845,1.4635592251449823
1745460123080633900,9.1166337890625,-0.9948270301520824,-0.9126572809875011,1.3121961127668618
1745460123090606000,9.126606201171874,-0.910648863774538,-0.7822253129571676,1.0835866791009903
1745460123100577800,9.136577880859376,-0.8503671212911605,-0.6834937205702066,0.7584452089190483
1745460123110550000,9.146550048828125,-0.7053519166350364,-0.7235130117475986,0.3889677534043789
1745460123120520700,9.156520751953124,-0.5159633172452449,-0.8475544019579887,0.048208442851901054
1745460123130493000,9.166492919921875,-0.2758136679112911,-0.9701993693739175,-0.20392799687385557
1745460123140465000,9.17646484375,-0.05143211760614067,-1.1133195540636778,-0.4195417553663254
1745460123150436900,9.186436767578124,0.05116787717938423,-1.2309592605382202,-0.6353080740720033
1745460123160409000,9.1964091796875,0.15487375084757804,-1.2614876697927713,-0.7703519198119639
1745460123170380800,9.206380859375,0.20511457630991933,-1.1933347555428742,-0.7064122393429279
1745460123180353000,9.21635302734375,0.190014001279138,-1.0530518401056528,-0.53594695160985
1745460123190325000,9.226324951171875,0.1887292221656069,-0.8270411907613276,-0.28219781599044796
1745460123200297000,9.236296875,0.22766312925908713,-0.5614981569737195,-0.08867664684057235
1745460123210269000,9.24626904296875,0.28398057122137393,-0.30229893925487994,0.02097439896762371
1745460123220241000,9.256240966796875,0.2942541644871235,-0.18014730831384657,0.11710194633603095
1745460123230212900,9.266212890625,0.2364087092399597,-0.22248364426195621,0.13708324261307717
1745460123240185000,9.27618505859375,0.16535072119832037,-0.28059622601270673,0.11553718123733997
1745460123250156800,9.28615673828125,0.10696524079032242,-0.2410661796569824,0.07247662266790866
1745460123260129000,9.29612890625,0.07702128036022186,-0.167188458019495,0.11472644937634467
1745460123270100700,9.306100830078124,-0.0226958159327507,-0.046913726866245266,0.24675942286252975
1745460123280073000,9.316072998046875,-0.10593640919923782,0.03269055572450161,0.5003805481880903
1745460123290044000,9.3260439453125,-0.202018875316903,0.06396306134462357,0.721844786274433
1745460123300015900,9.336015869140626,-0.2962870585542172,0.06809387753903866,0.9254355140179396
1745460123309988000,9.345988037109375,-0.36949499117136,0.10615618942975998,1.1122732598811387
1745460123319959800,9.355959716796875,-0.4182687397558242,0.18918869290351867,1.2753221338778733
1745460123329932000,9.36593212890625,-0.4357528854548931,0.27076573687195776,1.4095575858443974
1745460123339903700,9.37590380859375,-0.4447673820376396,0.37771395346224307,1.4902525862812994
1745460123349876000,9.3858759765625,-0.41027474532723424,0.47430648799389596,1.5974591615468263
1745460123359848000,9.395847900390624,-0.3817957428831607,0.5575199009925127,1.7001602420866488
1745460123369820000,9.40581982421875,-0.3914063787281513,0.5964022970944642,1.7477806559175253
1745460123379792000,9.4157919921875,-0.3978689258057624,0.6151362236589193,1.7915818037211895
1745460123389763800,9.425763916015624,-0.46534247948937113,0.5613195855364204,1.8721277510762213
1745460123399735800,9.43573583984375,-0.5624865834891796,0.5693649448260665,1.870727821150422
1745460123409708000,9.4457080078125,-0.5975591389793903,0.5629524474352597,1.8251456351488828
1745460123419680000,9.455679931640624,-0.5123696036022156,0.581419247496128,1.7368056729167698
1745460123429652000,9.46565185546875,-0.3843710732638836,0.6728858173161745,1.622204895746708
1745460123439624000,9.4756240234375,-0.29234402001686394,0.7733125231832265,1.4878127919137476
1745460123449596000,9.485595947265624,-0.2297603572666645,0.853081640946865,1.3799988984048366
1745460123459568000,9.495568115234375,-0.1735773553390056,0.8988970511823892,1.2916945920079945
1745460123469538800,9.505538818359375,-0.16210319064445794,0.9309536929175257,1.2833604789048432
1745460123479511000,9.515510986328126,-0.19114925238676367,0.9900395036146045,1.2535241435676812
1745460123489482800,9.525482666015625,-0.21480251517482102,1.028310197558999,1.2011948213934898
1745460123499455000,9.535455078125,-0.15540113572254777,1.098223399479687,0.9980991836905478
1745460123509427000,9.545427001953126,-0.32887663812227547,1.0764134264707566,0.6039122343331575
1745460123519399000,9.55539892578125,-0.559899562670663,0.8957593376785516,0.14796820924282073
1745460123529371100,9.56537109375,-0.5252642295539379,0.825625186483562,-0.2903840450555086
1745460123539342800,9.5753427734375,-0.2873380284231156,0.8163225206092,-0.5799158571958541
1745460123549315000,9.585315185546875,-0.1230254181008786,0.775068426939845,-0.5175929642736912
1745460123559286800,9.595286865234375,-0.0021334318321198226,0.8250468020737171,-0.28121874182522294
1745460123569259000,9.605259033203126,0.0815081434506923,0.9983344537511467,0.061759413820505135
1745460123579231000,9.61523095703125,0.0647545039832592,1.2096841250583528,0.3378945687711239
1745460123589203000,9.625202880859375,0.0008065671425312757,1.2228846751540898,0.4950152217626571
1745460123599175000,9.6351748046875,-0.04156425559706986,1.1987377836301922,0.5843745901703834
1745460123609147000,9.64514697265625,-0.000033829204365611074,1.3768810586452482,0.36752515240311623
1745460123619118800,9.655118896484375,-0.03157937961220741,1.518249431231618,-0.01316869365274906
1745460123629091000,9.665091064453126,-0.021034677787497638,1.5552262859731911,-0.24613047730922696
1745460123639062800,9.675062744140625,0.06565225654058159,1.75495215498209,-0.4213385756552219
1745460123649035000,9.685034912109375,0.1616986284315586,2.2586317447155713,-0.6920896994799375
1745460123659006000,9.695005859375,0.3554782293219119,2.879682745376229,-1.0897837801754473
1745460123668978000,9.70497802734375,0.43452195542044936,3.2856542405515907,-1.3645803799986838
1745460123678950000,9.714949951171874,0.43446452614478764,3.4469834511488675,-1.3795254356741904
1745460123688921900,9.724921875,0.4532593160510063,3.41398660595417,-1.2168874805659056
1745460123698894000,9.73489404296875,0.5084696735542267,3.480890396925807,-0.9973322909712791
1745460123708865800,9.74486572265625,0.5693255626637488,3.731263334110379,-0.7452648248285054
1745460123718838000,9.754838134765626,0.519540664275363,4.060345650872588,-0.5124205300718545
1745460123728809700,9.764809814453125,0.4214613983172923,4.316608230617642,-0.291364288264513
1745460123738782000,9.774781982421874,0.27480127599835397,4.520967604646087,-0.1406751296252012
1745460123748753700,9.784753662109376,-0.032252821894362564,4.495706906661391,-0.010727145719528198
1745460123758725600,9.7947255859375,-0.4357051007904112,4.221704672086239,0.12140811909735202
1745460123768697600,9.804697509765624,-0.8936557164628058,3.7371746039807796,0.1985468883574009
1745460123778669600,9.814669677734376,-1.310828916066885,3.109866881012916,0.11720482218861579
1745460123788641800,9.824641845703125,-1.5047253482699394,2.4108190329581496,-0.05669160903692245
1745460123798613500,9.834613525390624,-1.4730559522867201,1.706360850292444,-0.20553543207049368
1745460123808585700,9.844585693359376,-1.3578991486690937,1.0544441712468862,-0.25256255618333817
1745460123818557400,9.854557373046875,-1.1680559373795985,0.3792413091599941,-0.28988252527415753
1745460123828529700,9.86452978515625,-0.8908277264952659,-0.37339492121934886,-0.15668986035883425
1745460123838501400,9.87450146484375,-0.6065208093963563,-0.9388257414668798,0.0860731863439083
1745460123848472600,9.88447265625,-0.2714788535773754,-1.2574246581375599,0.23569617705643175
1745460123858444800,9.89444482421875,-0.03945413157530129,-1.5260457841962576,0.34466216320991516
1745460123868416500,9.90441650390625,0.12541954669579863,-1.692075135308504,0.47197921409010885
1745460123878388700,9.914388671875,0.2842318791013211,-1.7537351804077623,0.6054384209871292
1745460123888360400,9.9243603515625,0.43096682022213934,-1.7364128742069005,0.7284516371935605
1745460123898332700,9.934332763671875,0.5679482098959386,-1.5973983712702988,0.8255629349023104
1745460123908304600,9.9443046875,0.6130218618534505,-1.4063029679626227,0.8698287776082754
1745460123918276600,9.954276611328124,0.5677727802637964,-1.1574380972534417,0.8496955056399107
1745460123928248600,9.96424853515625,0.4725087909221649,-0.9587462474673986,0.8341495614618063
1745460123938220500,9.974220458984375,0.455956226984784,-0.7702244940400124,0.8066577434241772
1745460123948192500,9.984192626953124,0.40655360591225326,-0.6005325287669897,0.7397697345435619
1745460123958164500,9.99416455078125,0.2856873386066407,-0.5034790987253189,0.7240162850946188
1745460123968136400,10.004136474609375,0.1633223571758717,-0.4111018438011408,0.656485886657238
1745460123978108700,10.014108642578124,0.01705517969727516,-0.27122867820858954,0.5303688592165708
1745460123988080400,10.024080322265625,-0.24138649765253065,-0.1256447337538004,0.4502542890161276
1745460123998052600,10.034052490234375,-0.5085981953047216,-0.03761223003566265,0.41550154006481166
1745460124008024600,10.044024658203124,-0.7561268489740789,-0.07606207993924617,0.38566578924953937
1745460124017996500,10.05399658203125,-0.9079437695343047,-0.14442191493809223,0.2951940756857395
1745460124027968800,10.06396875,-0.9786743522524833,-0.25695465366244313,0.2009732387214899
1745460124037940500,10.0739404296875,-1.010081955494359,-0.40404900268018246,0.1409200442969799
1745460124047912700,10.08391259765625,-0.967726403389126,-0.49942310133278367,0.1093926871329546
1745460124057883400,10.09388330078125,-0.9072143592812121,-0.5686135419368744,0.05627367588579654
1745460124067855600,10.103855712890624,-0.8234067067164927,-0.604239566591382,-0.0023760814815759657
1745460124077827300,10.113827392578125,-0.759572167122364,-0.6217383984029292,0.037943069425225254
1745460124087799600,10.123799560546875,-0.6925813554544001,-0.6337164209663868,0.08053717952668667
1745460124097771500,10.133771484375,-0.6417268550731241,-0.6894301248818635,0.10375906516015529
1745460124107743500,10.143743408203125,-0.5775052889227866,-0.7705839750021696,0.1290729546368122
1745460124117715700,10.1537158203125,-0.5108300460100174,-0.9102642483711242,0.13513152402341366
1745460124127687400,10.1636875,-0.44185880111455916,-1.0610013378053902,0.07427870365381241
1745460124137659600,10.17365966796875,-0.35009470965266226,-1.1803285589754582,0.06153729550242424
1745460124147631600,10.183631591796875,-0.22066994590349495,-1.3183359306961298,0.06693769324123859
1745460124157603600,10.193603515625,-0.08545483524985611,-1.3880296446472407,0.11861702707409857
1745460124167575600,10.203575439453125,0.06153145028352737,-1.3855863431483506,0.2067541602104902
1745460124177547500,10.213547607421875,0.1542705242574215,-1.3247142335563897,0.29576632261574265
1745460124187519500,10.22351953125,0.2671779415130615,-1.300336163625121,0.39895957058668136
1745460124197491700,10.23349169921875,0.3383271149694919,-1.2975900797873734,0.4596276820391416
1745460124207463400,10.24346337890625,0.33641923552155495,-1.2929086439728736,0.5384808540016413
1745460124217435600,10.253435546875,0.3165560126662254,-1.298758539044857,0.6257581554383039
1745460124227407400,10.263407470703125,0.2720750293722376,-1.2685779203146694,0.6911176395773887
1745460124237379600,10.273379638671875,0.27697927762456237,-1.1993342882186173,0.7186030278742312
1745460124247351600,10.2833515625,0.2887082938630134,-1.1261246751010416,0.7404401811510324
1745460124257323500,10.293323486328125,0.22994857331514357,-1.0085644636034965,0.8057078953534365
1745460124267295500,10.30329541015625,0.21200258225798604,-0.9262649505794047,0.862684751072526
1745460124277266400,10.313266357421876,0.23419223876688627,-0.8001794873207807,0.8382558277368545
1745460124287238700,10.32323876953125,0.29460370857715606,-0.6211696586042642,0.8030985896378755
1745460124297210400,10.33321044921875,0.2818026791930198,-0.43414778834581375,0.787950120344758
1745460124307182600,10.3431826171875,0.26724457700848575,-0.2945680527418852,0.7411994750857352
1745460124317154600,10.353154541015625,0.25739070699214933,-0.21336334921717642,0.7263269001245498
1745460124327126500,10.36312646484375,0.22538349388930945,-0.15421967085301874,0.6653636051177978
1745460124337098500,10.373098388671876,0.20168924150373785,-0.12836100697517394,0.4913870943933725
1745460124347070500,10.383070556640625,0.23882976237442344,-0.18687632430791853,0.18834931946992872
1745460124357042400,10.39304248046875,0.30891748061180113,-0.2833072385370731,-0.08528408179283141
1745460124367014700,10.4030146484375,0.3424082102706656,-0.3160603381037712,-0.2572399003446102
1745460124376986600,10.412986572265625,0.3327086540332064,-0.32610417773425576,-0.313833894225955
1745460124386958600,10.42295849609375,0.31977201557066287,-0.3683019819945097,-0.36838732219040393
1745460124396930600,10.4329306640625,0.28640403550863264,-0.4398994837403297,-0.38092180959284305
1745460124406902500,10.442902587890625,0.2624293222138658,-0.48271395859420296,-0.4142027324259281
1745460124416874800,10.452874755859375,0.2789128395030275,-0.5215571917295455,-0.45736499780416484
1745460124426846500,10.462846435546876,0.3343325289079919,-0.5786959600120782,-0.551495233875513
1745460124436818700,10.472818603515625,0.3715770946750417,-0.6477829402416944,-0.6574807429134846
1745460124446790400,10.482790283203125,0.4051438487121835,-0.7828980976521969,-0.7034738478034734
1745460124456762600,10.4927626953125,0.4491899111876264,-0.9626187049865722,-0.7992284702062606
1745460124466734600,10.502734619140625,0.47890229135155676,-1.110150276377797,-0.9193313519239426
1745460124476706600,10.51270654296875,0.5515595312833785,-1.186447918638587,-1.035620812833309
1745460124486678500,10.522678466796876,0.6675029552340507,-1.1990209844857453,-1.1080699629724025
1745460124496650500,10.532650390625,0.7710486699044704,-1.146243918544054,-1.2054846275418996
1745460124506622500,10.54262255859375,0.8008592862784862,-1.1166583430975674,-1.2795195855677126
1745460124516593400,10.552593505859376,0.7917500971496104,-1.097000287425518,-1.2893465675771236
1745460124526565600,10.562565673828125,0.8208896823942661,-1.0501379984855652,-1.3369640587985514
1745460124536537600,10.57253759765625,0.7285434071302413,-0.8895850329577922,-1.4188409624963998
1745460124546509600,10.582509521484376,0.5985492459952831,-0.7932213387459516,-1.3643956710815428
1745460124556481500,10.5924814453125,0.47225635053105647,-0.893567380592227,-1.5039847590357065
1745460124566453500,10.60245361328125,0.35676523692514744,-0.8338573005169629,-1.8619670070677994
1745460124576425500,10.612425537109376,0.230375347359851,-0.5975111351191997,-2.341870584416389
1745460124586397700,10.622397705078125,0.06750058782100678,-0.4963333186239004,-2.8185002546608446
1745460124596369400,10.632369384765624,-0.1353646751921624,-0.5788508583128452,-3.41365109038949
1745460124606341600,10.642341552734376,-0.4293324970185756,-0.8653396494954824,-3.9548265903025865
1745460124616313300,10.652313232421875,-0.4908874012429267,-1.054506130567193,-4.359595139428973
1745460124626285600,10.66228564453125,-0.4039782755315304,-0.9777245041817426,-4.467103912511468
1745460124636257500,10.672257568359376,-0.44993104841113085,-0.8999737405031919,-4.229099458512664
1745460124646229500,10.6822294921875,-0.27459895835928616,-0.694127342787385,-3.7569811282128094
1745460124656201700,10.69220166015625,0.09621939037032425,-0.42943537287116046,-3.2464632168918848
1745460124666173400,10.70217333984375,0.5047335557658225,-0.2444043841689825,-2.9544974556028842
1745460124676145700,10.712145751953125,0.8811983128845691,-0.04433014011383057,-2.6439690326631067
1745460124686117600,10.72211767578125,1.0739677868843078,0.14700959334373473,-2.4092244572430848
1745460124696089600,10.732089599609376,1.384634156990051,0.24546996757388115,-2.1255238354742527
1745460124706061600,10.7420615234375,1.8361738096415996,0.4756617019951343,-2.1004712272822856
1745460124716033500,10.752033447265624,2.2400059547007083,1.0255044924885035,-2.210399336466193
1745460124726005500,10.762005615234376,2.698790171653032,1.7172160063058137,-2.4341876335859296
1745460124735977700,10.771977783203125,2.777139485746622,2.4622552056849,-2.495931849837303
1745460124745950200,10.7819501953125,3.001143471443653,3.3906939931720492,-2.8339725490808485
1745460124755921200,10.791921142578126,2.5933050133526323,3.8615275443583723,-2.875156207862496
1745460124765893000,10.80189306640625,1.964811879992485,3.8243577973932026,-2.7608675653815267
1745460124775865300,10.811865234375,1.6099872192084788,3.2624504750967023,-2.869462964656949
1745460124785837000,10.821837158203126,1.2412953611135482,2.3967460839420553,-2.9463281776726244
1745460124795809300,10.831809326171875,0.9134627521514892,1.6532839246213435,-2.8673732989013194
1745460124805781200,10.84178125,0.7189888123214244,0.8684165727227926,-2.735885099816322
1745460124815753200,10.851753173828126,0.5794201461007819,0.14240472989678382,-2.644974994835257
1745460124825725400,10.861725341796875,0.46129411741402,-0.39045711517930026,-2.6413492055535315
1745460124835697200,10.871697265625,0.3509551258742809,-0.6805874777346849,-2.788933383914828
1745460124845669400,10.88166943359375,0.14726685604043305,-0.880225083938241,-2.8773113400697707
1745460124855641000,10.89164111328125,-0.28090602261424064,-1.1720254255324603,-2.7399989648759364
1745460124865613300,10.90161328125,-0.7705624207574874,-1.5017781889021395,-2.346175588133931
1745460124875585300,10.911585205078126,-1.3627777144908904,-1.7474188368678092,-1.813104484221339
1745460124885557200,10.92155712890625,-2.011503342410177,-1.5435171434789896,-1.4899971502155065
1745460124895529200,10.931529296875,-2.6086557272195816,-0.8843710977017879,-1.4298264668911695
1745460124905501200,10.941501220703126,-3.015357874757051,-0.06078150869905948,-1.3750135112076998
1745460124915473200,10.95147314453125,-3.5164708288729187,0.43712242024242876,-1.0842238079607487
1745460124925445400,10.9614453125,-3.7578772002696987,0.607799889421463,-0.700671649864316
1745460124935417000,10.9714169921875,-3.643805415409803,0.7745733368992805,-0.20340309621691702
1745460124945389300,10.981389404296875,-2.4750807849884033,1.2542787613272666,1.1917775892287492
1745460124955361000,10.991361083984375,-0.3200724963545799,1.8230647372215985,3.895721490383148
1745460124965333200,11.001333251953126,1.52809701763764,1.9190701195150612,6.237809516942501
1745460124975305200,11.01130517578125,1.7170682683981955,1.4670464827388525,6.763528504526615
1745460124985277200,11.021277099609375,0.2437738311804831,0.7881108638644218,4.887729955983161
1745460124995249200,11.031249267578126,-1.0208452685058116,0.44737727227509017,3.042279783952236
1745460125005221000,11.04122119140625,-1.2052807755328714,0.4448404472738504,2.1745535315811635
1745460125015193300,11.051193359375,-0.9112450761020183,0.2336509349644184,2.093784881386161
1745460125025165300,11.061165283203126,-0.772373488767445,-0.4047948526114225,2.228586735063791
1745460125035137300,11.07113720703125,-1.0333214498497545,-1.0340922880917787,2.218959659540653
1745460125045108200,11.081108154296874,-1.2824012784838676,-1.2172265032619236,1.9498744231015444
1745460125055080200,11.091080078125,-1.1381787585753946,-1.1078425839573145,1.4539946934640406
1745460125065052200,11.10105224609375,-0.7555532138045877,-0.9951847575485706,0.9087836544245481
1745460125075024100,11.111024169921874,-0.3966273282468319,-0.8938391832709311,0.539109799554944
1745460125084996000,11.12099609375,-0.1601053678907454,-0.9499754965126513,0.307328750115633
1745460125094968300,11.13096826171875,0.010641805523633956,-1.1320435437560081,0.09999766680002212
1745460125104940300,11.140940185546874,0.22956629599928854,-1.2522966475993393,0.008218962290883064
1745460125114912300,11.150912353515626,0.4553472282409668,-1.3091034074485302,-0.09901800811290741
1745460125124884200,11.16088427734375,0.6056557169996202,-1.2977543304383754,-0.15642507194280622
1745460125134856200,11.170856201171874,0.6762589470110834,-1.2734101627767085,-0.13159224398136138
1745460125144828400,11.180828369140626,0.685938921765238,-1.2073533440232276,-0.07384206580221653
1745460125154800000,11.190800048828125,0.6344926660358905,-1.103496079185605,-0.006937105786800384
1745460125164772400,11.2007724609375,0.510367250803858,-0.9639537529826163,0.052343935221433636
1745460125174744000,11.210744140625,0.2910112370431423,-0.7623854709774255,0.1272650284320116
1745460125184716300,11.22071630859375,0.019756839871406553,-0.6145189685434103,0.28156244069635866
1745460125194688300,11.230688232421874,-0.2361224396444857,-0.536666498056054,0.38267245265245436
1745460125204660200,11.24066015625,-0.4982242469370365,-0.4267559245288372,0.4889730189889669
1745460125214632200,11.250632080078125,-0.7244410863779485,-0.3260013018816709,0.6192793148130178
1745460125224604200,11.260604248046874,-0.8564134157180786,-0.21236147869825361,0.6726514240384102
1745460125234576100,11.270576171875,-0.9600994156420231,-0.1102636247485876,0.6169488260388374
1745460125244548400,11.28054833984375,-1.0015246280945838,-0.017676526466012,0.5100964710384607
1745460125254520000,11.29052001953125,-0.9421616078913211,0.1290554189801216,0.42388650657236576
1745460125264492300,11.3004921875,-0.9092134241439401,0.25722061112225053,0.48668403126895426
1745460125274464300,11.31046435546875,-0.8876374060213565,0.3999497506678104,0.5883820722460746
1745460125284436200,11.320436279296874,-0.8519266256928444,0.5678723681807518,0.6901233678430319
1745460125294408400,11.330408447265626,-0.8428937166705727,0.7733715598940849,0.7210515900701284
1745460125304380200,11.340380126953125,-0.8830851495444774,0.9747656543761491,0.7706254760563374
1745460125314351400,11.350351318359374,-0.9370316976569593,1.097391917091608,0.8958785801440476
1745460125324323000,11.360322998046875,-1.0058066893279551,1.2081634913623331,1.0026298128575086
1745460125334295300,11.37029541015625,-1.0545606372334062,1.2220388719797133,1.2180045018970966
1745460125344267000,11.38026708984375,-1.069670381951332,1.201074994406104,1.3232675418794155
1745460125354239200,11.3902392578125,-1.0662615964211524,1.2473621138066053,1.339885499203205
1745460125364211200,11.400211181640625,-0.9990449401080608,1.2177309456527232,1.3287415893763304
1745460125374183200,11.41018310546875,-0.889265737875551,1.1939017417758702,1.2337865929186342
1745460125384155400,11.4201552734375,-0.7523309638224541,1.156201248934865,1.1656202346652746
1745460125394127000,11.430127197265625,-0.5426619390785694,1.1560036805361509,1.1009791279286145
1745460125404099300,11.440099365234374,-0.4168377571046352,1.1778104386746884,1.1177934846073387
1745460125414071300,11.4500712890625,-0.40019641890525814,0.9956456530585884,1.1866671143472194
1745460125424043300,11.460043212890625,-0.3820914378941059,0.7715861377820372,1.2599901247113943
1745460125434015200,11.47001513671875,-0.3030103023946285,0.6661790131539106,1.295071374964714
1745460125443987200,11.4799873046875,-0.24221052738651633,0.6034469549089669,1.3342039464354514
1745460125453959200,11.489959228515625,-0.15992548127919434,0.5781982396230101,1.4398808279156683
1745460125463931400,11.499931396484374,-0.05740837900415063,0.6007979017049074,1.5638947455972432
1745460125473903000,11.509903076171875,0.020768062740564346,0.6822212164163589,1.6319132198125124
1745460125483875300,11.519875244140625,0.1161247718669474,0.8001163589566945,1.653342961332202
1745460125493847000,11.529846923828124,0.16341361565589904,0.8794511769562959,1.690269547191262
1745460125503819300,11.5398193359375,0.1409025086402893,0.8988742548286914,1.7499352036029099
1745460125513791200,11.549791259765625,0.04619929498657584,0.853508926448226,1.7645646174579859
1745460125523763200,11.55976318359375,-0.15332725205793976,0.7608908485054969,1.7766800026655196
1745460125533735200,11.569735107421875,-0.2470142744064331,0.754206548435986,1.7522738756835459
1745460125543707100,11.57970703125,-0.3190098355591297,0.8145017349228263,1.7303771011739968
1745460125553679000,11.58967919921875,-0.40100992724522944,0.8875292694717645,1.6993033329963683
1745460125563651300,11.5996513671875,-0.4258791416943073,0.8696718334808945,1.7458441348969935
1745460125573623300,11.609623291015625,-0.43427755220532416,0.8370262859418988,1.8445201977044343
1745460125583595300,11.61959521484375,-0.4360496764443815,0.8600815828368067,1.926155693861842
1745460125593567200,11.629567138671876,-0.43625542814955115,0.917799320051074,1.9229151045054196
1745460125603539200,11.639539306640625,-0.4283317955434322,0.9731015205562115,1.9240145901799202
1745460125613511400,11.649511474609374,-0.4245850102305412,1.005169268207252,1.9672768088012933
1745460125623483100,11.659483154296876,-0.35125308590754867,1.0675786703690886,1.9428397021591661
1745460125633455400,11.669455322265625,-0.3161877638757229,1.2301911987751721,1.8382377564340828
1745460125643427000,11.679427001953124,-0.38876550883054733,1.4680106515958904,1.6464806743472813
1745460125653398300,11.689398193359375,-0.5023277367331087,1.676879319742322,1.419116272306442
1745460125663370200,11.699370361328125,-0.5841781908154488,1.7544889213845132,1.1670248407661914
1745460125673342200,11.70934228515625,-0.6116203244924545,1.8699305332928895,0.871532074394822
1745460125683314400,11.719314453125,-0.5777367595911026,2.0570143628716466,0.6070061086952686
1745460125693286100,11.7292861328125,-0.5035046715579927,2.233383906212449,0.364485638576746
1745460125703258400,11.73925830078125,-0.3446833521284163,2.4539994185149667,0.16847615974247454
1745460125713230000,11.74922998046875,-0.10398775934949517,2.6782424736648798,0.007103694525361061
1745460125723202300,11.759202392578125,0.10500205095857382,2.965594603678584,-0.20204174473583697
1745460125733174300,11.76917431640625,0.3697767307221889,3.219345492863655,-0.4561667279303074
1745460125743146200,11.779146240234375,0.5917689382053911,3.443352985692024,-0.7179898644119501
1745460125753118500,11.789118408203125,0.7895429424941539,3.6420588640034195,-0.9920856224894523
1745460125763090700,11.799090576171874,0.8607472071386874,3.8030876303493972,-1.1696066739529372
1745460125773062700,11.809062744140626,0.924530089610815,3.9749984407156704,-1.277844345831871
1745460125783034600,11.81903466796875,0.8306780859589576,4.073011071178317,-1.2669570411145685
1745460125793006600,11.829006591796874,0.7703320460677147,4.165450285422802,-1.2134896548211573
1745460125802978600,11.838978515625,0.7203121698796748,4.192876637008786,-1.2717203099936245
1745460125812950500,11.848950439453125,0.5766847663201391,4.05896091851592,-1.2886153306931256
1745460125822922800,11.8589228515625,0.46965617797002196,3.752047178941965,-1.3416530933976172
1745460125832894500,11.86889453125,0.39099940536245703,3.2684991076111793,-1.4330547812879084
1745460125842866700,11.87886669921875,0.28666122514009473,2.6969167789965867,-1.6304934161424636
1745460125852838400,11.88883837890625,0.24991467202305792,2.059910084313154,-1.8390391359448433
1745460125862810600,11.898810546875,0.27434417988061904,1.352920337343216,-1.9635311925321817
1745460125872782600,11.908782470703125,0.32744112542644144,0.7808943566143512,-2.1384704108089205
1745460125882754600,11.918754638671874,0.3692484690643847,0.15305179611742495,-2.29302559722662
1745460125892726800,11.928726806640626,0.42707521961107847,-0.43904725082516666,-2.3428058194398877
1745460125902698500,11.938698486328125,0.49868601922988887,-0.9072229809790849,-2.288034364810586
1745460125912670700,11.948670654296874,0.6262909471407533,-1.2066583474963903,-2.169955097874999
1745460125922642700,11.958642578125,0.7239844286516308,-1.3576128790736197,-2.0564853705614805
1745460125932614700,11.96861474609375,0.7752353079393506,-1.423887139970064,-1.8213059108555316
1745460125942586600,11.978586669921874,0.7477543035566806,-1.43961662402153,-1.5250900909066198
1745460125952558600,11.98855859375,0.6857771553322672,-1.406329855969548,-1.1611959884822367
1745460125962530600,11.998530517578125,0.6007409108206629,-1.4073796572834252,-0.9503858308792114
1745460125972502800,12.008502685546874,0.4228948651865124,-1.4801929645597933,-0.753505414429307
1745460125982474500,12.018474609375,0.26456366736143827,-1.58322196187973,-0.45738837867975235
1745460125992446700,12.02844677734375,0.10605331357717514,-1.6135539717793463,-0.18557693214714527
1745460126002418400,12.03841845703125,-0.12002250995784997,-1.6419710879683493,0.0863391438037157
1745460126012390700,12.048390625,-0.27574147945791483,-1.7674539091587065,0.27167349936664104
1745460126022362600,12.058362548828125,-0.36495457126274705,-1.8198311621278522,0.4467816444694996
1745460126032334600,12.06833447265625,-0.43704818596243855,-1.8003104690998792,0.5206973600298166
1745460126042305800,12.078305908203125,-0.5218307479739189,-1.82319274751544,0.632774171680212
1745460126052277500,12.088277587890625,-0.5859338023111224,-1.8999714512914418,0.7519388957649469
1745460126062249700,12.098249755859374,-0.6356745692968369,-1.894724782809615,0.8108861747741699
1745460126072221400,12.108221435546875,-0.7049021270409226,-1.744791410973668,0.8359878828048706
1745460126082193700,12.118193603515625,-0.8370366612054407,-1.6250515173494815,0.8863982196152209
1745460126092165600,12.12816552734375,-0.9324969768367707,-1.5370499932914972,0.9693933136880397
1745460126102137600,12.1381376953125,-0.9898094942510127,-1.4454618429183959,1.014266474637389
1745460126112109600,12.148109619140625,-1.012808092522621,-1.3065408634841442,1.009516649761796
1745460126122081500,12.15808154296875,-1.0453155467651785,-1.1631903771698475,0.9665911157488822
1745460126132053500,12.168053466796875,-1.0834392334543168,-1.0580027405112982,0.8838082031220197
1745460126142025700,12.178025634765625,-1.1658594502486288,-1.05236678045094,0.8185439960509538
1745460126151997400,12.18799755859375,-1.1966321896530687,-1.0271253716886044,0.6961597253978252
1745460126161969700,12.1979697265625,-1.2260137669600546,-0.9643494743019342,0.5665203690499067
1745460126171941600,12.207941650390625,-1.1809586735725401,-0.9908259778171777,0.523986464703083
1745460126181913600,12.21791357421875,-1.0916016432523727,-1.0677876369446515,0.5273936427980661
1745460126191885800,12.2278857421875,-1.026972080823034,-1.1536597477585078,0.5630681827694177
1745460126201857500,12.237857421875,-0.9011528672851622,-1.1709931598752736,0.5523012895613908
1745460126211829800,12.247829833984374,-0.8054347775004803,-1.170300501435995,0.5876368068367243
1745460126221801500,12.257801513671875,-0.6792446848236025,-1.1548550950229168,0.6038409226626157
1745460126231773700,12.267773681640625,-0.5276512708209454,-1.138731643217802,0.5074287131339311
1745460126241745700,12.27774560546875,-0.36235213367938995,-1.073133674147725,0.38879415040314197
1745460126251717600,12.287717529296875,-0.181365305801481,-1.0728624559909106,0.1842161651879549
1745460126261689600,12.297689697265625,-0.08490034317225217,-1.0532903250366448,0.019735797083377835
1745460126271661600,12.30766162109375,0.10749474455714225,-0.9084902244359254,0.04255202452540397
1745460126281633500,12.317633544921875,0.16843692371062932,-0.8847498678863048,0.0920470000565052
1745460126291605800,12.327605712890625,0.20041735840439795,-0.9616624271750449,0.08242284714281559
1745460126301577500,12.337577392578124,0.3639863107524812,-1.0127087238013743,0.017230536264181136
1745460126311549700,12.3475498046875,0.6141933167856186,-1.0068190812408924,-0.07279518709778786
1745460126321521400,12.357521484375,0.6516285097539425,-1.104948616081476,-0.1917190881639719
1745460126331493600,12.36749365234375,0.6205025729976594,-1.2346551924467086,-0.37660862256884575
1745460126341465600,12.377465576171875,0.5623825385928154,-1.2685112848192452,-0.5084083718210458
1745460126351437600,12.3874375,0.42604982208609576,-1.3123966037750243,-0.5237614237755537
1745460126361409800,12.397409912109374,0.30283026965260507,-1.3538590794980525,-0.4740940142869949
1745460126371381500,12.407381591796875,0.2293055261712521,-1.3220552434802055,-0.4482476253688335
1745460126381353700,12.417353759765625,0.23697452642917632,-1.2119897716522217,-0.39705169113874433
1745460126391325700,12.42732568359375,0.2806429877638817,-1.1253922691732645,-0.34020459927916524
1745460126401297700,12.437297607421876,0.40531098544001576,-1.0870452951222658,-0.38539047943949695
1745460126411269600,12.44726953125,0.5099357640514149,-0.9757020584434271,-0.39810032340884205
1745460126421241600,12.45724169921875,0.6247662217915058,-0.8735358154326677,-0.39585809744000433
1745460126431213600,12.467213623046876,0.7482733589947224,-0.8644681273579597,-0.35815059033632274
1745460126441185800,12.477185791015625,0.8475579090893268,-0.8828384813070297,-0.3011240502566099
1745460126451157500,12.487157470703124,0.8975123188257217,-0.9450701888144015,-0.2581803960651159
1745460126461129700,12.497129638671876,0.9643944824874401,-1.0586983215600252,-0.20672025794088839
1745460126471100700,12.5071005859375,1.0682581770658492,-1.1156775153666734,-0.2655143922150135
1745460126481072600,12.51707275390625,1.176346795862913,-1.0153250437796115,-0.4446604145318269
1745460126491044600,12.527044677734375,1.1396084260523318,-0.8969108458012341,-0.5707639979690313
