time,seconds_elapsed,z,y,x
1745460715486528800,0.06552880859375,2.148153015911579,2.616609316572547,-2.2845620125249027
1745460715496502000,0.075501953125,2.631217687639594,2.969330867597461,-2.6332225977212187
1745460715506473700,0.0854736328125,2.775807360360026,2.424161037351191,-3.020810294944048
1745460715516446700,0.09544677734375,2.584476979252696,1.7090958282142876,-3.470265542536974
1745460715526419000,0.1054189453125,2.522454530581832,0.22095307369381187,-3.9031019560232756
1745460715536392000,0.115391845703125,3.1561405564099547,0.22386136235594747,-2.487645375268161
1745460715546364000,0.125364013671875,3.9723482184678316,1.5326926748648284,-0.33951924736350775
1745460715556337000,0.1353369140625,4.983683900350332,1.8839397694230078,1.3089163604438303
1745460715566308900,0.145308837890625,5.995362696582078,1.2760995479911565,1.7831053595378994
1745460715576280800,0.15528076171875,6.410676605120301,-0.808054750740528,7.210937340983748
1745460715586253800,0.16525390625,4.4543332782655956,-3.1409415259733793,13.760190057623385
1745460715596225800,0.175225830078125,-7.855821052652597,-3.746497143599391,13.264473409593105
1745460715606198800,0.18519873046875,-0.20204291377961633,-2.080289439997077,6.099186643671989
1745460715616171000,0.1951708984375,4.5155660378634925,1.8888591056466102,1.2229863819628952
1745460715626144000,0.20514404296875,4.2937709603875875,5.513637749025225,2.664485458730161
1745460715636115700,0.21511572265625,3.870267315652966,8.325836857715249,2.614850197945535
1745460715646089000,0.2250888671875,4.884150343930721,7.983060362121463,2.9235899839028714
1745460715656061000,0.23506103515625,7.054169739213585,5.983197042492032,2.9889512216076253
1745460715666033700,0.24503369140625,9.259879456558822,3.0727848123311996,-1.0458397167697548
1745460715676006000,0.255005859375,9.387557741966843,0.26373160045146943,-5.504943570438027
1745460715685977900,0.264977783203125,9.620797758042812,-0.7475614113330841,-1.6941013804391025
1745460715695950800,0.274950927734375,9.633151043659447,-0.5176145915836096,-1.576419734518975
1745460715705922800,0.2849228515625,11.64970597037077,1.9171563948482273,-4.7765404485613105
1745460715715895800,0.294895751953125,8.898622132378817,4.592734033218026,-8.863432745575905
1745460715725867800,0.30486767578125,3.536659630420804,6.446092201894522,-7.682714895021915
1745460715735840800,0.3148408203125,0.47853170447349547,5.138567003548145,-5.648694454246759
1745460715745813000,0.32481298828125,-2.4701859986841677,1.7159534390240907,-2.821869731093943
1745460715755786000,0.334785888671875,-3.4126597412645814,-1.6984987386152148,-2.6217335277184843
1745460715765757700,0.3447578125,-2.52061211758554,-2.3935420272037384,-2.0884553569264708
1745460715775731000,0.35473095703125,-0.11564531778693199,-0.6498261365070939,-0.321975553496927
1745460715785703000,0.364702880859375,1.079232575544715,1.0833891107022762,-2.456628890235722
1745460715795675000,0.3746748046875,0.6209796889901161,1.3474834069862962,-3.3124007931798696
1745460715805648000,0.38464794921875,-0.7419961784213781,0.8422077802330254,-1.8378674618169664
1745460715815619800,0.394619873046875,-1.9091209724307059,1.8155718972481787,-0.1972960115134716
1745460715825592800,0.4045927734375,-1.9434569572746752,2.9575720407426354,-0.5433239101186395
1745460715835564800,0.414564697265625,-1.0754138940393925,3.316033596724272,-0.8345271626025438
1745460715845537800,0.424537841796875,0.3939642465174198,3.6654794870793816,-0.3368915292084217
1745460715855509800,0.434509765625,0.8810995286852121,3.2476571028515693,-1.07879418412745
1745460715865482800,0.444482666015625,-0.48540392833054063,2.761697586464882,-1.7901047169059514
1745460715875455000,0.454455078125,-1.768411940535903,3.214876823017001,-1.6498843453109264
1745460715885428000,0.464427978515625,-2.530395844975114,4.349602737724781,-0.7799182050585747
1745460715895400000,0.47439990234375,-3.2407220428913828,5.145210679346323,0.1461345640748739
1745460715905373000,0.484373046875,-3.623544717669487,5.575830878087878,0.5566057087570428
1745460715915345000,0.494344970703125,-3.836284382030368,5.532920541644096,-0.05848258410692215
1745460715925316900,0.50431689453125,-4.106699405768514,4.755776477473974,-1.7013783857047557
1745460715935289900,0.514289794921875,-4.471974733418226,3.5353307199046013,-3.3139854320228097
1745460715945262000,0.524261962890625,-4.840374038307369,2.6773402641281483,-4.416448661029339
1745460715955234800,0.53423486328125,-4.966749716684222,2.3860303363993762,-4.597787809476256
1745460715965206800,0.544206787109375,-4.942368724143504,2.4436814381182193,-4.459596313360334
1745460715975180000,0.554179931640625,-5.084982128354906,2.4253563846156,-3.7082512918353077
1745460715985151700,0.56415185546875,-5.036521172046661,2.314327766843885,-3.0359973426818847
1745460715995124700,0.574124755859375,-4.69986082124561,2.1504086858838796,-3.399869817796349
1745460716005097000,0.584096923828125,-4.284470924861729,1.8457848108127712,-3.956514689520001
1745460716015070000,0.594070068359375,-3.813061911875009,1.4729336410813032,-4.34628440695703
1745460716025042000,0.6040419921875,-3.377465678286552,1.2782999806448816,-4.595553766813874
1745460716035015000,0.614014892578125,-3.0619205962285396,1.1702604616865515,-4.206167495736479
1745460716044987000,0.62398681640625,-2.7432372161448,1.1291820168450475,-3.325389454090595
1745460716054959900,0.6339599609375,-2.5658532350644467,1.1790183531597256,-2.6159482223153114
1745460716064931800,0.643931884765625,-2.618192786371708,1.3793036096170543,-2.223663891708851
1745460716074904000,0.653904052734375,-2.789133582662046,1.5740470140382647,-2.226328727003932
1745460716084876800,0.663876708984375,-2.894706126984954,1.293234222665429,-2.516870008447766
1745460716094848800,0.673848876953125,-2.7626807522833348,0.5988762859925627,-2.5933155347466466
1745460716104822000,0.683822021484375,-2.3554086959034204,0.28686230067014695,-2.6064836438775063
1745460716114793700,0.693793701171875,-2.0876982549488545,0.4919403443619609,-2.9603099412739273
1745460716124766700,0.7037666015625,-2.0756293392315506,0.627410306559503,-3.0595261023074385
1745460716134739000,0.713739013671875,-2.223922834905982,0.7931585026428103,-3.2357156129062172
1745460716144712000,0.7237119140625,-2.4123145322129127,1.107550323012471,-3.3460686695039272
1745460716154684000,0.733683837890625,-2.452777183243632,1.3413713538467884,-3.7764404464423653
1745460716164657000,0.743656982421875,-2.565851189237833,1.2493605941474437,-5.017857972630858
1745460716174628900,0.75362890625,-2.5815286508411166,0.8697101196646689,-5.530390146383643
1745460716184601900,0.763601806640625,-2.24098181399554,0.7435621125638484,-5.551397863098979
1745460716194573800,0.77357373046875,-1.747736232253909,0.8117004137665033,-5.66969340313375
1745460716204546800,0.783546875,-1.2199398538738488,0.8381576280593872,-5.6809664922982455
1745460716214518800,0.793518798828125,-0.7968690475985407,0.8581137898951768,-5.227598455175757
1745460716224491000,0.803490966796875,-0.469494703797996,0.8215297338634729,-4.706929736718535
1745460716234464000,0.813464111328125,-0.39903789651989935,0.8393833704620599,-4.6745811262995005
1745460716244435700,0.823435791015625,-0.6363675199970603,0.47473172766864297,-4.9632729804843665
1745460716254409000,0.833408935546875,-0.9176894299358129,-0.29749416932165623,-5.244152115091681
1745460716264381000,0.843380859375,-0.8759390771821141,-0.9285714739561081,-5.349059181243181
1745460716274353700,0.853353759765625,-0.7190168693721294,-1.4610276608407498,-5.3358033938288685
1745460716284326000,0.863325927734375,-0.48426469516754145,-2.034631850671768,-5.02124878411293
1745460716294299000,0.873298828125,-0.2624618727765977,-2.6147709952294824,-4.511035408696532
1745460716304270300,0.883270263671875,-0.09796338449344039,-3.176826786085963,-4.092332442241907
1745460716314243300,0.893243408203125,0.23121464772820471,-3.6955250812530513,-3.655470134240389
1745460716324215300,0.90321533203125,0.50447000945881,-4.129997863769531,-2.983949760058522
1745460716334188300,0.913188232421875,0.7056494382768869,-4.468020442834496,-2.659725989243388
1745460716344160300,0.92316015625,0.7735469164609908,-4.5973885810256006,-2.6879057895451783
1745460716354133200,0.93313330078125,0.6399306193061173,-4.768865091627836,-2.4199241304337975
1745460716364105200,0.943105224609375,0.5342250962533056,-4.893170101210474,-2.000360747757554
1745460716374078200,0.953078125,0.5278415326960385,-4.8622190826296805,-1.7810457966595887
1745460716384050200,0.96305029296875,0.4637557217545807,-4.60333726029694,-1.8000035951077937
1745460716394023200,0.973023193359375,0.2732910175658762,-4.336383190667629,-1.9997703806489704
1745460716403995400,0.982995361328125,0.14293094572797416,-4.19258963676095,-2.197877708545327
1745460716413967000,0.992967041015625,0.03637669689133763,-4.228330227705836,-2.5506670641094447
1745460716423940000,1.002940185546875,0.026319413257390258,-4.44384286391139,-3.052892363381386
1745460716433912300,1.012912353515625,-0.2716341902695596,-4.643572240051627,-2.9919845979541537
1745460716443885300,1.02288525390625,-0.39072351103052494,-4.889906130978464,-2.5802976477414368
1745460716453857300,1.032857177734375,0.017175737337023017,-4.768824175095558,-2.2712959959775207
1745460716463830300,1.042830322265625,0.6543805849410593,-4.553460007449984,-2.0279192012906075
1745460716473802200,1.05280224609375,1.1167724709965288,-4.458913007271289,-1.7076503055810928
1745460716483775200,1.062775146484375,1.3976971983112394,-4.507175226137042,-1.347552672830224
1745460716493747200,1.072747314453125,1.537615225958824,-4.3620916324198244,-1.4511977562218903
1745460716503720200,1.08272021484375,1.514140242347121,-3.984620255541801,-1.5264163710743188
1745460716513692200,1.092692138671875,1.373561120442301,-3.5466643070846793,-1.4861884055823087
1745460716523665200,1.1026650390625,1.0579238300561904,-3.1128526188254355,-1.4527683665394782
1745460716533637400,1.112637451171875,0.7928098353356122,-2.881040005204081,-1.3843810590118169
1745460716543610400,1.1226103515625,0.9055239219762384,-2.7239368878692387,-1.2520301056176424
1745460716553582000,1.13258203125,1.0873552378542721,-2.584409759235382,-0.922379633578658
1745460716563555300,1.142555419921875,1.3872580757528543,-2.486366149112582,-0.7543424497753382
1745460716573527300,1.15252734375,1.5823896027088165,-2.374997777992487,-1.0306611445993183
1745460716583500000,1.1625,1.4818107750199734,-2.414925299233198,-1.5098258862793446
1745460716593472300,1.17247216796875,1.1093133140970022,-2.435087212774157,-1.9669202504485845
1745460716603445200,1.1824453125,0.5887608424305916,-2.17823368139863,-2.2301865714758633
1745460716613417200,1.192417236328125,0.13927001206763087,-1.8374270245730875,-2.1292057388573884
1745460716623390200,1.20239013671875,-0.21418051081895828,-1.4886878211826085,-1.8255173910707234
1745460716633362200,1.212362060546875,-0.3354723100602627,-1.0585796636164189,-1.5566946049600838
1745460716643334100,1.222334228515625,-0.41888066110908984,-0.6019149230360984,-1.4068050722658634
1745460716653307100,1.23230712890625,-0.5675649461993947,-0.2641366741210222,-1.2795698544502259
1745460716663279400,1.242279296875,-0.8247668160885572,0.018141221368312834,-1.1855664596289395
1745460716673252400,1.25225244140625,-1.1957681201696395,0.3442927453756332,-1.2710358348608015
1745460716683224300,1.262224365234375,-1.5558300970852375,0.5477338355153799,-1.3348860834807157
1745460716693197300,1.272197265625,-1.7860124791562557,0.7334709266602992,-1.355156133571267
1745460716703169300,1.282169189453125,-1.9612462964653967,0.952115431150794,-1.1701520328760147
1745460716713142300,1.292142333984375,-2.0579308931946754,1.1939233690857887,-0.8237532551318406
1745460716723114200,1.3021142578125,-2.146649625611305,1.32537562007457,-0.4466062879025936
1745460716733087200,1.312087158203125,-2.1487141569256782,1.4132386124446987,-0.08924187950789927
1745460716743059200,1.32205908203125,-2.0752116983413695,1.5414134491980076,0.2137473800987005
1745460716753032200,1.3320322265625,-2.0847721383690834,1.6305267338901757,0.3407131333231926
1745460716763004400,1.34200439453125,-2.3792811544001102,1.7729767642334102,0.43870413647592066
1745460716772977200,1.35197705078125,-2.581701084798574,1.7485779437750577,0.3342944984525442
1745460716782949000,1.36194921875,-2.7807506619811058,1.5409636596038936,0.12932897522449494
1745460716792922400,1.37192236328125,-2.874565256232023,2.0816890776619315,0.15692133102715014
1745460716802894000,1.38189404296875,-3.008255933797359,2.197220998202264,0.31911621854305267
1745460716812867000,1.3918671875,-2.9375626874148844,1.968631146019697,0.8480325408637523
1745460716822839300,1.40183935546875,-2.6384230889737603,1.7890788809895515,1.2989414943963289
1745460716832812300,1.411812255859375,-2.4215654679000376,1.7538830644458532,1.4091934287071228
1745460716842784300,1.4217841796875,-2.351229948914051,1.880573215599358,1.797580167353153
1745460716852757200,1.43175732421875,-2.283729361093044,2.0070137759059667,1.8884908568561076
1745460716862729200,1.441729248046875,-2.1163608703315258,2.078217894420028,1.4513918174892664
1745460716872702200,1.4517021484375,-2.092822173833847,2.224926458990574,1.232513504242897
1745460716882674200,1.461674072265625,-2.092446910780668,2.4296137497991324,1.4461971714556217
1745460716892647200,1.471647216796875,-1.9031473048485814,2.5521979269385335,1.6828981416404247
1745460716902619100,1.481619140625,-1.6787595805309712,2.5998171717256304,1.9772522593706845
1745460716912592100,1.491592041015625,-1.476814428037405,2.598871123047173,2.3336633125633
1745460716922564400,1.501564453125,-1.2670225075662136,2.519634796985984,2.519143798598647
1745460716932537300,1.511537353515625,-1.1169161172509192,2.477289400948584,2.27183843229115
1745460716942509000,1.521509033203125,-0.9234696938376873,2.605838623972237,2.0738310576379297
1745460716952482300,1.531482421875,-0.612557970668748,2.7128870860666034,1.9945266347765922
1745460716962454300,1.541454345703125,-0.33096798437833785,2.786432214748859,2.0617577580064532
1745460716972427000,1.551427001953125,-0.18104053082652388,2.8327292710214853,2.320436751243472
1745460716982399200,1.561399169921875,-0.11436762600131332,2.829840856103599,2.6719915965765715
1745460716992371200,1.57137109375,0.1144809501826763,2.858809760956466,3.02140300014019
1745460717002344200,1.58134423828125,0.2819932333290577,2.9503824214994907,3.329865138199925
1745460717012316200,1.591316162109375,0.35097960272841155,3.0795942000851033,3.483623621281981
1745460717022289200,1.6012890625,0.37406708485987034,3.1035780100017782,3.3612340899318456
1745460717032261000,1.61126123046875,0.3888216229319572,3.0784418151795863,3.2893583557665345
1745460717042234000,1.621234130859375,0.31203181324005125,3.059624301984906,3.023774405446648
1745460717052206300,1.631206298828125,0.10727850799057632,3.092798841834068,2.7335458432137965
1745460717062179300,1.641179443359375,-0.23102993881106376,3.1498797424495217,2.310024078300595
1745460717072151300,1.6511513671875,-0.5478220983207226,3.436096146431565,2.0719179174929856
1745460717082124300,1.661124267578125,-0.7648878091871738,3.8442163440734145,1.8487398612260817
1745460717092096300,1.67109619140625,-0.7883505178391933,4.319637807571888,1.730764639186859
1745460717102069200,1.6810693359375,-0.6379255630940198,4.353802527502179,2.085938259539008
1745460717112041200,1.691041259765625,-0.18063596861362458,4.242652475307882,2.1099638627707957
1745460717122014200,1.70101416015625,0.27577569225477055,4.188758680295944,1.7871330076187848
1745460717131986200,1.710986083984375,0.47231301262173797,4.284311058124899,1.8030238197118043
1745460717141959200,1.720959228515625,0.6817635357767343,4.75336795502752,1.882404814940691
1745460717151931400,1.730931396484375,0.8960586128860711,5.3616895302355285,1.323115566188097
1745460717161904400,1.740904296875,0.39869653573632235,5.6213727320790285,-0.07036708316802978
1745460717171876000,1.7508759765625,-0.32221484214551743,5.740170376417041,-1.3292594757705927
1745460717181849300,1.760849365234375,-0.7152227377861737,6.271588452425599,-2.1486329083830116
1745460717191821300,1.7708212890625,-0.9766595052987337,6.872412073093653,-3.120171417406201
1745460717201794000,1.7807939453125,-1.471791631439328,7.165601238697767,-3.6843051835805176
1745460717211766300,1.790766357421875,-1.6253350104659794,6.656140727475285,-3.6478666734993457
1745460717221739300,1.8007392578125,-1.2992366779506206,5.867479243990778,-3.3690526547282933
1745460717231711200,1.810711181640625,-0.7953412535093725,5.105498846682906,-2.9781185696870085
1745460717241684200,1.820684326171875,-0.3312532310605049,4.263857175900042,-2.600403447180986
1745460717251656200,1.83065625,0.02916369677260518,3.3743425778299567,-2.3933476736754176
1745460717261629400,1.84062939453125,0.32205417169108985,2.4322388376057145,-2.365454873621464
1745460717271601200,1.85060107421875,0.6443466821826994,1.4691449163228272,-2.3449358172059056
1745460717281574100,1.86057421875,0.9365708021469413,0.638026100859046,-2.4761563052654263
1745460717291546400,1.87054638671875,1.0957798057198525,-0.13635726642608642,-2.540540806892514
1745460717301519000,1.88051904296875,1.2860872735202311,-0.8362024023383855,-2.4954437740594146
1745460717311491800,1.890491943359375,1.449327870696783,-1.3648223720610142,-2.445278351920843
1745460717321464800,1.90046484375,1.4955794803924858,-1.8248066124528646,-2.3370231443852183
1745460717331436500,1.9104365234375,1.5901808411069214,-2.1472832473397254,-2.228783134418726
1745460717341409800,1.920409912109375,1.720745933997631,-2.243868475347757,-1.9333593416303394
1745460717351381800,1.9303818359375,1.8618397274263203,-2.224491574704647,-1.772492487847805
1745460717361354800,1.940354736328125,1.8699964381359517,-2.2253572516232727,-2.1972709748238324
1745460717371326700,1.95032666015625,1.6563047337472439,-2.1898352718651295,-2.7436189089387653
1745460717381299700,1.9602998046875,1.3320143274366856,-2.3354303222358226,-2.95431859190464
1745460717391272000,1.97027197265625,1.2151629948608575,-2.4468068766623734,-3.0576503715634344
1745460717401244700,1.98024462890625,1.0820238136984408,-2.3769921666800973,-3.024340807157755
1745460717411216600,1.990216552734375,0.9839251123875379,-2.330525599059462,-2.8233874421805143
1745460717421190000,2.00018994140625,0.7565664825003594,-2.317771331426501,-2.6657465647071596
1745460717431161600,2.01016162109375,0.6336467897962779,-2.4293980612218378,-2.2629221353858706
1745460717441134600,2.020134521484375,0.5494564215242862,-2.4366291815191508,-2.2373335206210614
1745460717451106800,2.03010693359375,0.18459033226259053,-2.414867431566119,-2.4579759209305045
1745460717461079800,2.040079833984375,-0.24639519266001877,-2.604731247252226,-2.316003737232089
1745460717471051800,2.0500517578125,-0.4450374311506748,-2.9239988569647073,-1.9281296242833137
1745460717481024800,2.060024658203125,-0.4266845763256773,-3.2322616730600595,-1.4781839628249407
1745460717490996700,2.069996826171875,-0.2960966140160337,-3.388624201160669,-0.891937149041891
1745460717500969700,2.0799697265625,-0.0336930107653141,-3.404148518028855,-0.13007599419951438
1745460717510941700,2.089941650390625,0.14224223281145096,-3.3250831646203993,0.43778819067478175
1745460717520914700,2.099914794921875,0.30098259595930577,-3.151790544506907,0.906381853979826
1745460717530886700,2.10988671875,0.30300737978518005,-2.7630601069897414,1.3124416119605302
1745460717540859600,2.119859619140625,0.0839788535463158,-2.374449496459961,1.6555384255498646
1745460717550831900,2.129831787109375,-0.21500760929286478,-2.2022709750682115,1.7516519443929195
1745460717560804900,2.139804931640625,-0.4593798447579145,-2.235550728857517,1.741287202244997
1745460717570776600,2.149776611328125,-0.5973953997850417,-2.197922132208943,1.800930062302947
1745460717580749800,2.159749755859375,-0.6537421409070492,-1.992885881832242,1.886103084936738
1745460717590721800,2.1697216796875,-0.6480629262268542,-1.712052924454212,1.8868162016421555
1745460717600694800,2.17969482421875,-0.5545908618032932,-1.2458832734256982,1.8802350696861743
1745460717610666800,2.189666748046875,-0.531830748462677,-0.5822293948352336,1.885172526088357
1745460717620639700,2.1996396484375,-0.8003530903220176,-0.19115677810609338,1.7388801411032675
1745460717630611700,2.20961181640625,-1.0291782125651836,-0.03815174373984337,1.4622306068897246
1745460717640584700,2.219584716796875,-1.1728209598243236,0.0021340894192457198,1.1584610105603932
1745460717650557000,2.229556884765625,-1.1894517766296864,-0.04153378739356994,0.999068905505538
1745460717660529700,2.23952978515625,-1.05134094453454,-0.09844050048589706,0.897080941671133
1745460717670502700,2.249502685546875,-0.854616595429182,-0.061273676130175585,0.7814186727494001
1745460717680475000,2.259474853515625,-0.7425134072285146,0.0990484032511711,0.6822369985073804
1745460717690448000,2.26944775390625,-0.7523789676826447,0.3243330764085054,0.6925514717727899
1745460717700419600,2.279419677734375,-1.0047042810440063,0.26169980236291884,0.6962392203748226
1745460717710392800,2.289392822265625,-1.137030684518814,0.1255880351305008,0.7182856324881315
1745460717720364800,2.29936474609375,-1.1581868697941302,0.013380875098705291,0.7010866604059934
1745460717730337500,2.309337646484375,-1.1023708745479583,-0.03147942636907101,0.6212339560121297
1745460717740309800,2.319309814453125,-0.9324421779096126,0.009483283138275145,0.6272001709401607
1745460717750282800,2.32928271484375,-0.7119371402442455,0.08097323285639285,0.6342658715426921
1745460717760254700,2.339254638671875,-0.459655191100575,0.300913037854433,0.6193669930964708
1745460717770227700,2.349227783203125,-0.2845768566140905,0.5473264237582683,0.5723258404582738
1745460717780199700,2.35919970703125,-0.2539981419444084,0.6497282290905714,0.4770540331363678
1745460717790173000,2.3691728515625,-0.2808826417386532,0.6556564500957727,0.44237318037748335
1745460717800144600,2.37914453125,-0.35899233839008954,0.5451081631869077,0.4597603685081005
1745460717810117600,2.38911767578125,-0.38688221583459526,0.2601853061467409,0.5096422975301742
1745460717820089900,2.39908984375,-0.2579004283462651,-0.02099485723376274,0.4973708449780941
1745460717830062600,2.4090625,-0.08220600778805091,-0.2230067913532257,0.47714814116060733
1745460717840034800,2.419034912109375,0.1651882241129875,-0.336724940469861,0.5752601403445005
1745460717850007800,2.4290078125,0.4525193113386631,-0.4025637325584888,0.744691408854723
1745460717859979500,2.4389794921875,0.7123509817421436,-0.39733810686469073,0.8700432971417903
1745460717869952800,2.448952880859375,0.9700561615109443,-0.35307460224628445,0.999881975454092
1745460717879924700,2.4589248046875,1.1518331168532372,-0.31141923429965973,1.1087082608759402
1745460717889897700,2.468897705078125,1.3338082251161336,-0.26975919017791744,1.175156709295511
1745460717899869700,2.47886962890625,1.4650865808427334,-0.2111030030697584,1.1302397092044352
1745460717909842700,2.4888427734375,1.509955650138855,-0.11460136169195174,1.0502058030247687
1745460717919815000,2.49881494140625,1.521725582909584,-0.0024041385322809217,0.9675263507723808
1745460717929787600,2.50878759765625,1.4894295794606207,0.14106617476940153,0.8733768254786729
1745460717939759600,2.518759521484375,1.3948726424098015,0.3580786941438913,0.7905553344070911
1745460717949732900,2.52873291015625,1.1876198850274085,0.5367161824166774,0.7571703666776418
1745460717959705900,2.538705810546875,0.9714286189079284,0.5871352870553732,0.6279758314877748
1745460717969677600,2.548677490234375,0.8232183445375412,0.6283908420294523,0.37163024963438507
1745460717979650800,2.55865087890625,0.6739817958593368,0.7969418205738067,0.035759880167245864
1745460717989622800,2.568622802734375,0.29474278825428335,0.6677297497272491,-0.24335692094266415
1745460717999595500,2.578595458984375,-0.10359357240013778,0.3435708608418703,-0.5130348625779152
1745460718009567700,2.588567626953125,-0.2664063726186752,0.10071896681189536,-0.7152350127458572
1745460718019540700,2.598540771484375,-0.29176764490101487,-0.09806523743271828,-0.851153303232789
1745460718029512700,2.6085126953125,-0.1865116557139903,-0.18029168522059916,-1.0553571944385767
1745460718039485700,2.618485595703125,-0.024835202581621706,-0.23461948773562907,-1.0797913784712552
1745460718049457700,2.628457763671875,0.2219031409602612,-0.3857803555399179,-0.9959422979176044
1745460718059431000,2.638430908203125,0.5334369780829176,-0.42770752616524693,-1.0217933630108833
1745460718069402600,2.648402587890625,0.6592085896193981,-0.46062136925160885,-0.99910222325325
1745460718079375600,2.658375732421875,0.7224024201571941,-0.6406418363153934,-1.0049754992008209
1745460718089347800,2.668347900390625,0.8517804952204227,-0.7780605944931507,-1.0504396117806434
1745460718099320600,2.678320556640625,0.87069679261446,-0.9043775284200907,-1.28179980545938
1745460718109292800,2.688292724609375,0.8625578367572277,-1.036840710017085,-1.5829104117125272
1745460718119265800,2.698265869140625,0.8451543550789355,-1.213009177827835,-1.781768850237131
1745460718129237800,2.70823779296875,0.8758499375939369,-1.3060188854366541,-1.8044670042574404
1745460718139210800,2.718210693359375,0.9275076441168785,-1.3216712125986814,-1.7529051593244074
1745460718149182700,2.7281826171875,0.9675532387793063,-1.268394380441308,-1.6509551894128323
1745460718159156000,2.738156005859375,0.9860790755510329,-1.1292074435472488,-1.5416373210817576
1745460718169128700,2.748128662109375,0.9519745613753795,-0.9592892683029174,-1.398006848782301
1745460718179100700,2.7581005859375,0.8276011627316474,-0.8454536302864551,-1.2512445081979036
1745460718189074000,2.768073974609375,0.7420248199939727,-0.7110527586251497,-1.147675997173786
1745460718199045600,2.778045654296875,0.5769406407773494,-0.5212105702489614,-1.0721125144064425
1745460718209018600,2.7880185546875,0.4104897763174027,-0.33955402641594407,-1.0885627139478922
1745460718218990800,2.797990966796875,0.19884145085718483,-0.28646307221949097,-1.0607774659216402
1745460718228963600,2.807963623046875,0.0026303119709715247,-0.42771863208115096,-1.103015017670393
1745460718238935800,2.817935791015625,-0.12469137855172156,-0.5952250700086354,-1.2369003410249948
1745460718248908800,2.82790869140625,-0.08338314354233443,-0.6148527305424213,-1.629075366038084
1745460718258880500,2.837880615234375,0.1021077908217907,-0.5241489617884159,-2.209008174368739
1745460718268853800,2.847853759765625,0.23752039680890738,-0.41198622542023655,-2.5840023474782705
1745460718278825700,2.85782568359375,0.29707850119285284,-0.507699346768856,-2.8477777870714664
1745460718288798700,2.867798828125,0.3890623728852719,-0.69251406237185,-3.0031963123202323
1745460718298770700,2.877770751953125,0.4484217398267239,-0.9910095176905394,-3.0048592770963904
1745460718308743400,2.887743408203125,0.5721441272158175,-1.0090753357350826,-3.095692225188017
1745460718318715600,2.897715576171875,0.6817885971527546,-0.9067448420733213,-3.110107704031467
1745460718328688600,2.907688720703125,0.8721616775352508,-0.7924819185554981,-3.246240514051914
1745460718338660400,2.917660400390625,1.1202958228170872,-0.5796627592176199,-3.5045337228417393
1745460718348633600,2.927633544921875,1.4073825798928736,-0.24378362192213535,-3.8164486317038535
1745460718358606600,2.937606689453125,1.6878782681405544,0.3232967190980911,-4.295376642018557
1745460718368578600,2.94757861328125,1.871121204382181,0.9957570044785737,-4.772665068432689
1745460718378551600,2.957551513671875,1.876822630894184,1.626932508790493,-5.062138428384065
1745460718388523500,2.9675234375,1.8889046983540057,2.4308529362052678,-5.266845592936873
1745460718398496500,2.97749658203125,1.8962287576317787,3.5002222893834114,-5.16280245013833
1745460718408468500,2.987468505859375,1.723994706660509,4.613756947502494,-4.7297880497366185
1745460718418441500,2.99744140625,1.3802502428174017,5.217395041069388,-4.1590567849934095
1745460718428413700,3.00741357421875,1.0127426260709762,5.112212665107846,-3.687275139302015
1745460718438386400,3.017386474609375,0.6274922857545315,4.436416513302922,-3.2446634739935396
1745460718448358700,3.027358642578125,0.288350493401289,3.4063398905932902,-2.7928753995388744
1745460718458331600,3.03733154296875,0.030582185268402097,2.2432640797138212,-2.3212276093602178
1745460718468303400,3.047303466796875,-0.055463966938108206,1.15414022475183,-1.7841583757221697
1745460718478276600,3.057276611328125,-0.02503755675330758,0.31925591927468777,-1.081532084658742
1745460718488249600,3.06724951171875,0.11003953366912901,-0.1760246754258871,-0.0059475102275609966
1745460718498221600,3.0772216796875,0.589000496405363,-0.45110886001884937,1.4815227518588303
1745460718508194600,3.087194580078125,1.3831028557695448,-0.8378525076329708,2.928110968458652
1745460718518166500,3.09716650390625,2.2326889096856117,-1.4716197820037602,3.6299914095908403
1745460718528139500,3.107139404296875,2.897042460978031,-2.3401667031079527,3.1749305970758197
1745460718538111500,3.117111572265625,2.952275103378296,-2.9141040704160925,1.89609548664093
1745460718548084500,3.12708447265625,2.517819856518507,-2.8110294803887603,0.11890578088760376
1745460718558056700,3.137056640625,1.6900187873005865,-2.25488554392457,-1.7703239116370677
1745460718568029700,3.14702978515625,0.4862482702001929,-1.5877824016630648,-3.335551951664686
1745460718578001400,3.15700146484375,-0.8245546346426009,-0.9106120388954877,-4.058803097605705
1745460718587974700,3.166974609375,-2.0648983941197394,-0.3649503334790468,-3.683825291109085
1745460718597946400,3.1769462890625,-2.877976233719289,-0.0185784437417984,-2.579642983224988
1745460718607919400,3.18691943359375,-3.4093338117122647,0.05676116714179515,-1.2888058848291635
1745460718617892600,3.196892578125,-3.676326167525351,0.10992986274957656,-0.22786066112518308
1745460718627864600,3.206864501953125,-3.706676882125437,0.3942500777214765,0.5652350054144859
1745460718637837300,3.21683740234375,-3.52307066552937,0.7739689412653445,1.138006251552701
1745460718647809500,3.2268095703125,-3.2817788604229685,1.0859960783302782,1.4979466479152441
1745460718657782500,3.236782470703125,-3.1105653846710917,1.207902794599533,1.5111270320057868
1745460718667754500,3.24675439453125,-3.05417071275413,1.2251140416413544,1.0818833823144436
1745460718677727500,3.2567275390625,-3.075079937531054,1.1247668307512997,0.5043494518190622
1745460718687699500,3.266699462890625,-3.0773484669849274,0.8917056783735752,0.25148411329686643
1745460718697672700,3.276672607421875,-2.8562112688958643,0.9605050738334655,0.39515199499726295
1745460718707644400,3.28664453125,-2.411127660515904,1.229714228913188,0.8794494233906268
1745460718717617400,3.296617431640625,-2.074742619524896,1.425000654169917,1.4391402386814356
1745460718727590700,3.306590576171875,-1.7907319088935851,1.3825485828876494,1.8259113588243723
1745460718737562400,3.316562255859375,-1.5944415672913193,1.1719412543803454,2.010275408050418
1745460718747535400,3.326535400390625,-1.480148833157122,0.9192331522464752,1.9972867471396922
1745460718757507600,3.336507568359375,-1.4814569931462407,0.6453501601368189,1.8498118743717669
1745460718767480600,3.34648046875,-1.5931412983477116,0.43053895019888877,1.601467812666297
1745460718777452500,3.35645263671875,-1.7421698302984236,0.2712164032489061,1.4364303952008486
1745460718787425500,3.366425537109375,-1.8362991895869374,0.28707039046287536,1.3947954855203628
1745460718797397500,3.3763974609375,-1.7394424511611462,0.4912310270488262,1.6474392902463673
1745460718807370500,3.38637060546875,-1.5402373911559581,0.6141431209683418,2.00437758218348
1745460718817342500,3.396342529296875,-1.3161623860493301,0.4741764318734407,2.18735339192152
1745460718827315500,3.4063154296875,-1.0856266604959963,0.36567514062225814,2.2826567634254693
1745460718837288700,3.416288818359375,-1.0287789841145276,0.345792628544569,2.4252953020781276
1745460718847260400,3.426260498046875,-0.9969158191248774,0.3018722382754087,2.5210955171883103
1745460718857233400,3.4362333984375,-1.0482666516557335,0.32558979847133157,2.5138076982676982
1745460718867205600,3.44620556640625,-1.159716855840385,0.41192543514370916,2.417372107863426
1745460718877178400,3.456178466796875,-1.2842445682629942,0.6215957750618457,2.3818057044416663
1745460718887150600,3.466150634765625,-1.3895175451174377,0.8892667607888579,2.4870868646025657
1745460718897123600,3.47612353515625,-1.4633707168355583,1.1500292823016642,2.5996079128891227
1745460718907095600,3.486095458984375,-1.4761220618590711,1.4091250396460293,2.714650588607788
1745460718917068500,3.496068603515625,-1.407861595581472,1.6060747219398617,2.7993688532114027
1745460718927041500,3.50604150390625,-1.2708043641924858,1.7433602091267704,2.8670635022997852
1745460718937013500,3.516013427734375,-1.1120376975595951,1.8097069507375358,2.967535800874233
1745460718946986500,3.525986572265625,-0.9800795428752899,1.8607184683114288,3.070454323557019
1745460718956958500,3.53595849609375,-0.774104258082807,1.8249761238008737,3.0406109739571807
1745460718966931500,3.545931396484375,-0.5585214792504907,1.6510224094301462,3.038003421807289
1745460718976903400,3.5559033203125,-0.40484249114543197,1.6428493321076034,2.906826188367605
1745460718986876400,3.56587646484375,-0.07485825710743665,1.7834426286682485,2.7296090882867574
1745460718996848600,3.5758486328125,0.31944822697639463,1.9638652467921376,2.535447283145785
1745460719006821600,3.585821533203125,0.458528488625586,1.9094202476382254,2.1858792277157306
1745460719016794400,3.59579443359375,0.664156567415595,1.774060760077834,1.9383634335279463
1745460719026766600,3.6057666015625,0.9383911494418978,1.7572563402712345,1.6967624163419008
1745460719036739600,3.615739501953125,0.8536763919696211,1.7737626539140938,1.715902585619688
1745460719046711600,3.625711669921875,0.5233139722689986,1.8186089268565178,2.145655938398838
1745460719056684500,3.6356845703125,0.3954574076846242,1.9574594714030622,2.5925796216875314
1745460719066656500,3.645656494140625,0.2937558595761657,2.1616063717246052,2.901404163318872
1745460719076629800,3.655629638671875,0.20944208412021398,2.2818600600898264,3.0131121416568756
1745460719086601500,3.6656015625,0.16685060436725616,2.200406350240111,2.9852742866605517
1745460719096574500,3.675574462890625,0.28169395812153813,1.9928747759163379,2.860581154543161
1745460719106547700,3.685547607421875,0.6068646543979644,1.8895517640858888,2.597693603700399
1745460719116519400,3.69551953125,0.7978194801911711,1.8329004870593546,2.328112692698836
1745460719126492400,3.705492431640625,0.7673840099170803,1.7046259893238545,2.304723633804917
1745460719136464600,3.715464599609375,0.6179185478538275,1.5959449575915932,2.301469600445032
1745460719146437400,3.725437255859375,0.36058833887726066,1.4970166735887527,2.3564473913013932
1745460719156409600,3.73540966796875,0.20439473760277033,1.3338418351247905,2.163772609847784
1745460719166382600,3.745382568359375,0.1937774819985032,1.087188210724294,1.7043150236785412
1745460719176355600,3.75535546875,0.2592053551986813,0.8446098729386925,1.1797668334394693
1745460719186327600,3.76532763671875,0.3170163236543536,0.6972714860320091,0.7682879730194807
1745460719196300500,3.775300537109375,0.45614100896716114,0.6426335946545004,0.4372591983646154
1745460719206272500,3.7852724609375,0.6453697416201234,0.6353019365921616,0.09309738589227198
1745460719216245500,3.79524560546875,0.8153776409745216,0.5971621755510568,-0.2297030741214752
1745460719226217500,3.805217529296875,0.9007949937582016,0.5569944158136845,-0.5048509716004133
1745460719236190500,3.8151904296875,0.7169549684062599,0.5182996512383222,-0.647304216814041
1745460719246162400,3.825162353515625,0.5664312294617295,0.41655017233490943,-0.6897054346919059
1745460719256135400,3.835135498046875,0.4839604515239596,0.21376023958027363,-0.6181552792191505
1745460719266108400,3.8451083984375,0.5932151914909481,-0.0820084211230278,-0.6503185961991548
1745460719276080600,3.85508056640625,0.9003674159958958,-0.2973395632818341,-0.8404168051630259
1745460719286053400,3.865053466796875,1.0768491875395179,-0.45838908015489577,-0.9618453825265169
1745460719296025600,3.875025634765625,1.2302429289624095,-0.3321051717147231,-1.270076634439826
1745460719305998800,3.884998779296875,1.2050167177692055,0.08177841175943612,-1.7306798835128545
1745460719315970800,3.894970703125,0.8125763198181987,0.314068872025609,-2.256552600353956
1745460719325944000,3.904944091796875,0.6161743345350027,0.4313061351791024,-2.6755530884504317
1745460719335917000,3.9149169921875,0.4756216622456908,0.6951216145217418,-2.7945535618841646
1745460719345888800,3.924888671875,0.5954550793722272,1.325856973850727,-2.9366689534455537
1745460719355862000,3.934862060546875,0.8022025175809859,1.893089290562272,-2.9221558594465256
1745460719365834000,3.944833984375,0.9855217339292168,2.313153608497977,-2.6996219463020563
1745460719375806700,3.954806640625,1.205245265828073,2.5345178933411834,-2.4262825595498083
1745460719385779000,3.964779052734375,1.4140674644842743,2.8380764772683382,-2.194461178100109
1745460719395752000,3.974751953125,1.603530298154056,3.212166979536414,-2.069259511938691
1745460719405725000,3.984724853515625,1.7802490933239459,3.734101772406697,-2.010316324582696
1745460719415697000,3.99469677734375,1.8029823186576366,4.236165743637085,-1.9975076964139937
1745460719425670000,4.004669921875,1.7551321877241133,4.7302141661942,-2.1894097399294377
1745460719435642000,4.01464208984375,1.5054054394885896,5.214802686488628,-2.6240584635347126
1745460719445614800,4.02461474609375,1.0831515025541185,5.537136698034406,-2.9187592027455564
1745460719455586800,4.0345869140625,0.6191212016418576,5.685306567329168,-3.012512422198057
1745460719465560000,4.04456005859375,0.00015635960549116134,5.623650029361247,-3.0002415541678666
1745460719475533000,4.054532958984375,-0.6454182569369673,5.092272869884967,-2.7145149795293806
1745460719485504800,4.0645048828125,-1.058049794523418,4.13952966222465,-2.3471564158648253
1745460719495478000,4.07447802734375,-1.2009700727269053,2.8580151034474373,-2.04788822260797
1745460719505450000,4.084449951171875,-1.2069146603450178,1.545733650484681,-1.745170181158185
1745460719515422700,4.094422607421875,-1.171979248303175,0.3241208949625492,-1.5325883377075193
1745460719525395000,4.10439501953125,-1.0872826110094784,-0.6243786837786436,-1.3505308118581771
1745460719535368000,4.114367919921875,-1.0185179946020244,-1.2600059068024159,-1.181913782340288
1745460719545341000,4.1243408203125,-0.9029334670916199,-1.629794912484288,-1.0624591353982686
1745460719555313000,4.13431298828125,-0.8407888533458113,-1.8632634766191243,-0.971447908130288
1745460719565286000,4.144285888671875,-0.8098352044165134,-2.1412959896236656,-0.8383078501850366
1745460719575258000,4.154258056640625,-0.7559948931574821,-2.439284664463997,-0.5828191774219275
1745460719585230800,4.16423095703125,-0.7113067333862185,-2.5956004308134317,-0.35264380961358543
1745460719595202800,4.174202880859375,-0.7417159001752733,-2.665402865836024,-0.24861060368716714
1745460719605176000,4.184176025390625,-0.7316188690528274,-2.779537194538116,-0.1280406889796257
1745460719615148800,4.194148681640625,-0.667864189761877,-2.7764906664490696,0.0022048165678977966
1745460719625120800,4.204120849609375,-0.4533038858450949,-2.5095138004660607,0.15100129332840442
1745460719635094000,4.214093994140625,-0.2854302220404148,-2.0905846240401265,0.30951310841739177
1745460719645065700,4.224065673828125,-0.28728213351741433,-1.7617933991789816,0.3930968160331249
1745460719655038700,4.234038818359375,-0.2970357580296695,-1.5998557012945414,0.48967736786603927
1745460719665011000,4.244010986328125,-0.3194108175754547,-1.5192676683634518,0.5089835413604974
1745460719674984000,4.25398388671875,-0.28436726898401976,-1.533200916647911,0.4946159933120012
1745460719684956700,4.263956787109375,-0.3350046925485134,-1.5559066694527863,0.46776071961224075
1745460719694929000,4.273928955078125,-0.43295434077754613,-1.5862404329180717,0.4207984774291515
1745460719704902000,4.28390185546875,-0.4957318455994129,-1.623150067642331,0.27773732945024965
1745460719714873900,4.293873779296875,-0.6162342480286955,-1.6995581845402716,0.08016483908295631
1745460719724846800,4.303846923828125,-0.7460010301485658,-1.7828081301569938,-0.04243921180069447
1745460719734819800,4.31381982421875,-0.8594486917607486,-1.891944212180376,-0.016421557968854902
1745460719744792000,4.3237919921875,-0.9130736067034304,-1.9338965172469615,-0.00944470469355583
1745460719754764800,4.333764892578125,-0.8994061697483062,-1.8825076907932756,0.0006669394761323928
1745460719764736800,4.34373681640625,-0.8596132346726953,-1.8313263696104287,0.10893383744955062
1745460719774710000,4.3537099609375,-0.7879870913542807,-1.8683266052275895,0.22399404882490634
1745460719784681700,4.363681640625,-0.6680678956404328,-1.8770219528585672,0.2746434550881386
1745460719794654700,4.37365478515625,-0.5690905117988586,-1.825249680045247,0.21734628137350082
1745460719804628000,4.3836279296875,-0.49760012368932366,-1.7611738059759139,0.16555179672837256
1745460719814600000,4.393599853515625,-0.23421105306521056,-1.7179460741460322,0.11317162114977836
1745460719824573000,4.403572998046875,0.18218115222901105,-1.7717103975594042,0.011367197188735008
1745460719834545000,4.413544921875,0.4473902778871357,-1.8942466439038514,-0.03328735257387161
1745460719844518000,4.423517822265625,0.6040927054665982,-1.9224159228116273,-0.04822305589914322
1745460719854491000,4.433490966796875,0.8067991977214812,-1.769209812915325,0.04561433470547199
1745460719864462800,4.443462890625,0.9980126744508743,-1.5606658466786145,0.3319201705366373
1745460719874435800,4.453435791015625,1.0731165768824518,-1.2070084761083126,-0.022891630765795708
1745460719884408000,4.463407958984375,0.4984158239863813,-0.867369694018364,-0.34926293500363825
1745460719894380800,4.473380859375,-0.15343597312942148,-0.9075082276612519,-0.583178073862195
1745460719904353800,4.483353759765625,-0.315066650891304,-0.9859574949979781,-0.6206687233448028
1745460719914326000,4.493325927734375,-0.19242445995435117,-1.0263976419359444,-0.5601140091389417
1745460719924299000,4.503299072265625,-0.04134571747556329,-1.1012556067824364,-0.5456067603588104
1745460719934271000,4.51327099609375,0.06763005941957236,-1.2619856824427842,-0.6026116731286049
1745460719944244000,4.523243896484375,0.1668494353234768,-1.4396248073279856,-0.5946639289945364
1745460719954216000,4.5332158203125,0.3075719112217426,-1.556961146941781,-0.6236059458404779
1745460719964189000,4.54318896484375,0.45081711053065954,-1.5411153430342672,-0.6353536667793989
1745460719974162000,4.553161865234375,0.5487538262128829,-1.5279004721522331,-0.522860091021657
1745460719984134000,4.5631337890625,0.6512300119556487,-1.5666916828393935,-0.3909603885263204
1745460719994107000,4.57310693359375,0.7202396891653537,-1.6302251205950975,-0.2158995896965265
1745460720004078800,4.583078857421875,0.6667138506829738,-1.6778870354801416,-0.048507718059420585
1745460720014051800,4.5930517578125,0.6227179109595715,-1.7452584439635275,0.08437748834192753
1745460720024025000,4.603025146484375,0.6625717824421823,-1.7201742715895174,0.17116905208826064
1745460720033996800,4.612996826171875,0.7265489453773946,-1.631445602300763,0.19584756627082825
1745460720043969800,4.6229697265625,0.6973920436717569,-1.4244851058632135,0.25495792688727376
1745460720053942000,4.63294189453125,0.7193699205935001,-1.204269406533241,0.3286953632712364
1745460720063915000,4.6429150390625,0.8860299708247185,-1.043295585244894,0.29245968228578567
1745460720073887000,4.652886962890625,0.9415642265200614,-0.9220955559402704,0.2285053887695074
1745460720083860000,4.66285986328125,0.9745090492665767,-0.7587444841265678,0.08412380584180354
1745460720093833000,4.6728330078125,1.092575602851063,-0.49522272703349585,-0.18587679187655448
1745460720103805000,4.682804931640625,1.1337712443314492,-0.1673573848456144,-0.3709071960568428
1745460720113778000,4.69277783203125,1.1129458984456955,0.050318566873669625,-0.5180611663073301
1745460720123750000,4.70275,0.9822305103641003,0.1976098997682333,-0.6755214265167713
1745460720133723000,4.712722900390625,0.8840132972400635,0.2729687998741865,-0.7576210330545902
1745460720143696000,4.72269580078125,0.8008170545719564,0.2509755792528391,-0.8916489797502756
1745460720153667800,4.732667724609375,0.613905805081129,0.18491642241179942,-0.9497551317602395
1745460720163641000,4.74264111328125,0.413238198242709,0.01984802528619766,-0.9083148678690195
1745460720173612800,4.75261279296875,0.25885902597904203,-0.22214286800026892,-0.967329951417446
1745460720183585800,4.762585693359375,0.14450425945930181,-0.4058054909586906,-1.033090417572856
1745460720193559000,4.77255908203125,0.157731916757673,-0.5733353097617626,-0.9992407549411058
1745460720203530800,4.78253076171875,0.2083060658276081,-0.6454308241575956,-0.9837193606823682
1745460720213503700,4.792503662109375,0.24281857628226278,-0.7037339600443839,-0.9366723628252744
1745460720223476000,4.80247607421875,0.29038572555594144,-0.8099719825387001,-0.8650169934123754
1745460720233449000,4.812448974609375,0.3318365108411759,-0.9097580524146557,-0.79661857996881
1745460720243421700,4.822421630859375,0.4072211299102753,-0.9750000476539135,-0.7036030271410941
1745460720253394000,4.832393798828125,0.5331377394080161,-1.0085656326472758,-0.5912731175124645
1745460720263367000,4.842366943359375,0.6032359425067901,-1.0233926149010657,-0.45455929273366924
1745460720273339000,4.8523388671875,0.6486357576787471,-0.9619920975208281,-0.343034269747138
1745460720283311900,4.862311767578125,0.6785878283500671,-0.8743722662568092,-0.2913578585237264
1745460720293284900,4.872284912109375,0.6561258211731911,-0.7390788296699523,-0.2569879714101553
1745460720303257000,4.882257080078125,0.6103415367282927,-0.5897948616534471,-0.18350246396064757
1745460720313230000,4.89222998046875,0.5831423449616879,-0.3892103299885988,-0.12211071440875529
1745460720323201800,4.902201904296875,0.5031282394610345,-0.1785907265216112,-0.044154783546924585
1745460720333175000,4.912175048828125,0.35800555584244426,0.0491693968385458,0.06243278303742408
1745460720343148000,4.92214794921875,0.11909626195840536,0.14836509960591793,0.05502630617320537
1745460720353120000,4.9321201171875,-0.02213832818046212,0.07897475251555443,-0.0735386989414692
1745460720363093000,4.942093017578125,-0.11686828371062874,-0.05009411046802997,-0.339218510851264
1745460720373065000,4.95206494140625,-0.1709223838508129,-0.1508271058052778,-0.5756137760877609
1745460720383038000,4.962037841796875,-0.1554886678755283,-0.22666999003589153,-0.8856050234109163
1745460720393011200,4.97201123046875,-0.06625672523975372,-0.28056583087444303,-1.2726269034445286
1745460720402983000,4.98198291015625,0.14076806860566138,-0.2600111186236143,-1.5605805064827203
1745460720412956000,4.991955810546875,0.25117139408588407,-0.22240356476306913,-1.6961954301089048
1745460720422928100,5.00192822265625,0.13981880505681038,-0.3018389205276966,-1.6887018594831227
1745460720432900900,5.01190087890625,0.12163199098110199,-0.15910335124135017,-1.6990636790215967
1745460720442873900,5.021873779296875,0.6902022782981395,0.470046784722805,-1.964777977722883
1745460720452846000,5.03184619140625,0.7690041584648192,0.5738514425903558,-2.003266406071186
1745460720462819000,5.041819091796875,0.6462954781629144,0.4536936158150434,-2.1422452531725167
1745460720472791800,5.051791748046875,0.6232862123668194,0.42086277483701706,-2.502579032766819
1745460720482764000,5.061763916015625,0.7956745771169662,0.48865679264664647,-2.8615611054912207
1745460720492737000,5.071737060546875,1.1151906816978008,0.621093670758605,-3.2470363406047222
1745460720502709000,5.081708984375,1.3919184687793253,0.7753250320494175,-3.43406347156018
1745460720512682000,5.091681884765625,1.7374913170933723,1.003399043664336,-3.4688767185270786
1745460720522655000,5.101655029296875,2.1190075854480264,1.4627747967690228,-3.5067379548877478
1745460720532627000,5.111626953125,2.351224103695154,2.1313497651487587,-3.5412954735279083
1745460720542600000,5.121599853515625,2.4608839173316954,2.970828412678838,-3.3932579984411597
1745460720552572000,5.131572021484375,2.454282327109575,3.6557834379732608,-3.0659362616106867
1745460720562545200,5.141545166015625,2.3355824440576134,4.141763120365143,-2.7686323541641236
1745460720572518000,5.151517822265625,2.0902293808616697,4.515768282437325,-2.535460434888303
1745460720582489900,5.16148974609375,1.7306781299471854,4.671851409074664,-2.4768875421494245
1745460720592463000,5.171463134765625,1.052971906737238,3.932723479565978,-2.271957090234756
1745460720602434800,5.181434814453125,0.056559507089853286,2.0714906319916246,-1.421975461129844
1745460720612407800,5.19140771484375,-0.804630621510744,0.22757833705246447,-0.5546072284162045
1745460720622381000,5.201381103515625,-1.238149464303255,-0.8485188630759716,-0.06199936005622148
1745460720632353000,5.21135302734375,-1.354821348658949,-1.3547007910192013,0.13744769201129675
1745460720642325800,5.22132568359375,-1.2864284881733357,-1.4498995331048965,0.1772363893032074
1745460720652298000,5.231298095703125,-1.5305295054815709,-1.8241490253269672,0.10173866524845361
1745460720662271000,5.24127099609375,-1.7033540696918963,-2.19682849175334,0.3147358115017414
1745460720672244000,5.251243896484375,-1.399451786893606,-2.343600184687972,0.7668389432549476
1745460720682216000,5.2612158203125,-0.5935267416581511,-2.2250275812774896,0.8344143498778342
1745460720692189000,5.27118896484375,0.26778584427833557,-1.866212389552593,0.7833008332341909
1745460720702162000,5.281161865234375,0.7755999034680425,-1.4150409856915473,0.5792956794708967
1745460720712134000,5.2911337890625,0.9635200377404689,-0.9102981506407261,0.1202455050587654
1745460720722107000,5.30110693359375,0.8382218524020165,-0.32974165745377537,-0.34728783553838727
1745460720732079000,5.3110791015625,0.416733712208271,0.06364391239285469,-0.43062662848234173
1745460720742052000,5.321052001953125,-0.0348866044640541,0.0986392379283905,-0.5185170933812856
1745460720752024800,5.33102490234375,-0.3905179054558277,-0.006591653349995613,-0.5912140808016061
1745460720761997000,5.3409970703125,-0.819927559363842,-0.16604922485649584,-0.5330570753872395
1745460720771970000,5.350969970703125,-1.221518939758837,-0.38569384630024434,-0.42817280558943743
1745460720781942000,5.36094189453125,-1.4090730171978474,-0.5457429539591073,-0.1786521013200283
1745460720791915000,5.3709150390625,-1.4642974762916565,-0.7032149046063423,-0.05354103605151176
1745460720801888000,5.380887939453125,-1.5388159800507126,-0.7985603616863489,0.056741877919435496
1745460720811860000,5.39085986328125,-1.7198235584557056,-0.9294131854772567,0.2011690535545349
1745460720821833000,5.4008330078125,-1.768834842123091,-0.8450853814959526,0.12110475223660469
1745460720831806000,5.410805908203125,-1.8097512282706796,-0.6529255638271569,-0.1593903514891863
1745460720841778000,5.42077783203125,-1.9245710550189017,-0.585576367175579,-0.33272271909117695
1745460720851751200,5.430751220703125,-1.945527333807945,-0.5442465779215097,-0.5353922403365373
1745460720861723000,5.440722900390625,-1.8983233918234705,-0.5388946954995394,-0.7402484579712152
1745460720871696000,5.45069580078125,-1.844923225547373,-0.5089268427371978,-0.7829664867132902
1745460720881669000,5.460669189453125,-1.7828122218102216,-0.4345931940257549,-0.7564607571035623
1745460720891640800,5.470640869140625,-1.641808006361127,-0.3180371911346912,-0.7469301276922226
1745460720901613800,5.48061376953125,-1.4209630692169068,-0.22375731745958327,-0.6902420257866382
1745460720911587000,5.490587158203125,-1.194864741589129,-0.16833528996706007,-0.6032394496381283
1745460720921559000,5.50055908203125,-1.033701827469468,-0.1827040070593357,-0.4302712391734123
1745460720931532000,5.510531982421875,-0.935261326983571,-0.2686509366750717,-0.24732933170497415
1745460720941504000,5.52050390625,-0.8680076996609568,-0.4264584028869867,-0.0912801073372364
1745460720951477000,5.53047705078125,-0.8595303786948323,-0.4879419223755598,0.013225392276048659
1745460720961450000,5.540449951171875,-0.8447486968874931,-0.534549944293499,0.0711719698101282
1745460720971422000,5.550421875,-0.8771478684499859,-0.512611668729782,0.15019231503307817
1745460720981395000,5.56039501953125,-0.9791510298535228,-0.45714171044230456,0.17985738545656202
1745460720991367200,5.5703671875,-1.196035538934171,-0.41633039210438727,0.36475334960222244
1745460721001340000,5.58033984375,-1.3385294084191321,-0.36038229491114615,0.5807452937573194
1745460721011313000,5.59031298828125,-1.4864567011296748,-0.2156564285904169,0.8114595907479524
1745460721021285000,5.60028515625,-1.7072414325192569,0.11158873587250709,1.0726017592281103
1745460721031257900,5.6102578125,-1.9099033549800515,0.3861772459030151,1.3279331956028937
1745460721041230800,5.62023095703125,-2.038356424152851,0.6432616634249687,1.4074848712235688
1745460721051203000,5.630203125,-2.118818492616713,0.9226596195638179,1.4674737682402132
1745460721061176000,5.640176025390625,-2.1683368490234014,1.1552876412212847,1.570709686309099
1745460721071148000,5.65014794921875,-2.248104213221371,1.2846452580183743,1.6844272509038447
1745460721081121000,5.66012109375,-2.281646125078201,1.4101350934714079,1.7639947086155414
1745460721091094000,5.670093994140625,-2.297832705247402,1.5252888283491133,1.7782763319462536
1745460721101066000,5.68006591796875,-2.314731525339186,1.6827677932590246,1.8154373110830784
1745460721111039000,5.6900390625,-2.4047359136521815,1.705751193961501,1.8683885645478964
1745460721121012000,5.700011962890625,-2.551164784498513,1.54995039139688,2.0656126798689365
1745460721130984200,5.709984130859375,-2.7377172836795447,1.2372107221484183,2.329212762895226
1745460721140957000,5.71995703125,-2.777860785758495,0.8254396007835865,2.5126240414410828
1745460721150929000,5.729928955078125,-2.6089225614622236,0.475162520301342,2.3564701876550913
1745460721160902100,5.739902099609375,-2.2438711056962606,0.3844517372846603,1.9431056596189735
1745460721170875100,5.749875244140625,-1.86185419434309,0.5493968002915383,1.2449041992604732
1745460721180846800,5.759846923828125,-1.542119259379804,0.7886872024476528,0.4809656536221504
1745460721190820000,5.769820068359375,-1.419291921134293,0.800042709198594,0.01906418143212795
1745460721200793000,5.77979296875,-1.3268030225291847,0.7047025128155946,-0.23839199201166628
1745460721210764800,5.789764892578125,-1.0591627242013812,0.7782388736695051,-0.18363456590771673
1745460721220738000,5.799738037109375,-0.7662178887471556,0.9437783954381942,0.2334381689965725
1745460721230711000,5.8097109375,-0.6021206747412681,1.374942199537158,0.39624972710609435
1745460721240683000,5.81968310546875,-0.6441150653839111,1.1885802544921635,0.40932431273460385
1745460721250656000,5.829656005859375,-0.6353428531244397,0.4846697688370943,0.33320144251883027
1745460721260628000,5.8396279296875,-0.7036684935927391,-0.2658580910861492,0.3497188620775938
1745460721270601000,5.84960107421875,-0.7015250518232583,-0.7717123945102096,0.3320756533592939
1745460721280574200,5.85957421875,-0.6660948420017957,-1.0179796499416232,0.20737024628221987
1745460721290546000,5.8695458984375,-0.6321338279500603,-0.9635060092151164,0.14892039540112018
1745460721300519000,5.879518798828125,-0.5095236395865679,-0.5842401501357555,0.19730945551693438
1745460721310491100,5.8894912109375,-0.12797989870309828,-0.10192132833898067,0.3092886520117521
1745460721320463000,5.899463134765625,0.2535860540121794,0.18477876750677824,0.4426426449686289
1745460721330436000,5.90943603515625,0.4109609740257263,0.28790742580890655,0.6159434483885765
1745460721340408000,5.919407958984375,0.38122488419264555,0.2958300355017185,0.8049965322136878
1745460721350381000,5.929381103515625,0.30919775885790585,0.30904607542753215,0.99235099542737
1745460721360354300,5.939354248046875,0.2346528054833412,0.4754635490745306,1.1772539738357066
1745460721370326000,5.949325927734375,0.09981646501421927,0.7295055301606654,1.3018670264542103
1745460721380299000,5.959299072265625,-0.12497194905877113,0.9455024427518248,1.3797452159047126
1745460721390272300,5.969272216796875,-0.26719898430109024,1.0433519916072487,1.417501822847128
1745460721400244000,5.979243896484375,-0.2960615061700344,1.081979243904352,1.5077853203624485
1745460721410217000,5.989217041015625,-0.28209903179109097,1.0747232814267278,1.5105360803753136
1745460721420190200,5.999190185546875,-0.1943371617078781,1.0939411921158433,1.4740794501155614
1745460721430162200,6.009162109375,-0.06505436371266841,1.221905600988865,1.4602993465662002
1745460721440135000,6.019135009765625,-0.000834112736582756,1.4886597641319035,1.6259090109616516
1745460721450107100,6.029107177734375,-0.05754471873492002,1.5831407133370636,1.8052876729905605
1745460721460080000,6.039080078125,-0.1606488271176815,1.4508984810143708,1.8551871376693247
1745460721470053000,6.04905322265625,-0.2655658301413059,1.2962524014428256,1.8586270489901304
1745460721480025000,6.059025146484375,-0.29402386286258697,1.094618360725045,1.862465604239702
1745460721489998000,6.068998046875,-0.26044074221253394,0.9257485254898666,1.7210621603399514
1745460721499971000,6.07897119140625,-0.1927086837232113,1.0027961093351245,1.524295141136646
1745460721509943000,6.088943115234375,-0.0028109657675027848,1.218389994083345,1.2651117055088281
1745460721519916000,6.098916015625,0.09242460119724273,1.4398869653955102,1.0835878481447696
1745460721529889000,6.108888916015625,0.08078209419846534,1.5807356980219482,1.0526607949614524
1745460721539861200,6.118861328125,0.08173778748810291,1.618551049414277,1.173172842001915
1745460721549834000,6.128833984375,0.20885376283824442,1.667962438315153,1.3220996671438217
1745460721559807000,6.138806884765625,0.3058040247663855,1.723120261913538,1.4778928709238768
1745460721569779200,6.148779296875,0.3377712346524,1.7723071944087743,1.5431792898267507
1745460721579752200,6.158752197265625,0.4263663406893611,1.830486411654949,1.5727134273469447
1745460721589724200,6.16872412109375,0.5658253725230693,1.9839999800652264,1.4908376926928757
1745460721599697200,6.178697265625,0.7802057898283005,2.192935575968027,1.369729433324933
1745460721609670100,6.188670166015625,1.0097215246841311,2.443886605301499,1.1779168216586113
1745460721619642000,6.19864208984375,1.2337971143126487,2.8029443736106154,0.8402940555661916
1745460721629615000,6.208614990234375,1.4565277190729975,3.385019454666972,0.3391197266519069
1745460721639588000,6.218588134765625,1.5525667113751171,3.983927012580633,-0.20661738208830355
1745460721649560300,6.228560302734375,1.558113531847298,4.247236003705859,-0.5380103138804435
1745460721659533000,6.238532958984375,1.5183262958601116,4.370986886537075,-0.7148404604703188
1745460721669506000,6.248506103515625,1.552108446213603,4.553401555261016,-0.747393653550744
1745460721679478300,6.258478271484375,1.627510600939393,4.671199082645773,-0.8682716112941503
1745460721689451300,6.268451171875,1.6148858049049972,4.866710548830032,-1.0463169788926838
1745460721699424000,6.278424072265625,1.4688622999891638,5.205259197595716,-1.329512573748827
1745460721709396200,6.288396240234375,1.2882222397223113,5.5884699949085705,-1.6596452763468026
1745460721719369200,6.298369140625,1.1337915564671157,5.8729825175821775,-1.996598764875531
1745460721729341000,6.3083408203125,0.795828014113009,5.805086208441853,-2.3148095590114592
1745460721739314200,6.318314208984375,0.2755821972429752,5.162012176543474,-2.5037229421049356
1745460721749287200,6.328287109375,-0.3526338727414608,4.094380022421479,-2.582912214154005
1745460721759259100,6.338259033203125,-0.8441481006458401,2.8435400033712384,-2.6665450216084716
1745460721769232100,6.348232177734375,-1.0960834648415445,1.630091849604249,-2.795615638157725
1745460721779205000,6.358205078125,-1.153246783043444,0.6337965004652738,-2.8863007022112606
1745460721789177000,6.368177001953125,-1.221543489678204,-0.10955109256505965,-2.928739329490065
1745460721799150000,6.378150146484375,-1.2763774881497025,-0.6967401556342839,-3.100829588076472
1745460721809123000,6.388123046875,-1.3749962678119538,-1.2114233699411152,-3.0980595388412473
1745460721819095000,6.398094970703125,-1.384787301725149,-1.6515736135721206,-2.685548997285962
1745460721829068300,6.408068359375,-1.2673045393779874,-1.8809581232637167,-2.1777724936276672
1745460721839041000,6.418041015625,-1.1119909358084201,-1.9586597871035336,-1.7799498181164264
1745460721849013000,6.428012939453125,-0.9540300326004624,-1.983406105825305,-1.528172859352827
1745460721858986200,6.437986328125,-0.7646402641668916,-1.9856629448413847,-1.381837219747901
1745460721868959200,6.447959228515625,-0.6068851126641035,-1.9945178669482468,-1.3643775509029625
1745460721878931000,6.457930908203125,-0.5428787966996431,-2.0267033957600593,-1.392335232886672
1745460721888904200,6.467904296875,-0.5298194086402654,-1.9623428595304488,-1.2943629344344139
1745460721898877200,6.477877197265625,-0.5455930240944028,-1.771574788480997,-1.1147563088685273
1745460721908849000,6.487848876953125,-0.5631111451283097,-1.489384571275115,-0.8963771773159503
1745460721918822100,6.497822265625,-0.6192112180128693,-1.1863590713113545,-0.6248451322466134
1745460721928794000,6.507794189453125,-0.7186620645850896,-0.9599006781995296,-0.32180677280128
1745460721938767000,6.51776708984375,-0.8276067156895994,-0.8378577683299779,-0.022747838380932806
1745460721948740000,6.527739990234375,-0.8978189005568623,-0.7665104419529437,0.30259003115594385
1745460721958712000,6.537712158203125,-0.9306468189254402,-0.7869219463407993,0.6176870771855115
1745460721968685000,6.54768505859375,-0.9273004311069846,-0.8333622104763985,0.8248515717625617
1745460721978658300,6.557658203125,-0.966315513677895,-0.9242197084873914,0.9840151287585497
1745460721988630000,6.567630126953125,-0.9951792045906186,-1.01323888515532,1.1675357128977775
1745460721998603000,6.57760302734375,-0.9864660290420055,-1.0788310090065,1.358971892467141
1745460722008576300,6.587576171875,-0.9248100755959748,-1.0653425818800926,1.5817998201221226
1745460722018548000,6.5975478515625,-0.8651219150915741,-1.0088421115010977,1.7661153540313244
1745460722028521000,6.60752099609375,-0.898914294578135,-0.9967010073304176,1.9356167651683092
1745460722038494200,6.617494140625,-0.9718111884847283,-1.0260247169703245,2.0800649835914373
1745460722048466200,6.627466064453125,-1.0412693401142954,-1.129165942493081,2.1677233933001756
1745460722058439000,6.63743896484375,-1.0587465446159243,-1.2057406481295823,2.2176760494709016
1745460722068412200,6.647412109375,-1.062810725314915,-1.1894272267103194,2.237654423138499
1745460722078384000,6.657384033203125,-1.0540890741989015,-1.1207459046721457,2.16200793826282
1745460722088357000,6.667357177734375,-1.0483429317623376,-0.9516232637196779,2.1208277866125105
1745460722098330000,6.677330078125,-1.040917750197649,-0.8429524611204862,2.014426682510972
1745460722108302000,6.687302001953125,-1.0147019434452056,-0.8002776869982481,1.7725217139422893
1745460722118275000,6.697275146484375,-1.0250587945476173,-0.8220663249582052,1.4142647406220434
1745460722128248300,6.707248291015625,-1.0578209542036057,-0.8874474364072084,1.0728840833008289
1745460722138220000,6.717219970703125,-1.1226841792583464,-0.9945470441669225,0.7867161946356296
1745460722148193000,6.727193115234375,-1.057088840536773,-1.091176111316681,0.4951397249251604
1745460722158166300,6.737166259765625,-0.8915227230221032,-1.1380892536610365,0.22159750907719133
1745460722168138000,6.747137939453125,-0.7380828043699265,-1.103264608517289,0.008771919998526573
1745460722178111000,6.757111083984375,-0.6078514734782278,-1.0458967076539993,-0.11852759522497654
1745460722188084200,6.767084228515625,-0.5180523984789848,-0.952695276865363,-0.15034195263683794
1745460722198056200,6.77705615234375,-0.4324564742580056,-0.9096399789929389,-0.23911679915487766
1745460722208029000,6.78702880859375,-0.3254614959165454,-0.8672475289434194,-0.35313130086958405
1745460722218002200,6.797002197265625,-0.2400143325164914,-0.8264987544476985,-0.48162499431371686
1745460722227974100,6.80697412109375,-0.21301877356320617,-0.7970657392144203,-0.5437807139754295
1745460722237947100,6.816947021484375,-0.15550824935883284,-0.8637351369082927,-0.6202203950554133
1745460722247920000,6.826920166015625,-0.00009089315384626388,-0.9214923293501138,-0.7120999295905232
1745460722257892000,6.83689208984375,0.17049802095890043,-0.9843547359764575,-0.8038973388001323
1745460722267865000,6.846864990234375,0.2571124745726585,-1.0515420200645924,-0.9245406110048293
1745460722277837000,6.856837158203125,0.31377368847131726,-1.1580769796788692,-1.0014023168891668
1745460722287810000,6.86681005859375,0.3691499771259725,-1.3157090893238783,-1.0267974549084902
1745460722297783000,6.876782958984375,0.3925158012747764,-1.477241129016876,-0.9891370018169283
1745460722307755000,6.886755126953125,0.4099592496372759,-1.5785972246885298,-0.8667012932375073
1745460722317729500,6.8967294921875,0.38013328956365583,-1.5868214476764202,-0.7918257927343249
1745460722327702500,6.90670263671875,0.4481901960931718,-1.5390835449457168,-0.7619546783447265
1745460722337675500,6.916675537109375,0.6160661979854106,-1.4517173961818217,-0.7814806320697069
1745460722347647500,6.9266474609375,0.8282347844600677,-1.316591717377305,-0.8128782253742217
1745460722357620500,6.936620361328125,0.9846668706655501,-1.1028437527567148,-0.8834612893804907
1745460722367592400,6.946592529296875,1.0840928750574588,-0.9101812462627887,-0.8899842614084482
1745460722377565400,6.9565654296875,1.2718122260607778,-0.757255706873536,-0.9482657699853181
1745460722387538400,6.966538330078125,1.4034592689692973,-0.5997258885592222,-1.0828525196075438
1745460722397511400,6.976511474609375,1.4715386795915661,-0.5271434674292802,-1.1816449022710322
1745460722407483600,6.986483642578125,1.4910427137456834,-0.499256512594223,-1.18610655785501
1745460722417456400,6.996456298828125,1.4827332966923712,-0.4264776921093464,-1.1478814566180109
1745460722427429400,7.006429443359375,1.3620343487776816,-0.2793132004648447,-1.1055430748432875
1745460722437401600,7.016401611328125,1.168451220307499,-0.20331950958669184,-0.988253496980667
1745460722447374600,7.02637451171875,1.052051723152399,-0.27069033354818817,-0.9746882052257656
1745460722457346600,7.0363466796875,1.0035375753521918,-0.41204409308731554,-1.0477718538761138
1745460722467319600,7.046319580078125,0.9853846635460853,-0.5565040019482373,-1.1540858642160892
1745460722477292500,7.05629248046875,0.8903810787063091,-0.7408955237030983,-1.2250260710969567
1745460722487265500,7.066265625,0.7916869687855244,-0.9735884272903204,-1.2299722953274845
1745460722497237500,7.076237548828125,0.8145546341538429,-1.1002478910446167,-1.3068930379226804
1745460722507210500,7.08621044921875,0.9240740164063871,-1.0948907479256391,-1.3552975878685711
1745460722517182500,7.096182373046875,0.9850759629230945,-0.9876485168248414,-1.3020713168546556
1745460722527155500,7.106155517578125,0.9739176592446863,-0.9169909262776375,-1.1122484177008272
1745460722537128400,7.11612841796875,0.9569302840866148,-0.8663011880040168,-0.8433671794012189
1745460722547101400,7.126101318359375,0.968961936533451,-0.7694605239301919,-0.6662894877910613
1745460722557073700,7.13607373046875,0.9351952760100364,-0.6704980453968048,-0.5254945311784744
1745460722567046400,7.14604638671875,0.9565922112386673,-0.5977706628382206,-0.44045331823080774
1745460722577019400,7.156019287109375,0.9205541717171668,-0.4698065462261438,-0.36343759082853794
1745460722586991600,7.16599169921875,0.8460076839726418,-0.3143172938287258,-0.3761892281129956
1745460722596964600,7.175964599609375,0.7182662702005356,-0.23300386923253535,-0.44782180117219683
1745460722606937300,7.185937255859375,0.6153307963829487,-0.20073183118104934,-0.5245943674683571
1745460722616909600,7.19590966796875,0.509463360766694,-0.09374503614604472,-0.6197580382406711
1745460722626882600,7.205882568359375,0.3999181864857673,0.04371463856399059,-0.7150508883506059
1745460722636855300,7.215855224609375,0.35937238721624015,0.11906710892915726,-0.8727437882721424
1745460722646827500,7.22582763671875,0.3560021801307797,0.14974047961235046,-0.9990694900274276
1745460722656800500,7.235800537109375,0.4208240502618253,0.27133798380196095,-0.9503682952225208
1745460722666773500,7.2457734375,0.5711138343200087,0.6426198583900928,-0.37787060532867905
1745460722676745500,7.255745361328125,0.7757226530648768,0.9530109186857938,0.4255360273450613
1745460722686718500,7.265718505859375,1.047894603472948,1.0427613322377205,0.9234364491552114
1745460722696691500,7.27569140625,1.1584136642873286,0.8613876969993114,0.7216501404851675
1745460722706663400,7.285663330078125,1.1231517967700957,0.7880231855809688,0.03200228119939565
1745460722716636400,7.295636474609375,0.9876993702292441,0.8701999490082264,-0.9006938714712858
1745460722726609400,7.305609375,0.8797931222617625,1.19351069663167,-1.955537271168828
1745460722736581600,7.31558154296875,0.8027486071564257,1.792479629343748,-2.8621652088642118
1745460722746554400,7.325554443359375,0.6245522867798805,2.3663000922739506,-3.4185622433066367
1745460722756527400,7.33552734375,0.786436647041887,3.069119275560975,-3.6564772654563185
1745460722766499600,7.34549951171875,1.0855774145267902,3.848191677445173,-3.739881524851918
1745460722776472600,7.35547265625,1.345901252361387,4.54621310506165,-3.7406171456500887
1745460722786445300,7.3654453125,1.6183353608369826,5.09629554952979,-3.725589964649081
1745460722796417500,7.37541748046875,1.8346610669910908,5.431781303593516,-3.7147856620401143
1745460722806390500,7.385390625,1.8764662186719476,5.386562690207362,-3.564889991866052
1745460722816363500,7.395363525390625,1.8466450809039174,4.980654323396086,-3.209822462236881
1745460722826335500,7.40533544921875,1.6428114843152462,4.145341563373804,-2.6398218498557804
1745460722836308500,7.41530859375,1.2668565033495425,2.7794717280864716,-1.9195564417272806
1745460722846281500,7.425281494140625,0.8718566301740706,1.1887263849645853,-1.166559269081056
1745460722856254500,7.43525439453125,0.6314074864368885,-0.33443653727173805,-0.6447554091140627
1745460722866226400,7.445226318359375,0.599839870327711,-1.4972966595739126,-0.2802089802607894
1745460722876199400,7.455199462890625,0.7001765598237514,-2.1962749495238065,-0.08609773626327515
1745460722886172400,7.46517236328125,0.8788893783550709,-2.5712901654213667,-0.02742021410614252
1745460722896144400,7.475144287109375,1.1043068110466003,-2.651107798501849,-0.011224866108596325
1745460722906117400,7.485117431640625,1.3575743006289005,-2.5515561219036575,0.004686404250562191
1745460722916090400,7.49509033203125,1.5995359678208827,-2.4366835420548916,-0.0017307693153619766
1745460722926062600,7.5050625,1.81319625415802,-2.3292530949056145,0.004453180016577243
1745460722936035300,7.515035400390625,1.9902713154196738,-2.161377239143848,-0.15568652853518725
1745460722946008300,7.52500830078125,2.089796688532829,-1.8621166446715591,-0.34022418076246974
1745460722955980500,7.53498046875,1.9880583155453204,-1.5841384922027586,-0.45149230637848375
1745460722965953500,7.54495361328125,1.8049299455940722,-1.4265589895278215,-0.4862643445521593
1745460722975926300,7.55492626953125,1.5702292093157768,-1.4255635487496852,-0.5384630260840058
1745460722985898500,7.5648984375,1.4292729246616362,-1.454545897606015,-0.7039554938405752
1745460722995871500,7.57487158203125,1.3152467325091362,-1.4008248288124798,-0.9432996720105409
1745460723005844500,7.584844482421875,1.1489712976813315,-1.2543249385565518,-1.1552771198272704
1745460723015816400,7.59481640625,0.9177496356904506,-1.1194786612153054,-1.3073890047460794
1745460723025789400,7.60478955078125,0.6456932744860648,-1.0422498755842446,-1.4330553658097982
1745460723035762400,7.614762451171875,0.31617008208855985,-0.9170207368940114,-1.4917486700579523
1745460723045734400,7.624734375,0.004324000678956509,-0.841459007692337,-1.5527914600417017
1745460723055707400,7.634707275390625,-0.28615152205228805,-0.7902905459910631,-1.6730971708551048
1745460723065680400,7.644680419921875,-0.5608255184091627,-0.8398650164991617,-1.678272235405445
1745460723075653600,7.654653564453125,-0.7701581508055328,-0.9117290602266788,-1.5622250588193536
1745460723085625300,7.664625244140625,-0.9026853375494479,-0.9105769675821065,-1.418545778942108
1745460723095598300,7.674598388671875,-1.008753848695755,-0.8532681034296751,-1.2675216892600059
1745460723105571600,7.684571533203125,-1.1235121545150875,-0.7633288893073796,-1.040024308489263
1745460723115543300,7.694543212890625,-1.2797229991853236,-0.659891311186552,-0.7785434095740318
1745460723125516300,7.704516357421875,-1.4106455272115765,-0.6249760651499032,-0.5258347229182719
1745460723135489500,7.714489501953125,-1.4782771940663455,-0.6626058308422565,-0.3474485790580511
1745460723145461500,7.72446142578125,-1.4876841970980166,-0.6487947476327419,-0.17629297097325325
1745460723155434500,7.7344345703125,-1.4629694425582884,-0.5695458543509244,-0.03763853352069855
1745460723165407500,7.744407470703125,-1.4643924610987304,-0.4232254123151302,0.06284720905721188
1745460723175379500,7.75437939453125,-1.5454995494678616,-0.26516601716876026,0.20420330668389797
1745460723185352400,7.7643525390625,-1.6892226684868334,-0.09818389537632465,0.39354397527873514
1745460723195325400,7.774325439453125,-1.8179244517236948,0.04272562752664089,0.5614952343642712
1745460723205298400,7.78429833984375,-1.924436322723329,0.2783832261383533,0.7690227170348167
1745460723215270400,7.7942705078125,-2.085053877919912,0.541457823985815,0.9937503408312797
1745460723225243600,7.80424365234375,-2.235193001461029,0.7033586969912051,1.2069412560909987
1745460723235216400,7.81421630859375,-2.3430621322885155,0.7685936779677868,1.4459095866858958
1745460723245188400,7.824188232421875,-2.4548411300361157,0.8002250800281763,1.6651111405372618
1745460723255161600,7.83416162109375,-2.52708277490437,0.8297510342419147,1.8390362133353948
1745460723265134600,7.844134521484375,-2.5848969582304355,0.8595885386228561,1.99624629817605
1745460723275106300,7.854106201171875,-2.644128899399936,0.975387001144886,2.0799819814831015
1745460723285079600,7.86407958984375,-2.743356458610296,1.046152728241682,2.15341079030931
1745460723295052500,7.874052490234375,-2.7919714364364743,1.0424643951177597,2.2416186505943534
1745460723305024500,7.8840244140625,-2.7848256563350557,1.0856067867517472,2.276125900352001
1745460723314997000,7.8939970703125,-2.699622530823946,1.1102964068502188,2.2944465699404475
1745460723324970000,7.903969970703125,-2.4221251476094126,1.1860644722789526,2.221145771408081
1745460723334942000,7.91394189453125,-2.137933235192299,1.3124819439709186,2.0555700092822313
1745460723344915000,7.9239150390625,-1.8424997977927327,1.321979840156436,1.849636517804861
1745460723354888000,7.933887939453125,-1.525280352781713,1.3412684779942035,1.669599684128165
1745460723364861000,7.94386083984375,-1.2600181817620992,1.4097697672903537,1.5762608906954525
1745460723374833000,7.9538330078125,-1.058045995131135,1.5002543403357267,1.5646107849121094
1745460723384806000,7.963805908203125,-0.9122367174878716,1.5925065075755118,1.5503127949684858
1745460723394779000,7.97377880859375,-0.856481512518227,1.551078518643975,1.5584709669828414
1745460723404751000,7.983751220703125,-0.8195920437991618,1.4522329444885254,1.552570803028345
1745460723414723800,7.993723876953125,-0.8014800485253334,1.4002344617038964,1.511986279183626
1745460723424696800,8.00369677734375,-0.8906824728056788,1.3222890522360802,1.4560633164316414
1745460723434669000,8.0136689453125,-1.0154290886759758,1.2080804892539978,1.3951385998696089
1745460723444642000,8.02364208984375,-1.1093021351158618,1.0345265878558159,1.3304121529370545
1745460723454614800,8.03361474609375,-1.1039756793960929,0.7840987056136131,1.2696598703324795
1745460723464588000,8.043588134765624,-1.0002142761483788,0.6397253059923649,1.110734213745594
1745460723474560000,8.05356005859375,-0.8774246395647525,0.4762421322315931,0.9387211120486258
1745460723484533000,8.063532958984375,-0.6908017054960132,0.3171668380409479,0.80402271874547
1745460723494506000,8.073506103515625,-0.5478104078829288,0.0638654461890459,0.7848305270195007
1745460723504478000,8.08347802734375,-0.5022749836325645,0.036653614136576654,0.8228343867212533
1745460723514451000,8.093450927734375,-0.49641895108073947,0.06834054577648639,0.8210708841800689
1745460723524424200,8.103424072265625,-0.4769841827705502,0.029729952353239057,0.7962649442255496
1745460723534396000,8.11339599609375,-0.45764235344082116,0.04577332465946674,0.7743786911100149
1745460723544369000,8.123368896484376,-0.4530187852934003,0.12565817775726318,0.7488532047092914
1745460723554342100,8.133342041015625,-0.42984307688921686,0.10663958903253078,0.7271691961675882
1745460723564315100,8.143315185546875,-0.3943099912151694,-0.0058031333208084105,0.7229144613325595
1745460723574286800,8.153286865234374,-0.30430677194595335,-0.1012619876474142,0.7197656419128179
1745460723584260000,8.163260009765626,-0.18824907396584747,-0.149756261703372,0.6922311537772416
1745460723594233000,8.173233154296875,-0.06268500423282385,-0.1171259117335081,0.6191752699166536
1745460723604204800,8.183204833984375,0.0864767987087369,-0.057312371283769606,0.5195289007723332
1745460723614178000,8.193177978515624,0.17703297568559645,-0.02890285387933254,0.21966215710043907
1745460723624151000,8.203151123046876,0.07165449263006449,-0.13719371725022791,-0.2878384522259235
1745460723634123000,8.213123046875,-0.37385289411991834,-0.20633330444991588,-0.839385124027729
1745460723644096000,8.223095947265625,-0.8580953774556517,-0.04224456601142883,-1.0975468153923749
1745460723654069000,8.233069091796875,-1.1459271076798438,0.2728209158360958,-0.8044429899841546
1745460723664042000,8.2430419921875,-1.2207099614635109,0.7051198614448309,0.10704641626775264
1745460723674014200,8.25301416015625,-1.005972985805571,1.2639637045174836,1.030324459990859
1745460723683987000,8.262987060546875,-0.6673417733229696,1.7002116800129412,1.753523583483696
1745460723693960000,8.2729599609375,-0.30778146231919523,1.8254034093022344,2.228105673548579
1745460723703932200,8.28293212890625,0.03187485542744398,1.7273486932635307,2.362047111004591
1745460723713905200,8.2929052734375,0.2909308652833104,1.5651637426197529,2.3063374987423417
1745460723723878000,8.3028779296875,0.5403028087317944,1.456997090150416,2.1241426102489234
1745460723733850000,8.31285009765625,0.6878019391581416,1.6389920721575617,1.868321929052472
1745460723743823000,8.322822998046876,0.8966413812100886,2.1728239313095807,1.4902356351464985
1745460723753796000,8.332796142578125,0.8249297515653073,2.395672901752591,1.2033978843957185
1745460723763768800,8.342768798828125,0.7752373537659645,2.180242683133483,0.9855804783791303
1745460723773741000,8.352740966796874,0.9256244607187807,1.8874486543267963,0.7254851886034012
1745460723783714000,8.362714111328126,1.23641007329002,1.8609534461110828,0.4778080663740635
1745460723793686800,8.372686767578125,1.6191886166654526,2.2713550326883793,0.2017354552656412
1745460723803659000,8.382658935546875,1.837842035114765,2.9800451538354156,-0.017259177836775778
1745460723813632000,8.392632080078124,1.8199122645400463,3.662617667907476,-0.13741466652452944
1745460723823605000,8.40260498046875,1.8560544220231472,4.268288144084811,-0.3009481091678142
1745460723833578000,8.412577880859375,1.8671825497590004,4.711301375931501,-0.32732056778669355
1745460723843550000,8.422550048828125,1.7925557633198796,4.9773833389014,-0.21773732651770114
1745460723853523000,8.43252294921875,1.6469349939860403,5.250819171765446,-0.24794132612347602
1745460723863496200,8.44249609375,1.460015415058285,5.504319301059842,-0.489924036103487
1745460723873468000,8.452468017578125,1.3116973694644867,5.558469993442297,-0.805242615929246
1745460723883441000,8.46244091796875,1.0968458275161683,5.390336363527179,-1.0668681840121745
1745460723893414100,8.4724140625,0.5116435543499886,4.844570028692484,-1.2517886980772017
1745460723903387100,8.48238720703125,-0.11922507596984505,4.010815604028106,-1.4097528161555528
1745460723913358800,8.49235888671875,-0.5708744726061821,3.050381841865182,-1.6788362990289925
1745460723923332000,8.50233203125,-0.9940917016148567,1.9303344408512115,-1.9801456427246331
1745460723933305000,8.51230517578125,-1.3564837289132177,0.7613263173133135,-2.236335741755366
1745460723943276800,8.52227685546875,-1.5611080374881625,-0.2581406485766172,-2.3640204569041727
1745460723953250000,8.53225,-1.6155822627365588,-1.1188234121769667,-2.447350482019782
1745460723963223000,8.54222314453125,-1.5279491335995494,-1.7167162400901317,-2.50205413210988
1745460723973196000,8.552196044921875,-1.2476467759668826,-2.0833283693015576,-3.1133418636471033
1745460723983168000,8.56216796875,-1.2335220967635512,-2.480709730786085,-2.870390016373992
1745460723993141000,8.57214111328125,-0.9805354699492453,-2.8609499878555535,-2.5466128202825784
1745460724003114000,8.582114013671875,-0.7961401488021016,-2.8536352809280157,-2.096207140097022
1745460724013086200,8.592086181640624,-0.593222059623152,-2.5559581562548876,-1.6791399581506847
1745460724023059000,8.602058837890626,-0.40086394290328026,-2.4427631542295214,-1.4385133389547466
1745460724033032000,8.612031982421875,-0.20532588097304105,-2.359275308203697,-1.1347598169773816
1745460724043005000,8.6220048828125,-0.05210691159516573,-2.1389596556305883,-0.7913345020860433
1745460724052977200,8.63197705078125,0.12177695240974426,-1.8323463603079317,-0.44878655455112454
1745460724062950000,8.641949951171876,0.3011044687733054,-1.4133131389856337,-0.12513736875355244
1745460724072923000,8.6519228515625,0.4223147272109985,-0.8139648515671492,0.20531623636186122
1745460724082895000,8.66189501953125,0.435911583147943,-0.17531097419857977,0.562998624664545
1745460724092868000,8.6718681640625,0.3502691894367337,0.304922858017683,0.9356985493570565
1745460724102840800,8.6818408203125,0.2041469003215432,0.5513479343593121,1.2097101362824438
1745460724112813800,8.691813720703125,0.03042787148952484,0.5882850416123867,1.411968154117465
1745460724122786000,8.7017861328125,-0.17297215598747134,0.49084758068919176,1.545987332984805
1745460724132759000,8.711759033203125,-0.40788025140613315,0.34242695150375363,1.6362398508399725
1745460724142732000,8.72173193359375,-0.6617680648438632,0.15367957262694834,1.7149503994613884
1745460724152704000,8.7317041015625,-0.933028014973551,-0.07553074954152107,1.698304385086894
1745460724162677000,8.741677001953125,-1.128259349042177,-0.2952244708240032,1.6232517744511366
1745460724172650000,8.75164990234375,-1.3087336973533032,-0.40382220818698406,1.5415864676773547
1745460724182623000,8.761623046875,-1.4844938766241074,-0.5528793817102908,1.3556594069182872
1745460724192595000,8.771594970703125,-1.5858165084175764,-0.6901590236783027,1.256549628868699
1745460724202568000,8.78156787109375,-1.546503758074343,-0.638134237408638,1.3940905521214007
1745460724212541000,8.791541015625,-1.5380013026669621,-0.5180220033407211,1.623975997072458
1745460724222513000,8.801512939453126,-1.551334539231658,-0.7201859131515026,1.6364841809898614
1745460724232486000,8.81148583984375,-1.4292553890049458,-0.8609826233297586,1.6066852550536392
1745460724242459100,8.821459228515625,-1.2596189533114432,-0.8532020524561404,1.539795492607355
1745460724252432000,8.831431884765625,-1.1355039133429528,-0.8319003212302922,1.4235557160586119
1745460724262403800,8.84140380859375,-1.0151125700727104,-0.7228536710560322,1.3817927960842846
1745460724272377000,8.851377197265625,-0.9394602399781345,-0.4369581695914268,1.4769237336307763
1745460724282350000,8.86135009765625,-1.013632560648024,-0.11129355231821536,1.6387018570393324
1745460724292322000,8.871322021484374,-1.1681357246175408,0.004935702836513519,1.82427411301136
1745460724302295000,8.881294921875,-1.2529346532419323,-0.042291912284493444,1.9686831684678792
1745460724312267000,8.89126708984375,-1.2694810066342352,-0.08283435055315494,2.003598414504528
1745460724322240000,8.901239990234375,-1.231028818643093,-0.11551906105875968,1.9049808038860558
1745460724332212200,8.911212158203124,-1.2240028655290602,-0.14365268413126467,1.7103858680248258
1745460724342185000,8.92118505859375,-1.1802432187795637,-0.18020108432769774,1.5224474674433468
1745460724352158000,8.931157958984375,-1.1313432865321635,-0.2186187855273485,1.3325100019991396
1745460724362131200,8.941131103515625,-1.0062670003160834,-0.2385486438781023,1.1580115132272242
1745460724372103200,8.951103271484374,-0.8593886321365832,-0.220423204600811,0.9595949732512236
1745460724382076000,8.961075927734376,-0.7759811578705906,-0.19100538693666458,0.7623363711386919
1745460724392049200,8.971049072265625,-0.7510241190075874,-0.11554068836867809,0.6399398255258798
1745460724402021000,8.981021240234375,-0.7457540696501731,-0.006397592082619667,0.5174491718888282
1745460724411994000,8.990994140625,-0.6862856893762945,-0.008995207360386849,0.34941900234818457
1745460724421967000,9.000967041015626,-0.6302104586720466,-0.05368132130503654,0.1699035621970892
1745460724431940000,9.010940185546875,-0.5847942768871783,-0.1030354270607233,-0.03729483464956283
1745460724441912000,9.020912109375,-0.5270528665363788,-0.12469663924872874,-0.23984774377793072
1745460724451885300,9.03088525390625,-0.5054954069837928,-0.09468670091032981,-0.4426327080965042
1745460724461858000,9.040858154296876,-0.5036931798674166,-0.07367138541042804,-0.6121960785537958
1745460724471831000,9.0508310546875,-0.4676034832239151,-0.07739303628206252,-0.7341936879768968
1745460724481803300,9.06080322265625,-0.4150876985669136,-0.11747370225787163,-0.77738108779639
1745460724491776000,9.07077587890625,-0.3906372940517962,-0.11298925032019615,-0.7989850168392062
1745460724501749000,9.0807490234375,-0.42632732385322447,-0.17993454234600065,-0.7204714520946145
1745460724511721200,9.09072119140625,-0.4334500153400004,-0.36790567615330216,-0.6585378507509827
1745460724521694200,9.100694091796875,-0.3801134158194065,-0.6391892994195223,-0.6938096551403403
1745460724531667000,9.1106669921875,-0.2641641466498375,-0.8637889129221439,-0.7680491958275437
1745460724541640000,9.120639892578126,-0.11232406440973282,-0.9708458505839109,-0.8246224391818046
1745460724551612200,9.130612060546875,0.08578180218189954,-0.9374982922554016,-0.97502518209517
1745460724561585200,9.140585205078125,0.2363147473461926,-0.8815922806382179,-1.101916408778727
1745460724571558000,9.150557861328124,0.34007483541965483,-0.9011024522721767,-1.1858914537996053
1745460724581531100,9.16053125,0.43752749391198154,-0.9365005133897065,-1.3150535480245946
1745460724591503000,9.170503173828125,0.5137853886842727,-0.9096563456058502,-1.4789195836231113
1745460724601476000,9.18047607421875,0.6090449210464954,-0.9091133247703314,-1.6045698703348636
1745460724611449000,9.190448974609374,0.7315862819574773,-0.933325390484929,-1.719289305448532
1745460724621421000,9.200421142578126,0.8534729783520102,-1.018213166436553,-1.798328355371952
1745460724631394000,9.21039404296875,0.9677391167402267,-1.0890151338905096,-1.8791525351464746
1745460724641367300,9.2203671875,1.1632722102344035,-1.1010060159355401,-1.9232856913834808
1745460724651340000,9.230340087890625,1.3574598804689944,-1.0667448498934506,-1.9464044089034198
1745460724661312000,9.24031201171875,1.4772446361482143,-1.003846787431836,-2.003844790481031
1745460724671285200,9.25028515625,1.5654104108572005,-0.9246241976350545,-2.0484040631756186
1745460724681258200,9.26025830078125,1.6225450874865055,-0.872144068813324,-2.102757000131905
1745460724691231000,9.27023095703125,1.6020330453336238,-0.8691752821356058,-2.2499857891842723
1745460724701203200,9.280203125,1.5824701205991207,-0.8983803338319063,-2.411272037422657
1745460724711176200,9.29017626953125,1.5515141335822642,-0.965910732269287,-2.5059108075380325
1745460724721149200,9.300149169921875,1.5313633259572088,-1.0618781206399202,-2.585301447378099
1745460724731121200,9.31012109375,1.525876857370138,-1.058171082815528,-2.6400585812211035
1745460724741094100,9.32009423828125,1.5318321125127374,-1.0164327127605677,-2.712470614220202
1745460724751067100,9.330067138671875,1.5426165413774549,-0.9708920278131962,-2.7906036552146074
1745460724761040100,9.3400400390625,1.5196984609961508,-0.8955617692798375,-2.7872929232314227
1745460724771012000,9.35001220703125,1.416158591544628,-0.7580266912460327,-2.720465120105445
1745460724780985000,9.359985107421876,1.3123416587173937,-0.6979115375012159,-2.6702061744645236
1745460724790958000,9.3699580078125,1.1864753911674022,-0.6674152769505978,-2.651787012937665
1745460724800931300,9.379931396484375,1.1731788333512843,-0.5859983919799328,-2.7004399846866725
1745460724810903000,9.389903076171874,1.1652154532566665,-0.5435328766942024,-2.748936889091134
1745460724820876000,9.3998759765625,1.1203940224945546,-0.5653220991760493,-2.6970985653042794
1745460724830849300,9.409849365234376,1.0958557205002755,-0.5492097532868385,-2.634701145841181
1745460724840822300,9.419822265625,1.1297696074746548,-0.4024871601909399,-2.5535908426016567
1745460724850794000,9.4297939453125,1.1413804772261529,-0.10765665712058543,-2.4087232297226784
1745460724860767200,9.439767333984374,1.2316681394599378,0.15694763451218605,-2.199257764726877
1745460724870740200,9.449740234375,1.3413527952767907,0.42158290580511093,-1.9511118559420109
1745460724880713200,9.459713134765625,1.373174020820856,0.7348077282220125,-1.7330220627248287
1745460724890685200,9.469685302734375,1.3350902277506886,0.8510200322419404,-1.8949153369456528
1745460724900658200,9.479658203125,1.4789995169915258,1.021961705315113,-1.9033938269555568
1745460724910631200,9.489631103515626,1.5818892519712446,1.3675035739690065,-1.7594781079739332
1745460724920603100,9.49960302734375,1.6046176549993454,1.6163427257150411,-1.9310034261539577
1745460724930576100,9.509576171875,1.6722645194232464,1.984099348786473,-2.1971163687840103
1745460724940549000,9.519549072265624,1.826238106560707,2.593205644631386,-2.4198244694516062
1745460724950522000,9.529522216796876,1.9481028833843768,3.3566572835355997,-2.5881878164693712
1745460724960494000,9.539494140625,1.9522810458518562,4.2878585214734075,-2.641476923586428
1745460724970467000,9.549467041015625,1.730861669820547,4.994973940649628,-2.496985158282518
1745460724980440000,9.559440185546874,1.4317581656061111,5.291961329492926,-2.4284099269673227
1745460724990413300,9.569413330078126,1.1535013423264027,5.634470114061236,-2.877388789220154
1745460725000385000,9.579385009765625,0.4997755680322647,5.562114487424492,-3.3684181562170386
1745460725010358000,9.58935791015625,-0.21733210671767592,4.823628362950682,-3.7918820534631608
1745460725020331300,9.599331298828124,-0.8954944031320512,3.6096371883481737,-3.9645650172457096
1745460725030304300,9.60930419921875,-1.1859915531732141,2.0969033056676385,-3.7377898132696745
1745460725040276000,9.61927587890625,-1.1090906843222677,0.6133142689287662,-3.2320220190852877
1745460725050249200,9.629249267578125,-1.0524293242931366,-0.4758253681242466,-2.776819752272963
1745460725060222200,9.63922216796875,-0.8242097667276859,-1.2710615538239478,-2.3421090693473814
1745460725070195200,9.6491953125,-0.7007469070576131,-1.3919050247758626,-1.9976628869757056
1745460725080167200,9.659167236328125,-0.7412403916180134,-1.6808230889320372,-1.889786449624598
1745460725090140200,9.66914013671875,-0.6950351052820682,-1.897863665357232,-1.267823594816029
1745460725100113200,9.679113037109374,-0.5075380187273025,-1.9882395173311231,-0.48653234783858057
1745460725110085000,9.689085205078126,-0.10228088236637413,-1.8664087889075278,0.12659370504170656
1745460725120058000,9.69905810546875,0.24436872833371162,-1.6705840189903973,0.30115356861203907
1745460725130031000,9.709031005859375,0.34124972441792484,-1.2515168953984974,0.019308511582016945
1745460725140004000,9.719004150390624,0.10173358721453696,-0.6496686078578233,-0.40376083338856694
1745460725149976000,9.72897607421875,-0.31502109471652656,-0.338494872751832,-0.694794866785407
1745460725159949000,9.738948974609375,-0.5861152963578701,-0.06304243936836719,-0.6826794815778732
1745460725169922000,9.748922119140625,-0.9648469024300574,0.19352409175932406,-0.41355040599703785
1745460725179895000,9.75889501953125,-1.4115256710469721,0.5937485677152872,0.1786000788718462
1745460725189867000,9.768866943359376,-1.6963362998843192,0.8314730357289314,0.9548474864631891
1745460725199840000,9.778840087890625,-1.8321768489599226,0.7739519901305436,1.646675320136547
1745460725209813000,9.78881298828125,-1.910295861428976,0.4764683422029018,2.1084382606387138
1745460725219786200,9.7987861328125,-1.7468401601970194,0.03367489058673381,2.558226685708761
1745460725229758000,9.808758056640626,-1.5147826319038866,-0.39482816987037656,2.8809371293514965
1745460725239731200,9.818731201171875,-1.3182605273723602,-0.5293956302702426,2.907447535136342
1745460725249704200,9.8287041015625,-1.201339782822132,-0.29534429781138893,2.4585586892545224
1745460725259677200,9.83867724609375,-1.5079121616125106,0.19582886157035825,2.243999408251047
1745460725269649200,9.848649169921876,-1.8408254348397255,0.7841308543175458,2.6141870578616855
1745460725279622100,9.8586220703125,-1.8877356545746324,0.1633504872918129,3.0062299809277055
1745460725289595100,9.86859521484375,-1.6197908203423022,-0.9488625668346882,3.1673814968705174
1745460725299568000,9.878568115234375,-1.2630536039352416,-1.7214987981915473,3.2533179050922394
1745460725309540000,9.8885400390625,-1.0090940404355526,-1.9897125124931334,3.2769226525634525
1745460725319513600,9.898513671875,-1.0616717844128607,-1.6759271335840225,2.9261797081351277
1745460725329486600,9.908486572265625,-0.890771612393856,-1.0254892949193715,2.5371792215049265
1745460725339459600,9.91845947265625,-0.9386287575900554,-0.13853402594327927,2.004989576601982
1745460725349431800,9.928431884765626,-1.3887392542213202,0.24429215596616266,1.9538059173315763
1745460725359404500,9.938404541015625,-1.6474275998085737,0.2420171967715025,2.181536230075359
1745460725369377500,9.94837744140625,-1.8308897317588329,-0.15377601873874663,2.3254005111306904
1745460725379350800,9.958350830078125,-1.2369289825975893,-0.47640462931692595,2.3095254811286923
1745460725389322800,9.96832275390625,-0.41851767301559445,-0.24508242956101892,2.3521429721057414
1745460725399295500,9.97829541015625,-0.1818482852791436,0.015002923342585562,2.0745564493030306
1745460725409268700,9.988268798828125,-0.0057733592370525,-0.1868652183920145,1.8617454732716083
1745460725419241700,9.99824169921875,0.20633973419070242,-0.3921376156121492,1.7118097633481024
1745460725429213700,10.008213623046874,0.03686174046192318,-0.5083399827599525,1.7051567351996897
1745460725439186700,10.018186767578126,0.02249415588080883,-0.37865970987975595,1.7531091574639082
1745460725449159700,10.02815966796875,0.5574416115919127,-0.19199556701779363,1.7550234666526316
1745460725459132700,10.038132568359375,-0.26208153168950227,-0.39484102935194965,1.4966291355758905
1745460725469104600,10.048104736328124,-1.1147779361784458,-0.35961890932321544,1.211069734197855
1745460725479077600,10.05807763671875,-1.2338403689324855,0.2586567814052105,1.0669921026527882
1745460725489050600,10.068050537109375,-1.0457575914442538,0.7877379388988017,1.3362789991438389
1745460725499023600,10.078023681640625,-0.6696808837950229,0.9067132778912782,1.6015058065891266
1745460725508995600,10.08799560546875,-0.5577443208655342,0.6380471436470747,1.9399340438455341
1745460725518968600,10.097968505859376,-0.5740945671638473,0.413074605178833,1.8705752609372137
1745460725528941600,10.107941650390625,-0.618922756460309,0.6489595828056335,1.588890070644021
1745460725538914600,10.11791455078125,-1.2156471251159906,0.47124797720611095,1.1610831757575273
1745460725548886500,10.127886474609374,-1.5263701938450336,0.44915071168839926,0.7477911284357309
1745460725558859500,10.137859619140626,-1.5809522633820772,0.8116279330521822,0.7095347552776337
1745460725568832500,10.14783251953125,-1.2855349003344774,1.137271507537365,0.987654946565628
1745460725578805800,10.1578056640625,-0.9380413130909204,1.423866681703925,1.2575555910408496
1745460725588777500,10.167777587890624,-0.7520920405000447,1.6228858637481927,1.6092162348359822
1745460725598750500,10.17775048828125,-0.37789457072615623,1.5022826312929392,1.9078221647918223
1745460725608723700,10.1877236328125,0.029053094271291047,1.5541723930060862,2.3604624721616507
1745460725618696700,10.19769677734375,0.25620591765437273,1.3715601558834314,2.554445998126268
1745460725628668700,10.207668701171874,1.258224284082651,1.1939561023116112,3.099441933110356
1745460725638641700,10.2176416015625,2.003863202920556,0.20411679744422434,3.253063053548336
1745460725648614700,10.22761474609375,2.340373623856902,-1.454439514622092,0.8312620233267545
1745460725658587600,10.237587646484375,1.0251467650920152,-1.5616051733553409,1.2733242380589247
1745460725668559600,10.2475595703125,0.4241279141128063,-0.4441887053668499,2.015751209113002
1745460725678532600,10.25753271484375,0.8452887951135635,0.8398843057215213,1.4286866492062806
1745460725688505600,10.267505615234375,0.08227496310472487,2.0313807399213313,1.4857839164346456
1745460725698478600,10.277478515625,-2.0476152508854866,1.938082278499007,1.9698814383417367
1745460725708450600,10.287450439453124,-3.0667104608535767,1.6988965057611465,2.195084278434515
1745460725718423600,10.297423583984376,-2.6983231386631727,1.880806147572398,2.140663536939025
1745460725728396500,10.307396484375,-2.2295646401852367,2.105332111316919,2.7072423581779
1745460725738369800,10.317369873046875,-2.314078906649351,2.03138307800889,3.0994939555585383
1745460725748341500,10.327341552734374,-2.249339015713334,1.5215858821779489,3.14085647803843
1745460725758314500,10.337314453125,-0.7648661818772554,-0.9416793773323296,2.3235241958647963
1745460725768287700,10.347287841796875,3.186875301891565,-0.7563947061300277,-1.09826460827291
1745460725778260700,10.3572607421875,3.6655566439688205,0.23886720830798147,0.5501169312596321
1745460725788232400,10.367232421875,1.3033698322325944,-0.7953852387815713,3.6578573216378687
1745460725798205700,10.377205810546876,1.3571516913026571,-0.9166483964502811,2.1566677462786434
1745460725808178700,10.3871787109375,1.1264414859652518,-0.8098223449349403,0.5132651642024517
1745460725818151700,10.397151611328125,0.04712298570275306,0.9384966556429862,0.921234555196762
1745460725828123600,10.40712353515625,0.5207376920402049,2.149297509771585,1.7651263429939745
1745460725838096600,10.4170966796875,0.7467009951114654,1.9547621951431036,1.7827017471730708
1745460725848069600,10.427069580078125,0.6690431704133749,1.1738801134884356,2.131561946594715
1745460725858042600,10.437042724609375,0.7881061876893043,1.3358224875479936,2.5252251643389463
1745460725868014600,10.4470146484375,0.8002303407251834,1.6910037066847086,2.5219179394870994
1745460725877987600,10.456987548828126,0.565326190829277,1.363410751697421,2.2018407669574023
1745460725887960600,10.466960693359376,0.3268880215883255,1.2281395269423723,1.3906161540091038
1745460725897933800,10.476933837890625,0.013082147880457341,1.4506488901674746,0.0675689768821001
1745460725907905500,10.486905517578125,-0.3418121075410396,1.9050415941625833,-0.7275707627058029
1745460725917878500,10.49687841796875,-0.6364455536693334,1.7330787613481282,-0.5193664036870003
1745460725927851800,10.506851806640626,-0.2593745742857456,1.4453899467259645,-0.06736439422070979
1745460725937824800,10.51682470703125,0.10415654004514217,1.124786704495549,-0.3224737122774124
1745460725947797500,10.526797607421875,0.4078407961785793,1.1954396188676357,-0.5524772306501865
1745460725957769700,10.536769775390624,0.2632506120014936,1.2201479436665772,-0.7752151419341564
1745460725967742700,10.54674267578125,-0.46063181758038696,1.2521440873861311,-1.0692068560928105
1745460725977715700,10.5567158203125,-0.6618073739409447,1.3154641746520996,-1.2468395512372255
1745460725987688400,10.5666884765625,-0.8443325173020363,1.6896218969374894,-1.619891942629218
1745460725997660700,10.57666064453125,-1.205800780818984,1.9974264478713273,-2.1038398269325493
1745460726007633700,10.586633544921876,-1.5001970571905374,2.152752618661523,-2.2829802962914107
1745460726017606700,10.596606689453125,-1.3170493980169296,2.4030852238357068,-2.1594237669885157
1745460726027579600,10.60657958984375,-0.35813130111396313,3.083881960406899,-1.5489385840058325
1745460726037551600,10.616551513671874,-0.21136852213814852,3.2378140464901923,-0.7572542455688118
1745460726047524600,10.626524658203126,0.11301146215200424,3.3614544546842575,-0.24442484243512153
1745460726057497900,10.636497802734375,0.8838060111649334,3.5283442220181223,-0.10415098708719014
1745460726067470600,10.646470703125,1.2193066705368458,3.379191186904907,-0.2634910696938634
1745460726077442600,10.656442626953124,1.379852037280053,3.1719810996204614,-0.6204489431142807
1745460726087415800,10.666415771484376,1.251567018150538,3.061172115948796,-1.1335679768443108
1745460726097388800,10.676388916015625,1.0604399045303463,2.8920354464709757,-1.506960559976101
1745460726107361500,10.686361572265625,1.0299024351865051,2.917271594536304,-1.7135075071766972
1745460726117334500,10.69633447265625,0.7704499733589589,3.224808434444666,-2.0355811142206193
1745460726127306800,10.706306640625,0.5094506474155932,3.7826884009212254,-2.106973741044104
1745460726137279700,10.71627978515625,-0.043801659260317684,3.9308179382055997,-2.029611099900305
1745460726147252500,10.72625244140625,-0.9596434155028313,3.580802723529935,-2.1622022917911408
1745460726157225700,10.736225830078125,-1.569413801279664,2.971375525167584,-2.28241243327558
1745460726167197700,10.74619775390625,-1.956892777431011,2.0013246243536473,-2.2901216924786567
1745460726177170700,10.756170654296875,-2.0080466260850427,1.039968486648798,-2.4753674929752942
1745460726187143700,10.766143798828125,-1.8188865747541187,0.22746552432775496,-2.5748952041760087
1745460726197116700,10.77611669921875,-1.3782073388129472,-0.36715573456883427,-2.534877666564286
1745460726207088600,10.786088623046876,-0.976776409676671,-0.556512185254693,-2.570828100867569
1745460726217061600,10.7960615234375,-0.9252788621515035,-0.6056032561600208,-2.4979171784356233
1745460726227034600,10.80603466796875,-1.0772867021739483,-0.6927753436565399,-2.4384537665978074
1745460726237007600,10.816007568359375,-1.346771167063713,-0.8646452374905347,-2.4163497790783643
1745460726246979800,10.825979736328126,-1.6742355272352694,-1.25386199721992,-2.497655312629044
1745460726256952800,10.835952880859375,-1.7300608748316764,-1.5623931088626384,-2.536421388874948
1745460726266925600,10.845925537109375,-1.6011995171189308,-1.7669243323266506,-2.447415656210482
1745460726276898600,10.855898681640625,-1.5040800361037254,-2.129262437480688,-2.2374951409235595
1745460726286871600,10.86587158203125,-1.1061153217732906,-2.426170915868878,-1.850005935639143
1745460726296843800,10.87584375,-0.4400783474385738,-2.5079823531150818,-1.3597788249358533
1745460726306816500,10.88581640625,0.012242226457595824,-2.3433692985415457,-1.174882860790193
1745460726316789500,10.89578955078125,0.1389893684953451,-2.196089071562886,-0.844038210530579
1745460726326762800,10.9057626953125,0.1819277619898319,-2.144367067632079,-0.41600422888994215
1745460726336734700,10.915734619140625,0.36318916902542114,-2.2477917862713337,0.06489537375867366
1745460726346707700,10.925707763671875,0.5469698654055595,-2.530778706812858,0.474297135643661
1745460726356680700,10.9356806640625,0.7227391047656536,-2.8055408198446035,0.774930479773879
1745460726366653700,10.94565380859375,1.0616969188541174,-2.9120477224081753,0.9529141803130506
1745460726376626700,10.955626708984376,1.6016683036744594,-2.716366160354018,1.0888976449906826
1745460726386599000,10.965598876953125,2.130382965943217,-2.295297633811831,1.0685343636587261
1745460726396571600,10.975571533203125,2.779155501744151,-1.7102976052194834,0.5949728488132358
1745460726406544600,10.985544677734374,2.938877861666679,-1.3964070123702288,-0.2018143657207489
1745460726416517600,10.995517578125,2.7634207569956777,-1.6674100651293993,-0.4394526167556643
1745460726426489900,11.00548974609375,2.6082231810212133,-1.6617168219238518,0.12794453512877224
1745460726436462600,11.015462646484375,2.336415826141834,-1.1344336537629365,1.1015963830441236
1745460726446435600,11.025435546875,1.6401637462854384,-0.6227864461511373,1.8266496099710463
1745460726456408800,11.035408935546876,0.8080896759234368,0.04703530741930008,2.458231356996298
1745460726466380800,11.045380859375,-0.2863933679841459,0.6811836900621652,3.222702986598015
1745460726476353500,11.055353515625,-1.6236426734648643,0.697896339932084,3.575749531793594
1745460726486326800,11.065326904296874,-2.8343361216962335,0.5573614955604076,3.274453047579527
1745460726496299800,11.0752998046875,-3.5507097830832004,0.547580690780282,2.751374345371127
1745460726506272800,11.085272705078125,-3.6828526466846463,0.7779530424654484,2.224278808736801
1745460726516244700,11.09524462890625,-3.337344095778465,0.8499082716077566,1.6632418395340443
1745460726526217700,11.1052177734375,-2.844945193994045,0.8249690606623887,1.3150912496864795
1745460726536190700,11.115190673828126,-2.390208206605911,0.6512649371385574,1.223503683835268
1745460726546163700,11.125163818359376,-1.9602667839087544,0.3344774538040161,0.9706295774847269
1745460726556135700,11.1351357421875,-1.6316029848195612,-0.03744564129710197,0.9064835607886313
1745460726566108700,11.145108642578125,-1.3275133627556264,-0.38232115499675273,1.0736024607032537
1745460726576081700,11.15508154296875,-0.958232452726364,-0.6766378633260727,1.1736264309883118
1745460726586055000,11.165054931640626,-0.6489443852365017,-0.6791507229298352,1.2280647081404923
1745460726596028000,11.17502783203125,-0.46207171419039367,-0.41925417059659953,1.3090958086639641
1745460726605999600,11.18499951171875,-0.37601942450404163,-0.03853285201191902,1.2855939370453358
1745460726615972900,11.194972900390624,-0.35899580898880956,0.45950610148608684,1.183710018107295
1745460726625945900,11.20494580078125,-0.5142766793325543,0.5287994179427623,1.0483306568026542
1745460726635918600,11.214918701171875,-0.5793243210434913,0.375345470765233,1.1223737981349229
1745460726645890800,11.224890869140625,-0.44658992128968233,0.2328402031034231,1.278508362698555
1745460726655863800,11.23486376953125,-0.11554024997726083,0.11846271329522132,1.4328794247210026
1745460726665836800,11.2448369140625,0.30312355351075526,-0.06615852556228638,1.5807055951446294
1745460726675809500,11.2548095703125,0.7391418119035661,-0.15162264009714127,1.6768746435672044
1745460726685782800,11.26478271484375,0.9523707210861145,0.09206161310374736,1.498854994931817
1745460726695754800,11.274754638671874,0.851889070161432,0.30805355725884437,1.162260402843356
1745460726705727700,11.284727783203126,0.6290871537305415,0.45339317156374453,0.7790420067459345
1745460726715700700,11.29470068359375,0.36206469504013655,0.44296997722685333,0.533123126360774
1745460726725673700,11.304673828125,0.08931275278702377,0.3017641017258167,0.33806408011913297
1745460726735645700,11.314645751953124,-0.14602525848150252,0.28895605807900426,0.1393032567501068
1745460726745619000,11.324618896484376,-0.1082302192248404,0.3824076642364263,-0.2038181067585945
1745460726755591700,11.334591796875,-0.27232641031742094,0.356534971833229,-0.643447541385889
1745460726765564700,11.344564697265625,-0.40951150586977597,0.21329788276553152,-0.8480529991298913
1745460726775537700,11.35453759765625,-0.470100852997601,-0.1261848319798708,-0.6821446440488099
1745460726785510000,11.364510009765626,-0.38933614832535385,-0.46834056532680984,-0.5867863274872303
1745460726795482600,11.374482666015625,0.012649053692817687,-0.5746686041921377,-0.5689186623632908
1745460726805455600,11.38445556640625,0.523340129623562,-0.6416039593458175,-0.46335693169534203
1745460726815428600,11.3944287109375,0.9115383599601685,-0.8150304349720477,-0.2897486697614193
1745460726825400800,11.40440087890625,1.1820002185147256,-1.0232909080922603,-0.1324503221154213
1745460726835373600,11.41437353515625,1.457636264836788,-1.130876253542304,0.027716274443268775
1745460726845346800,11.424346923828125,1.6994878957830368,-1.0612181954264641,0.09349953695237637
1745460726855319800,11.43431982421875,1.8457587995886802,-0.9772299986630678,0.0825140325576067
1745460726865292800,11.444292724609374,1.9497920055150983,-0.8035948487222194,0.17353402765393255
1745460726875264800,11.4542646484375,1.8441406968675553,-0.7112216854512691,0.15248130275309085
1745460726885237800,11.46423779296875,1.8019851243138312,-0.6003723697692156,-0.04220891017615795
1745460726895210800,11.474210693359375,1.790170767879486,-0.3080389442116022,-0.22573124788105486
1745460726905183700,11.484183837890624,1.6218822396636008,-0.19951719469428061,-0.406021179535985
1745460726915156700,11.49415673828125,1.522152283889055,-0.1876058076262474,-0.46460722401738164
1745460726925128700,11.504128662109375,1.4399275896668433,-0.17256138322949408,-0.44682665265500543
1745460726935101700,11.514101806640625,1.3667594776034355,-0.22666531386077401,-0.3872279239997268
1745460726945074700,11.52407470703125,1.3075567625284195,-0.33257951122820373,-0.3252259335950017
1745460726955048000,11.5340478515625,1.2107272043704986,-0.506731378519535,-0.26516630942970515
1745460726965019600,11.54401953125,1.0900433809597045,-0.6412853949159384,-0.3394555344775319
1745460726974992600,11.55399267578125,0.9062007252592593,-0.7157242575675249,-0.6128399294152855
1745460726984966000,11.5639658203125,0.7323205875813961,-0.7697229742586612,-0.9246163065895437
1745460726994939000,11.57393896484375,0.6260861452836542,-0.6280541574209928,-1.2414064202725887
1745460727004911600,11.58391162109375,0.4716379263717681,-0.5509679951310158,-1.3963517750516532
1745460727014883800,11.5938837890625,0.2567733788114041,-0.5554542006343602,-1.6173118630081413
1745460727024856800,11.60385693359375,0.08857486696653068,-0.6891705971628427,-1.7211659129753707
1745460727034829600,11.61382958984375,0.07310856389589607,-0.9182862267851829,-1.6434870454892516
1745460727044802600,11.623802490234375,0.2523088736832142,-1.0138029487788676,-1.5552204407542942
1745460727054775800,11.63377587890625,0.5675216185143217,-0.9907219329208135,-1.5682713532462715
1745460727064747800,11.643747802734374,0.8686018661618232,-0.8821972607940435,-1.6404600988835096
1745460727074720500,11.653720458984376,0.9901392376620322,-0.8762146792531013,-1.7625243438020348
1745460727084693800,11.66369384765625,0.9749287359833717,-0.9547136309504508,-1.9369182031556962
1745460727094666800,11.673666748046875,0.8350842119634151,-1.0014315429836511,-2.0629364463970066
1745460727104638700,11.683638671875,0.6685550946354866,-0.9489736259937286,-2.1453373739689585
1745460727114611700,11.69361181640625,0.5359749721279368,-0.8626853355944156,-2.1268296573758123
1745460727124584700,11.703584716796875,0.4441021961271763,-0.7442080092519521,-1.9981956786781547
1745460727134557700,11.7135576171875,0.43706572161912915,-0.5006821614831686,-1.8999875256434082
1745460727144530700,11.72353076171875,0.3332651554048061,-0.3048293345153332,-1.7678022842049597
1745460727154502700,11.733502685546876,0.28141229163594544,-0.22028993360996246,-1.6770990999728441
1745460727164475600,11.7434755859375,0.337923721800372,-0.08362462414801121,-1.6489242681071161
1745460727174448600,11.75344873046875,0.5055939719874412,0.15891571971476076,-1.7134861721277237
1745460727184422000,11.763421875,0.6709948890030384,0.5133692090988159,-1.90230603171885
1745460727194395000,11.773394775390624,0.7092389872014522,0.9751970315307378,-2.1935502007350323
1745460727204366600,11.78336669921875,0.737471321408078,1.4849287609100341,-2.5480454834342003
1745460727214339800,11.79333984375,0.668535147826001,1.9066192187428472,-2.8866689510017634
1745460727224312800,11.803312744140625,0.6516987985111773,2.3701643664866685,-3.268493554653227
1745460727234285800,11.813285888671874,0.6229015969634055,2.90090498162508,-3.620424247561395
1745460727244258600,11.823258544921876,0.4734533782958984,3.410743093988299,-3.7284234345093368
1745460727254230800,11.833230712890625,0.3474737134993076,3.7553415443122384,-3.6496217004731295
1745460727264203800,11.843203857421875,0.34836920103430746,3.9589831254601475,-3.5104534682795405
1745460727274176800,11.8531767578125,0.2899041525840759,4.206840280431509,-3.320374548538029
1745460727284149800,11.863149658203126,0.014624737679958342,4.343528386247158,-2.9225565492019054
1745460727294122800,11.873122802734375,-0.4835879649497568,3.9032536394536494,-2.5913278680607674
1745460727304094700,11.8830947265625,-0.8562054720558225,2.9780110176593064,-2.311367309603095
1745460727314068000,11.89306787109375,-1.3413305834449827,2.107490750655532,-2.433966976572573
1745460727324041000,11.903041015625,-1.5464907524622975,1.7793576974421739,-2.4195044437170026
1745460727334014000,11.913013916015625,-1.5691443366885185,1.177609363144636,-2.3760464102625845
1745460727343986700,11.922986572265625,-1.8120270642481744,0.07151333059370517,-2.57605811047554
1745460727353959000,11.932958984375,-1.9285878894448278,-0.9054314213871956,-2.6560847101315854
1745460727363932000,11.942931884765626,-1.5993290470719337,-1.5441794067800043,-2.3474524762019513
1745460727373905000,11.95290478515625,-1.271884706775099,-1.9734107815116644,-1.952461809246242
1745460727383877600,11.962877685546875,-0.8497473819576203,-2.1039818657517433,-1.6937413149550555
1745460727393849900,11.972849853515624,-0.433297747387737,-1.8729408210247753,-1.3303352883085608
1745460727403822800,11.98282275390625,-0.3633388066291809,-1.7198451857656238,-0.9198317026615143
1745460727413795800,11.9927958984375,-0.2567019940756261,-1.5237293239474297,-0.7718935962960124
1745460727423768800,12.002768798828125,-0.08439429334625602,-1.2534382188498974,-0.8222276529997586
1745460727433741800,12.012741943359375,-0.041655367946624756,-0.9555985970914364,-0.9088190179988741
1745460727443713800,12.0227138671875,-0.08529708740487695,-0.5657762726843357,-0.7960688371315598
1745460727453687000,12.03268701171875,-0.2045126648940146,-0.08354863630235194,-0.5536559190407395
1745460727463659800,12.04265966796875,-0.5618070767924189,0.014757424148917198,-0.3833081202074885
1745460727473632800,12.0526328125,-0.8179192882813513,-0.014033786049485205,-0.4084834779962897
1745460727483605800,12.062605712890624,-0.7980465669453144,-0.028587796580791473,-0.5123515564888715
1745460727493578000,12.072577880859376,-0.7362859840810299,-0.10264029026329517,-0.5792351814553142
1745460727503550700,12.08255078125,-0.6616814094737171,-0.24445406852960586,-0.5843573467746377
1745460727513523700,12.092523681640625,-0.591711362799257,-0.4081237047731876,-0.6032999476537108
1745460727523497000,12.1024970703125,-0.652904082647711,-0.5550526340961456,-0.5179574136719107
1745460727533470000,12.112469970703126,-0.772770671391487,-0.49454292807579037,-0.2852832147851586
1745460727543441700,12.122441650390625,-1.0611983216822147,-0.4923188222855329,-0.04997282217592001
1745460727553415000,12.132414794921875,-1.3051381570793688,-0.5869008937776088,0.11797200716882944
1745460727563388000,12.142387939453124,-1.487159296441078,-0.7025473806083202,0.26985709759444
1745460727573361000,12.15236083984375,-1.555044645795971,-0.806182527127862,0.3746694711998105
1745460727583334000,12.162333984375,-1.525771497299522,-0.9113234020352363,0.5074003638222814
1745460727593305900,12.172305908203125,-1.4529239954926072,-1.0142121141016482,0.5868599772453308
1745460727603278800,12.18227880859375,-1.2842884074047207,-1.082175058737397,0.7341700148403644
1745460727613251800,12.192251953125,-1.2055192604638636,-1.0596633671998976,0.8586988963067531
1745460727623225000,12.20222509765625,-1.294665862903744,-0.8890086943745612,0.8964905745625495
1745460727633197800,12.21219775390625,-1.32682143496871,-0.7201993571549653,1.0417547855436802
1745460727643169800,12.222169677734374,-1.3993953805312513,-0.5580944860100746,1.2334224357813597
1745460727653143000,12.23214306640625,-1.5629656480535863,-0.23233809880018233,1.4456979897618294
1745460727663115800,12.24211572265625,-1.6615642617106436,0.056302317458391184,1.6360925513237714
1745460727673088800,12.2520888671875,-1.742695023216307,0.25549860963523385,1.8044085520684718
1745460727683061800,12.262061767578125,-1.8356980088233947,0.4158195199728012,1.9656682045608758
1745460727693034000,12.272033935546874,-1.8247054901659487,0.6121890642911195,2.03179282785356
1745460727703006700,12.2820068359375,-1.8373406614638863,0.6996580889075994,2.16571965226233
1745460727712979700,12.291979736328125,-1.8919528338782488,0.6966027929902077,2.278908224546909
1745460727722953000,12.301952880859375,-1.925190794352442,0.6812602624297142,2.312065228739381
1745460727732926000,12.311926025390624,-1.9249048170179128,0.7193418635427952,2.467113751631975
1745460727742897700,12.321897705078126,-1.948475954480469,0.7731114476531743,2.622258136114478
1745460727752871000,12.331870849609375,-2.040944979341328,0.8922650658220053,2.7387112631529567
1745460727762844000,12.341843994140625,-2.021298614107072,0.8867904338032007,2.840583491653204
1745460727772817000,12.35181689453125,-1.9235911040708422,0.9090642249315977,2.7574031041413543
1745460727782790000,12.361789794921876,-1.792116056728363,1.0154758504271506,2.5883190416336057
1745460727792763000,12.371762939453125,-1.675382505313307,1.0008692329257727,2.499134445270896
1745460727802734800,12.38173486328125,-1.6236626933395861,1.0012129317969083,2.349998945814371
1745460727812707800,12.391707763671874,-1.5538813011050223,1.1431009443432092,2.2773393677949905
1745460727822680800,12.401680908203126,-1.5622998776212333,1.234189913022518,2.2653157525241374
1745460727832653800,12.41165380859375,-1.6017136041209101,1.2406027026742696,2.122878873923421
1745460727842626800,12.421626708984375,-1.5467007419511676,1.222517010885477,1.85180158688426
1745460727852598800,12.431598876953124,-1.4998270548343657,1.2042337506979703,1.6792840427964926
1745460727862572000,12.441572021484374,-1.4742841789074241,1.2886065628647803,1.690040414610505
1745460727872544800,12.451544677734375,-1.390413909435272,1.196729658678174,1.7805431078344582
1745460727882517800,12.461517822265625,-1.3192872400715947,0.9651730656445026,1.8464421056777238
1745460727892490800,12.47149072265625,-1.1674750687517226,0.7169090834379196,1.8795459183782337
1745460727902463000,12.481462890625,-0.972309785656631,0.5413391660422087,1.9681980152994394
1745460727912435700,12.491435791015626,-0.8359073649145662,0.45866906614005565,1.9804583619356155
1745460727922408700,12.50140869140625,-0.7423172270692885,0.4431412421405315,1.9913497583061455
1745460727932382000,12.5113818359375,-0.6640867170497775,0.49520694494247436,2.029035053578019
1745460727942355000,12.52135498046875,-0.5962161268725991,0.5433855771780014,2.0712854648083447
1745460727952326700,12.53132666015625,-0.5142227571882307,0.6749076785326004,2.1505875495821236
1745460727962300000,12.5412998046875,-0.5257191337145865,0.8239151676952838,2.3620097016036508
1745460727972273000,12.55127294921875,-0.5077238966882228,0.722851917490363,2.4531799188256262
1745460727982246000,12.561245849609374,-0.36399347114562985,0.5293745874822139,2.355444936260581
1745460727992219000,12.571218994140626,-0.17554112969264388,0.42683541950583453,2.2691800267368554
