time,seconds_elapsed,z,y,x
1746276037626676000,0.019676025390625,-0.07780220160484314,-0.00265073370449245,-0.049369303324818606
1746276037636655000,0.029655029296875,-0.2579799050569534,0.05487586485184729,-0.17609423353075981
1746276037646635000,0.039635009765625,-0.44499593009650706,0.09454773083105683,-0.2605295895397663
1746276037656614100,0.0496142578125,-0.6131073481798172,0.16474574104249476,-0.20178513962626457
1746276037666594000,0.059593994140625,-0.6800853734314442,0.2454150225162506,-0.05616612385809421
1746276037676573000,0.069572998046875,-0.5973164893299341,0.2282023872349411,0.0685492200911045
1746276037686553000,0.079552978515625,-0.40290976951718327,0.10793562019243835,0.17148060225546358
1746276037696533200,0.089533203125,-0.18105565533041953,-0.015276406521722673,0.23892858310639856
1746276037706512000,0.099511962890625,-0.00004968436062335968,-0.0852278946261853,0.2711041750460863
1746276037716492300,0.1094921875,0.1297580142915249,-0.11583894066289066,0.2972901711821556
1746276037726471200,0.11947119140625,0.18253566475510596,-0.10464366597495972,0.30159809750914574
1746276037736451000,0.129451171875,0.15628244860172272,-0.0899610606279224,0.23078093248605727
1746276037746430200,0.13943017578125,0.06180149939656257,-0.0635069881401956,0.14714637146592138
1746276037756410000,0.14941015625,-0.10544424176812171,0.021964725179225205,0.10648293716609478
1746276037766390000,0.15939013671875,-0.2509025140166283,0.10932378661520778,0.06436345883905888
1746276037776369200,0.169369140625,-0.2946405334562063,0.12435323263853788,0.047260932868719095
1746276037786349000,0.17934912109375,-0.25897593035697936,0.015727438224852085,-0.044597266617417336
1746276037796328200,0.189328125,-0.1508370426774025,-0.04365874365828931,-0.1917664344370365
1746276037806308000,0.19930810546875,0.027235212928056717,-0.024699849231541154,-0.26534604991078375
1746276037816287000,0.209286865234375,0.25051497600376604,-0.01792516746483743,-0.16617840419411659
1746276037826267000,0.219266845703125,0.43143677582144735,-0.02581884332410991,0.03418576271831989
1746276037836247000,0.2292470703125,0.5814852984696627,-0.04945822371728718,0.11359890665113925
1746276037846226000,0.239225830078125,0.7149234625786542,-0.08281440374366938,0.052718029230833054
1746276037856206000,0.2492060546875,0.7424585352361202,-0.06257613703086971,-0.08507833008766173
1746276037866185200,0.259185302734375,0.6159925482273102,-0.029886604219675064,-0.20006956788003444
1746276037876165000,0.2691650390625,0.3886491889744997,0.02156476607620716,-0.20964520547688006
1746276037886144300,0.279144287109375,0.14214578669965267,0.018057707803323865,-0.20981647039055823
1746276037896124200,0.289124267578125,-0.04702595506906509,0.02194755484871566,-0.18949615141749382
1746276037906104000,0.29910400390625,-0.19173779286444187,0.021503025951609016,-0.19889175627231598
1746276037916083200,0.309083251953125,-0.25169220308959483,0.05525288147069513,-0.1763391482025385
1746276037926063000,0.31906298828125,-0.22431436682045458,0.08784333782158792,-0.08083294760286808
1746276037936042000,0.3290419921875,-0.17747253614664077,0.06422127388939261,0.021437340304255485
1746276037946022100,0.339022216796875,-0.12169862647652625,0.037444837579503655,0.07521218511164188
1746276037956002000,0.349001953125,-0.0874327842593193,0.026006694046407937,0.08379355097413063
1746276037965981000,0.35898095703125,-0.06286532923579216,0.012759747525677084,0.12149813546836376
1746276037975961000,0.368961181640625,-0.026708558705449102,-0.0095369860868901,0.17086977688074112
1746276037985940000,0.37893994140625,-0.0067442135632038115,-0.014169395127892493,0.21655191612541674
1746276037995920100,0.388920166015625,-0.050154316222667694,-0.02439034489095211,0.19295652100443839
1746276038005899300,0.398899169921875,-0.08754851959347724,0.008478270814195275,0.05504559539556503
1746276038015879200,0.408879150390625,-0.1359825878947973,0.052823535431921476,-0.05267594365477562
1746276038025859000,0.418859130859375,-0.16080372541844845,0.0751590666849166,-0.14412088616490362
1746276038035838200,0.428838134765625,-0.15800678817629812,0.061003919278085225,-0.20554244633316993
1746276038045818000,0.438818115234375,-0.10079261656999587,0.07590279772430658,-0.18619009560942648
1746276038055797000,0.448796875,-0.007385434076189994,0.05116546602658927,-0.09884089798033237
1746276038065777200,0.458777099609375,0.1359615451067686,-0.0024752310071140524,0.00490121604502201
1746276038075756000,0.468756103515625,0.21225275762677193,0.016067264638468623,0.07337327924668788
1746276038085736000,0.47873583984375,0.18984335741996763,0.04872399115860462,0.20589666659831998
1746276038095716000,0.488716064453125,0.13999240805804727,0.012755436676740646,0.3261725667953491
1746276038105695000,0.498695068359375,0.0921644889563322,-0.1241528877608478,0.39225335094630714
1746276038115675000,0.5086748046875,0.00021627309918403624,-0.1441928554225713,0.4554068494737148
1746276038125654000,0.518654052734375,-0.1507066942960024,-0.09296060777008533,0.4097632886737585
1746276038135634200,0.52863427734375,-0.2437684243530035,-0.03915354119352996,0.3185831345796585
1746276038145613300,0.53861328125,-0.2368880171895027,0.0005084609787911177,0.1933960814654827
1746276038155593200,0.54859326171875,-0.17296470333337782,-0.019965002729371188,0.027728549402952194
1746276038165573000,0.558572998046875,-0.009845686709880829,0.1476622120335698,-0.04693535417616367
1746276038175552300,0.56855224609375,0.07212298692464827,0.14611922037526964,-0.030288170757889747
1746276038185532200,0.5785322265625,0.0812590640604496,0.008243293014541268,-0.12255728913247585
1746276038195511000,0.588510986328125,0.14431260934472084,0.019475465646758675,-0.254230197134614
1746276038205491000,0.598490966796875,0.152827924233675,0.03826864811778068,-0.3555103049606085
1746276038215471000,0.60847119140625,0.16452771437764166,0.1191552986692637,-0.33609131874144077
1746276038225450000,0.618449951171875,0.1732756689786911,0.10497808556109667,-0.15901742652356624
1746276038235430000,0.628429931640625,0.12371581151783466,0.0781462658021599,-0.07317454180419444
1746276038245409000,0.638408935546875,0.06321487332582473,0.026606778831407427,-0.03353986603021621
1746276038255389000,0.648388916015625,0.0010533084452152251,-0.02758373410478234,-0.07123918982744216
1746276038265368000,0.6583681640625,0.061575873947143554,0.07281674134247004,-0.01579553502500057
1746276038275348200,0.66834814453125,-0.02559153737425804,-0.05010433960109949,0.1818552812755108
1746276038285328100,0.678328125,-0.07250760232806205,-0.04803980828672647,0.19814707538485526
1746276038295307300,0.688307373046875,-0.1607008495658636,0.00923515359610319,0.1566226403415203
1746276038305287200,0.698287109375,-0.22844459849298,0.005365691751614212,0.16777824060618876
1746276038315266000,0.70826611328125,-0.21982290062010287,0.01064575104638934,0.15552198562324046
1746276038325246200,0.71824609375,-0.1547147608935833,0.03631188802681863,0.17458792062103748
1746276038335225000,0.72822509765625,-0.056981531894206995,0.00026113515421748157,0.19951134947538374
1746276038345205000,0.738205078125,-0.061847092103958126,-0.03161817725263536,0.11385668080449103
1746276038355185200,0.74818505859375,-0.08834580745100974,-0.03830006616935134,0.02409749942421913
1746276038365164000,0.7581640625,-0.03953530705273151,-0.027744039233028886,-0.04552899450957775
1746276038375144000,0.76814404296875,0.011878069320321082,-0.021069018448516726,-0.057738487741351124
1746276038385123000,0.778123046875,0.08014964151382446,0.005377966711297631,-0.0438712904304266
1746276038395103000,0.78810302734375,0.09676642979383468,0.09310103915408253,0.0004465747237205505
1746276038405082000,0.79808203125,0.13534838164448737,0.10521145592555403,-0.031195933252573013
1746276038415062300,0.808062255859375,0.2473579732775688,0.04898914490081369,-0.13869944563806055
1746276038425042200,0.818042236328125,0.3284919496536255,0.041222310291603205,-0.23411095369160173
1746276038435021000,0.82802099609375,0.19179975218474865,0.06558240617476403,-0.22329788325428962
1746276038445001200,0.838001220703125,-0.01702595360279083,0.09487732811160385,-0.13491700448989868
1746276038454980000,0.84797998046875,-0.06849310598969459,0.04657696919254958,-0.104024438098073
1746276038464960000,0.8579599609375,-0.10951251412034034,0.01769048192612827,-0.04206804040074348
1746276038474939100,0.867939208984375,-0.10436696792542934,0.008242050905525685,0.05472060122489929
1746276038484919000,0.8779189453125,-0.10900690268576145,-0.012868906988576054,0.14834990203678608
1746276038494899000,0.88789892578125,-0.2533060680270195,-0.011301073149964213,0.18846388576030731
1746276038504878000,0.897878173828125,-0.3981213661968708,0.007007175348326564,0.1685661761134863
1746276038514858000,0.90785791015625,-0.4698989006847143,0.02503667997047305,0.11926759993731975
1746276038524837000,0.917837158203125,-0.4220540304481983,0.022245514881983397,0.11485913584530352
1746276038534817000,0.927817138671875,-0.212127669942379,0.032516879658028484,0.13408406079709528
1746276038544797200,0.937797119140625,0.026187749701738355,0.013021467201784253,0.15317337667047976
1746276038554776000,0.947776123046875,0.2469704352647066,0.022718685351684687,0.016109423279762267
1746276038564756200,0.957756103515625,0.4145201278120279,0.05106543971821666,-0.08178747184872627
1746276038574735000,0.967735107421875,0.4261971216022968,0.041442382783070206,-0.08113572994172573
1746276038584715000,0.977715087890625,0.3264852860063314,0.03671652330495417,-0.07075462118089199
1746276038594694100,0.987694091796875,0.26827275101244447,0.040748993691429494,-0.11336392885148525
1746276038604674000,0.997674072265625,0.20403437985777853,0.02191350644864142,-0.17589491156637668
1746276038614654000,1.007654052734375,0.10350479813814163,0.020028350289165973,-0.12095920628607272
1746276038624633000,1.017633056640625,-0.02225274834036827,0.01984882900379598,0.023709961411356926
1746276038634613000,1.027613037109375,-0.10201660540699958,0.014194237308204172,0.12892156346738337
1746276038644592000,1.037592041015625,-0.17143793215751646,-0.006264686417952179,0.1374164200901985
1746276038654572000,1.047572021484375,-0.22163141134679315,-0.002964841154962778,0.1427548585087061
1746276038664551000,1.057551025390625,-0.2227285589337349,-0.0010590075336396694,0.17112696651220322
1746276038674531000,1.067531005859375,-0.15339666403234004,0.024256050986796614,0.19318156193196773
1746276038684511200,1.07751123046875,-0.15938216818273065,0.013781345658376812,0.13956278446912765
1746276038694490000,1.087489990234375,-0.21786299872398376,-0.01749802809394896,0.026933599632978436
1746276038704470300,1.09747021484375,-0.20216858598589896,0.0797711635902524,0.028359248521924018
1746276038714449200,1.10744921875,-0.08706161285936832,0.015638663962855934,0.02866027729511261
1746276038724429000,1.117428955078125,0.23474691350758076,-0.007599661348760127,-0.007964110746979712
1746276038734408200,1.127408203125,0.3984194723606109,-0.0035084465123713013,0.011810264781117439
1746276038744388000,1.13738818359375,0.44333881053924556,0.016861118429899215,0.02717617621719837
1746276038754368000,1.147367919921875,0.3999181864857673,0.03226093213558197,0.046534372159838674
1746276038764347100,1.15734716796875,0.15434885019063949,-0.0000729191057384014,0.0026046295404434203
1746276038774327000,1.1673271484375,0.022270283997058868,0.00526515398658812,-0.08385843290388584
1746276038784306200,1.17730615234375,-0.07560439929962158,0.01950279204510152,-0.1191430967748165
1746276038794286000,1.1872861328125,-0.15293898339271544,0.02057224790751934,-0.07920622318387031
1746276038804265000,1.197264892578125,-0.15735679983496664,0.06569456131234765,-0.03736322371065617
1746276038814244900,1.207244873046875,-0.11021803204119204,0.06147855105251074,0.009371054935455321
1746276038824225300,1.217225341796875,-0.08141454688310623,0.05487601098231971,0.0273012639015913
1746276038834204200,1.2272041015625,-0.03232172241210937,0.0332764658536762,-0.0031026421904563903
1746276038844184000,1.23718408203125,0.00965045639872551,0.00972505600489676,0.04460252731442451
1746276038854163200,1.2471630859375,0.08042612036764621,-0.0003271130625158548,0.09925415495634078
1746276038864143000,1.25714306640625,0.1329255384117365,-0.004280161537230014,0.09889116686284541
1746276038874122200,1.267122314453125,0.04816869536340236,-0.012369433033838867,0.04551204337477684
1746276038884102100,1.27710205078125,-0.059655135017633434,-0.01456409353390336,-0.08174597079455852
1746276038894082000,1.28708203125,-0.1642944901436567,0.032553485341370106,-0.05748129810988903
1746276038904061200,1.297061279296875,-0.202541510951519,0.05569024997465312,-0.05535889912843704
1746276038914041000,1.307041015625,-0.12410218048691748,0.05608648275062442,-0.02316460248827934
1746276038924020000,1.31702001953125,0.0029869068562984463,0.02574687406644225,0.0018704700469970702
1746276038934000000,1.327000244140625,0.09128478351235389,-0.010238923811167477,0.018651508978009223
1746276038943979000,1.33697900390625,0.13492986397147178,-0.013321692257374524,0.025657003825902937
1746276038953959000,1.346958984375,0.16462357596755026,-0.017979528000578282,0.10219780719280243
1746276038963939000,1.35693896484375,0.1524234350860119,-0.01542969738729298,0.08150222516655921
1746276038973918200,1.366918212890625,0.0732417618215084,-0.034409634602069854,0.034354105022549625
1746276038983898000,1.376898193359375,-0.02200432653725147,-0.006430106112733483,0.0328910467326641
1746276038993877200,1.386877197265625,-0.11516600983738899,0.0244598299305886,-0.0028068741142749784
1746276039003857200,1.396857177734375,-0.112525139939785,0.03766286424435675,0.005121580797433853
1746276039013837000,1.406837158203125,-0.037520460098981856,0.023729542894661424,0.021833646145462987
1746276039023816200,1.416816162109375,0.041487025642395016,0.029686478537693618,0.035951018825173375
1746276039033796000,1.426796142578125,0.07901566904783248,0.028248773884773253,0.02963525980710983
1746276039043775000,1.43677490234375,0.06878536693453788,0.01572356576733291,-0.03404664650857448
1746276039053755100,1.446755126953125,0.030163083073496817,0.010781140929087996,-0.07811550533771515
1746276039063734000,1.456734130859375,0.004202712386846542,0.02467734513878822,-0.08972352554500103
1746276039073714000,1.4667138671875,0.0619441227376461,0.033165479759871955,-0.03425415177941322
1746276039083694000,1.476694091796875,0.14929682749807835,0.022658260401338337,0.023497779965400693
1746276039093673000,1.4866728515625,0.21320202117562292,-0.0002808627679944038,0.040429625543951984
1746276039103653000,1.496653076171875,0.21264497181475162,-0.03637947337031364,0.05197334834337234
1746276039113632300,1.50663232421875,0.15588848084807394,-0.04439063812941312,0.014552256965637207
1746276039123612200,1.516612060546875,0.06436287431716918,-0.004904357850179076,-0.042894554352760315
1746276039133591300,1.52659130859375,-0.05709609818458557,0.04092003940939903,-0.07294014852643013
1746276039143571200,1.5365712890625,-0.1493599558621645,0.04798924714326858,-0.07328852357268333
1746276039153551000,1.546551025390625,-0.16876783616542815,0.07257109601832926,-0.08583236332535743
1746276039163530000,1.556530029296875,-0.14748773224949835,0.08523870828114449,-0.11202946537733077
1746276039173510100,1.56651025390625,-0.10366261904835701,0.09243439193889498,-0.1220364801287651
1746276039183489000,1.576489013671875,-0.03960077350437641,0.11728775123171507,-0.17033961552679538
1746276039193469000,1.586468994140625,0.057599371531605714,0.11262195137776433,-0.13059154250621796
1746276039203447800,1.59644775390625,0.169545834800601,0.004288417908921837,-0.012765958070755003
1746276039213427700,1.606427734375,0.26193536468446255,-0.12354418127797544,0.16939970432817936
1746276039223407900,1.616407958984375,0.2472533438593149,-0.21962562448233364,0.32157062595784663
1746276039233386800,1.62638671875,0.09864274505972861,-0.22331154645346105,0.44235564472079275
1746276039243366700,1.63636669921875,-0.18101181618869303,-0.15646313893087208,0.46393151671290395
1746276039253345800,1.646345703125,-0.42996378065943713,-0.08769165439121425,0.410931747931242
1746276039263325700,1.65632568359375,-0.5903963346779346,-0.0022593962993472812,0.2428478023767471
1746276039273304600,1.6663046875,-0.6000590660363435,0.07839658730141819,0.05850304237306118
1746276039283284700,1.67628466796875,-0.48365094718337054,0.088320599944517,-0.017663082462549207
1746276039293264600,1.6862646484375,-0.2717354586869478,0.1105410534504801,-0.020586860954761504
1746276039303243500,1.696243408203125,-0.029503742381930348,0.10498904534652828,-0.006819032365083694
1746276039313223700,1.7062236328125,0.18603987348377704,0.05317110676057636,-0.09918576589524745
1746276039323202600,1.71620263671875,0.32533670049309726,0.036250074836984274,-0.17605740865170955
1746276039333182700,1.7261826171875,0.4260714493960142,0.024520401011407372,-0.20097499228715895
1746276039343161900,1.736161865234375,0.4071954840123653,0.011985182956606149,-0.20352759937942028
1746276039353141800,1.746141845703125,0.3275000160068273,-0.0017593378227204084,-0.16530454396903513
1746276039363121700,1.75612158203125,0.1824690292596817,0.014693930458649992,-0.07446399709284306
1746276039373100800,1.766100830078125,0.02287234154343605,0.020943127046525477,-0.01884206311404705
1746276039383080700,1.776080810546875,-0.08721241950690746,0.016353315038233996,0.025330840611457822
1746276039393059800,1.786059814453125,-0.18661913467645644,0.0038977380909025667,0.018313655325770378
1746276039403039700,1.796039794921875,-0.25268062960505483,0.00832950999327004,0.02452712301313877
1746276039413018600,1.8060185546875,-0.23719079952836036,0.03570909982807934,0.03795475986301899
1746276039422998800,1.815998779296875,-0.21089725136458873,0.046104748570919035,0.03561141160726547
1746276039432978700,1.825978759765625,-0.21134441061019896,0.04430851280391216,0.0301899710804224
1746276039442957600,1.83595751953125,-0.1556499959170818,0.03178286629505455,0.043187984341382976
1746276039452937700,1.845937744140625,-0.06614508155882358,0.017667320246249438,0.03768821788132191
1746276039462916600,1.85591650390625,0.04725684121549129,-0.002471212419122457,0.019119711011648177
1746276039472896800,1.865896728515625,0.1130219835460186,-0.02327982636578381,-0.02624503284692764
1746276039482876000,1.8758759765625,0.13458207344710826,-0.004589665877819061,-0.0184434191852808
1746276039492855800,1.885855712890625,0.12467968811392784,0.005719765886291861,0.0016880992174148558
1746276039502835700,1.895835693359375,0.10119944380521774,-0.006584566022083163,-0.015504443123936652
1746276039512814800,1.90581494140625,0.06600654987096786,-0.06290200798436998,0.022319968357682227
1746276039522794800,1.915794677734375,0.05005494750142097,-0.0185669724997133,0.08978080869019031
1746276039532773600,1.925773681640625,0.00682663114964962,0.036533348757773636,0.118590139067173
1746276039542753800,1.93575390625,-0.015438976672291755,0.08256934294141828,0.1268769058972597
1746276039552732700,1.945732666015625,-0.023058219504356384,0.02826448291055858,0.026973347121477125
1746276039562712600,1.955712646484375,-0.0425812506198883,0.021720687290281055,-0.014735212317109107
1746276039572692700,1.965692626953125,-0.0438753820836544,-0.0011097148075699806,-0.03915595234632492
1746276039582671600,1.975671630859375,0.00042202480435371396,0.02388458732590079,-0.035713702937960626
1746276039592651500,1.985651611328125,0.02710778715610504,0.02944324436634779,-0.0032891046732664107
1746276039602630700,1.995630615234375,0.031332711374759674,0.04811462708860635,0.07857786215245723
1746276039612610800,2.00561083984375,0.013278583768010138,0.06259791047126054,0.1447930863380432
1746276039622590000,2.01558984375,-0.05173194080293178,0.05159070570133626,0.15370879872143267
1746276039632569900,2.02556982421875,-0.12599486236572266,0.02595664435960352,0.11624328368008136
1746276039642549800,2.0355498046875,-0.1777589518725872,0.014036197202280163,0.026637831556797026
1746276039652528600,2.045528564453125,-0.16715923192501067,-0.0005723930604755878,-0.06808627875447273
1746276039662508800,2.0555087890625,-0.10009469743371009,-0.00020209844335913657,-0.08579612296819686
1746276039672487700,2.06548779296875,0.01602466760575771,0.05135638548880815,-0.025600305202603337
1746276039682467600,2.075467529296875,0.05621931535005569,0.011585516114532946,0.1259615446180105
1746276039692446700,2.08544677734375,0.07794950112104415,-0.025907982912287113,0.17424129914045333
1746276039702426600,2.095426513671875,0.08903262067139148,-0.055131300917640326,0.12844342456161975
1746276039712406500,2.105406494140625,0.09523439792096615,-0.04516271848045289,0.06083996088802814
1746276039722385700,2.1153857421875,0.08984569061994552,-0.08516469319686293,0.005372340688109397
1746276039732365600,2.125365478515625,0.01376256789267063,-0.08010974789485335,0.009161211577057838
1746276039742344700,2.1353447265625,-0.011190087056159972,0.013889116881787776,-0.006014730244874954
1746276039752324900,2.145324951171875,0.11860709020197391,0.05338226529322564,-0.10691022266745567
1746276039762303500,2.155303466796875,0.2445218730688095,0.005179229268804192,-0.01037760162949562
1746276039772284000,2.165283935546875,0.28117840981483455,0.036036432086303825,0.11510054338574409
1746276039782263800,2.175263916015625,0.4419014712125063,0.04903415308631956,0.07271569212079047
1746276039792242700,2.18524267578125,0.63046531021595,-0.0028986440509557723,-0.02538227853775024
1746276039802222800,2.195222900390625,0.3629997839331627,-0.04615991282425821,0.09253682940006255
1746276039812201700,2.20520166015625,0.060195817765593525,0.06246836580745876,0.0354793096601963
1746276039822181600,2.215181640625,0.003191489517688751,0.06156747144497931,-0.10966390528976917
1746276039832160800,2.225160888671875,-0.07582827118337154,-0.007808189532905817,-0.030688568252325056
1746276039842140700,2.235140625,-0.09552139816880226,-0.015651304248720407,0.08366261807084083
1746276039852120600,2.24512060546875,-0.11184709454774856,-0.011798355147615075,0.09273439779877662
1746276039862099700,2.255099609375,-0.15807517723739145,-0.044301571606472134,0.09868716872334479
1746276039872079600,2.26507958984375,-0.22635434821546077,-0.02515913730636239,0.09099076900184154
1746276039882058500,2.27505859375,-0.25574410882890225,0.01074416991956532,-0.012889292189478874
1746276039892039000,2.285038818359375,-0.24572598816156385,0.020590148890390993,-0.057094929140806196
1746276039902017500,2.295017578125,-0.25957623433768745,0.047193858981877564,-0.025544191101193426
1746276039911997700,2.304997802734375,-0.21503040564656256,0.05644450240805745,0.03549742983877659
1746276039921977900,2.314977783203125,-0.15565817922353745,0.07395356335267424,0.10558744963109493
1746276039931956700,2.324956787109375,-0.10611235028803348,0.100709833657369,0.07258592826128006
1746276039941936600,2.3349365234375,-0.0469558124423027,0.02375285070501268,0.06021686055362224
1746276039951915800,2.344915771484375,0.002198386827111244,-0.002305281267687678,0.03852466870546341
1746276039961895700,2.354895751953125,0.06045476096272468,0.00786978352703154,-0.003098550537228584
1746276039971874800,2.364874755859375,0.12282733824551105,-0.02212561482936144,0.06343056190311909
1746276039981854700,2.374854736328125,0.13737374999225138,-0.04376096192374825,0.09704816934466362
1746276039991834600,2.384834716796875,0.08056114492416382,-0.02813661874718964,0.0865524942934513
1746276040001813800,2.394813720703125,-0.03405424529314041,-0.05430697892270982,0.0014157120168209075
1746276040011793700,2.404793701171875,-0.1354424896687269,-0.01913432405889034,-0.10546353099048138
1746276040021772500,2.4147724609375,-0.1375520291686058,0.015812559225037694,-0.12142565475404261
1746276040031752700,2.424752685546875,-0.09101473439931869,0.033037177205085755,-0.07113105327785015
1746276040041731600,2.434731689453125,-0.014773790761828422,0.06224639361985027,0.0018126023799180982
1746276040051711700,2.444711669921875,0.046371290552616115,0.04971650932729244,0.05881693062782287
1746276040061691600,2.454691650390625,0.07380231831371784,0.03620250936821103,0.06806231335699559
1746276040071670800,2.4646708984375,0.08731587988138198,0.013029431312531233,0.04973404498398304
1746276040081650700,2.474650634765625,0.09214344616830349,-0.01680821919888258,0.03028057197332382
1746276040091629800,2.4846298828125,0.08383680559396743,-0.0038239422023296356,-0.0334621246188879
1746276040101609700,2.494609619140625,0.0612947189182043,-0.023944281623885035,-0.04571721055805683
1746276040111588600,2.504588623046875,0.04509001857042312,-0.024828224851563573,-0.01367021343410015
1746276040121568800,2.51456884765625,0.055039750176668165,0.00026661504693329335,0.005948094749450683
1746276040131548700,2.524548583984375,0.046240357649326325,-0.0077268679250031705,0.046885085293650625
1746276040141527600,2.534527587890625,0.03742576755285263,-0.003296703457832336,0.07525427068769931
1746276040151507700,2.5445078125,0.005140285497903824,-0.0047753977082669735,0.09978139370083808
1746276040161486600,2.554486572265625,-0.05129588747322559,0.01216996493898332,0.13338088096380232
1746276040171466800,2.564466796875,-0.06667115125954151,-0.00971979530788958,0.1572673679858446
1746276040181445600,2.574445556640625,-0.05225450337231159,-0.04123582736030221,0.10843582479953766
1746276040191425800,2.58442578125,-0.03901215996146202,-0.01875957246236503,0.055146717682480806
1746276040201405700,2.59440576171875,-0.01913140144944191,-0.005469517452269792,0.035950434303283686
1746276040211384800,2.604384765625,0.003510638469457626,-0.017208543628081677,0.029776129582524298
1746276040221364700,2.61436474609375,0.04224865766465664,0.001744651710242033,0.009080547556281088
1746276040231343900,2.62434375,0.05859013613462448,-0.0013430851720273493,-0.03193944509625435
1746276040241323800,2.63432373046875,0.051475335693359374,0.014209434877336025,-0.015988427248597146
1746276040251302700,2.644302734375,0.028017887738347052,0.01671243067421019,-0.0015998364120721816
1746276040261282600,2.654282470703125,0.00326864640712738,0.00860562352091074,-0.05958733047842979
1746276040271262700,2.6642626953125,-0.028200843089818954,0.025491657196357844,-0.08720365167856216
1746276040281241600,2.67424169921875,-0.06764087307453155,0.058014674334228036,-0.07900397861003876
1746276040291221500,2.684221435546875,-0.0618874241143465,0.10139891190007329,-0.02347965978682041
1746276040301200600,2.69420068359375,-0.03876256911456585,0.11450060473121702,0.031683424508571624
1746276040311180500,2.7041806640625,-0.007471358793973922,0.063307154719159,0.06915420024693011
1746276040321159700,2.71415966796875,0.046404608300328255,0.012911869347468017,0.08080781316161155
1746276040331139800,2.724139892578125,0.05678805514872074,-0.04087736931145191,0.10222235711216926
1746276040341119700,2.73411962890625,0.06743219875991344,-0.08637311913855374,0.11517711575329304
1746276040351099000,2.744098876953125,0.029855624559521673,-0.10952544666714965,0.14126549673378466
1746276040361078800,2.754078857421875,0.030191140124201772,-0.12622662529498338,0.16141630435883997
1746276040371057700,2.7640576171875,0.006899111863970756,-0.15084040367826818,0.15710428637862203
1746276040381037800,2.774037841796875,0.0017079729616641998,-0.1418457077745348,0.12947569021880626
1746276040391016700,2.7840166015625,0.0014086977541446686,-0.11377864713221787,0.09128419899046421
1746276040400996600,2.79399658203125,-0.00194236623942852,-0.06372786434926092,0.0296060337126255
1746276040410976800,2.803976806640625,-0.029143676897883414,-0.035064079922810194,-0.0165349552154541
1746276040420955600,2.81395556640625,-0.046615620702505106,-0.0001179272912442684,-0.045700259423255916
1746276040430935600,2.823935546875,-0.07061141331791877,0.02703231076709926,-0.07480944952964783
1746276040440914700,2.833914794921875,-0.12360182974934578,0.06861497880369424,-0.04546469710171223
1746276040450894600,2.84389453125,-0.13983984784483908,0.08666874108426273,0.021920155385136603
1746276040460873700,2.853873779296875,-0.1375999599635601,0.0744124130360782,0.055716042003035544
1746276040470854000,2.86385400390625,-0.11792846028804778,0.06441672339625656,0.05882745202183723
1746276040480833800,2.873833740234375,-0.04147416616082191,0.057917789831012485,0.07413608031272888
1746276040490812700,2.883812744140625,0.06375730963945389,0.04815130583718419,0.09092588707208633
1746276040500792800,2.893792724609375,0.15893500893712043,0.01526288945302367,0.08678104235231876
1746276040510771700,2.903771728515625,0.20707447820603847,0.03286686213947832,0.0512473721563816
1746276040520751600,2.913751708984375,0.20287235034108161,0.032809432863816615,0.031008886247873305
1746276040530730800,2.923730712890625,0.18685761960744857,0.03795329855829477,-0.003135375416278839
1746276040540710700,2.933710693359375,0.12122399470210074,0.04721563242226839,-0.01695639549791813
1746276040550690600,2.943690673828125,0.032279636836051936,0.04232164983563125,-0.007986322578787803
1746276040560669700,2.953669677734375,0.005627776753902435,0.022193711629509925,-0.06687865653038025
1746276040570649600,2.963649658203125,-0.03087619977891445,0.020333105389401314,-0.12403145333826542
1746276040580628700,2.973628662109375,-0.0490296961069107,0.05828494264297187,-0.0797165107935667
1746276040590608600,2.983608642578125,-0.013824527212977408,0.037929771552234884,-0.018057050216197967
1746276040600587500,2.99358740234375,0.01388414844572544,0.0344234439317137,-0.0070125091105699535
1746276040610568000,3.00356787109375,-0.009140753310918808,0.017167480965331196,0.025507366222143172
1746276040620547800,3.0135478515625,-0.05391513006091118,0.04521094153635204,0.044995910546183585
1746276040630526700,3.023526611328125,-0.14814473485350607,0.05759213807322085,0.04846913961470127
1746276040640506600,3.033506591796875,-0.2111725611746311,0.058120545861497515,0.015251345145702361
1746276040650485800,3.04348583984375,-0.25000410387218,0.05397241320610046,-0.024833997005224227
1746276040660465700,3.053465576171875,-0.18906360521912574,0.05845182364247739,-0.01838379795253277
1746276040670444800,3.06344482421875,-0.052341012611985205,0.06440474069751799,-0.02678571559488773
1746276040680424700,3.0734248046875,0.07269172672331332,0.030782676276564596,-0.062010173711180686
1746276040690404600,3.083404541015625,0.17464169663488863,0.021810119139403103,-0.0651250908613205
1746276040700383700,3.0933837890625,0.17285422869622707,-0.020859467351064084,-0.06259060394763946
1746276040710363600,3.10336376953125,0.12243863118886947,-0.04702558974288404,-0.041111178067326545
1746276040720342500,3.113342529296875,0.05939619182050228,-0.03138992145471275,-0.02271101350188255
1746276040730322700,3.12332275390625,-0.022099603605270385,-0.04420476016849279,0.03913140242695808
1746276040740301600,3.133301513671875,-0.05140694663226604,-0.05014335643723607,0.0820212806046009
1746276040750281700,3.14328173828125,-0.06289455533027649,-0.059099620026722546,0.10295300947427749
1746276040760260900,3.1532607421875,-0.10604746835827827,-0.04109225417114794,0.12616788084506989
1746276040770240800,3.16324072265625,-0.13856149847209454,-0.036019334821030494,0.10666706156134605
1746276040780220700,3.173220703125,-0.1422749660372734,-0.011560454738512634,0.07148001284599304
1746276040790199800,3.18319970703125,-0.12470423803329467,0.013308686645328997,0.06831248872578144
1746276040800179700,3.1931796875,-0.06140986973047256,0.022422040492668747,0.07255845573246479
1746276040810158800,3.203158935546875,0.030882044997811317,0.02581438634470105,0.07222820086479187
1746276040820138800,3.213138671875,0.10743979949951171,0.001563742185384035,0.01838964317142963
1746276040830117600,3.22311767578125,0.12577099048197268,-0.013414265911653638,-0.03350245662927628
1746276040840097800,3.233097900390625,0.11557517516016959,-0.001194981938228011,-0.03210194218158722
1746276040850077700,3.24307763671875,0.10378829125463962,-0.0036237434551119802,-0.009996493357419967
1746276040860056600,3.253056640625,0.056851768034696576,0.007630860204622149,-0.010130933392047882
1746276040870036500,3.263036376953125,0.004119125756621361,0.044376390408352014,0.007842530193924904
1746276040880015600,3.273015625,-0.02390636076629162,0.05070055192857981,0.046214638686180115
1746276040889995800,3.282995849609375,-0.03750643157362938,0.030396891829371452,0.038676644396781916
1746276040899975000,3.292974853515625,-0.06612637685835361,0.03319711700715124,0.024728198543190954
1746276040909954800,3.302954833984375,-0.09436287578344345,0.04672624147012829,0.03712473877966404
1746276040919934700,3.312934814453125,-0.05505377870202064,0.040338586259633304,0.035898411855101585
1746276040929913900,3.322913818359375,-0.04360182583928108,0.019711685555428266,0.041998482295870776
1746276040939893800,3.332893798828125,-0.03114332628250122,0.016723390459641812,0.042402386921644206
1746276040949872600,3.34287255859375,-0.005693243205547332,0.03526150219105184,0.042137598505616186
1746276040959852800,3.352852783203125,0.08039981688261032,0.002274301607534289,0.07495733356773852
1746276040969831700,3.362831787109375,0.15090426269471643,-0.012986030562222002,0.04223404461741447
1746276040979811600,3.3728115234375,0.19548399365544317,-0.00891629690527916,0.008564999249577522
1746276040989791700,3.382791748046875,0.18871055399775505,-0.017231120786070822,-0.002532148826122284
1746276040999770600,3.3927705078125,0.12652151658833027,0.005967457037046551,-0.017610475492477417
1746276041009750500,3.40275048828125,0.029473931765556335,0.013108999354764818,-0.02573182262778282
1746276041019729700,3.412729736328125,-0.10244973612725734,0.001893631726875901,-0.06472118623554707
1746276041029709800,3.422709716796875,-0.1317874742925167,0.007756751606613397,-0.041296471506357194
1746276041039688700,3.432688720703125,-0.12446633762419224,0.009627879240736366,0.038973581516742704
1746276041049668900,3.4426689453125,-0.10482114143371582,-0.011680135595425963,0.0767968239545822
1746276041059648800,3.452648681640625,-0.10006196420788764,-0.024415479332208632,0.10412322229743003
1746276041069627600,3.462627685546875,-0.08121873205006122,-0.022483049964904783,0.1018809963285923
1746276041079607800,3.47260791015625,-0.07490531111955642,-0.015452493740990758,0.12065467038154601
1746276041089586700,3.482586669921875,-0.05815758993625641,-0.01948021488711238,0.09878419935703277
1746276041099566600,3.492566650390625,-0.030765725141763685,-0.04093297195620835,0.041110593545436856
1746276041109545700,3.502545654296875,0.023256372424960134,-0.04930062200278044,-0.024160627788305283
1746276041119525600,3.512525634765625,0.09383680608272552,-0.032715470970049496,-0.04031272116601467
1746276041129505500,3.522505615234375,0.10296294634640216,0.004557590239122509,-0.004400865307450294
1746276041139484700,3.532484619140625,0.10254676676094532,0.012132190211862326,0.0305079509884119
1746276041149464600,3.542464599609375,0.0883516526699066,0.008998641426488757,0.02409749942421913
1746276041159443700,3.552443603515625,0.03873685015141964,0.0014683189868927,0.0012818565040826797
1746276041169424000,3.562423828125,-0.011844751572608947,0.013776231091842055,-0.008410685470700263
1746276041179402800,3.57240283203125,-0.03984627269804478,0.011862068033590913,0.01291910280585289
1746276041189383000,3.5823828125,-0.09197744195163249,0.05035802210122346,0.03612286826074123
1746276041199362800,3.59236279296875,-0.09890344182252883,0.05920081537887454,0.0673164634257555
1746276041209342000,3.602342041015625,-0.08923895689845085,0.04050269078016281,0.055494508206844324
1746276041219321900,3.61232177734375,-0.05700257468223571,0.03791574302688241,0.05059504572749138
1746276041229301000,3.622301025390625,0.027694062611460683,0.022392741332948208,0.05376198532581329
1746276041239281200,3.63228125,0.07103928334116935,0.003736117788404226,0.025226211193203923
1746276041249260300,3.64226025390625,0.09954466233551501,-0.05408763708360493,-0.01959492730796337
1746276041259240200,3.652240234375,0.12979367012679577,-0.0216332282025367,0.010945172384381294
1746276041269219000,3.662218994140625,0.18820318899750707,0.03790799811184406,0.06559212385118007
1746276041279199200,3.67219921875,0.1469412042826414,0.03762706227861345,0.12257540931105614
1746276041289179100,3.68217919921875,0.06587152531445026,0.03634454818740487,0.0864963801920414
1746276041299158000,3.692157958984375,-0.03747895904481411,0.007885200291872023,0.07295534609556198
1746276041309138200,3.70213818359375,-0.12467325837314128,0.023225173569098114,0.03214052062630653
1746276041319117000,3.712116943359375,-0.17986615328490732,0.004502279855310916,-0.014150105905532836
1746276041329097000,3.722096923828125,-0.21816052036583422,-0.004825812721252441,-0.012047580668330192
1746276041339076000,3.732076171875,-0.17961890052556992,-0.0021289748527109622,-0.01733282759487629
1746276041349056000,3.742055908203125,-0.0967044704735279,0.019801190469786522,-0.033170448195934295
1746276041359036000,3.752035888671875,0.020794950747489927,0.028875819741934535,-0.03358721230328083
1746276041369015000,3.76201513671875,0.1147597671240568,0.0549015838149935,-0.04402268159985542
1746276041378995200,3.7719951171875,0.1600339100897312,0.02817651236616075,-0.04396130680143833
1746276041388974000,3.78197412109375,0.18915362159013746,0.04113981963992119,-0.057469023150205606
1746276041398954200,3.791954345703125,0.13561901527941225,0.0505614357188344,-0.06385784740447997
1746276041408933000,3.80193310546875,0.06101531745493412,0.05676474733836948,-0.05584054516553878
1746276041418913000,3.8119130859375,-0.032172084808349606,0.014018661545589565,-0.01594108097553253
1746276041428893200,3.82189306640625,-0.08471768008172512,0.009167202926427125,0.020269465568661688
1746276041438872000,3.8318720703125,-0.07523965764045715,-0.011162614527344702,0.06801730517148971
1746276041448852000,3.84185205078125,-0.04652560433149337,-0.02562522044815123,0.09709551561772822
1746276041458831000,3.8518310546875,-0.0279635272026062,-0.02730323666296899,0.11605565215349196
1746276041468811000,3.86181103515625,-0.006005377894639968,-0.021912191274389623,0.11182020654082298
1746276041478790100,3.8717900390625,-0.015001169776916503,-0.010019508906826376,0.08709668417274952
1746276041488770000,3.88177001953125,-0.03768061909675598,-0.014853285738825796,0.04211304858624935
1746276041498749000,3.8917490234375,-0.02483984222412109,0.002654606162011623,0.026496377259492873
1746276041508729000,3.90172900390625,0.04023030357956886,0.006021963703259825,0.04576806396245956
1746276041518709200,3.911709228515625,0.07230886488556862,0.011028393688425422,0.03500058623254299
1746276041528688000,3.921688232421875,0.09690554600358009,0.017890826803818344,0.0278676656126976
1746276041538668000,3.93166796875,0.10636252565681933,-0.000018558569997549056,0.02363572713136673
1746276041548647200,3.941647216796875,0.0738777216374874,-0.00954400034956634,-0.006775777745246887
1746276041558627000,3.951626953125,0.0036906712114810943,0.019796587359905242,-0.032713936600089075
1746276041568606200,3.961606201171875,-0.016053309178352355,0.02005838010124862,-0.042993338552117344
1746276041578586000,3.971586181640625,-0.04208557605743408,0.0551041206497699,-0.024198037189245222
1746276041588566000,3.98156591796875,-0.03893967924714088,0.07124576569870114,-0.030188802036643026
1746276041598545200,3.991545166015625,-0.015629530808329583,0.045119463860616084,-0.022888123634457587
1746276041608525000,4.001525146484375,0.05139174906313419,0.010329378573596476,-0.0019084639698266981
1746276041618504000,4.01150390625,0.07195464462041855,0.003507496664300561,0.010862754797935486
1746276041628484000,4.021484130859375,0.07991407919228076,0.007292860421910881,0.02565291217267513
1746276041638463000,4.031462890625,0.026412790629267692,0.004594999640062451,0.06784019503891468
1746276041648443000,4.04144287109375,-0.05797229649722576,0.009499795881658791,0.05186813440322876
1746276041658423300,4.05142333984375,-0.1345633687466383,0.01367737382724881,0.022079729861021042
1746276041668402200,4.061402099609375,-0.182556123021245,0.02854958346225321,-0.0035842882275581357
1746276041678382000,4.071382080078125,-0.22414193286299705,0.021537512743100524,0.012861819660663604
1746276041688361200,4.081361328125,-0.1819932284414768,0.03001483370922506,0.03299450710713863
1746276041698341000,4.091341064453125,-0.11689736367464065,0.010572393549233674,0.02648468682169914
1746276041708320300,4.1013203125,-0.027190789264440535,-0.004084419769421219,0.028773090019822117
1746276041718300200,4.111300048828125,0.049882513543963426,-0.005188873879984021,0.05213876803815364
1746276041728280000,4.121280029296875,0.09185995305180548,-0.0005482815325260162,0.03572071720063686
1746276041738259200,4.13125927734375,0.09439385544359684,-0.01942176269814372,0.03912847981750965
1746276041748239000,4.141239013671875,0.10917524498999118,-0.01164250699877739,0.05923194116950035
1746276041758218000,4.151218017578125,0.09485212060511111,0.003107610626518726,0.04992693720757961
1746276041768198000,4.161197998046875,0.0381938293159008,0.025130641864240168,0.03819616740345955
1746276041778177000,4.171177001953125,0.007187281155586242,0.04101948119588196,0.02461597034037113
1746276041788157000,4.181156982421875,-0.04333762194514274,0.04861095923818647,0.0013175123393535614
1746276041798136000,4.191135986328125,-0.0676607468187809,0.04206789427027106,0.014314356556534766
1746276041808116200,4.2011162109375,-0.05045943664908409,0.027132044814527034,-0.005604980400204658
1746276041818096000,4.21109619140625,-0.006880407163500786,0.017902663372084498,-0.013619360029697417
1746276041828075300,4.2210751953125,0.039542905837297436,0.020590368086099622,0.030724808609485624
1746276041838055200,4.23105517578125,0.10688391918241977,0.018181334182992576,0.056904375004768366
1746276041848034000,4.241033935546875,0.11126257265806197,0.005575535110011696,0.03420446741878986
1746276041858014200,4.25101416015625,0.08631634745001793,0.006484978105127811,0.006744798085093498
1746276041867993000,4.2609931640625,0.034248891082406044,-0.009362798563763498,0.011654781958460807
1746276041877973000,4.270972900390625,-0.0018617022186517714,0.008307955748587847,0.0025251345634460447
1746276041887953200,4.280953125,-0.031930092746019365,0.019166838089004157,0.0515396331012249
1746276041897932000,4.29093212890625,-0.0462806896597147,0.016406579595431684,0.04974515089988708
1746276041907912000,4.300911865234375,-0.07716507274508476,0.004632335975766182,0.023451602736115455
1746276041917891000,4.31089111328125,-0.10905307991504669,-0.004736015545949339,0.03140811469852924
1746276041927871000,4.32087109375,-0.10820844578444958,-0.0020160159975290298,0.008851414975523948
1746276041937850000,4.33085009765625,-0.08949497748613357,-0.010451397518068551,0.047453240570425985
1746276041947830300,4.340830322265625,-0.030502105769515037,0.018008461834117768,0.06788871035575866
1746276041957809000,4.350808837890625,0.012725041538476943,-0.012325666957348585,0.05724748935401439
1746276041967789000,4.3607890625,0.07025193235576152,-0.015916823317110536,0.021284780091047287
1746276041977769200,4.370769287109375,0.07837503305673599,0.00300407718680799,0.03450315810441971
1746276041987748000,4.380748046875,0.0368780705422163,0.0014917729277163744,0.040599721413850785
1746276041997728000,4.39072802734375,-0.010958616387844086,-0.029058482832461593,-0.014130232161283493
1746276042007707100,4.40070703125,-0.025532500663399696,-0.024702552645280956,-0.03186813342571258
1746276042017687000,4.41068701171875,-0.021802081963419914,0.009052563570812343,-0.015489245554804802
1746276042027666200,4.420666259765625,-0.014038462224602699,0.017608868057280777,0.04681377362310886
1746276042037646000,4.43064599609375,-0.01277004972398281,0.026283684356883167,0.07093991461992263
1746276042047626000,4.4406259765625,0.008568506380915641,0.014129428443685173,0.04895604634881019
1746276042057605000,4.450605224609375,0.0002495908468961716,0.0003352233037352562,0.03191664874255657
1746276042067585000,4.4605849609375,0.019729367342591283,0.006853811417520046,0.006794482445716858
1746276042077564000,4.47056396484375,0.022104279780387877,-0.0009694295540452003,-0.0004734627306461334
1746276042087544300,4.48054443359375,-0.0007850128978490829,0.01052585099376738,0.01497778890132904
1746276042097523000,4.49052294921875,-0.039731706407666205,0.02870842728577554,0.01215747078359127
1746276042107503000,4.500503173828125,-0.05315992777943611,0.028424130451679228,0.017607552883028982
1746276042117483300,4.510483154296875,-0.04271393708884716,0.014290245028585195,0.04808569325506687
1746276042127462100,4.520462158203125,-0.015211013135313986,0.016472922829911113,0.042052842831611634
1746276042137442000,4.530442138671875,0.023109072908759114,0.029774156821146605,0.035998949620127674
1746276042147421200,4.540421142578125,0.034957331612706186,0.023142463721707463,0.02460603346824646
1746276042157401000,4.550401123046875,0.03738952719569206,0.013644348340481519,0.025289339557290076
1746276042167380000,4.5603798828125,0.03925415202379227,0.04213241087384522,0.016548399218916893
1746276042177360100,4.570360107421875,0.01868424220383167,0.017958046821132303,0.0185217451184988
1746276042187339000,4.580339111328125,-0.030533085429668424,0.012979089364781975,0.01213701251745224
1746276042197319000,4.59031884765625,-0.04997019182741642,0.015054361268877983,0.025765724897384643
1746276042207298600,4.600298583984375,-0.028600656062364577,0.022455650501325725,0.030540099692344665
1746276042217277400,4.61027734375,0.013393734580278396,0.02726232013069093,0.021767595171928403
1746276042227257600,4.620257568359375,0.03117079881131649,0.03778093766607344,0.05742226139903068
1746276042237236500,4.630236572265625,0.03352583750486374,-0.002366875261813402,0.015258359408378601
1746276042247216400,4.64021630859375,-0.020987258449196813,-0.028856238258630037,-0.06284370192587375
1746276042257195500,4.650195556640625,-0.07276537648141383,0.002778963194042444,-0.0462064553797245
1746276042267175400,4.660175537109375,-0.0325122765481472,0.026392113167420028,0.05173486341238021
1746276042277155300,4.6701552734375,0.015139116942882537,0.02161006652265787,0.07738894462883472
1746276042287134500,4.680134521484375,0.02073299142718315,0.005423632483929395,0.07714110734760761
1746276042297114400,4.6901142578125,-0.028373861569166183,-0.01902516459599137,0.01937105542421341
1746276042307093500,4.700093505859375,-0.06936404360532761,-0.05002637899406254,-0.0036596915513277053
1746276042317073400,4.710073486328125,-0.07571721202433108,-0.016630597609654067,0.02595627903342247
1746276042327052300,4.72005224609375,-0.053579614496231075,0.024004560443758965,0.05794131683707237
1746276042337032400,4.730032470703125,0.035786768174171445,0.03857099206522107,0.08072071940004825
1746276042347012600,4.7400126953125,0.08439034782350063,0.034679683715105054,0.06968436160087585
1746276042356991500,4.749991455078125,0.10831482876837253,0.01225165187306702,0.02293839251697063
1746276042366971400,4.759971435546875,0.07826514294147491,0.011643895238265395,0.004278115710616112
1746276042376950500,4.769950439453125,-0.010194646278023719,0.008563757140561937,-0.029548750567436218
1746276042386930400,4.779930419921875,-0.09279927972853183,0.016234437898918985,-0.023676059141755103
1746276042396909600,4.78990966796875,-0.12898761444091797,0.014843641127645968,-0.0006079027652740478
1746276042406889500,4.799889404296875,-0.07227963879108429,0.021504121930152175,0.056661798420548436
1746276042416868400,4.809868408203125,0.028862521868944165,0.03286335500814021,0.0803700062662363
1746276042426848500,4.8198486328125,0.06558861671984195,0.032515491418540474,0.051475920215249056
1746276042436828400,4.829828369140625,0.021515666237473488,0.0038536066882312297,-0.0180903679639101
1746276042446807300,4.839807373046875,-0.0255845231115818,-0.001686784043163061,-0.01181844808757305
1746276042456787500,4.849787353515625,-0.04292494949102402,0.007403773450478911,-0.0010918868899345397
1746276042466766300,4.859766357421875,-0.030202246040105817,0.009466551199182868,0.022937807995080946
1746276042476746500,4.86974658203125,0.017810966500639916,0.0197477067168802,0.06839841344356537
1746276042486725600,4.8797255859375,0.04762158287465572,0.018668606243282555,0.10528700537979602
1746276042496705500,4.88970556640625,0.04139116405248642,0.0020177695631980893,0.06975508874952793
1746276042506685400,4.899685546875,-0.04605623325407505,0.01204736147262156,0.02780804437994957
1746276042516664600,4.90966455078125,-0.09599369185566901,0.0026817133646458388,-0.017224106523394584
1746276042526644500,4.91964453125,-0.04662205044329166,0.0167631379481405,-0.01671264986991882
1746276042536623400,4.929623291015625,0.014005144476890562,0.01748319585099816,0.008609422913193701
1746276042546603500,4.939603515625,0.05850421141684055,0.005878682775050401,0.019133155015110967
1746276042556582400,4.94958251953125,0.04860533321499824,0.0023106150299310683,0.012307108387351036
1746276042566562300,4.959562255859375,0.01546528015732765,-0.001173500758782029,0.02165069079399109
1746276042576541400,4.96954150390625,-0.010630115085840225,0.006417173565924167,-0.008922142124176025
1746276042586521300,4.979521240234375,-0.036761166164278984,0.03018646394908428,0.02381634439527988
1746276042596501200,4.989501220703125,0.009728782331943511,0.04007219040840864,0.06686579704880714
1746276042606480400,4.99948046875,0.040865094351768494,0.018233502761647105,0.08502981477081775
1746276042616460500,5.00946044921875,0.04146890546381473,-0.017805705803632735,0.07415010883808136
1746276042626439700,5.019439697265625,0.03631751405000686,-0.010064517092332243,0.04577157109379768
1746276042636419600,5.029419677734375,0.056906713092327116,0.0030961393844336268,0.04666238245368003
1746276042646398500,5.0393984375,0.08094283771812916,-0.007707578702643513,0.05726502501070499
1746276042656378600,5.049378662109375,0.11751111165881156,-0.006194909117370843,0.04119944087266922
1746276042666358500,5.059358642578125,0.12772972333431243,-0.003088248338922858,0.01933013889193535
1746276042676337400,5.06933740234375,0.097910923653841,0.01668488508015871,0.013128361642360687
1746276042686317600,5.079317626953125,0.010157821398973465,-0.00632774171680212,0.00034720600247383117
1746276042696296400,5.08929638671875,-0.03898994812965393,-0.013970876881107687,0.027917934495210645
1746276042706276400,5.0992763671875,-0.04773439559936523,0.00660736237578094,0.014727613532543182
1746276042716255500,5.10925537109375,-0.046916064953804015,0.001763648671656847,-0.01817103198468685
1746276042726235400,5.1192353515625,-0.10305354723930359,0.008861205717176199,-0.00998246483206749
1746276042736214300,5.12921435546875,-0.12889175285100937,0.02058401141054928,-0.011981529694795608
1746276042746194400,5.1391943359375,-0.12236615047454834,0.014696341611444948,0.008345219019055366
1746276042756174600,5.149174560546875,-0.05359247397780418,0.016727189851924777,0.021565935119986532
1746276042766153500,5.159153564453125,0.012555530190467833,0.0571442481752485,0.051367783665657044
1746276042776133600,5.169133544921875,0.03213642897307872,0.03914448110423982,0.057392450782656666
1746276042786112500,5.179112548828125,0.0129927525639534,0.0021161153711378574,0.023552140501141548
1746276042796092400,5.189092529296875,-0.00319850378036499,0.028964520938694477,-0.019461656317114828
1746276042806071600,5.199071533203125,-0.05490881727337837,0.04140497338213026,-0.006887421426177025
1746276042816051500,5.209051513671875,-0.03973404449522495,0.047954979547485704,0.05311258150637149
1746276042826031400,5.21903125,-0.0015267711758613586,0.03644508595243096,0.05357376927733421
1746276042836010500,5.229010498046875,0.03697334761023521,0.02132160497009754,0.03469838841557502
1746276042845990400,5.238990478515625,0.048559740507602686,-0.0007063947036862373,0.004796002104878425
1746276042855969500,5.248969482421875,0.04319090695083141,-0.004186418839171528,-0.004575052830576897
1746276042865949400,5.258949462890625,0.009110358172655104,-0.014877105005830525,-0.00675298139154911
1746276042875928300,5.26892822265625,-0.03488894255161285,-0.004365647863596678,-0.013159925824403762
1746276042885908500,5.278908447265625,-0.07496200974285602,-0.007782689765468239,0.027789339679479597
1746276042895887400,5.288887451171875,-0.07953121735453605,-0.021159473210945724,0.05413958646655082
1746276042905867500,5.298867431640625,-0.03822948515117168,-0.0031549568995833397,0.0773901136726141
1746276042915847400,5.308847412109375,-0.00568681346476078,-0.0016973054371774196,0.09831073662638663
1746276042925826600,5.31882666015625,0.018029577687382697,-0.0027427959021180865,0.07173194178044795
1746276042935806500,5.328806396484375,0.016070260313153267,-0.01457308055795729,0.038593642288446424
1746276042945785600,5.33878564453125,0.026850597524642944,0.017058394567668438,0.012846037569642066
1746276042955765500,5.348765625,0.045205753904581064,0.03241692641489208,0.006569441518187523
1746276042965744400,5.358744384765625,0.03202770790159702,0.04327434745058417,0.017193126863241193
1746276042975724500,5.368724609375,0.03899579334855079,0.02818995636962354,-0.008870119675993918
1746276042985704400,5.378704345703125,0.05354629674851894,0.03770853001698851,-0.003066401833295822
1746276042995683300,5.388683349609375,0.037169746965169906,0.015871230609714983,0.023547464326024056
1746276043005663500,5.39866357421875,-0.0344990664511919,0.022055326072126624,0.002375496959686279
1746276043015642400,5.408642333984375,-0.08649988732337952,0.0030509120032191275,-0.0012415244936943054
1746276043025622300,5.418622314453125,-0.1037935519516468,0.018796105080470443,0.016264321580529213
1746276043035601400,5.428601318359375,-0.08555763803720473,0.03178396227359771,0.053629298856854433
1746276043045581300,5.438581298828125,-0.06672960344851017,0.020445260526984928,0.07957096484303473
1746276043055560400,5.448560546875,-0.06797521959543228,0.03447692768462002,0.07277823596298694
1746276043065540600,5.45854052734375,-0.005703764599561691,0.01616831386014819,0.05383621960580349
1746276043075520500,5.4685205078125,0.0537485413223505,0.022080898904800413,0.04706102638244629
1746276043085499600,5.478499755859375,0.09929097983539104,-0.005232713021710514,0.02184884371459484
1746276043095479600,5.4884794921875,0.12210428466796874,0.012713643361628054,0.012164485046267508
1746276043105458400,5.49845849609375,0.11123743821680546,0.006855784178897738,0.013449848681688309
1746276043115438300,5.508438232421875,0.08570201494395732,-0.003827814659848809,0.03291150499880314
1746276043125417500,5.51841748046875,0.04749357258081436,0.01139934589266777,0.030789690539240834
1746276043135397400,5.5283974609375,-0.027524551263451574,0.007952785635367035,0.006461304968595504
1746276043145377300,5.538377197265625,-0.09956161347031593,-0.000049903556331992145,0.02270809089243412
1746276043155356400,5.5483564453125,-0.08254910387098789,0.0075079644773155445,0.046697453767061234
1746276043165336300,5.55833642578125,-0.05053600901663303,0.007128098314255475,0.0633031361311674
1746276043175315500,5.5683154296875,-0.010662263789772987,0.011792436863481998,0.06409165616035462
1746276043185295400,5.57829541015625,-0.01073357546031475,0.014380188334360718,0.022121230915188788
1746276043195274200,5.588274169921875,-0.012814473387598991,0.014315233339369297,0.024379238975048064
1746276043205254700,5.598254638671875,-0.007621580919623374,0.02197590416036546,0.03030979806780815
1746276043215233500,5.608233642578125,0.01642915675342083,0.0168677673663944,0.028999299991130826
1746276043225213400,5.61821337890625,0.06849661312103271,0.022045170004293322,0.031413959917426106
1746276043235193600,5.628193603515625,0.0817681826263666,0.004937310271710157,0.048047114810347555
1746276043245172500,5.63817236328125,0.08203355556428432,0.01777246112115681,0.029853870993852612
1746276043255152400,5.64815234375,0.037489480438828465,0.014937529956176877,0.020445406657457352
1746276043265131500,5.658131591796875,-0.02288286293745041,0.019254370241984724,0.030369419300556182
1746276043275111400,5.668111328125,-0.08527356039881706,0.01195953705869615,-0.001107084459066391
1746276043285090600,5.678090576171875,-0.13617840272784232,0.02578589090257883,-0.00277238732278347
1746276043295070500,5.688070556640625,-0.11520984897911547,0.017283727756142616,0.027736732709407803
1746276043305050600,5.698050537109375,-0.04222936844229698,0.013672916847839951,0.04358312113881111
1746276043315029500,5.708029541015625,0.03774842363595962,0.0024661709178239104,0.049180502754449844
1746276043325009700,5.718009765625,0.048424131429195404,-0.00004091653227806091,0.047078562039136886
1746276043334988500,5.727988525390625,0.06703589291870593,-0.00286116158477962,0.012288988208770751
1746276043344968400,5.737968505859375,0.03823416132628917,0.0020578093126416203,0.007370236507058143
1746276043354947600,5.747947509765625,0.05597732328772544,0.007887538379430771,0.012740239107608794
1746276043364927500,5.757927490234375,0.05548924750983715,0.026434417939186095,0.005478139150142669
1746276043374906600,5.76790673828125,0.028965397721529004,0.027433073587715625,0.009532382977008818
1746276043384886500,5.777886474609375,-0.06265490135550499,0.008420037820935249,0.004306757283210754
1746276043394866400,5.787866455078125,-0.09611877954006194,0.009679097971320152,0.01651975764632225
1746276043404845600,5.797845458984375,-0.03871580736339092,0.010196545974165201,0.03684592183828354
1746276043414825500,5.807825439453125,0.032496494457125664,0.028399799728021025,0.052265609288215636
1746276043424804400,5.817804443359375,0.05319149196147918,0.03804017312414944,0.05731529389321804
1746276043434784500,5.827784423828125,0.05640928496420383,0.020611045547947286,0.030976153022050857
1746276043444763400,5.837763427734375,0.07241290978193282,0.01253565644621849,0.01963058314323425
1746276043454743300,5.847743408203125,0.060190557068586344,-0.0048628567960113285,-0.00755903707742691
1746276043464723700,5.8577236328125,0.01903203272819519,-0.02494344872906804,-0.011429741030931473
1746276043474702600,5.86770263671875,-0.045157823109626766,-0.0065511752091348165,-0.005811901149153709
1746276043484682500,5.8776826171875,-0.13609013992249966,-0.004911299047619104,-0.003448679149150848
1746276043494661600,5.88766162109375,-0.17497604315578935,0.015628654025495053,0.03360416343808174
1746276043504641500,5.8976416015625,-0.13625672866106034,0.03232880974002182,0.06315642113685607
1746276043514620400,5.907620361328125,-0.06165127727091312,0.0351350262671709,0.09378419911265373
1746276043524600600,5.9176005859375,-0.005226210215687752,0.042274961149692536,0.0746715023636818
1746276043534579500,5.927579345703125,0.03521627480983734,0.014974647096171974,0.0326952318996191
1746276043544559400,5.937559326171875,0.08556699038743973,0.0027253333106637,0.015582184535264968
1746276043554539500,5.94753955078125,0.1076104798913002,0.022906682204455135,0.011682254487276077
1746276043564518400,5.957518310546875,0.12397183210551738,0.02947692744024098,0.03752981244921684
1746276043574498300,5.967498291015625,0.08717384106218815,0.0453760689701885,0.02017185041308403
1746276043584477400,5.9774775390625,0.024340076008439064,0.012881108883023261,-0.013744447714090346
1746276043594457300,5.987457275390625,-0.05466039547026157,-0.01744732082001865,-0.030559388914704323
1746276043604436500,5.9974365234375,-0.06738485248684883,-0.020656345994397998,-0.0036374797195196148
1746276043614416600,6.007416748046875,-0.030775662013888358,-0.005107698402553797,0.02402209610044956
1746276043624396500,6.017396484375,0.02019581581056118,0.010767039338499308,0.08228139284551143
1746276043634375700,6.027375732421875,0.04188683861494064,0.010042378325760364,0.09502163195312023
1746276043644355600,6.03735546875,0.006340893459320068,-0.00788921887986362,0.060308630490303036
1746276043654334500,6.04733447265625,-0.04265723846554756,0.002240253207460046,-0.0045960956186056135
1746276043664314600,6.057314697265625,-0.051551908060908314,0.017519947664812206,-0.024455811342597007
1746276043674293500,6.06729345703125,-0.003000350859761238,0.02483509298376739,-0.00449906498491764
1746276043684273400,6.0772734375,0.05939326921105385,0.024651699240878223,0.02381166822016239
1746276043694252500,6.08725244140625,0.0584019200861454,0.03964906962551176,0.033579028996825216
1746276043704232400,6.097232421875,-0.03579904313385487,0.01647095006853342,0.0037836101919412612
1746276043714212400,6.10721240234375,-0.12806991507411003,0.000575607930868864,-0.009406710770726204
1746276043724191500,6.11719140625,-0.13114976091086863,0.003871726866811514,0.006330956587195396
1746276043734171400,6.12717138671875,-0.03331131797134876,0.00913921894095838,0.03540215277075767
1746276043744150500,6.137150634765625,0.03405190720558166,0.03392126656323671,0.08366612520217895
1746276043754130700,6.147130615234375,0.070706105864048,0.018598682812228796,0.07264262688457965
1746276043764109600,6.157109619140625,0.06671382135748863,-0.005821107368916272,0.03257365134656429
1746276043774089500,6.16708935546875,0.00516132828593254,-0.010080956770479679,0.020703765332698822
1746276043784069600,6.177069580078125,-0.015578092882037162,0.0015839081905782222,-0.002390110006928444
1746276043794048500,6.187048583984375,-0.010556465327739715,0.0037404286373406647,0.022809213179349898
1746276043804028400,6.1970283203125,-0.012652560824155806,0.028812106855958697,0.029699557214975355
1746276043814007600,6.207007568359375,-0.020646482187509536,0.01907470282614231,0.0009346505016088485
1746276043823987500,6.216987548828125,-0.1012795233041048,0.015447306109219789,-0.023010873231291768
1746276043833966600,6.226966552734375,-0.1003214919269085,0.04204034867621958,-0.007494155147671699
1746276043843946500,6.236946533203125,-0.012729717713594435,0.05089819339253008,0.028904022923111915
1746276043853925400,6.24692529296875,0.051883916494250296,0.02781111311987042,0.05734393546581268
1746276043863905500,6.256905517578125,0.058715223819017406,0.014719722487032412,0.05410685324072838
1746276043873885400,6.266885498046875,0.03160685214102268,0.0002503945644944906,0.02055705033838749
1746276043883864300,6.2768642578125,0.01539163039922714,0.00884454684332013,0.029319617986679074
1746276043893844500,6.286844482421875,-0.004712415474653244,0.012484729976579546,0.004675590595602989
1746276043903823600,6.29682373046875,0.01868248863816261,0.0010727437980473042,0.023844985967874526
1746276043913803500,6.306803466796875,0.04087093957066536,0.009837211142480373,-0.001360182437300682
1746276043923782700,6.31678271484375,0.025469372299313543,0.003300210589170456,-0.002712181568145752
1746276043933762600,6.326762451171875,-0.013402502408623694,0.00042677404470741745,0.005717793124914169
1746276043943741400,6.336741455078125,-0.00018529343903064726,0.019750483195856212,0.04994739547371864
1746276043953721600,6.3467216796875,0.008327098840475082,0.015699308108910917,0.03736556179821491
1746276043963701500,6.356701416015625,-0.00015606734454631804,0.01822970336936414,0.055717795568704605
1746276043973680400,6.366680419921875,-0.023093875339627264,0.0036987814527004955,0.016152677899599073
1746276043983660500,6.37666064453125,-0.012529226705431938,-0.011722075041010974,-0.0009469254612922668
1746276043993639400,6.386639404296875,-0.021174889975786208,0.005251052395999431,0.0281073195874691
1746276044003619300,6.396619384765625,-0.01244505555331707,0.03818718037940561,0.061332128319144245
1746276044013598500,6.406598388671875,-0.02726151641309261,0.023476225720718502,0.041214638441801066
1746276044023578400,6.416578369140625,-0.06035071606636047,0.008305982987210154,-0.017109540233016012
1746276044033558500,6.42655859375,-0.06813830120265484,-0.0020470687229186295,0.006852350112795829
1746276044043537700,6.43653759765625,-0.002140519160032272,0.004308803109824657,0.025128596037626266
1746276044053517600,6.446517578125,0.040322073516249654,-0.006622048488259315,0.05023848737478256
1746276044063496700,6.45649658203125,0.04696048861742019,-0.017759236313402652,0.04981120187342167
1746276044073476600,6.4664765625,0.01964110453724861,-0.011448372666165232,0.036628479695320126
1746276044083455500,6.47645556640625,0.0046855274677276605,-0.0026722879491746423,0.01377484285235405
1746276044093435600,6.486435546875,-0.015706103175878523,0.015097469758242367,0.037277883514761925
1746276044103414500,6.49641455078125,-0.024399112719297407,0.031386487388610836,0.04668517880737781
1746276044113394400,6.50639453125,-0.048179801279306406,0.04303834673762321,0.01368891813457012
1746276044123374300,6.516374267578125,-0.03396013726890087,0.033135815273970366,0.011059738674759864
1746276044133353500,6.526353515625,-0.015953940457105634,0.03282163475826382,0.0010123919129371643
1746276044143333400,6.53633349609375,0.021053893944621083,0.03880202434211969,-0.002301262679696083
1746276044153312500,6.5463125,0.02769464713335037,0.04480732917152345,0.004545242214202881
1746276044163292400,6.55629248046875,0.04016016095280647,0.04681012036129832,0.022486557096242903
1746276044173271300,6.566271240234375,0.04642915821969509,0.02147577261850238,0.04552840998768806
1746276044183251700,6.576251708984375,0.03923895445466041,0.023261560056731103,0.041297640550136565
1746276044193231600,6.586231689453125,0.008217208725214004,0.0317757789671421,0.032930794221162796
1746276044203210200,6.596210205078125,-0.04498714271783828,0.011841609767451881,0.03500233979821205
1746276044213190400,6.6061904296875,-0.07018120520710945,0.0215150817155838,0.029351766690611836
1746276044223169300,6.616169189453125,-0.07142448326647281,0.0186770087454468,0.010723054066300391
1746276044233149200,6.626149169921875,-0.045398061606287954,0.011269874294102191,0.021897943553328515
1746276044243128300,6.63612841796875,-0.022875848674774168,0.025203049513325092,0.031602175965905185
1746276044253108200,6.646108154296875,-0.009251812469959259,0.003983151352033019,0.008650339445471764
1746276044263087400,6.65608740234375,0.009913491249084472,0.024602891663089394,0.02903495582640171
1746276044273067300,6.6660673828125,0.06477145511806011,0.014497969495132565,0.04535889863967895
1746276044283047200,6.676047119140625,0.0891542012244463,0.004478533653542399,0.03704465928077698
1746276044293026300,6.6860263671875,0.0830932937502861,0.008875818764418363,0.0568073443710804
1746276044303006200,6.696006103515625,0.032795769664645195,-0.008658376621454954,0.07742693855166435
1746276044312985000,6.705985107421875,-0.023023148190975187,-0.010009791230410337,0.04697393262088299
1746276044322965200,6.71596533203125,-0.004399111741781234,0.02033624719455838,0.05780161610543728
1746276044332944100,6.725944091796875,-0.01585164912641048,-0.007477861599996686,0.05095394216775894
1746276044342924000,6.735924072265625,-0.014750994408130646,0.0033445611875504255,0.03485854741334915
1746276044352904200,6.745904296875,0.02680968099236488,0.001471314661577344,0.05324760606288909
1746276044362883000,6.755883056640625,-0.0047439796566963194,-0.01788593143299222,0.05956044247150421
1746276044372863200,6.76586328125,-0.057113633841276164,-0.0012891630277037619,0.030060791742801664
1746276044382842400,6.77584228515625,-0.06580313625335693,0.0073047700554132455,0.0237502934217453
1746276044392822300,6.785822265625,-0.02531272043287754,0.02072152018509805,0.02244096438884735
1746276044402801200,6.79580126953125,0.015410919621586798,0.027289500398561355,0.013918635237216948
1746276044412781300,6.80578125,0.04308627753257751,0.02061667157113552,0.047230537730455394
1746276044422760200,6.81576025390625,0.049316111832857126,-0.012846768222004175,0.059040802511572836
1746276044432740000,6.825739990234375,0.06233984405696392,-0.02952420064806938,0.04174713788330555
1746276044442720300,6.83572021484375,0.05735270329415798,-0.02810381245613098,0.0634124417245388
1746276044452699100,6.84569921875,0.05628945797681808,-0.020810294447094202,0.06344575947225094
1746276044462679000,6.855678955078125,0.01721300060749054,-0.003679419165104627,0.06403437301516532
1746276044472658200,6.865658203125,-0.09790624747872352,0.01073364852555096,0.046961657661199564
1746276044482638000,6.87563818359375,-0.13714987810850143,-0.004445727362483739,0.05121346988677978
1746276044492617200,6.8856171875,-0.06323650063574314,-0.003827376268431544,0.045289925056695934
1746276044502597000,6.89559716796875,-0.019028525596857068,0.0009446604389697313,0.04754501050710678
1746276044512577300,6.905577392578125,0.015393968486785889,0.01997289377488196,0.04065174386203289
1746276044522556400,6.915556396484375,0.017379004824161527,0.02295052134618163,0.012029460489749908
1746276044532536300,6.925536376953125,0.012235212194919586,0.02373626489639282,-0.011937690553069114
1746276044542515200,6.93551513671875,0.028424130451679228,0.03891432561017573,-0.01289338384270668
1746276044552495400,6.945495361328125,0.07238134559988975,0.06003828911632299,-0.01552022521495819
1746276044562474200,6.95547412109375,0.06722644705474376,0.037458135452494025,-0.02790507501363754
1746276044572454100,6.9654541015625,0.02895955250263214,0.03413425172679126,-0.03277648044228554
1746276044582433300,6.975433349609375,-0.03076864775121212,0.046973201968520874,-0.05035656079649925
1746276044592413200,6.9854130859375,-0.06261340030133723,0.059957625095546245,-0.021690438282489774
1746276044602393000,6.99539306640625,-0.06588438479602336,0.06278897606395184,0.003037175738811493
1746276044612372200,7.005372314453125,-0.060005263629555695,0.050081981638818975,0.009701309803128243
1746276044622352100,7.01535205078125,-0.0250181214004755,0.03633658407665789,0.027971125987172125
1746276044632331000,7.0253310546875,-0.0169575645416975,0.022603315343707797,0.027020693394541738
1746276044642311200,7.035311279296875,-0.00338671982884407,0.004944251469150185,0.0193757315993309
1746276044652290000,7.0452900390625,-0.014065350231528282,-0.003591521685943007,0.03351648515462875
1746276044662270200,7.055270263671875,-0.023262802165746686,-0.02772036609649658,0.05513210463523865
1746276044672250400,7.06525048828125,-0.00849018044769764,0.0031720541648566723,0.057283145189285276
1746276044682229200,7.075229248046875,-0.00765139153599739,0.002447831543534994,0.04341068718135357
1746276044692209200,7.085209228515625,-0.010134440523386001,0.0021481910098344087,-0.00244037888944149
1746276044702188300,7.095188232421875,0.00384030881524086,0.011586831288784741,-0.0021574702948331833
1746276044712168200,7.105168212890625,0.04903729489147663,0.03858392461203038,0.014809446597099303
1746276044722147300,7.115147216796875,0.06074293025434017,0.03341455915011465,0.024769115075469014
1746276044732127200,7.125127197265625,0.06554653114378452,0.013914032127335666,0.026338556349277495
1746276044742106000,7.135106201171875,0.06837561708986759,-0.009497384728863835,0.08521744629740714
1746276044752086300,7.145086181640625,0.0732289023399353,-0.01905329471193254,0.09114449825882912
1746276044762066200,7.155066162109375,0.04642039039134979,-0.007077683301270008,0.07849895169734955
1746276044772045000,7.165045166015625,-0.016637831068038938,-0.007006079369783401,0.04304126934707164
1746276044782025200,7.175025146484375,-0.07993219937086105,-0.00566547841578722,0.02324351294338703
1746276044792004000,7.185004150390625,-0.06467793161571025,0.01523972777314484,0.03883504982888698
1746276044801984300,7.194984375,-0.003317746245861053,0.02213299441821873,0.05220306544601917
1746276044811963400,7.20496337890625,0.006755904000997543,0.029690643256157636,0.0388297891318798
1746276044821943300,7.214943359375,0.01327683020234108,0.024956892732530832,0.01930558897256851
1746276044831923200,7.224923095703125,-0.04015080860257148,0.03134140613786876,-0.022438041779398916
1746276044841902300,7.23490234375,-0.04769698619842529,0.04247779024541378,-0.035465281134843825
1746276044851882200,7.24488232421875,0.020605565655231476,0.04476524359546601,-0.012765958070755003
1746276044861861000,7.254861083984375,0.05854220533967018,0.04037270772494375,0.007225859600305556
1746276044871841300,7.26484130859375,0.0415489849627018,0.017698811363056302,0.007071545821428299
1746276044881820200,7.274820068359375,-0.030975568500161168,0.014682605347037315,0.0169663323700428
1746276044891800000,7.284800048828125,-0.077729720890522,-0.00672368223182857,0.06114625035822391
1746276044901779200,7.294779296875,-0.04064005342423915,-0.0022102233953773974,0.06485737983584404
1746276044911759000,7.304759033203125,0.01853869625329971,-0.024264015097543595,0.057500002810359
1746276044921739000,7.314739013671875,0.04862111530601978,-0.0012814181126654146,0.05952244854867458
1746276044931718100,7.32471826171875,0.012167407655715941,0.011818740348517895,0.05359773467481136
1746276044941698300,7.3346982421875,-0.029610125365853307,-0.014627587224170565,0.0010977321088314056
1746276044951677400,7.344677490234375,-0.03255670021176338,0.014704890244081616,-0.023730419677495954
1746276044961657300,7.3546572265625,-0.0029307927548885343,0.011870835861936211,-0.0040390462577342984
1746276044971636200,7.36463623046875,0.011054477977752684,0.012363514749705791,0.010772738426923752
1746276044981616400,7.374616455078125,-0.011872224101424217,0.018928864614665506,-0.01196750116944313
1746276044991596300,7.38459619140625,-0.02164016939997673,0.0344686713129282,0.027533319091796873
1746276045001575200,7.3945751953125,0.002672434079647064,0.04805047581121325,0.0825093563824892
1746276045011555000,7.40455517578125,0.028769582888484,0.011485562871396541,0.07673778724372386
1746276045021534200,7.4145341796875,0.035890813070535654,0.012052329908683896,0.03361176222264767
1746276045031514000,7.42451416015625,0.00859948604106903,0.013939312699064612,0.04123275862038135
1746276045041493200,7.4344931640625,-0.002072130098938942,0.015684987322613596,0.04779167874455452
1746276045051473200,7.44447314453125,-0.0034720600247383116,0.022653657291457057,0.03817921626865864
1746276045061452000,7.4544521484375,0.007561375164985657,0.011936010052636266,0.0325906024813652
1746276045071432200,7.46443212890625,-0.01664133819937706,0.020805326011031865,0.024387422281503677
1746276045081412400,7.474412353515625,-0.025064883151650428,0.023503186792880295,0.010400982505083084
1746276045091391200,7.48439111328125,-0.03472527642250061,0.02915149487815797,-0.007971125009655952
1746276045101371400,7.494371337890625,-0.030935236489772793,0.024397066892683505,-0.0026776947766542435
1746276045111350300,7.504350341796875,-0.04345978702008724,0.02588810916803777,0.01224631811082363
1746276045121330200,7.514330078125,0.008376198679208755,0.01082943705022335,0.036597500035166736
1746276045131309300,7.524309326171875,0.06872106952667235,0.010582841878011822,0.03028057197332382
1746276045141289200,7.534289306640625,0.05836626425087452,0.017999182549118996,0.026910218757390976
1746276045151269000,7.54426904296875,0.01507189692556858,0.025847777157649396,0.015924714362621308
1746276045161248300,7.554248291015625,0.02609305715560913,0.0253515911385417,0.02396422843337059
1746276045171228200,7.564228271484375,0.0003542202651500702,0.010035583258792757,0.04040156849324703
1746276045181207300,7.574207275390625,-0.02080664118528366,0.00812185859195888,0.013802315381169319
1746276045191187200,7.584187255859375,-0.024734628283977506,0.013740356060862541,0.016801497197151183
1746276045201166000,7.594166015625,-0.016130466067790984,0.005479527389630675,0.026847090393304823
1746276045211147000,7.60414697265625,0.02149111631810665,-0.0004768237315118313,0.027473113337159155
1746276045221126000,7.6141259765625,0.037355040404200554,0.0007185965981334447,0.006263736569881439
1746276045231106000,7.62410595703125,0.06282207461595535,-0.014807912227138877,0.0289525382399559
1746276045241086000,7.6340859375,0.04958966807723045,0.00045366205163300036,0.03583528349101543
1746276045251065000,7.644065185546875,0.03994797950685024,-0.009461217436939477,0.05309796845912933
1746276045261045000,7.654044921875,0.030666356420516967,-0.015254998407512902,0.0627934330433607
1746276045271023900,7.66402392578125,0.031065000349283216,-0.025200638360530138,0.05175181454718113
1746276045281004000,7.674004150390625,0.03061608753800392,0.006664060999080538,0.05610533358156681
1746276045290983000,7.68398291015625,0.016876315999031066,-0.0031875439949333667,0.02715396438539028
1746276045300962800,7.693962890625,-0.013599486285448074,0.028609350825473664,-0.0017658406287431715
1746276045310943000,7.70394287109375,-0.08146656933128833,0.02723828166797757,-0.014310849425196647
1746276045320921900,7.713921875,-0.14429039751291275,0.028218013420328498,-0.036461306434869764
1746276045330901800,7.72390185546875,-0.20190847374498844,0.04644121398366988,-0.021328034710884094
1746276045340881000,7.733880859375,-0.14666121829748152,0.05681662365607917,0.01954524294734001
1746276045350861000,7.743861083984375,-0.024825813698768615,0.032981063103675844,0.06240472598671913
1746276045360840000,7.75383984375,0.07128244444727898,0.046179567372798914,0.06110182669460773
1746276045370820000,7.763820068359375,0.11097907954156398,0.02449680094011128,0.026650106516480445
1746276045380799000,7.773799072265625,0.06664192516505718,0.00918532310500741,-0.016291794109344483
1746276045390779100,7.783779052734375,0.021200608938932417,-0.0002956219457089901,-0.0259504338145256
1746276045400759000,7.793759033203125,0.004988309806585311,0.024063231828436255,0.009048983374238014
1746276045410738000,7.803738037109375,0.012036474752426148,0.0250181214004755,0.046586979129910465
1746276045420718000,7.813718017578125,-0.0023345804274082184,0.0341648660607636,0.05743921253383159
1746276045430697000,7.823697021484375,-0.027049334967136383,0.019811931059509513,0.026966917380690573
1746276045440676900,7.8336767578125,-0.05521627578735351,0.0010999240659177302,0.01475683962702751
1746276045450656000,7.843656005859375,-0.045637131059169764,0.011567322870716452,0.013645078992843626
1746276045460636000,7.853635986328125,0.02393967851400375,0.028200112437456844,0.019569208344817162
1746276045470615800,7.86361572265625,0.03833879074454307,0.01467325299680233,0.03785422209799289
1746276045480595000,7.873594970703125,0.0026057985842227933,0.008396656945347785,0.0018055881172418593
1746276045490575000,7.8835751953125,-0.06383388200700282,-0.012572627455741166,-0.01677636275589466
1746276045500553700,7.8935537109375,-0.06696691933572292,0.013085910740122199,0.008812836530804634
1746276045510534100,7.9035341796875,-0.0022813889354467392,0.0209628546603024,0.04592880748212337
1746276045520513000,7.913512939453125,0.03151157507300377,0.003319865137711167,0.07399754862487316
1746276045530493000,7.923492919921875,0.046455461704730985,-0.004001271530613303,0.06782441294789314
1746276045540473000,7.93347314453125,0.04887479780614376,-0.020820523580163716,0.010489829832315445
1746276045550452000,7.943451904296875,-0.010157821398973465,-0.010201222149282693,-0.035088849037885665
1746276045560431900,7.953431884765625,-0.036351416319608684,0.0012126637253910303,-0.0009159458011388778
1746276045570411000,7.963410888671875,-0.010602058035135269,0.033476810731366276,0.05287000492215156
1746276045580391000,7.973390869140625,0.027998598515987395,0.028801147070527076,0.05928454813957214
1746276045590370000,7.9833701171875,0.018218962779641152,0.008622501590475439,0.04981996970176696
1746276045600350000,7.993349853515625,0.004458732974529266,0.014480799164623021,0.016738368833065034
1746276045610328800,8.003328857421875,-0.00723228934109211,0.019413287130743265,0.02424830607175827
1746276045620309000,8.01330908203125,-0.012216507494449615,0.0177757490567863,0.03261573692262173
1746276045630289200,8.0232890625,-0.017129998499155044,0.01798442337140441,0.04063420820534229
1746276045640267800,8.033267822265625,-0.022364976543188093,0.0021354045934975146,0.01812134762406349
1746276045650248000,8.043248046875,-0.010129179826378822,0.02535641344413161,-0.004569207611680031
1746276045660227000,8.05322705078125,0.010976152044534683,0.01899118926115334,-0.0034749826341867445
1746276045670207000,8.06320703125,0.007476619490981102,-0.002133577962592244,0.034904140120744706
1746276045680186000,8.07318603515625,-0.00686930124759674,0.017303309239447114,0.0177899237126112
1746276045690166000,8.083166015625,-0.007388941207528114,0.010051438415050505,0.016291794109344483
1746276045700146000,8.09314599609375,0.023123101434111594,0.0014267448674887418,0.011662380743026732
1746276045710125000,8.103125,0.03106792295873165,0.02279072767458856,0.0486029951274395
1746276045720105000,8.11310498046875,0.03575345042645931,0.018142755738273262,0.07040390804708004
1746276045730083800,8.123083740234375,0.030461189237236976,-0.01044153371118009,0.026191256833076475
1746276045740064000,8.13306396484375,0.03464052074849605,0.0037414515506476163,0.013706453791260719
1746276045750043000,8.14304296875,0.04201894056200981,0.03388656057603657,0.021959318351745603
1746276045760022800,8.153022705078126,0.02458382163643837,0.009156681532412766,0.034139000967144964
1746276045770002000,8.163001953125,-0.021873393633961676,0.020092793827503917,0.01813128449618816
1746276045779981800,8.17298193359375,-0.08149053472876548,0.04874247666336596,-0.0043570261657238
1746276045789962000,8.1829619140625,-0.1253869596004486,0.059972457338497036,0.011439677903056144
1746276045799941000,8.192941162109374,-0.08507248486876487,0.06286554843150079,0.02022328833937645
1746276045809921000,8.202921142578125,-0.02458382163643837,0.040585035301372405,0.003277414235472679
1746276045819900200,8.212900146484374,0.03760346220731735,0.0007565174557268619,-0.0022580080598592757
1746276045829880000,8.222880126953125,0.06943710884153842,-0.015748992469534276,0.009897709158062934
1746276045839859000,8.23285888671875,0.08620528829097747,-0.028075755405426023,0.0457446830868721
1746276045849838800,8.2428388671875,0.09058978698551655,-0.02229790265634656,0.0650806671977043
1746276045859819000,8.252819091796875,0.06852525469362736,-0.020785452266782523,0.08135726373791693
1746276045869798000,8.2627978515625,0.025354806008934975,-0.018142463477328417,0.08938158023953437
1746276045879777800,8.27277783203125,-0.007350947284698486,-0.02745039004869759,0.06050152271389961
1746276045889757000,8.2827568359375,-0.05947159514427185,-0.010830167702585458,-0.007987491622567176
1746276045899736800,8.29273681640625,-0.1049567505121231,0.01720693619288504,-0.025087094983458517
1746276045909716000,8.302716064453126,-0.11972878770828246,0.06258380888067186,0.024874329015612602
1746276045919696000,8.31269580078125,-0.10676292315125464,0.052851884743571276,0.041347324910759924
1746276045929674800,8.3226748046875,-0.037897476717829705,0.053993821320310234,0.030885552129149434
1746276045939655200,8.3326552734375,0.017454992669820785,0.027427812890708444,0.006837152543663978
1746276045949635000,8.342635009765624,0.032927287089824675,0.0339562648113817,0.0017716858476400374
1746276045959614000,8.352614013671875,0.05259937128722667,0.006977730058133602,0.009514262798428534
1746276045969594000,8.362593994140624,0.04931202017962932,0.01525653277747333,0.0332440979540348
1746276045979573000,8.372572998046875,0.025613164684176442,0.007831058951839805,0.02569265966117382
1746276045989553000,8.382552978515625,-0.00007657236754894256,0.004253784986957908,0.02528174077272415
1746276045999532000,8.392531982421875,-0.009576806640625,0.010386880914494395,0.03585457271337509
1746276046009512000,8.402511962890625,-0.009844517666101456,0.012412833784148097,0.03656652037501335
1746276046019491800,8.412491943359376,0.01921674164533615,0.009116934043914079,0.067947747066617
1746276046029471000,8.422470947265625,0.03569675180315971,0.018083572896942495,0.04568038567900658
1746276046039451000,8.432450927734376,-0.005478139150142669,0.007785904635861516,0.05429390024542808
1746276046049430000,8.442429931640625,-0.027134675163030624,0.01346424253322184,0.03758943368196487
1746276046059410000,8.452409912109376,-0.004665653723478317,0.011596110573783517,0.024820553001761433
1746276046069388800,8.462388916015625,0.000058452188968658445,0.01720313680060208,0.025039748710393904
1746276046079369000,8.472368896484374,-0.0021697452545166016,0.010259820468723773,0.03429682187736034
1746276046089349000,8.48234912109375,-0.0025181203007698058,0.005694704510271549,0.015702596044540405
1746276046099328000,8.492327880859374,-0.010633037695288658,0.014041604029759763,0.002565466573834419
1746276046109308000,8.502307861328125,0.020124504140019414,0.014327508299052714,0.003673720076680183
1746276046119287000,8.512287109375,0.012449147206544876,-0.0031751229047775266,0.010985504394769668
1746276046129267000,8.522266845703125,0.01719780303835869,0.017135697587579487,0.029624153891205787
1746276046139246000,8.53224609375,0.06627835254967213,0.006804053991660475,0.04033960917294025
1746276046149226000,8.54222607421875,0.09155483262538909,0.008521013977378606,0.04504793299436569
1746276046159204900,8.552204833984375,0.0603495470225811,0.004264014120027423,0.02651040578484535
1746276046169185000,8.56218505859375,0.05934124676287174,0.005546309015527367,0.040758711367845535
1746276046179165000,8.5721650390625,0.045837622067332266,0.015834990252554415,0.03588087619841099
1746276046189143800,8.582143798828126,0.02761982833147049,0.014415990300104022,0.044834582504630086
1746276046199124000,8.5921240234375,-0.017469021195173264,0.018073636024817822,0.023603578427433967
1746276046209102000,8.60210205078125,-0.09080606008470057,0.008584434602409602,-0.013464461728930472
1746276046219082200,8.612082275390625,-0.12818974206149578,0.016080708641931413,0.0031347908943891523
1746276046229061400,8.622061279296876,-0.16393325561583041,0.017504969291388988,0.012997428739070891
1746276046239041300,8.632041259765625,-0.12444529483616351,0.021418489473313092,0.02825754171311855
1746276046249021200,8.642021240234374,-0.0626414573520422,0.00649374593347311,0.03099427320063114
1746276046259000300,8.652000244140625,0.02699672799706459,-0.0023992431614547967,0.060256023520231246
1746276046268980200,8.661980224609374,0.06942015770673751,-0.00262055776193738,0.024848610052466392
1746276046278959400,8.67195947265625,0.06388648897707462,-0.006001578502357005,-0.014335399344563484
1746276046288939300,8.681939208984375,0.08161211528182029,0.011720102279633283,0.018382044386863708
1746276046298918100,8.691918212890625,0.08850187479555606,0.017075126506760716,0.020641806012392044
1746276046308898300,8.701898193359375,0.05618249047100544,0.01080737134888768,0.01719020425379276
1746276046318878200,8.711878173828126,0.012117723295092583,0.0005023234989494085,-0.00857552064359188
1746276046328857000,8.721857177734375,-0.01764203967452049,0.01735679299235344,-0.012994506129622458
1746276046338837200,8.731837158203126,-0.06311375103890896,0.02962006223797798,0.025763386809825897
1746276046348816100,8.741816162109375,-0.074941551476717,0.03805449391044676,0.0711596948504448
1746276046358796300,8.75179638671875,-0.07345452778935432,0.03784391989968717,0.0517617514193058
1746276046368775400,8.761775390625,-0.08777706765234469,0.027687267544493077,-0.00597089110314846
1746276046378755300,8.77175537109375,-0.07865501904189587,0.017573212222009898,-0.010898995155096054
1746276046388735200,8.7817353515625,0.04960720373392105,0.03265358471497893,0.01568272230029106
1746276046398714400,8.79171435546875,0.11332301231920719,0.02654861890338361,0.03134206372499466
1746276046408694300,8.8016943359375,0.12365969741642474,0.006810995189100504,0.03437397876679897
1746276046418673200,8.811673095703124,0.060979661619663235,-0.016636296698078513,0.02032207253873348
1746276046428653300,8.8216533203125,-0.019202128598093986,-0.022656433770433068,0.026631401816010473
1746276046438632200,8.831632080078125,-0.0553822800040245,-0.012215922972559929,0.03298515475690365
1746276046448612000,8.841612060546876,-0.022267361387610433,0.002042319482564926,0.052255087894201274
1746276046458591200,8.85159130859375,-0.009411971467733383,0.03263341870978474,0.05383329699635506
1746276046468571100,8.861571044921876,-0.044214989301562306,0.003274126299843192,0.04584638989567756
1746276046478551000,8.871551025390625,-0.0705880324423313,-0.0020656272929161787,0.028493104034662244
1746276046488530200,8.8815302734375,-0.04344166684150696,0.024612828535214064,0.014032032483816147
1746276046498510300,8.89151025390625,0.030191724646091458,0.030942250752449035,0.01648059467971325
1746276046508489200,8.9014892578125,0.04026069871783256,0.036493162877857685,0.029310850158333776
1746276046518469400,8.911469482421875,0.027233459362387656,0.025845219874382017,0.0003688333123922348
1746276046528448300,8.9214482421875,-0.0036520927667617795,0.025261647832766174,-0.026886837881803512
1746276046538428400,8.931428466796875,0.00934767405986786,0.0264493232473731,-0.015529577565193175
1746276046548408300,8.941408203125,0.03818213887810707,0.01869374068453908,0.007241057169437408
1746276046558387200,8.95138720703125,0.028154665860533713,0.003577127834409475,0.030596213793754577
1746276046568367400,8.961367431640625,0.005863923597335815,0.003330094270780682,0.06717734721601008
1746276046578346200,8.97134619140625,-0.03596037117540836,-0.002043123200163245,0.04642915821969509
1746276046588326100,8.981326171875,-0.048507718059420585,0.010357947080954909,0.03358195160627365
1746276046598305300,8.99130517578125,-0.06062193422317504,0.0209203306928277,0.03188566908240318
1746276046608285200,9.00128515625,-0.05394552519917488,0.016632058914378283,0.0357364992916584
1746276046618265000,9.01126513671875,-0.032009003201127054,0.02931026563644409,0.016381225958466528
1746276046628244200,9.021244140625,0.005071311914920807,0.01772189997769892,0.009255904123187065
1746276046638224400,9.031224365234374,0.005941080486774444,0.03341938145570457,0.010779168167710304
1746276046648203000,9.041203125,0.02740355523228645,0.023730419677495954,0.040158991909027095
1746276046658183400,9.051183349609374,0.05210369672477245,0.014630217572674154,0.04976093299090862
1746276046668162300,9.061162353515625,0.06321954950094223,0.004278554102033376,0.0384989497423172
1746276046678142200,9.07114208984375,0.07013795058727264,-0.009625395022705197,0.03966039473712444
1746276046688121300,9.081121337890625,0.05119008901119232,-0.022824922205135226,0.03865677065253258
1746276046698101200,9.091101318359375,0.03896832081973552,-0.018765856072679162,0.059362289550900456
1746276046708081200,9.1010810546875,0.0260159002661705,-0.019837357761710882,0.061138651573657984
1746276046718060300,9.111060302734375,-0.013033084574341772,-0.020546455879136918,0.0336146848320961
1746276046728040200,9.121040283203126,-0.027210078486800193,0.0008371814765036105,-0.0079646952688694
1746276046738019300,9.131019287109375,-0.02288929267823696,0.002567074009031057,0.011050386324524878
1746276046747999200,9.140999267578126,-0.030993104156851768,0.0060220367684960365,0.024131986215710638
1746276046757978000,9.15097802734375,-0.05735504138171672,0.04050115641020238,0.03855272575616836
1746276046767958300,9.160958251953126,-0.043941433057188985,0.024429946248978374,0.03325345030426979
1746276046777938400,9.1709384765625,-0.0392915614247322,0.007069646125286817,0.011620879688858984
1746276046787917000,9.1809169921875,-0.052336920958757395,0.025888328363746403,-0.0001017068088054657
1746276046797897200,9.190897216796875,-0.0543278025150299,0.049021805061399935,0.020540099203586577
1746276046807876400,9.20087646484375,-0.02495323947072029,0.02792012645229697,0.03969838865995407
1746276046817856300,9.210856201171875,-0.0006482347756624221,0.03486307745799422,0.046828386670351024
1746276046827835400,9.22083544921875,-0.03766308344006538,0.03342266939133406,0.019473346754908562
1746276046837815300,9.230815185546875,-0.021673487147688863,0.041301513007655735,0.006992050844430923
1746276046847795200,9.240795166015625,0.05832417867481708,0.027875045201554892,0.020285247659683227
1746276046857774300,9.2507744140625,0.11269231320023536,-0.022644597202166914,-0.004468085324764251
1746276046867754200,9.260754150390625,0.1183721124023199,0.020463746031746267,-0.025748189240694046
1746276046877733000,9.270733154296876,0.052965281990170476,0.030111572081968185,0.052505263262987135
1746276046887713300,9.28071337890625,-0.011079612419009208,0.023106880951672792,0.07618073788285255
1746276046897692200,9.290692138671876,-0.03647416591644287,0.029275924975425003,0.05631985311508178
1746276046907672000,9.300672119140625,-0.046429742741584776,0.027549101182818413,0.018171616506576536
1746276046917652500,9.310652587890624,-0.05366787730157375,0.025510142701119183,0.004002221378684044
1746276046927631000,9.320631103515625,-0.022953590086102486,0.023742694637179373,0.005844049853086471
1746276046937611300,9.330611328125,-0.013162263911962508,0.011927315289527177,0.017394202393293378
1746276046947590400,9.34059033203125,-0.019535890597105025,0.01800575842037797,0.02038403185904026
1746276046957570300,9.3505703125,0.021201193460822103,0.02049596780091524,0.014161211821436882
1746276046967549400,9.360549560546875,0.047449733439087864,0.030066198570281265,0.003281505888700485
1746276046977529300,9.370529296875,0.042242227923870085,0.040173093499615786,-0.0000602057546377182
1746276046987509200,9.38050927734375,0.04843173021376133,0.015388926985487342,0.0012719196319580077
1746276046997488400,9.39048828125,0.026419220370054244,-0.014880758267641066,0.006026420682668686
1746276047007468300,9.40046826171875,-0.010717793369293212,-0.010886793260648847,0.021084873604774474
1746276047017447200,9.410447265625,-0.0592342792570591,-0.030508243249356744,0.05694470701515674
1746276047027427000,9.420427001953126,-0.0906049845546484,-0.003991919180378317,0.0840384656459093
1746276047037406200,9.43040625,-0.0836293003231287,-0.00022672142796218393,0.07306640525460242
1746276047047386000,9.44038623046875,-0.04725099599659443,0.0022943214822560547,0.05726736309826374
1746276047057366000,9.450365966796875,-0.02308627655506134,0.009277458367869258,0.05606733965873718
1746276047067345200,9.46034521484375,0.04655716851353645,0.009294774828851222,0.040814825469255446
1746276047077325300,9.4703251953125,0.0450169533342123,0.007324132343009114,0.012999182304739952
1746276047087304400,9.480304443359374,0.02273030272424221,0.016038184674456713,-0.006873977422714233
1746276047097284400,9.490284423828125,0.013602993416786193,0.01551233416944742,-0.0032680618852376935
1746276047107263200,9.50026318359375,0.006600421178340912,0.033203181421756746,0.02906710453033447
1746276047117243400,9.510243408203126,0.005891980648040771,0.025370661165192723,0.04381634537279606
1746276047127222300,9.52022216796875,-0.00001695113480091095,0.025794439535215496,0.03679273034632206
1746276047137202200,9.5302021484375,0.0008247603863477706,0.01656673859320581,0.013989362385869026
1746276047147182300,9.540182373046875,0.018593056789040566,0.013525252005457877,0.038543373405933376
1746276047157161200,9.5501611328125,0.012202478969097137,0.00451586998924613,0.043217210435867306
1746276047167141000,9.56014111328125,0.005503858113288879,0.009426073058322071,0.03812076407968998
1746276047177120300,9.570120361328126,0.007858896806836128,0.0002899959225207567,0.04052840974330902
1746276047187100200,9.58010009765625,0.001505143865942955,-0.004347819945961237,0.014465747725963592
1746276047197079300,9.590079345703124,0.0027677111476659775,0.015151464967802166,0.002220014137029648
1746276047207060000,9.60006005859375,0.0062567223072052,0.030970892325043676,0.0021428572475910186
1746276047217040100,9.6100400390625,-0.04239128100574016,0.04166230914406478,0.02295066747665405
1746276047227019000,9.62001904296875,-0.041056233009696005,0.030081250008940696,0.026010055047273634
1746276047236999000,9.6299990234375,-0.020409166300296783,0.02893032640814781,0.017705168038606642
1746276047246978000,9.63997802734375,-0.02837619965672493,0.018761764419451356,0.01603518899977207
1746276047256958000,9.6499580078125,-0.01721767678260803,0.0069729077525436875,0.025942835029959678
1746276047266937000,9.65993701171875,0.026470658296346664,0.012884908275306224,0.015101123020052908
1746276047276917000,9.6699169921875,0.01606616865992546,0.02057772780023515,-0.0062730889201164245
1746276047286897000,9.67989697265625,0.037385435542464256,0.02374934357367456,0.017327566897869108
1746276047296876000,9.6898759765625,0.028479660031199453,0.01743314616419375,0.020908932515978813
1746276047306856000,9.69985595703125,0.03394610874354839,-0.004298647041991353,0.014754501539468765
1746276047316834800,9.709834716796875,-0.009994155269861221,0.00893580532334745,0.01853226651251316
1746276047326815000,9.71981494140625,-0.023601824861764906,0.004742372221499681,0.02884849334359169
1746276047336793900,9.7297939453125,-0.027059271839261052,-0.0024893325977027414,0.03991173914968967
1746276047346773800,9.739773681640624,-0.01483399651646614,-0.002212415352463722,0.0306213482350111
1746276047356754200,9.749754150390626,-0.011366028144955635,0.0011317074436694382,0.043857261905074114
1746276047366733000,9.759733154296875,-0.0014162965387105942,0.0003786971192806959,0.0629284575998783
1746276047376713000,9.769712890625,-0.008141220879554748,-0.0011195786144584416,0.036598084557056425
1746276047386692000,9.779692138671875,-0.012024199792742728,0.014791107222810386,0.03437631685435772
1746276047396672000,9.789672119140626,0.0062122986435890195,0.0022085428949445486,0.03779518538713455
1746276047406651100,9.799651123046875,0.035357144585251805,-0.0065186611790210005,0.016309914287924766
1746276047416631000,9.809631103515626,0.028910452663898467,0.008820362250134349,0.01640519135594368
1746276047426611000,9.81961083984375,0.02581365569233894,-0.000635886750742793,-0.006308160233497619
1746276047436590000,9.829590087890624,0.03429506831169128,0.00013495149128139018,0.00824701934158802
1746276047446570000,9.839570068359375,-0.0024736966371536255,0.012413418306037783,0.03405190720558166
1746276047456548900,9.849548828125,0.006913140389323234,0.014557517662644386,0.027363807743787764
1746276047466528800,9.85952880859375,-0.0024029694885015487,0.01857047963105142,0.03132335902452469
1746276047476508000,9.8695078125,-0.0071522098422050475,0.03160378340110183,0.02883797194957733
1746276047486487800,9.87948779296875,-0.014818798947334288,0.01976356187313795,0.04654606259763241
1746276047496468000,9.889468017578125,-0.01699205133318901,0.02182305168621242,0.057740825828909874
1746276047506447000,9.899447021484375,0.013677227696776388,0.00922265944071114,0.033953123006224634
1746276047516427000,9.909427001953125,0.009863806888461113,0.01906023590937257,-0.0007417582780122757
1746276047526406100,9.91940625,-0.01641512822806835,0.0292171805255115,0.04582476258575916
1746276047536386000,9.929385986328125,0.018946692532300947,0.015477774312719702,0.05212941568791866
1746276047546365000,9.939364990234376,-0.002421089667081833,0.018791136644408107,0.06489712732434272
1746276047556345000,9.949344970703125,0.02598842773735523,0.008689575477316976,0.03532148874998092
1746276047566324000,9.959323974609376,0.048531683456897734,0.010893734458088875,0.008512976801395416
1746276047576303900,9.969303955078125,0.07011924588680267,0.022005714776739477,-0.021890929290652273
1746276047586284000,9.979283935546874,0.08264964163601397,0.024451208232715724,-0.027100772893428802
1746276047596263000,9.989262939453125,0.03909048589468002,0.006349003700539469,-0.014270517414808273
1746276047606242800,9.999242919921874,-0.012046411624550819,0.0021477526184171436,-0.007169745498895644
1746276047616222000,10.009221923828125,-0.10242810881733894,0.003354571124911308,-0.00002396539747714996
1746276047626201900,10.019201904296875,-0.11680208660662174,-0.014600845347717403,0.02690261997282505
1746276047636181000,10.029180908203125,-0.10495733503401279,0.023023440451920032,0.05815057567358017
1746276047646161000,10.039160888671875,-0.06050970602035522,0.019480580213293432,0.047019525328278536
1746276047656141000,10.04914111328125,0.0018254618614912033,0.0027965719159692526,0.05422258857488632
1746276047666120000,10.059119873046875,0.023550386935472487,0.0010796849954873323,0.021630232527852056
1746276047676100000,10.06910009765625,0.050774493947625156,0.023029139540344475,-0.006366612422466278
1746276047686079000,10.079078857421875,0.07289630938470364,0.02542633687518537,-0.00722527507841587
1746276047696059000,10.089058837890626,0.065560559669137,0.028963424960151314,0.017747838136553763
1746276047706038000,10.0990380859375,0.06163432613611221,0.02827186249941587,0.030500352203845976
1746276047716018000,10.109017822265624,0.008522913673520087,0.03179104960151016,0.013165771043300628
1746276047725997800,10.118997802734375,-0.029800094980001447,0.04244293812774121,0.020707856985926625
1746276047735977000,10.12897705078125,-0.04311550362706184,0.03991604999862611,0.011781038686633109
1746276047745956900,10.138956787109375,-0.03458382212519646,0.014340075519680976,0.022214754417538642
1746276047755936000,10.14893603515625,-0.034893034204840655,0.023313290243968367,0.03107844435274601
1746276047765916000,10.158916015625,-0.007078560084104538,0.01570142700076103,0.02693126154541969
1746276047775894800,10.168894775390624,-0.0006283610314130782,0.008610665022209286,0.01636544386744499
1746276047785875000,10.178875,0.022039982372522353,0.007247706105932593,0.04027940341830254
1746276047795855000,10.188855224609375,0.029551088654994964,0.012069207978248595,0.03578092295527458
1746276047805834000,10.198833984375,0.0294014510512352,0.018476883063465357,0.018555647388100623
1746276047815814100,10.208814208984375,0.014664485168457031,0.0070689885381609195,0.02255026998221874
1746276047825793000,10.21879296875,0.027950667721033096,0.00814940418601036,0.02829728920161724
1746276047835773000,10.22877294921875,-0.0035562311768531796,0.013187471418455242,0.04678805465996265
1746276047845752000,10.238751953125,-0.017580080354213712,0.014547726920992135,0.042337504991889
1746276047855732000,10.24873193359375,-0.026274843463301657,0.004224778088182211,0.03791267428696155
1746276047865711900,10.2587119140625,-0.01429506733417511,-0.0032506723590195177,0.01502571969628334
1746276047875691000,10.26869091796875,0.019649287843704222,-0.00038169279396533964,0.02430266660749912
1746276047885671000,10.2786708984375,0.028051790007948874,0.017691212578490375,0.027993922340869903
1746276047895649800,10.28864990234375,0.026612697115540502,0.008908113598823547,0.040626609420776366
1746276047905630000,10.2986298828125,0.0037958851516246795,0.012806874603033066,0.01527706410884857
1746276047915608800,10.30860888671875,-0.01830430297553539,0.013372326466068625,-0.009337737187743186
1746276047925588700,10.318588623046875,-0.037924364724755286,0.018424641419574617,0.006631985360383987
1746276047935569200,10.328569091796876,-0.023228899896144864,0.020557342599332333,0.05230477225482463
1746276047945548000,10.338548095703125,-0.013944938722252845,0.01912080699019134,0.07641513116061686
1746276047955528000,10.34852783203125,0.0018196166425943374,0.03161050540283322,0.08119009047746657
1746276047965507000,10.358507080078125,0.010420856249332427,-0.013285598030686378,0.12190379365980625
1746276047975487000,10.368487060546874,0.04865560209751129,-0.013884294576197862,0.08613105401098728
1746276047985466000,10.378466064453125,0.042561961397528644,-0.003912131942436099,0.08720306715667248
1746276047995446000,10.388446044921874,0.037464345997571945,-0.014738207991793751,0.06411152990460395
1746276048005426000,10.398426025390625,0.037489480438828465,-0.037150603873282666,0.042014848908782
1746276048015405000,10.408405029296874,0.02470306410193443,-0.0013848054219037294,-0.0017605799317359924
1746276048025385000,10.418385009765625,0.004649287110567093,0.009753113055601715,-0.00447509958744049
1746276048035363800,10.42836376953125,0.0003705868780612945,0.011223258673399687,0.020393384209275243
1746276048045344000,10.438343994140626,-0.029274609801173208,0.05564918731190264,-0.022213000851869582
1746276048055323000,10.448322998046875,-0.09636544777750969,0.04386529908105731,-0.02910626749694347
1746276048065302800,10.458302734375,-0.13808102147877216,0.03210164992064237,-0.039356443354487416
1746276048075283000,10.468282958984375,-0.1210474690914154,0.04588219186142087,-0.030882044997811317
1746276048085262000,10.478261962890626,-0.0697778851032257,0.04759155306257307,0.0107575408577919
1746276048095242000,10.488241943359375,-0.03882862008810043,0.0545944175619632,0.0820347246080637
1746276048105221000,10.49822119140625,-0.001793313157558441,-0.00005764847137033939,0.1158101529598236
1746276048115201000,10.508200927734375,0.07052139694690704,-0.028910598794370888,0.07492693842947483
1746276048125180000,10.518179931640624,0.07219897477030754,-0.041970132984220976,-0.018197919991612434
1746276048135160000,10.52816015625,0.08042144419252872,-0.04239223085381091,-0.06898819603025913
1746276048145140000,10.538139892578124,0.11441489920914172,-0.013739844604209064,-0.05685469064414501
1746276048155118800,10.548118896484375,0.1152221239387989,0.04665441834293305,-0.014843933388590812
1746276048165099000,10.55809912109375,0.04055646679401397,0.038340617375448346,-0.0044148938328027725
1746276048175078000,10.568077880859375,-0.00741699825823307,0.043641573327779765,-0.02201660149693489
1746276048185057800,10.578057861328125,0.008701192849874495,0.03532017357572913,-0.03985445600450039
1746276048195037000,10.588036865234375,-0.004256488400697708,0.019032398054376242,-0.017839608073234557
1746276048205016800,10.598016845703125,0.0036450785040855406,0.003078019205853343,-0.004366963037848472
1746276048214996500,10.60799658203125,-0.030654081460833548,0.012164923437684773,0.06277823547422885
1746276048224975600,10.6179755859375,-0.09928981079161167,0.03868175896331668,0.1285720193773508
1746276048234955500,10.62795556640625,-0.1424187584221363,-0.011939809444919227,0.12490005286633968
1746276048244934700,10.6379345703125,-0.1497036547333002,-0.0025682430528104305,0.09475625901520252
1746276048254914600,10.64791455078125,-0.15384791493117808,0.02947086302563548,0.1066822591304779
1746276048264893400,10.6578935546875,-0.10859130762219428,0.048341640777513385,0.09762976862490176
1746276048274873900,10.667873779296874,-0.1213303776860237,0.06228869839161634,0.10494798268377781
1746276048284853800,10.677853759765625,-0.09214227712452411,-0.004104439644142985,0.09119885879456996
1746276048294832600,10.68783251953125,-0.056014732688665386,0.006889759513735771,0.03200315798223018
1746276048304812500,10.6978125,0.025405659413337705,-0.06619571576751768,-0.031043957561254498
1746276048314791700,10.707791748046875,0.1480301685631275,-0.031829993372410534,-0.07095569671094418
1746276048324771600,10.717771484375,0.24150515559613703,-0.018926745722815393,-0.11162614527344702
1746276048334750700,10.727750732421875,0.3176525757312774,0.038684900768473744,-0.09395429498255252
1746276048344730600,10.737730712890626,0.2968985415160656,0.06167685010358691,-0.07842179480791091
1746276048354710500,10.74771044921875,0.1989338418483734,0.07408888017013669,-0.13620236812531947
1746276048364689700,10.757689697265626,0.0665758741915226,0.07818089872412383,-0.10893383744955062
1746276048374669600,10.767669677734375,-0.06827391028106213,0.10192468933984637,-0.04313829998075962
1746276048384648400,10.7776484375,-0.1848953796237707,0.06803257580585777,0.022275544694066046
1746276048394628600,10.787628662109375,-0.22254969523549079,0.010234247636049985,0.03683656948804855
1746276048404607500,10.797607421875,-0.15412906996011733,-0.02065137755833566,0.03361643839776516
1746276048414587600,10.807587646484375,-0.08772095355093479,-0.02186762148030102,0.06511866112053394
1746276048424567800,10.81756787109375,-0.008977087181806565,-0.02638356453478336,0.11726619698703289
1746276048434546700,10.827546630859375,0.059037879902124404,-0.005769304116442799,0.12921850058734416
1746276048444526600,10.837526611328125,0.121622638630867,0.0018886632908135651,0.08952303453683852
1746276048454505700,10.847505615234375,0.12083119599223135,-0.007256839260458945,-0.011523849055171013
1746276048464485600,10.857485595703125,0.0640355420589447,0.007221841012313961,-0.10117430936396121
1746276048474464800,10.86746484375,-0.0328086291462183,0.054349283694475885,-0.08765256448984146
1746276048484444700,10.877444580078125,-0.18422668658196925,0.1328845488142222,0.004220248043537139
1746276048494424600,10.887424560546876,-0.26709669297039507,0.1397083304196596,0.05811141270697116
1746276048504403700,10.89740380859375,-0.3085901483535766,0.12878178967051207,0.10396014069020748
1746276048514383600,10.907383544921874,-0.3067150021314621,0.07008022905066609,0.10261807843148708
1746276048524362500,10.917362548828125,-0.27490999706983565,0.03782579972110688,0.13080080134272576
1746276048534342400,10.92734228515625,-0.20198621515631673,0.04840330783687532,0.2516764209985733
1746276048544321500,10.937321533203125,-0.22530863855481145,-0.014586816822364925,0.3372054174631834
1746276048554301700,10.9473017578125,-0.23129531174898146,-0.0607910802450031,0.2743324894428253
1746276048564281600,10.957281494140625,-0.179631760007143,-0.06989866193868219,0.1564315016835928
1746276048574260700,10.9672607421875,-0.13923486768901347,-0.06841923703588546,0.10830547641813755
1746276048584240600,10.97724072265625,-0.1417956580877304,0.002337941428273916,0.13542904566526412
1746276048594219800,10.9872197265625,-0.16451543941795824,0.041254824321717024,0.14240706798434258
1746276048604199700,10.99719970703125,-0.1256874038517475,0.058787996794283384,0.10374737472236156
1746276048614178600,11.007178466796875,-0.04796060557067394,0.09048720339387654,0.08388006021380424
1746276048624158700,11.01715869140625,0.03251403011381626,0.07358582601882517,0.053959553724527355
1746276048634138600,11.027138671875,0.1526888080239296,0.05465133538097143,0.04623392790853977
1746276048644117500,11.037117431640626,0.281034032908082,0.04519230990111828,0.039870238095521926
1746276048654097700,11.04709765625,0.3807563898980617,0.002002352798357606,0.07171557516753674
1746276048664076500,11.05707666015625,0.46031507978141306,-0.05563106713332235,0.042289574196934694
1746276048674056400,11.067056396484375,0.4963537768900394,-0.0544013792078942,0.016135142242908476
1746276048684035600,11.07703564453125,0.4728437219649553,-0.09213657803609966,0.021161445972323417
1746276048694015700,11.087015625,0.406520945751667,-0.07353614165820181,0.0034457565397024155
1746276048703995600,11.09699560546875,0.2565828977406025,-0.046436903134733434,-0.030555881783366202
1746276048713974800,11.106974853515625,0.10820084699988365,0.0025477847866714,-0.03159574622511863
1746276048723954700,11.11695458984375,0.009677344405651092,0.041340529843792315,-0.03419277698099613
1746276048733933600,11.12693359375,-0.10150807136297225,0.07555858739651738,-0.09034837944507598
1746276048743913700,11.136913818359375,-0.18526304389238357,0.08127228886820376,-0.09189970054030418
1746276048753892600,11.146892578125,-0.19703122309744356,0.10987433317005633,-0.09004735067188739
1746276048763872500,11.15687255859375,-0.141686352494359,0.11338044159486889,-0.07503449045717715
1746276048773852700,11.166852783203124,-0.05798924763202667,0.10008052277788519,-0.03495908517837524
1746276048783831600,11.17683154296875,0.005983166062831878,0.06867218888364732,-0.0007516951501369476
1746276048793811500,11.1868115234375,0.01251169104874134,0.058943041225522755,0.02523380997776985
1746276048803790600,11.19679052734375,0.03783142574429512,0.006322992476448417,0.04455810365080833
1746276048813770500,11.2067705078125,0.05667758051156997,-0.06600859569758176,0.05205751949548721
1746276048823750700,11.216750732421875,0.060769233739376066,-0.09238558436110615,0.02794482250213623
1746276048833729800,11.226729736328124,0.0207744924813509,-0.1267033028960228,-0.014153613036870955
1746276048843709700,11.236709716796875,-0.034904140120744706,-0.0928024215336889,0.009199205499887467
1746276048853688800,11.246688720703125,-0.04423661661148071,-0.05328099687583744,0.07686053684055805
1746276048863668700,11.256668701171876,-0.06922142026424408,-0.03692892394661903,0.1199234334975481
1746276048873647600,11.266647705078125,-0.09949263988733291,-0.026392405428364872,0.10388239927887916
1746276048883627800,11.276627685546876,-0.07072539508640766,-0.012226955823227763,0.06713993781507015
1746276048893607700,11.286607666015625,-0.057386021041870114,0.037405820743367076,0.07941489749848842
1746276048903586600,11.296586669921876,-0.021074352210760115,0.039098888396844264,0.16061024867296217
1746276048913566500,11.30656640625,-0.019243045130372047,0.04976509770937264,0.1835270138800144
1746276048923545600,11.316545654296876,-0.02916998038291931,0.0175502697378397,0.09619126025438308
1746276048933525500,11.326525390625,-0.0606979220688343,0.021890929290652273,0.024146014741063117
1746276048943504600,11.336504638671874,-0.10008826769292355,0.03525214984081685,0.0042418753534555435
1746276048953484500,11.346484619140625,-0.061608607172966,0.06296776669695973,-0.019283961662650107
1746276048963464700,11.356464599609374,-0.03417816393375397,0.0694416388861835,-0.039786066943407056
1746276048973443600,11.366443603515625,-0.041620881155133245,0.06631298547163605,-0.04925356799066066
1746276048983423700,11.376423828125,-0.062495911401510236,0.02839234707392752,-0.09782149180471897
1746276048993402600,11.386402587890625,-0.04524667043685913,0.010338292532414197,-0.044509003812074656
1746276049003382800,11.3963828125,-0.0486029951274395,0.0211120538726449,0.028927988320589064
1746276049013361700,11.406361572265626,-0.09986673389673233,0.03522635781243443,0.054226095706224435
1746276049023341600,11.416341552734375,-0.1889694971948862,0.05448628101237118,0.10684709430336951
1746276049033321700,11.42632177734375,-0.23365210400819778,0.10594356959238647,0.17913316283524036
1746276049043300600,11.436300537109375,-0.19563480030298233,0.10482231047749518,0.2442383799523115
1746276049053280500,11.446280517578124,-0.09916647667288779,0.025557342843711375,0.3017097411900759
1746276049063259600,11.456259765625,-0.037945992034673685,-0.053719680554047224,0.3572925122022629
1746276049073239600,11.466239501953124,0.05122457580268383,-0.23555085030160844,0.28902561618387695
1746276049083219500,11.476219482421875,0.004544073170423508,-0.27342677277475597,0.11360825900137424
1746276049093198600,11.486198486328124,-0.23601824861764906,-0.24212504106014965,0.008363923719525337
1746276049103178800,11.4961787109375,-0.4901151747614145,-0.18570231209248303,-0.08369125964343548
1746276049113157600,11.50615771484375,-0.6855711113661527,-0.042217093482613564,-0.16556582525372504
1746276049123137800,11.5161376953125,-0.8138041080474853,0.06122954472750425,-0.20525252347588538
1746276049133116700,11.52611669921875,-0.7023673478662967,0.11811068498715757,-0.24592180299460886
1746276049143096600,11.5360966796875,-0.3823720084011554,0.10695384261347353,-0.302751943719387
1746276049153076700,11.54607666015625,0.07114566632509231,0.03960223480910063,-0.28595395365357396
1746276049163055600,11.5560556640625,0.38661563732028004,-0.05526493723466992,-0.30373101788461204
1746276049173035500,11.566035400390625,0.5613128635346889,-0.08591434252038598,-0.3123001087874174
1746276049183014700,11.5760146484375,0.6085849023193121,-0.06094086397923529,-0.16504793885946273
1746276049192994600,11.58599462890625,0.5565045864701271,0.019143164952471852,0.08283025889992714
1746276049202973700,11.5959736328125,0.5140957698076963,0.10217983314469456,0.253750889185071
1746276049212953300,11.605953369140625,0.4411901080727577,0.0701416769143194,0.13840601564943789
1746276049222933200,11.615933349609374,0.30067806005477904,0.04006956005990505,-0.11575637694597243
1746276049232912400,11.625912353515625,0.22754969547986983,0.10102766743488609,-0.14165771092176438
1746276049242892300,11.635892333984375,0.25091537349820137,0.10038016331158578,-0.025413258197903632
1746276049252871200,11.64587109375,0.36739188141226764,0.049860593973100185,0.028111411240696906
1746276049262851600,11.6558515625,0.5579401722311973,0.0016724632568657397,0.06905658509135246
1746276049272831500,11.66583154296875,0.7712456537812947,-0.04903269178159535,0.16926526429355143
1746276049282810400,11.675810302734375,0.8763286610215901,-0.08880882185287774,0.22772797465622424
1746276049292790500,11.68579052734375,0.7348416304916143,-0.08282850533425808,0.22232231622040272
1746276049302769400,11.695769287109375,0.4613233800411224,-0.10676135224867611,0.12673252899050713
1746276049312749300,11.705749267578126,0.17224164975583553,-0.0795727549413219,-0.004969020584225654
1746276049322728400,11.715728515625,-0.08755670289993285,-0.0009924451034516095,0.0011848258703947066
1746276049332708400,11.725708251953124,-0.19222996029555797,0.030030213941447434,0.06258417420685292
1746276049342688300,11.735688232421875,-0.27235680545568464,0.0241992427656427,0.04002338283061981
1746276049352667400,11.74566748046875,-0.30105975284874437,0.013449227627180515,0.07751520135700703
1746276049362647300,11.755647216796875,-0.1498258198082447,-0.058616512684896586,-0.008992284750938415
1746276049372626400,11.76562646484375,-0.1498205591112375,-0.11581161426454782,-0.18363398138582707
1746276049382606300,11.7756064453125,-0.37466800989508625,-0.032150238302722574,-0.29825054064691064
1746276049392585200,11.785585205078124,-0.6133855805993079,0.07776172346398234,-0.2295417460799217
1746276049402565400,11.7955654296875,-0.7103419800072908,0.17440226185582577,-0.016600421667098998
1746276049412545500,11.805545654296875,-0.6218184779018163,0.2563166114872321,0.14046119461357592
1746276049422524400,11.8155244140625,-0.45518706924319263,0.24977639606352894,0.18702245478034019
1746276049432504300,11.82550439453125,-0.28450550841093064,0.1850924365658313,0.2827040119469166
1746276049442483500,11.8354833984375,-0.14610592250227927,0.15562599398698657,0.16668518467247484
1746276049452463400,11.84546337890625,-0.013837386694550513,0.2005750331841409,-0.04591185634732246
1746276049462443300,11.855443359375,0.12125322079658507,0.027875921984389422,0.03858779706954956
1746276049472422400,11.86542236328125,0.3511597085356712,0.045996685086563224,0.07943594028651714
1746276049482402300,11.87540234375,0.5315870028346776,0.00024151713829487562,0.13190379414856432
1746276049492381400,11.88538134765625,0.58771922442317,-0.01580821184348315,0.15545885725915431
1746276049502361300,11.895361328125,0.49963294469118114,-0.026237141801416872,0.1547539238601923
1746276049512340200,11.90534033203125,0.36957331710457797,-0.034600773259997365,0.1435042155712843
1746276049522320400,11.9153203125,0.2664648248076439,-0.043534825017675756,0.21864333544671535
1746276049532300500,11.925300537109376,0.204742235866189,-0.045212000982277095,0.34964228971004485
1746276049542279400,11.935279541015625,0.1400222186744213,0.1368965244019404,0.3148573920547962
1746276049552259300,11.94525927734375,0.04176934971511364,0.06120462948195636,0.5449626172363757
1746276049562238500,11.955238525390625,-0.12735855193436146,0.08729991512726992,0.5987462298721075
1746276049572218400,11.96521826171875,-0.27963176489472386,0.1033203449493274,0.5537029730528593
1746276049582198300,11.9751982421875,-0.3435580013602972,0.06336918710470199,0.42110535142123695
1746276049592177400,11.985177490234374,-0.36105683317184445,0.08169442327041178,0.2841401822298765
1746276049602157300,11.9951572265625,-0.2977846767008304,0.08535183153310791,0.19427461786568165
1746276049612136400,12.005136474609374,-0.1312333475410938,0.08178862262619659,0.10017068527936934
1746276049622116400,12.015116455078125,0.003178630036115646,0.0886567365637049,0.12506371899545193
1746276049632095200,12.02509521484375,0.12586451398432255,0.03407357104811817,0.12957272085249424
1746276049642075400,12.035075439453125,0.10861936467289925,0.03689874800406396,0.04920271458625793
1746276049652055300,12.04505517578125,-0.04781447509825229,-0.023070640594512224,-0.02452186231613159
1746276049662034200,12.0550341796875,-0.18654022422134875,-0.03509825618704781,-0.08323533256947993
