time,seconds_elapsed,z,y,x
1746275961900424000,0.020423828125,-0.3229354845702648,0.018625863080099225,-0.34049276857078076
1746275961910403000,0.030403076171875,-0.5447644643157721,0.06951879577562213,-0.38259061958789825
1746275961920383000,0.040383056640625,-0.6853361335664987,0.10191248744539916,-0.3662766136467457
1746275961930363000,0.05036279296875,-0.6557640021234751,0.10875913846977055,-0.28698271217942234
1746275961940342800,0.0603427734375,-0.5297124411344528,0.07860854955166578,-0.1808651011943817
1746275961950323000,0.070322998046875,-0.38920390024781226,0.06895875074006616,-0.12199965524971484
1746275961960303000,0.08030322265625,-0.2148363443791866,0.04033398314975202,-0.05268295791745185
1746275961970283000,0.090282958984375,-0.06590776567161083,-0.00019610709398984908,0.06631225481927394
1746275961980263000,0.100262939453125,0.02919745291173458,-0.025926468417048452,0.14806407083272932
1746275961990243000,0.1102431640625,0.10347907917499542,-0.013436623873934149,0.20900807661712167
1746275962000223000,0.120222900390625,0.12021218731105326,-0.00037811259739100933,0.22613339894115925
1746275962010201900,0.130201904296875,0.1125777469098568,0.008678031169995664,0.11656360167562961
1746275962020182000,0.14018212890625,0.06586626461744308,0.007512129195779561,0.011666472396254539
1746275962030162200,0.150162109375,0.02964753476679325,-0.017836904659494758,-0.030764556097984314
1746275962040142000,0.16014208984375,-0.02797521764039993,-0.0015820815596729516,-0.0055979661375284194
1746275962050122000,0.1701220703125,-0.08526654613614082,-0.007530833896249532,0.07520107919573783
1746275962060102000,0.180101806640625,-0.12292729148864745,-0.02610292096249759,0.07276420743763447
1746275962070082000,0.19008203125,-0.11728373264372348,0.015168416102603078,0.06785305452048779
1746275962080062000,0.20006201171875,-0.0973930372595787,0.0005509118810296058,0.03601356266736984
1746275962090041900,0.210041748046875,-0.05195815077424049,-0.020700477397069334,0.007166822889447212
1746275962100022000,0.22002197265625,0.03613163608908653,-0.014290610354766248,0.004945055186748504
1746275962110001200,0.230001220703125,0.13852233550548554,0.012486629672721027,-0.010413841986656189
1746275962119979800,0.239979736328125,0.20417115797996518,0.03288512844853103,-0.0391261417299509
1746275962129960000,0.2499599609375,0.25297522863745686,0.03115143652372062,-0.11963818681538105
1746275962139939800,0.25993994140625,0.3156885821819305,0.02717171923778951,-0.18602292234897613
1746275962149919700,0.269919677734375,0.36025253105163574,-0.0220396170463413,-0.17172376336157322
1746275962159900000,0.27989990234375,0.33898937827050685,-0.0258970961920917,-0.06989946565628051
1746275962169879800,0.2898798828125,0.22755261808931826,-0.013117694117873906,-0.007597615522146224
1746275962179860000,0.29985986328125,0.13988076437711716,0.01771751606352627,0.03734218092262745
1746275962189840000,0.30983984375,0.041996728730201716,0.041691754434257745,0.03957680810689926
1746275962199819800,0.31981982421875,-0.0394137264996767,0.03344824222400784,0.021148586490750312
1746275962209799000,0.329798828125,-0.09480711241960525,0.016016776560246943,0.005889642560482025
1746275962219778800,0.33977880859375,-0.09244038328826427,-0.014289514376223087,0.028873043262958524
1746275962229759000,0.349759033203125,-0.07695172225534916,-0.03177007987871766,0.12322422860860824
1746275962239739000,0.35973876953125,-0.15213585031628607,-0.011973273323103785,0.20813713900148867
1746275962249718800,0.36971875,-0.3090717943906784,-0.010863996906951069,0.2522673726290464
1746275962259699000,0.379698974609375,-0.41152094599604605,-0.018781930424645543,0.2053442934125662
1746275962269678800,0.389678955078125,-0.42072833480238914,-0.009626271805539727,0.08060264597833156
1746275962279658800,0.39965869140625,-0.31451953840255736,0.016965236391499636,0.05095043503642082
1746275962289638700,0.409638671875,-0.0853629922479391,0.04492489113658666,-0.009907646030187607
1746275962299619000,0.419619140625,0.09980009840130806,0.02288023258894682,-0.12150573425292968
1746275962309598000,0.429597900390625,0.12777356247603894,0.033352161438390614,-0.06656885992884636
1746275962319577900,0.439577880859375,0.05762158336341381,0.04009140656553208,0.06393266620635986
1746275962329558000,0.44955810546875,-0.02614975577890873,0.02093976604565978,0.15854747092425822
1746275962339538000,0.459537841796875,-0.07091185756921768,0.0005499620329588651,0.1223503683835268
1746275962349517800,0.469517822265625,-0.08765548709928989,-0.01260850248672068,-0.045755204480886456
1746275962359497700,0.479497802734375,-0.12226853531897067,0.031369024797156454,-0.14278174651563166
1746275962369477600,0.4894775390625,-0.135239076051116,0.0679355451721698,-0.14612930337786673
1746275962379458000,0.4994580078125,-0.11788754375576972,0.06354213251881301,-0.06088672263920307
1746275962389438000,0.50943798828125,-0.09773030638992786,0.04276895521171391,0.04258884940445423
1746275962399417900,0.51941796875,-0.014929273584485054,0.017824995025992392,0.11396481735408305
1746275962409397000,0.52939697265625,0.11761691012084484,0.011452245123684406,0.09681319154500961
1746275962419377000,0.539376953125,0.22065935144424437,-0.005665770676732063,0.08991407968103884
1746275962429356800,0.549356689453125,0.25262100837230683,-0.033018545569851995,0.07139525717198848
1746275962439336700,0.559336669921875,0.23235446541309354,-0.06640292877741158,0.036194179931282995
1746275962449316900,0.56931689453125,0.14954817191064357,-0.03468362923786044,-0.02253682597875595
1746275962459297000,0.579297119140625,-0.025800796210765836,-0.01617547425329685,-0.13176935411393642
1746275962469277000,0.58927685546875,-0.21392098309993743,-0.0013701923746615647,-0.22468261561095712
1746275962479256800,0.5992568359375,-0.41872576280832285,0.0028168840516358614,-0.2891220622956753
1746275962489236700,0.60923681640625,-0.5637433055520057,0.014149375253170728,-0.2771077993750572
1746275962499217000,0.619216796875,-0.5391086305111646,0.09819017898663877,-0.22480536520779132
1746275962509195800,0.62919580078125,-0.3696002051115036,0.12346782810613512,-0.060334349453449246
1746275962519175700,0.63917578125,-0.08279869471788406,0.08990304683037102,0.19854922644495962
1746275962529156000,0.649156005859375,0.19672727171480656,0.05338854890353977,0.3821656721740961
1746275962539136000,0.659135986328125,0.44739480793178077,0.04023746397271752,0.5138023398190736
1746275962549116000,0.669115966796875,0.6026806467115878,0.026906200169399378,0.5439648383706808
1746275962559095800,0.679095703125,0.627227643468976,-0.06709741384759545,0.46910804256796834
1746275962569075700,0.68907568359375,0.5160749609261751,-0.16337679077684877,0.2645551917940378
1746275962579055900,0.699055908203125,0.22406185336410997,-0.12813508926481007,0.009751578685641289
1746275962589035800,0.709035888671875,-0.10586042135357857,-0.05951353458985686,-0.12591127573549746
1746275962599014700,0.7190146484375,-0.30645196728110313,0.015952771413326263,-0.16447978358268736
1746275962608995000,0.7289951171875,-0.31846856828927994,0.048259588517248625,-0.13719780890345573
1746275962618975000,0.73897509765625,-0.20496143157482147,0.07093889170661569,-0.04489654182493687
1746275962628955000,0.748954833984375,-0.06866378638148307,0.094732512813434,0.0006692775636911391
1746275962638934800,0.758934814453125,0.1174438916414976,0.09345452876687049,0.03852876035869121
1746275962648914700,0.768914794921875,0.2091910319685936,0.0376098919481039,0.11920154896378517
1746275962658894800,0.778894775390625,0.24750410374999046,-0.05493051764853298,0.15940438001453874
1746275962668874800,0.788874755859375,0.3117459820359945,-0.053613297570124265,0.1210474690914154
1746275962678855000,0.79885498046875,0.2982347585558891,-0.06794234023913741,0.04019757035374641
1746275962688834800,0.808834716796875,0.24168226572871207,-0.0427851026289165,-0.020972645401954648
1746275962698815000,0.81881494140625,0.13771627981960774,0.03394705859161913,-0.01414952138364315
1746275962708793900,0.8287939453125,-0.007844283759593963,0.0659440060287714,0.010407412245869637
1746275962718773800,0.838773681640625,-0.08379296645224094,0.07141315815486013,-0.053391398447751995
1746275962728754000,0.84875390625,-0.043424715706706044,0.09272380333952605,-0.07691898902952671
1746275962738733800,0.85873388671875,0.013427636849880218,0.07575622886046766,-0.026126374903321266
1746275962748714000,0.8687138671875,0.08124971171021461,0.001997822753712535,-0.004883095866441726
1746275962758694000,0.87869384765625,0.06332827057242393,-0.0827990600440651,-0.0751759447544813
1746275962768673800,0.888673828125,-0.05250643230676651,-0.06051138652078807,-0.14524784436821936
1746275962778654000,0.898654052734375,-0.15940379549264908,-0.005709317557513713,-0.14617314251959324
1746275962788633900,0.9086337890625,-0.23708207845687865,-0.004694003035128116,-0.06069266137182712
1746275962798613800,0.91861376953125,-0.18871113851964472,0.057062122849747536,0.01817453911602497
1746275962808593000,0.928593017578125,-0.08006430131793021,0.09018639381639659,0.08238076156675815
1746275962818572800,0.93857275390625,0.02954991961121559,0.06684921124018728,0.13009586794376374
1746275962828553000,0.948552978515625,0.05158931746184826,0.009988894572854042,0.11043722774982452
1746275962838532900,0.958532958984375,0.07272212186157703,-0.030415377334132788,0.027236381971836088
1746275962848512800,0.9685126953125,0.12312252179980278,-0.047755292256921524,-0.02454933484494686
1746275962858493000,0.978492919921875,0.11371639555096626,-0.01954327018596232,-0.0069254153490066524
1746275962868472800,0.988472900390625,0.026208792489767072,0.059174658024311065,0.02222001511454582
1746275962878452700,0.99845263671875,-0.09837620307803153,0.0914467691410333,0.04583937563300133
1746275962888432600,1.0084326171875,-0.22792028235793113,0.09373677977435291,0.13488953196108341
1746275962898411800,1.018411865234375,-0.36462241669893264,0.11195099331364035,0.1413952605932951
1746275962908392000,1.028391845703125,-0.4423977302968502,0.09237944688126444,0.10964636963307857
1746275962918371800,1.038371826171875,-0.39610125854611394,0.054113136851042506,0.09338730874955653
1746275962928352000,1.04835205078125,-0.23279051874279974,0.011646379456296563,0.08343640809953212
1746275962938332000,1.058331787109375,-0.0572387215256691,-0.001028612395375967,0.11536299371421337
1746275962948311800,1.068311767578125,0.12867021905481815,-0.015757906428352,0.1762163986057043
1746275962958291700,1.078291748046875,0.27900515742897986,-0.029405981095880267,0.23242577708363532
1746275962968272000,1.08827197265625,0.34656536648273467,-0.06797288150787353,0.22588439261615276
1746275962978252000,1.098251953125,0.33654958390295503,-0.0753257284887135,0.15117138919830322
1746275962988232000,1.10823193359375,0.266869313955307,-0.04480338364876806,0.07196691958010196
1746275962998210800,1.1182109375,0.16177461627721784,-0.04573357717096805,0.021161445972323417
1746275963008191000,1.12819091796875,0.02949672811925411,-0.007925093910843133,-0.06849661312103271
1746275963018171000,1.1381708984375,-0.09982932449579238,0.017997282852977515,-0.125134446144104
1746275963028150800,1.14815087890625,-0.21457798570394515,0.039549116382375356,-0.10590133788585662
1746275963038130700,1.158130615234375,-0.23253917433023452,0.026679624871909616,-0.040759880411624906
1746275963048110800,1.16811083984375,-0.16916121939718723,0.02437434360422194,-0.005874444991350173
1746275963058091000,1.178091064453125,-0.13620645977854728,0.011952011339366434,0.0018605331748723982
1746275963068071000,1.18807080078125,-0.13948095140457153,-0.021820932794362306,-0.016231588354706762
1746275963078050800,1.19805078125,-0.17794249174594878,-0.01788235123641789,0.01466623873412609
1746275963088030000,1.208030029296875,-0.22497838368713854,0.0002349047344177961,0.06829027689397335
1746275963098009900,1.218009765625,-0.30198037482500073,0.03768229959718883,0.05049450796246528
1746275963107989800,1.22798974609375,-0.2749193494200706,0.08997187428288161,0.0618394933193922
1746275963117969700,1.2379697265625,-0.19849311234354972,0.060203197354450816,0.07949263890981674
1746275963127950000,1.2479501953125,-0.10216156683564186,0.08311258297264576,0.08686287541687487
1746275963137930000,1.257929931640625,0.0070341364204883575,0.0878709564808756,0.054390930879116055
1746275963147910000,1.267909912109375,0.1484054316163063,0.04092888030298054,0.016751812836527824
1746275963157890000,1.27789013671875,0.20531097566485404,-0.04451769857518375,-0.027854221609234807
1746275963167870000,1.287869873046875,0.25233576169013977,-0.06650631608664989,-0.08695055370032787
1746275963177850000,1.29785009765625,0.2796335184603929,-0.026655659474432467,-0.05845277349054813
1746275963187829000,1.3078291015625,0.23093758435249329,0.016822247724235056,0.06254676480591297
1746275963197809000,1.317808837890625,0.20270634612441063,0.026346812720969316,0.1788882481634617
1746275963207789000,1.3277890625,0.22832009533047676,-0.014088584976643323,0.21023557258546352
1746275963217769000,1.33776904296875,0.29057226110398765,-0.023796909042447804,0.08517536072134971
1746275963227748900,1.347748779296875,0.3118430126696825,-0.037160979136824604,0.026057401320338246
1746275963237729000,1.35772900390625,0.2983399724960327,-0.04241385816372931,-0.08805296198427677
1746275963247709000,1.367708984375,0.26918285159468647,-0.03488938094303012,-0.206836577796936
1746275963257689000,1.377689208984375,0.20870821688771246,-0.029693419735133647,-0.27922201505005356
1746275963267669000,1.3876689453125,0.055604398322105404,-0.015747604230046272,-0.2228454633116722
1746275963277649000,1.39764892578125,-0.13009236081242562,0.022606603279337285,-0.14146715678572655
1746275963287628000,1.4076279296875,-0.28049218111634255,0.06348857570067047,0.008815759140253067
1746275963297608000,1.41760791015625,-0.3031125937253237,0.12394392118528484,0.102429862383008
1746275963307588000,1.427588134765625,-0.2582113757252693,0.0768082221314311,0.21973639138042925
1746275963317568000,1.437568115234375,-0.45870238388776774,0.09506627481244503,0.29712650505304333
1746275963327548000,1.4475478515625,-0.4562988298773765,0.11190050523541867,0.2236380749940872
1746275963337528000,1.457528076171875,-0.32522447229027746,0.027843554084748028,0.18352175318300723
1746275963347508000,1.467508056640625,-0.12442308300435542,0.0019252689741551875,0.16378654062151907
1746275963357487900,1.47748779296875,0.09866729497909546,-0.050854573446512216,0.1224415537983179
1746275963367467800,1.4874677734375,0.28571196159124373,-0.052452948553860186,0.07546236048042773
1746275963377447000,1.497447021484375,0.35946108841300006,-0.030431013294681904,0.10079612370133399
1746275963387427000,1.507427001953125,0.3501613451480865,0.01907382604330778,0.0335579862087965
1746275963397407000,1.517406982421875,0.2511468441665172,-0.015139993725717067,-0.015122165808081626
1746275963407387100,1.52738720703125,0.16044950515329837,-0.014913126167282461,-0.10653612865805626
1746275963417367000,1.537366943359375,0.00282031811773777,0.008155906992033123,-0.17102584422528744
1746275963427347000,1.547346923828125,-0.17268121021687982,0.036295229152962565,-0.13856383655965326
1746275963437326800,1.557326904296875,-0.2709001769065857,0.06918371860235929,-0.09661153149306774
1746275963447306800,1.567306640625,-0.2823147203683853,0.06929821182750165,-0.00032557869255542754
1746275963457287200,1.577287109375,-0.27011574853062625,0.055842152600735426,0.09504092117547988
1746275963467267000,1.58726708984375,-0.2522287941843271,0.06064969901293516,0.1455430279225111
1746275963477246000,1.597245849609375,-0.18978665879666803,0.03224683054499328,0.12198504220247268
1746275963487226000,1.60722607421875,-0.11707155119776726,0.012871902663260697,0.0987175638616085
1746275963497206000,1.6172060546875,-0.0060725979119539255,-0.02178673826381564,0.07998772895038127
1746275963507186000,1.62718603515625,0.09610533553659915,-0.06349259428866207,0.011188333490490913
1746275963517165800,1.637165771484375,0.16248422585129738,-0.05400551175810396,-0.07062953349649906
1746275963527146000,1.64714599609375,0.08416238428652285,-0.015890300636366008,0.026902035450935363
1746275963537126100,1.657126220703125,-0.04355214147865772,-0.02051905641555786,0.12362754871249199
1746275963547106000,1.66710595703125,-0.12144611302018164,0.000050268882513046264,0.035951603347063064
1746275963557086000,1.6770859375,-0.1584650533378124,-0.02518770581372082,-0.026515081959962845
1746275963567065000,1.687065185546875,-0.17827566922307014,-0.04690444758124649,0.014570961666107177
1746275963577045000,1.697044921875,-0.21668752520382403,-0.00377820336446166,0.12165069568157195
1746275963587025000,1.70702490234375,-0.21255729353129862,0.05672587663270533,0.292969969895482
1746275963597004800,1.7170048828125,-0.10029869557321071,0.016548545349389314,0.31105215455293656
1746275963606985200,1.726985107421875,0.03470774076581001,-0.05586443749777972,0.2266097842812538
1746275963616965000,1.736965087890625,0.16039339105188846,-0.037932986422628164,0.043671383944153784
1746275963626945000,1.746945068359375,0.2402776596277952,-0.004726882391422987,-0.08814122478961944
1746275963636925000,1.756925048828125,0.3296101400285959,0.05804974564760923,-0.13493570919036865
1746275963646904800,1.76690478515625,0.3760182554602623,0.08992489333599805,-0.17082769130468367
1746275963656884000,1.776884033203125,0.3610007190704346,0.08056596722975373,-0.06363748265206813
1746275963666863900,1.78686376953125,0.368273340421915,0.0216413384437561,-0.07268705054819584
1746275963676843800,1.79684375,0.3897492591708898,-0.01987184455320239,-0.12582768910527228
1746275963686824200,1.80682421875,0.37031565990447995,0.006427768025174737,-0.14887304912805557
1746275963696804000,1.81680419921875,0.3038695495724678,-0.03598952420465648,-0.11075520765781402
1746275963706784000,1.826783935546875,0.16827449969053268,-0.07290690384395421,-0.2154863327205181
1746275963716764000,1.836763916015625,-0.08051496769487858,0.014218056575208901,-0.301293561604619
1746275963726744000,1.846744140625,-0.38753158312141894,0.10913637428432703,-0.2206710418820381
1746275963736724000,1.856723876953125,-0.5374217003375291,0.1780756166063249,-0.1856143415480852
1746275963746704100,1.8667041015625,-0.41840661385655403,0.18675211340636014,-0.1407639769524336
1746275963756682800,1.876682861328125,-0.2012736829727888,0.14390972763225435,0.006057984864711761
1746275963766663200,1.8866630859375,-0.00829495013654232,0.054987435467541215,0.19708324554562567
1746275963776643000,1.89664306640625,0.07089899808764458,-0.03816650291755795,0.3188409087330103
1746275963786623000,1.906623046875,0.03472702998816967,-0.07577186482101679,0.3564858719944954
1746275963796603000,1.916602783203125,-0.011449614775180816,-0.12289295082762837,0.321180165335536
1746275963806583000,1.9265830078125,-0.07214753684401512,-0.0660614949285984,0.3137596599459648
1746275963816563000,1.93656298828125,-0.16375380739569664,0.005597235485166311,0.29635084450542926
1746275963826543000,1.946543212890625,-0.17480419372022152,0.010896218676120043,0.16636954285204408
1746275963836523000,1.95652294921875,-0.08738836059570312,0.03857069980427623,0.06532908900082111
1746275963846502100,1.966502197265625,0.02154430781006813,0.0386468337804079,0.05578384654223919
1746275963856482000,1.97648193359375,0.13359949215054512,-0.012910773368924855,0.03925649011135101
1746275963866462000,1.9864619140625,0.18923194752335548,-0.0391645740441978,0.02097615253329277
1746275963876441900,1.99644189453125,0.19393734873533247,-0.021123305919021368,0.10514262847304344
1746275963886422000,2.006422119140625,0.2022007346898317,-0.04096256337687373,0.08772212259471417
1746275963896402000,2.01640185546875,0.2178910557746887,-0.059300330230593674,0.01040858128964901
1746275963906382000,2.026382080078125,0.15030629680156707,-0.0519865731511265,-0.06833937673270701
1746275963916362000,2.036362060546875,0.0022550854504108427,-0.04489164645411074,-0.06978723745346069
1746275963926342000,2.046341796875,-0.12245149067044257,0.021980945661664007,-0.1327852531582117
1746275963936321000,2.056321044921875,-0.20789222432971,0.06148337335810065,-0.1574234353303909
1746275963946301000,2.066301025390625,-0.2625590495407581,0.06967442472875118,-0.08354512917101382
1746275963956280800,2.07628076171875,-0.2606353880017996,0.12825294349081814,-0.07866378687024116
1746275963966261000,2.086260986328125,-0.1997054107427597,0.0949992009256035,-0.007949497699737549
1746275963976241000,2.096240966796875,-0.10660977841615676,0.04300846305601298,0.10063830279111861
1746275963986221000,2.106220947265625,-0.010199906975030898,-0.024691008337959647,0.12465572271645069
1746275963996201000,2.116200927734375,0.059686114677786825,-0.05492123836353421,0.14272680145800112
1746275964006181000,2.12618115234375,0.08717676367163657,-0.07129398875460029,0.13455810804963111
1746275964016161000,2.1361611328125,0.13327800511121748,-0.1037354650888592,0.07967033356428146
1746275964026140000,2.146139892578125,0.18303250836133955,-0.09202581113800407,0.04028583315908909
1746275964036120000,2.1561201171875,0.19780922173261642,-0.04435746651217341,0.04211889380514622
1746275964046100000,2.166099853515625,0.18964345093369483,0.003252133663743734,0.04017535852193832
1746275964056080100,2.176080078125,0.15739479375779628,0.02315473868139088,0.007245733344554901
1746275964066060000,2.18606005859375,0.036380642414093015,0.023242270834371446,-0.021052724900841712
1746275964076040000,2.1960400390625,-0.10862637893557547,0.05046038649715483,-0.06199322257637977
1746275964086020000,2.20602001953125,-0.2096171484261751,0.0735083768684417,-0.05412731150686741
1746275964096000000,2.216,-0.2499456516832113,0.04987462249845266,0.036197687062621116
1746275964105980000,2.22597998046875,-0.26952304333448407,0.03847958745472133,0.11012626210451125
1746275964115959000,2.235958984375,-0.2218213809609413,0.07362542737685143,0.12461772879362105
1746275964125939500,2.245939453125,-0.15610709203481674,0.038659474066272376,0.10488310075402259
1746275964135919600,2.255919677734375,-0.06889993322491646,0.0001616203024983406,0.03793956229388713
1746275964145899500,2.2658994140625,-0.020794950747489927,0.003332359293103218,0.013127777120471
1746275964155879400,2.27587939453125,0.029225509962439535,-0.009643076809868216,-0.017799276062846182
1746275964165859600,2.285859619140625,0.07740005054473877,0.006158449564501643,-0.035060207465291024
1746275964175839500,2.295839599609375,0.09107435563206673,0.07938515994735061,-0.04569032255113124
1746275964185819400,2.3058193359375,0.07001870812177657,0.09580679098144174,-0.006305822145938873
1746275964195799600,2.315799560546875,0.049041386544704434,0.10857296824790537,0.039025019443035124
1746275964205778700,2.32577880859375,0.08837503354549407,0.07296623281575738,-0.0049719431936740876
1746275964215758600,2.335758544921875,0.14148001626729964,-0.0015072627577930688,-0.0422024804353714
1746275964225738500,2.345738525390625,0.1987900494635105,-0.07707739446163177,-0.03639116380810738
1746275964235718400,2.355718505859375,0.1846253305107355,-0.0821218914348632,-0.007292495095729827
1746275964245698600,2.365698486328125,0.13575403983592987,-0.08020546335428953,0.031222821259498594
1746275964255678500,2.375678466796875,0.09536065464913844,-0.07005765189267694,0.09985212084949016
1746275964265658400,2.385658447265625,0.043351650470495225,-0.030832360637187955,0.11600070709586142
1746275964275638500,2.395638427734375,0.002210077264904976,-0.015212839766219257,0.14253975445330141
1746275964285618400,2.405618408203125,-0.07128828966617584,-0.018677081810683012,0.12103811674118041
1746275964295597600,2.41559765625,-0.14368950901031494,-0.013006781089305877,0.032117724272608755
1746275964305577500,2.425577392578125,-0.1744435437142849,-0.00775258688814938,0.028368016350269316
1746275964315557400,2.435557373046875,-0.21922493472695348,0.011911021741852164,0.03593289864659309
1746275964325537500,2.44553759765625,-0.23463410078287122,0.04856171326898038,0.02458206807076931
1746275964335517400,2.455517333984375,-0.23068565541803834,0.027789485809952018,0.057225277522206304
1746275964345497300,2.465497314453125,-0.1860235068708658,0.015848945712670683,0.10638415296673774
1746275964355477500,2.4754775390625,-0.09428688793778418,0.012024492053687571,0.07752864536046981
1746275964365457400,2.48545751953125,0.012186112356185913,0.010806859892234205,0.02390636076629162
1746275964375437600,2.4954375,0.055260114929080006,0.022142492898926138,0.01478606572151184
1746275964385416400,2.50541650390625,0.09314648573100566,0.016372604260593653,0.02351239301264286
1746275964395396400,2.515396240234375,0.08964812222123146,0.016754954641684888,0.004898877957463264
1746275964405376500,2.52537646484375,0.08873159189820289,0.006715352794900536,-0.01037584806382656
1746275964415356400,2.5353564453125,0.09779869545102118,-0.020365619419515132,-0.0265168355256319
1746275964425336600,2.545336669921875,0.12338204951882362,-0.050771863599121565,0.003471475502848625
1746275964435316500,2.55531640625,0.13306523914337157,-0.04582688147760927,0.060492170363664624
1746275964445296600,2.565296630859375,0.1351204181075096,-0.014988164164870976,0.041458968591690064
1746275964455276500,2.575276611328125,0.10603343983292579,-0.016665157466381787,0.04441898744106292
1746275964465256400,2.58525634765625,0.06556698940992355,-0.009778247496858239,0.03082008567750454
1746275964475235600,2.595235595703125,0.03429389926791191,-0.01140818678624928,-0.02237082176208496
1746275964485215500,2.605215576171875,-0.026902035450935363,-0.01863872256167233,-0.04614157344996929
1746275964495195400,2.6151953125,-0.08894318882226944,0.027114947549253702,-0.039030280140042305
1746275964505175600,2.625175537109375,-0.1480915433615446,0.06798632551133632,0.029485622203350065
1746275964515155500,2.635155517578125,-0.18454875814318655,0.05247442973330617,0.06875555631816387
1746275964525135600,2.645135498046875,-0.1842810471177101,0.0359653396114707,0.06748012955486773
1746275964535115500,2.655115478515625,-0.13305237966179848,0.018638284170255065,0.08092179493010043
1746275964545095400,2.665095458984375,-0.07221066520810127,-0.01696808593571186,0.0980155530720949
1746275964555075300,2.675075439453125,0.014480360773205756,-0.02307210189923644,0.07984276752173901
1746275964565054500,2.685054443359375,0.08761281700134277,-0.030999972289055586,0.08140461001098155
1746275964575034400,2.695034423828125,0.13472995748519898,-0.04600764487199485,0.06804770030975342
1746275964585014500,2.7050146484375,0.15018004007339478,-0.006857464679330587,0.05812251862287521
1746275964594994400,2.714994384765625,0.11274082851707935,-0.030766236598417162,-0.04137304387390613
1746275964604974600,2.724974609375,0.05611293236613273,-0.023054858503490684,-0.11105214477777481
1746275964614954500,2.73495458984375,-0.00201426243185997,0.0027572628188878294,-0.06452887853384018
1746275964624934400,2.744934326171875,-0.019857962158322334,0.04620952411964535,-0.010379939717054367
1746275964634914300,2.754914306640625,-0.011149170523881912,0.046371875074505804,0.03167816381156444
1746275964644894700,2.764894775390625,-0.02890110031366348,0.03654357789084315,0.08013736655414104
1746275964654873300,2.774873291015625,-0.06348141530752181,0.030301322500407693,0.06095803430974483
1746275964664853500,2.784853515625,-0.12266425663828849,0.020093451414629815,0.048664954447746274
1746275964674833700,2.794833740234375,-0.1190039805650711,0.0013321984518319368,0.0512257448464632
1746275964684813600,2.8048134765625,-0.08702829511165619,-0.015196034761890768,0.0482715712159872
1746275964694793500,2.81479345703125,-0.03221943108141422,-0.020468276076391338,0.050632455128431314
1746275964704773400,2.8247734375,0.05054711493253707,0.012596300592273473,0.0744224960386753
1746275964714753300,2.834753173828125,0.10977671801447868,-0.004662877244502306,0.09126374072432518
1746275964724733700,2.844733642578125,0.13405132757127283,-0.043287572258338326,0.07585106753706931
1746275964734713600,2.854713623046875,0.07611059525609017,-0.04425364081151783,0.02833469860255718
1746275964744692500,2.8646923828125,-0.017107202145457266,-0.037497152288630604,-0.01983107415139675
1746275964754672600,2.874672607421875,-0.09140402597784995,-0.01654116576053202,-0.001928337714076042
1746275964764652500,2.884652587890625,-0.11709843920469283,-0.01712422634549439,-0.014176409390568733
1746275964774632400,2.894632568359375,-0.11422259150743484,-0.026024375833570954,0.025631869384646414
1746275964784612400,2.9046123046875,-0.11328268030881881,-0.016127981849759818,0.0730237351566553
1746275964794592300,2.91459228515625,-0.06206219615936279,0.00265964766331017,0.10300970809757709
1746275964804572700,2.92457275390625,-0.04608838195800781,-0.03347279214337468,0.10364040721654891
1746275964814552600,2.934552490234375,0.04944587569236755,-0.054019832544401285,0.08993512246906757
1746275964824532500,2.944532470703125,0.18451836300492286,-0.0735536773148924,0.03941489554345608
1746275964834511600,2.95451171875,0.186860542216897,-0.12869506123512983,0.1291203009098768
1746275964844491500,2.964491455078125,0.21427578788697718,-0.06914550548382103,0.16666764901578426
1746275964854471400,2.974471435546875,0.2099824746072292,-0.0028026363305747506,0.1637947239279747
1746275964864451300,2.984451416015625,0.08158055109977722,-0.0035108576651662585,0.17919746024310587
1746275964874431500,2.994431396484375,-0.04163900133371353,0.04341324446462094,0.12349720033109188
1746275964884411600,3.00441162109375,-0.11603636293113231,0.09872866977751255,0.058895256561040873
1746275964894391600,3.0143916015625,-0.13512626332640648,0.07557729209698737,0.004015665382146835
1746275964904371500,3.024371337890625,-0.03299275354146957,-0.014724033335968851,-0.046727264383435246
1746275964914351400,3.034351318359375,0.28562486782968044,-0.016588658164069056,-0.19205577277243135
1746275964924330500,3.04433056640625,0.19856208592653274,-0.08762070804685354,-0.012304185777902602
1746275964934310400,3.054310302734375,-0.03284253141582012,-0.03570595802292228,0.12768529967069625
1746275964944290300,3.064290283203125,-0.06929623906612396,0.11173990784622728,0.1591974592655897
1746275964954270700,3.074270751953125,-0.12006196518540381,0.11401530543230473,0.07266016254127025
1746275964964250600,3.084250732421875,-0.24027473701834678,0.030185514101013538,-0.03213701349496841
1746275964974230500,3.09423046875,-0.24210604409873485,0.07549056366160511,-0.17010989842414856
1746275964984210400,3.10421044921875,-0.1985246765255928,0.07872041242830455,-0.21252222221791742
1746275964994190300,3.1141904296875,-0.12631342679560184,0.06253368612863124,-0.19076631748378275
1746275965004170500,3.12417041015625,0.004189852905273437,0.10198036504983901,-0.12256430339515209
1746275965014149400,3.1341494140625,0.1214478665858507,0.11260894576571881,-0.10066402175426482
1746275965024129300,3.14412939453125,0.14497545716762542,0.11162694899104535,-0.09043605772852897
1746275965034109700,3.154109619140625,0.09711948101520537,0.12553447831235826,-0.12838672593832015
1746275965044089600,3.164089599609375,0.05872165355980396,0.12347542689070105,-0.14895137506127357
1746275965054069500,3.174069580078125,-0.08558452604413032,0.15220672359541057,-0.11571312232613563
1746275965064049400,3.18404931640625,-0.2698211494982242,0.11997158348821103,-0.028571429967880247
1746275965074029600,3.194029541015625,-0.4233995998382568,0.013768924568220972,0.07680734534859657
1746275965084009500,3.204009521484375,-0.497231144246459,0.017953809037432072,0.14001111275851727
1746275965093989400,3.2139892578125,-0.5296767852991819,0.02252345504052937,0.16326397805213927
1746275965103968300,3.22396826171875,-0.5364332738220692,-0.014673837518692015,0.0911141031205654
1746275965113948700,3.23394873046875,-0.43219080905914303,-0.025720497516170143,-0.08234861286282538
1746275965123927600,3.243927490234375,-0.19365093300938604,-0.019646876690909264,-0.24824469298422336
1746275965133907500,3.253907470703125,0.07766717704832553,-0.0724059685844928,-0.45292146239876746
1746275965143887600,3.2638876953125,0.17779694579541683,-0.14250555992275477,-0.6791758573710918
1746275965153867800,3.27386767578125,0.16998948691487312,-0.04278839056454599,-0.7175842062205076
1746275965163847700,3.28384765625,0.042999768292903896,0.21503077097274362,-0.594584434017539
1746275965173827600,3.29382763671875,0.045507367199659345,0.419000634226948,-0.44583296544253825
1746275965183806700,3.303806640625,0.27715105399489404,0.355858095484972,-0.20662907252609727
1746275965193786600,3.31378662109375,0.5430623365730047,0.17806516827754676,0.0738081635326147
1746275965203766500,3.3237666015625,0.7112514960676432,-0.011532105426862836,0.21219372091591357
1746275965213746400,3.333746337890625,0.677028908470273,-0.10379815506152808,0.2915384757876396
1746275965223726600,3.3437265625,0.5398083032131195,-0.10870441260784863,0.3669108198970556
1746275965233706800,3.353706787109375,0.22079846765398978,-0.026755612717568874,0.331764103192091
1746275965243686700,3.363686767578125,-0.19871523066163063,0.04323686498440802,0.3017307839781046
1746275965253666600,3.37366650390625,-0.48733694221973417,0.09685337742492556,0.29389819065630435
1746275965263646700,3.383646728515625,-0.5204916083246469,-0.01955079590529203,0.3708417296051979
1746275965273625600,3.39362548828125,-0.36433483192920685,-0.10974939161613582,0.46826750009059903
1746275965283605500,3.40360546875,-0.17149579982459545,-0.18274010128602383,0.3722521809250116
1746275965293585700,3.413585693359375,-0.07689151650071144,-0.18858765827044843,0.23877368480563163
1746275965303565600,3.423565673828125,-0.13989479290246962,-0.08312193532288074,0.18734160373210906
1746275965313545700,3.433545654296875,-0.2767886504232883,-0.008847469452768564,0.14091478359997273
1746275965323525600,3.443525634765625,-0.575154926404357,0.010666501573473215,0.0683791242212057
1746275965333505500,3.453505615234375,-0.7370014388740063,0.10606310431882739,0.07428045721948147
1746275965343485700,3.463485595703125,-0.6852396874547004,0.13363763220384717,0.17443185327649116
1746275965353465600,3.473465576171875,-0.49502223602533335,0.18747604376673696,0.31000118419528006
1746275965363444500,3.483444580078125,-0.2542027246057987,0.2748531523160636,0.3887129018604755
1746275965373424600,3.493424560546875,-0.053073418539762496,0.3297809665508568,0.4088116870373487
1746275965383404500,3.503404541015625,0.08349193767905234,0.2618392108336091,0.5741781903266906
1746275965393384700,3.513384765625,0.17346388502717017,0.2916793455630541,0.6320972953319549
1746275965403364600,3.523364501953125,0.1310942313313484,0.6280984349541365,0.4026975880712271
1746275965413344500,3.533344482421875,0.04816986440718174,0.09631474050357937,0.0940337899595499
1746275965423324700,3.54332470703125,0.0811503429889679,-0.3777073775909841,-0.07957213388681411
1746275965433304600,3.5533046875,0.07188333294987678,-0.35497941295430063,-0.438949635669589
1746275965443283500,3.563283447265625,0.24662322926223276,-0.3316645883403718,-0.5660305397063493
1746275965453263600,3.573263671875,0.5028016378551722,-0.38594109905958174,-0.4715121811002493
1746275965463243800,3.583243896484375,0.7840706485629081,-0.30187443023249505,-0.3220294756412506
1746275965473223700,3.5932236328125,0.8873404689013957,-0.21145912303104997,-0.1940069068402052
1746275965483203600,3.60320361328125,0.8422212242364883,-0.20397928866967557,-0.05439911418557167
1746275965493183500,3.61318359375,0.6782745246171951,-0.16101590686440467,-0.06329261473715304
1746275965503163600,3.62316357421875,0.48184711263179775,-0.03245382435917854,-0.2088596080571413
1746275965513143600,3.6331435546875,0.311017667761445,-0.032480566235631704,-0.19802081865668295
1746275965523123500,3.64312353515625,0.18101240071058272,-0.03783917065933347,0.001762333497405052
1746275965533102600,3.6531025390625,0.10299041887521743,-0.03162146518826484,0.23260230269432067
1746275965543082800,3.663082763671875,0.10342062698602676,0.0472642938695848,0.3702659755438566
1746275965553062700,3.673062744140625,0.18528408668041227,0.17004501649439333,0.4373977300524711
1746275965563042600,3.68304248046875,0.3490256191164255,0.26201091413870453,0.5919494093388319
1746275965573022700,3.693022705078125,0.5932476324558258,0.23537746649608016,0.7989777103155851
1746275965583002600,3.703002685546875,0.8761831150710582,0.16219693334251642,0.8926111027806997
1746275965592982500,3.712982421875,0.8805693673312663,0.02865165559723973,0.6858125189065932
1746275965602962400,3.72296240234375,0.4147165271669626,-0.022067308770865202,0.2502542792409658
1746275965612942600,3.732942626953125,-0.27107553347349167,0.07682678070142865,-0.16807985390126703
1746275965622921700,3.742921630859375,-1.1466600981295108,0.2943678539946675,-0.52830023624897
1746275965632901600,3.752901611328125,-1.9216952073216438,0.38694421168752013,-0.5818026938557624
1746275965642881500,3.762881591796875,-2.083573868495226,0.3239659966617822,-0.5069985050231218
1746275965652861700,3.77286181640625,-1.8355711675733326,0.1598244320575148,-0.29156127214133737
1746275965662841600,3.782841552734375,-1.2716741327643393,-0.11663600932471453,-0.289378082883358
1746275965672821500,3.792821533203125,-0.413113768145442,-0.4058849128704518,-0.1882815149307251
1746275965682801700,3.8028017578125,0.4634674063324928,-0.44726161000616843,0.06677928780913353
1746275965692781600,3.812781494140625,1.075862222328782,-0.2496761140268296,0.14167057040333747
1746275965702760700,3.8227607421875,1.3388660930275915,-0.05517762427739799,0.05515548551082611
1746275965712740600,3.83274072265625,1.31663847912848,0.11560527803748845,-0.06473989093601704
1746275965722720500,3.842720458984375,0.9383949488341807,0.18556816431879997,-0.06331774917840957
1746275965732700700,3.85270068359375,0.42255613475143905,0.1532074981357902,-0.0036509237229824065
1746275965742680600,3.8626806640625,-0.002878770306706428,0.08785378615036606,0.0675385817438364
1746275965752660500,3.872660400390625,-0.3558142563432455,0.06722038264013827,0.0231359609156847
1746275965762640600,3.882640625,-0.5629617997854948,0.09771927353926002,-0.023493688312172887
1746275965772620800,3.892620849609375,-0.5562345373570918,0.1985551447290927,-0.10427052181363106
1746275965782600700,3.9026005859375,-0.32731589161157604,0.06075228260457515,-0.13479425489306449
1746275965792579600,3.91257958984375,0.050345454880595206,-0.16727657469436524,-0.15514730709195135
1746275965802559500,3.9225595703125,0.42422552926838397,-0.23122020068615673,-0.15730594643056392
1746275965812539600,3.93253955078125,0.7229886956125497,-0.16312698073424398,-0.0214759187489748
1746275965822519600,3.94251953125,0.9300234263300895,-0.12331709452383219,0.19241525373458862
1746275965832499500,3.95249951171875,0.9953893402099608,-0.18889979295954107,0.3112345253825187
1746275965842479600,3.962479736328125,0.9035872548252344,-0.20376308863572776,0.3702694826751947
1746275965852459800,3.972459716796875,0.7254547934651374,-0.11146605934090911,0.3526858951896429
1746275965862439700,3.982439697265625,0.42633039259314537,-0.0010241554159671068,0.3444160794943571
1746275965872418600,3.99241845703125,0.0754290427327156,0.11839045177660881,0.31096798340082166
1746275965882398700,4.002398681640625,-0.22920856860280037,0.16665683536082504,0.18903204103708265
1746275965892378600,4.012378662109375,-0.40659810264110563,0.17330467587746679,0.030090017837285994
1746275965902358500,4.022358642578125,-0.4761719896048307,0.16641119003668425,-0.10957213535308838
1746275965912338400,4.03233837890625,-0.48023617030382154,0.13354564307145775,-0.19596505517065524
1746275965922318600,4.042318603515625,-0.44041210943758485,0.09481938737928866,-0.2745388256698847
1746275965932298800,4.052298828125,-0.3272515942037105,0.04894895902089774,-0.28258593852519986
1746275965942278700,4.062278564453125,-0.226723181527853,-0.06486622072942555,-0.27823884923160075
1746275965952257500,4.072257568359375,-0.1812520546853542,-0.059529828137531875,-0.2515378893107176
1746275965962237700,4.08223779296875,-0.17942600830197333,-0.05622888689599931,-0.16702186928093432
1746275965972217600,4.092217529296875,-0.17744623266160486,-0.06756612733788787,-0.07313888596892357
1746275965982197500,4.102197509765625,-0.22025953847169874,-0.01441679401770234,-0.010709025540947914
1746275965992177700,4.112177734375,-0.19696751021146774,0.027777064719796178,0.07656009258925914
1746275966002157600,4.122157470703125,-0.1720551872730255,0.050466962368413804,0.16010639080405234
1746275966012137700,4.1321376953125,-0.1661900946319103,0.08332469135336577,0.17305998040139675
1746275966022117600,4.14211767578125,-0.20090894131362438,0.09791406545899808,0.14955693973898887
1746275966032097500,4.15209765625,-0.2535743635743856,0.06443133644349873,0.14528759185671805
1746275966042076700,4.16207666015625,-0.36478725187182426,0.030369930757209656,0.05459551354050636
1746275966052056600,4.172056640625,-0.43900808785855766,0.06522738219201564,-0.07647182978391646
1746275966062036500,4.182036376953125,-0.42685646229386326,0.0611792758449912,-0.08541735278367996
1746275966072016600,4.1920166015625,-0.37606326364576814,0.0005769961703568696,-0.018577859219908715
1746275966081996800,4.201996826171875,-0.26379063716232776,0.05273037725575268,0.06351473305523395
1746275966091976700,4.211976806640625,-0.13800620267689226,0.07957586021386086,0.13885785107016563
1746275966101956600,4.22195654296875,0.032120062360167505,0.03962868442460894,0.1473071149855852
1746275966111936500,4.2319365234375,0.17953882102668284,-0.0009073241032660007,0.11439327189922333
1746275966121916400,4.24191650390625,0.294103942361474,-0.04771028407141566,0.09552139816880226
1746275966131897000,4.25189697265625,0.3347346434354782,-0.0889375627990812,-0.16538345442414282
1746275966141877000,4.261876953125,0.35714813529551026,-0.13482004692144692,-0.48920975035429
1746275966151857000,4.27185693359375,0.3852671453207731,-0.12856836611554026,-0.6507002889931202
1746275966161836800,4.2818369140625,0.383238269841671,-0.016686127189174293,-0.5091495455771684
1746275966171816700,4.291816650390625,0.26313421908020973,0.12991576213650405,-0.1892430534392595
1746275966181796900,4.301796875,0.02459434303045273,0.2517130997471511,0.1125163721114397
1746275966191777000,4.311777099609375,-0.2628004570811987,0.3040170682843774,0.30175942555069923
1746275966201757000,4.3217568359375,-0.549910010510683,0.32025844738073644,0.3340606896966696
1746275966211736000,4.331736083984375,-0.6712737059444188,0.25494638257995245,0.35393034229278564
1746275966221716000,4.341716064453125,-0.6741495536416768,0.14255027584731578,0.32455285663902755
1746275966231696000,4.35169580078125,-0.46750820615589617,-0.01339146955795586,0.2329232052117586
1746275966241675800,4.36167578125,-0.1595370664834976,-0.12767229405865071,0.2562123108625412
1746275966251656000,4.371656005859375,0.1959101101130247,-0.20404314768612383,0.2744026320695877
1746275966261636000,4.381635986328125,0.483928010559082,-0.24637977589517832,0.309490312063694
1746275966271616000,4.391615966796875,0.6687462332934141,-0.217496065107733,0.3763309746712446
1746275966281596000,4.401595947265625,0.7822364188730716,-0.1671224070459604,0.45348026532530783
1746275966291575000,4.411574951171875,0.7194459084391593,-0.12020948389731347,0.42422202213704585
1746275966301555000,4.421554931640625,0.4832102176785469,-0.11289214662127196,0.2709475231796503
1746275966311534800,4.431534912109375,0.2814899599820375,-0.0700748952884227,0.1656499964058399
1746275966321514800,4.4415146484375,0.1218318974673748,-0.07674049065746366,0.026774609678983687
1746275966331495000,4.451494873046875,-0.00990180081129074,-0.03467858773656189,-0.10349193865656853
1746275966341475000,4.46147509765625,-0.14035071997642518,0.01112513206116855,-0.14457505967319012
1746275966351455000,4.471455078125,-0.24720599758625028,0.0759299049269408,-0.13554302743375302
1746275966361435000,4.481434814453125,-0.27570202423036094,0.12101597797460853,-0.09438041144013404
1746275966371414800,4.491414794921875,-0.24661972213089464,0.11546426213160156,-0.05365735590755939
1746275966381394000,4.501393798828125,-0.231027600723505,0.07415303144752979,-0.012087912678718567
1746275966391373800,4.511373779296875,-0.23694120868146418,0.04422755652219057,0.027254502150416374
1746275966401353700,4.521353759765625,-0.260550632327795,-0.018596271659433842,0.008449263915419577
1746275966411334000,4.531333984375,-0.2834375869184732,-0.013598390306904911,0.009696049106121063
1746275966421314000,4.54131396484375,-0.33919980615079404,-0.003172492556273937,0.14559680393636226
1746275966431294000,4.5512939453125,-0.4191343436092138,-0.028468919441476462,0.26980419836342334
1746275966441273900,4.56127392578125,-0.46344870163202284,-0.030114275495707988,0.2707686594814062
1746275966451254000,4.57125390625,-0.4370803346663713,0.01231638767234981,0.1869301003217697
1746275966461233000,4.58123291015625,-0.2416764205098152,-0.021738442142680284,0.12605214551091193
1746275966471212800,4.591212890625,0.0370738853752613,-0.044335620006546374,0.05916238306462764
1746275966481192700,4.601192626953125,0.29050913273990153,-0.008813859444111585,-0.0042658407509326935
1746275966491172900,4.6111728515625,0.43403731370866294,-0.01793831920735538,-0.03020341508388519
1746275966501153000,4.621153076171875,0.5250695837646723,-0.015062252314388751,-0.10182020605206489
1746275966511133000,4.6311328125,0.5563818368732929,-0.017819515133276582,-0.15058978991806507
1746275966521112800,4.64111279296875,0.4883575174391269,-0.004120513996109366,-0.19381927531361579
1746275966531093000,4.651093017578125,0.4260235186010599,0.024326412809267638,-0.13855799134075641
1746275966541072000,4.66107177734375,0.36878655064105986,0.03861417361982167,-0.1057978775113821
1746275966551051800,4.6710517578125,0.24337854825258254,0.022953517020866274,-0.0807405931442976
1746275966561032000,4.681031982421875,0.0948702407836914,0.04386128049306571,-0.062249827685952185
1746275966571012000,4.69101220703125,-0.07346095753014087,0.03612674071826041,-0.04422317260801792
1746275966580992000,4.700991943359375,-0.1981622729539871,0.022565832877531646,-0.04546937327682972
1746275966590972000,4.710971923828125,-0.28023791409432885,0.019484525736048818,-0.027139935860037802
1746275966600951800,4.720951904296875,-0.29785481932759283,0.05340688827782869,0.025389292800426483
1746275966610932000,4.730931884765625,-0.23044132526814937,0.07656528022103011,0.07651216179430484
1746275966620911900,4.740911865234375,-0.13141396480500697,0.03818213887810707,0.08384674246609211
1746275966630890800,4.750890869140625,0.02604512636065483,0.017768953989818693,0.07010346379578113
1746275966640871000,4.760870849609375,0.13483458690345287,-0.0004919482354074716,0.04485796338021755
1746275966650851000,4.77085107421875,0.16338672764897347,0.0029890257481485602,0.039569209322333335
1746275966660831000,4.7808310546875,0.16751754384338854,-0.006816694277524947,0.058554480299353596
1746275966670811000,4.790810791015625,0.08779986400604248,-0.039525077919662,0.0649807139545679
1746275966680790800,4.800790771484375,0.04538403308093548,-0.052340428090095516,0.06766659203767776
1746275966690771000,4.81077099609375,-0.01706745465695858,0.0017872487429529428,0.07214753684401512
1746275966700750800,4.820750732421875,-0.07900397861003876,0.01522204598598182,0.05944529165923595
1746275966710729700,4.830729736328125,-0.116751233202219,0.003334405119717121,0.020500936236977577
1746275966720710000,4.8407099609375,-0.15899229208230972,0.04124079579636454,-0.016522095733880995
1746275966730690000,4.85068994140625,-0.19543021764159202,0.05537665398083627,-0.04036825074553489
1746275966740670000,4.860669921875,-0.1989741738587618,0.05862265016473829,-0.06251110897064209
1746275966750649900,4.87064990234375,-0.23096447235941886,0.06933898222930729,-0.07043664127290249
1746275966760630000,4.880630126953125,-0.21980711852908133,0.07680946424044668,-0.07145195579528808
1746275966770610000,4.89060986328125,-0.1894271778345108,0.09399718427620828,-0.10899404320418835
1746275966780589800,4.90058984375,-0.08642506852149963,0.05185227924697101,-0.12804419611096382
1746275966790568700,4.910568603515625,0.07356675599217415,0.06384981022849678,-0.13584522525072096
1746275966800548900,4.920548828125,0.1813052461773157,0.08396598493158816,-0.05556698892116546
1746275966810529000,4.930529052734375,0.24237960034310815,0.03370477426834404,0.006404606345295906
1746275966820509000,4.940509033203125,0.2340688681155443,0.005104337401688099,0.05781038393378257
1746275966830488800,4.95048876953125,0.07917933517694473,0.007485241188853979,0.07645955482423306
1746275966840469000,4.960468994140625,-0.06950257529318332,-0.023307956481724977,0.07895604781508446
1746275966850449000,4.970448974609375,-0.1590752941906452,-0.036956761801615355,0.0691243896305561
1746275966860428800,4.9804287109375,-0.17201777787208555,-0.04549984148032963,0.07662672808468342
1746275966870408000,4.990407958984375,-0.1413946760714054,-0.07546608680747449,0.12224164731204509
1746275966880387800,5.000387939453125,-0.212362647742033,-0.03583586801290512,0.10304477941095828
1746275966890368000,5.010367919921875,-0.45676469382345675,0.015317688380181788,0.014670330387353896
1746275966900348000,5.020347900390625,-0.7904512895107269,0.07263444357812404,-0.08858253881633281
1746275966910327800,5.030327880859375,-1.0670376953601837,0.1799503975022584,-0.14456336923539637
1746275966920308000,5.040307861328125,-1.0508318259686231,0.29726825161129233,-0.2310012972384691
1746275966930287900,5.050287841796875,-0.6813286514908075,0.31341354992203413,-0.3118435971915722
1746275966940267800,5.060267822265625,-0.16025778197348117,0.24062493869550525,-0.36667291948795316
1746275966950247000,5.070246826171875,0.37657355125546454,0.14636325826421379,-0.32560499604046345
1746275966960227000,5.08022705078125,0.8778262061029672,0.07531886035650968,-0.19974106657803056
1746275966970207000,5.09020703125,1.2317968804061412,0.016781111996248363,-0.04655366138219833
1746275966980187000,5.100186767578125,1.3608914623528718,-0.026975319882854818,0.06569090805053711
1746275966990166800,5.110166748046875,1.2910825975894926,-0.08813311454840005,0.12740239107608795
1746275967000147000,5.12014697265625,1.0406623141318558,-0.12469342437833547,0.09795008662045002
1746275967010126800,5.130126953125,0.5863385837197304,-0.09174575208760798,0.03878419642448425
1746275967020106800,5.140106689453125,0.15204992559850214,-0.08483969902619719,-0.011398761370778084
1746275967030087000,5.1500869140625,-0.12864450009167194,-0.027549612639471886,-0.0400847576290369
1746275967040066000,5.160066162109375,-0.16351766055226324,-0.003704699736833572,-0.020422025781869888
1746275967050046000,5.1700458984375,-0.06561901185810566,0.002603095170482993,0.0381283628642559
1746275967060025900,5.18002587890625,0.07079378414750098,-0.006364931922033429,0.12534136689305306
1746275967070006000,5.190006103515625,0.2572247027754784,-0.020496479257568714,0.18009996204078196
1746275967079986000,5.19998583984375,0.37070787409245964,-0.03784158181212842,0.2844306896090507
1746275967089965800,5.2099658203125,0.3258931653320789,-0.03448445340394973,0.3526543310075998
1746275967099945700,5.21994580078125,0.06324000776708126,-0.048296778722479936,0.3656739715784788
1746275967109926000,5.22992578125,-0.3207476191371679,-0.020337270107865332,0.31043840656876565
1746275967119905000,5.239905029296875,-0.6691986532360314,0.025861148095875978,0.2323959664672613
1746275967129885000,5.249885009765625,-0.8679939633965492,0.0635480508029461,0.2066191356539726
1746275967139864800,5.25986474609375,-0.9389747945487499,0.07047894604466855,0.23287352085113525
1746275967149845000,5.269844970703125,-0.8875772002667188,0.054503816669061775,0.18367255983054637
1746275967159825200,5.2798251953125,-0.7268588150441646,0.02659640356786549,0.13388181622326373
1746275967169805000,5.28980517578125,-0.48175709626078606,0.025783041358366607,0.0683750325679779
1746275967179785000,5.299784912109375,-0.2045627876460552,0.01515986746996641,0.03891571384966373
1746275967189764900,5.309764892578125,0.023727497068047523,0.028271351042762398,0.006664134064316749
1746275967199744000,5.319743896484375,0.19106676173508166,0.035767332821339363,0.015447159978747366
1746275967209724000,5.329723876953125,0.28657296233475205,0.050518619490414855,-0.005030979904532432
1746275967219703800,5.339703857421875,0.28459143312871454,0.03704502460695803,0.003189151430130005
1746275967229684000,5.34968408203125,0.21547055062949655,0.05727766529656946,0.006818447843194008
1746275967239664000,5.3596640625,0.18599428077638147,0.04662468079179525,-0.034496728363633156
1746275967249644000,5.36964404296875,0.2295855852216482,0.004342851509898901,-0.09783493580818176
1746275967259624000,5.3796240234375,0.22621815461516379,-0.0750854899920523,-0.13405074304938316
1746275967269603800,5.389603759765625,0.15569208149313926,-0.0665117959793657,-0.16447686097323894
1746275967279583000,5.3995830078125,0.11063187353909015,-0.022172376580536363,-0.131307581821084
1746275967289563000,5.40956298828125,0.10003156906962395,-0.0003459638934582472,-0.0860258400708437
1746275967299542800,5.419542724609375,0.08689385507702826,0.009528802780434489,-0.044050738650560375
1746275967309523000,5.42952294921875,0.07346271109580993,0.02855820516012609,0.009801847568154335
1746275967319503000,5.439503173828125,0.12683657388687133,0.032507454242557285,0.06680968294739723
1746275967329483000,5.44948291015625,0.1288461601436138,0.031569077413901685,0.12868833923339842
1746275967339463000,5.459462890625,0.06466448761224747,0.02806910646893084,0.11170797833800315
1746275967349443000,5.469443115234375,-0.05613748228549957,0.04187668254710734,0.03694645960330963
1746275967359422000,5.479421875,-0.17110884633362292,0.04072868155576288,-0.021163784059882163
1746275967369401900,5.48940185546875,-0.2089560541689396,0.021487316925823688,-0.050801966476440426
1746275967379382000,5.499382080078125,-0.12912205447554587,0.058471770451962946,-0.015407997012138366
1746275967389362200,5.509362060546875,0.003543371695280075,0.10956913967840373,0.017879355561733246
1746275967399342000,5.519342041015625,0.12964929322004318,0.12272446239292621,0.041646015596389765
1746275967409322000,5.529322021484375,0.22995324949026105,0.07670987632349133,0.07665420061349869
1746275967419302000,5.539302001953125,0.2804617859780788,0.03832162041403353,0.11671440832316875
1746275967429282000,5.549281982421875,0.27173779677450655,-0.030639322283118962,0.1738333028614521
1746275967439261000,5.559260986328125,0.20166823524832725,-0.11109189226627349,0.20331015723645685
1746275967449240800,5.56924072265625,0.039596681851148605,-0.11168642409332095,0.1595201153486967
1746275967459221000,5.579220947265625,-0.1552455067694187,-0.13891118869259952,0.1419575706511736
1746275967469201200,5.589201171875,-0.3497212001651525,-0.13024433650374412,0.12776771725714206
1746275967479181000,5.59918115234375,-0.46058103724122046,-0.049881344500184055,0.20094751975834368
1746275967489161000,5.609160888671875,-0.48461365473568435,0.07078757360242306,0.2511924368739128
1746275967499140900,5.619140869140625,-0.4228402123898268,0.11073197291269898,0.2580605690777302
1746275967509121000,5.62912109375,-0.2887994062125683,0.09547419802621006,0.2051028858721256
1746275967519101000,5.639100830078125,-0.15753390996754169,0.07279167996644974,0.11381284166276454
1746275967529079800,5.649079833984375,-0.010738251635432242,0.04870798987187445,0.005225625693798065
1746275967539060000,5.65906005859375,0.13464812442064283,0.019428630830347536,-0.014870236873626708
1746275967549040000,5.6690400390625,0.24531214666366577,0.017028291690349577,-0.051255555462837214
1746275967559020000,5.67902001953125,0.2762982365578413,-0.00907879399061203,-0.06963584628403187
1746275967569000000,5.689,0.2976408843159675,-0.009737915486469864,-0.13730711449682712
1746275967578980000,5.69897998046875,0.2879407435566187,-0.004935337510332465,-0.1458610078305006
1746275967588960000,5.7089599609375,0.2840922514349222,0.010798895781487227,-0.10836275956332683
1746275967598939000,5.71893896484375,0.22946575823426246,0.02204699663519859,-0.09397826038002967
1746275967608918800,5.728918701171875,0.1970814919799566,0.008563611010089517,-0.03528817100226879
1746275967618899000,5.73889892578125,0.1789613133996725,-0.01003938265107572,-0.05306172810196876
1746275967628879000,5.748879150390625,0.16028817711174487,-0.003667728727310896,-0.06450432861447333
1746275967638859000,5.75885888671875,0.11843407172262668,-0.010125818825513123,-0.08092062588632107
1746275967648839000,5.7688388671875,0.03821604114770889,-0.0034514556281268595,-0.03166647337377071
1746275967658819000,5.778819091796875,-0.013800561815500259,-0.019906039083749053,0.0036433249384164807
1746275967668799000,5.788799072265625,-0.02825929527878761,-0.012832520500943063,0.0178857853025198
1746275967678777900,5.79877783203125,-0.017972879064083097,0.0063197776060551405,0.02031914992928505
1746275967688758000,5.808758056640625,-0.049343584361672396,0.030735330003499983,0.019154782325029374
1746275967698738200,5.81873828125,-0.05302198061347008,0.020132395185530186,0.0730675742983818
1746275967708718000,5.828718017578125,-0.05678220992982387,0.03211049081422388,0.10989245334863662
1746275967718698000,5.838697998046875,-0.07093465392291545,0.038849516745656724,0.09049509443938732
1746275967728678000,5.848677978515625,-0.09075228407084941,0.013590791522338986,0.09453355617523193
1746275967738658000,5.858657958984375,-0.13988836316168307,0.0045556905429810285,0.0740390496790409
1746275967748638000,5.868637939453125,-0.15014613780379293,0.010391337893903254,0.02292845564484596
1746275967758616800,5.878616943359375,-0.14223463402688502,0.02277560317069292,-0.0005979658931493759
1746275967768597000,5.888596923828125,-0.06467734709382057,0.00682845778055489,0.023818097960948942
1746275967778577200,5.8985771484375,-0.02631166834235191,-0.0018406594306230545,0.03496785300672054
1746275967788557000,5.90855712890625,-0.0023111995518207548,-0.0016091156970709562,0.04468786751031875
1746275967798537000,5.918536865234375,0.016233341920375823,0.019776421354711055,0.07099719776511192
1746275967808516900,5.928516845703125,0.025954525467753408,0.015967457525804637,0.0640969168573618
1746275967818497000,5.9384970703125,0.06501344718039036,-0.009148790486901998,0.05534837773442268
1746275967828477000,5.948476806640625,0.0866617998868227,0.0017030045256018638,0.0512473721563816
1746275967838455800,5.958455810546875,0.12712591222226619,0.006288505684956908,0.048102059867978095
1746275967848436000,5.96843603515625,0.1434557002544403,0.005417421938851475,0.07627952208220959
1746275967858416000,5.978416015625,0.11286357811391352,0.03467420382238924,0.08599486041069031
1746275967868396000,5.98839599609375,0.10700549973547457,0.038286622165888545,0.08455985917150974
1746275967878376000,5.9983759765625,0.1469242531478405,0.057861091207712885,0.09587094225883483
1746275967888356000,6.008356201171875,0.12691723790764808,0.03943075069971382,0.11292378386855124
1746275967898336000,6.0183359375,0.039320787519216534,-0.03501592993214726,0.0927875892907381
1746275967908316000,6.02831591796875,-0.0900122793585062,-0.053183673981204625,0.05673369461297988
1746275967918294800,6.038294677734375,-0.1740676961392164,-0.012280804902315139,-0.025470541343092918
1746275967928275000,6.04827490234375,-0.2344353633403778,-0.055036462241038676,-0.07673837176561356
1746275967938255000,6.058255126953125,-0.2497323011934757,-0.08917012944594026,-0.12827858938872813
1746275967948235000,6.068235107421875,-0.23240707238316535,-0.03898307999745011,-0.1456336288154125
1746275967958215000,6.07821484375,-0.1873053633749485,0.016269143886119126,-0.08118658334612847
1746275967968195000,6.088195068359375,-0.10641922428011893,0.0025224311497062443,-0.0139250649780035
1746275967978175000,6.098175048828125,-0.0512649078130722,0.015362477369979022,0.02608955002427101
1746275967988155000,6.10815478515625,-0.001813186901807785,0.05754910264909267,0.06269464884400368
1746275967998134000,6.118134033203125,0.015411504143476485,0.07290471188686788,0.07080430554151534
1746275968008114200,6.1281142578125,0.0331529125392437,0.05844627068452537,0.05370587122440338
1746275968018094000,6.138093994140625,0.04822071781158447,0.07624576594308018,0.03357318377792835
1746275968028074000,6.148073974609375,0.06363689813017845,0.05931516247354447,0.015940496453642844
1746275968038054000,6.158053955078125,0.08248422194123267,0.021156550601497293,-0.003643909460306167
1746275968048034000,6.168033935546875,0.06077040278315544,-0.0003979863416403532,-0.0171884506881237
1746275968058014000,6.178013916015625,0.0734293933480978,-0.014719211030378937,-0.04442833979129791
1746275968067993900,6.187993896484375,0.07794248685836791,-0.059379167620465155,-0.05186345822811127
1746275968077973000,6.197972900390625,0.055605567365884775,-0.06962832056470215,-0.04787175824344158
1746275968087953200,6.207953125,0.019081132566928862,-0.045756665785610676,-0.010696750581264495
1746275968097933000,6.21793310546875,-0.019487959802150723,-0.028284356654807923,0.03556289629042148
1746275968107913000,6.227912841796875,-0.05526128397285938,-0.01743869912214577,0.07288637251257896
1746275968117892900,6.237892822265625,-0.06961129636466502,-0.003041924979165196,0.09176876763701439
1746275968127872300,6.247872314453125,-0.03420680550634861,0.0382221786275506,0.07720891188681125
1746275968137852200,6.25785205078125,-0.043593642532825466,0.04654452822767198,0.07363923670649528
1746275968147832000,6.26783203125,-0.06794833158850669,0.022788097326084972,0.06017769758701324
1746275968157811200,6.277811279296875,-0.06109539695382118,0.004121171583235264,0.03255553116798401
1746275968167791000,6.287791015625,-0.05748480524122715,0.010158040594682097,0.03374912486672401
1746275968177771000,6.29777099609375,-0.0763093326985836,0.0310614932179451,0.009148936617374419
1746275968187751200,6.307751220703125,-0.04665361462533474,0.03470934820100665,0.014606617501378058
1746275968197731000,6.31773095703125,-0.034953824481368065,0.02539608786739409,0.01571720909178257
1746275968207711200,6.327711181640625,-0.009044891721010207,0.04006809875518083,0.033842648369073865
1746275968217691100,6.337691162109375,0.006934767699241637,0.018286694253608585,0.02107318316698074
1746275968227671000,6.347671142578125,0.046617958790063856,0.019718626752868295,0.022448563173413275
1746275968237650200,6.357650146484375,0.05718494551181793,0.021601664020493624,0.031683424508571624
1746275968247630000,6.367630126953125,0.05634615660011768,0.022106544802710414,-0.012381342667341231
1746275968257610000,6.37760986328125,0.01986906807422638,0.03123480395823717,-0.02775836001932621
1746275968267590100,6.387590087890625,0.06316518896520137,0.04485511383600533,-0.03234334972202778
1746275968277570000,6.397570068359375,0.08859306021034717,0.019128186579048634,-0.0244213245511055
1746275968287550200,6.40755029296875,0.11195932275056839,0.026163126717135308,-0.013109656941890716
1746275968297530000,6.417530029296875,0.09743395379185676,0.030743367179483172,-0.006463058534264564
1746275968307509200,6.42750927734375,0.02996726824045181,0.01579801924303174,0.010062544330954552
1746275968317489200,6.4374892578125,-0.04813888474702835,0.004236833852156997,0.02872808183431625
1746275968327469000,6.447468994140625,-0.13251286595761774,-0.008198430959507822,0.06412380486428737
1746275968337449000,6.457448974609375,-0.16323358291387557,-0.036748745074123144,0.06634615708887577
1746275968347429000,6.46742919921875,-0.1566577116549015,-0.01070069610401988,0.08737433207035064
1746275968357409000,6.477408935546875,-0.12940145593881605,0.003445464278757572,0.10494213746488093
1746275968367389200,6.48738916015625,-0.07265139471292495,0.010064444027096033,0.1038543422281742
1746275968377369000,6.497369140625,-0.03767477387785911,0.011757657811045647,0.06366378613710404
1746275968387348200,6.50734814453125,-0.014593173497915267,0.01945559190250933,0.04435761264264583
1746275968397328100,6.517328125,0.002391279050707817,0.007725845011696219,0.0046808512926101685
1746275968407308000,6.52730810546875,0.01687748504281044,0.010629311368241906,0.005815408280491829
1746275968417288200,6.5372880859375,0.002830254989862442,0.025206410514190793,0.0014905308187007902
1746275968427268000,6.54726806640625,-0.011545476365089416,0.053257250674068925,-0.012276713249087332
1746275968437248000,6.557248046875,-0.0004734627306461334,0.03703011929877102,-0.0006435586005449295
1746275968447228200,6.567228271484375,0.017175591206550597,0.02708813260756433,-0.012663082218170165
1746275968457208000,6.5772080078125,0.04563245488405227,0.01961421653032303,0.002083236014842987
1746275968467187200,6.587187255859375,0.05148994874060154,0.020094035936519504,-0.015188801303505896
1746275968477167000,6.5971669921875,0.05559387692809105,0.016767741058021784,0.014136661902070045
1746275968487147000,6.60714697265625,0.045427872222661966,0.013814590340852737,-0.011423895812034606
1746275968497127200,6.617127197265625,0.03695347386598587,0.01281703067086637,-0.01788344721496105
1746275968507107000,6.627107177734375,0.03009235592484474,-0.004491173939406872,-0.010407412245869637
1746275968517087200,6.637087158203125,0.036757074511051174,0.02177782430499792,0.011544307321310043
1746275968527067100,6.647067138671875,-0.0002262099713087082,0.020938450871407985,0.0309480959713459
1746275968537047000,6.657047119140625,-0.026136896297335625,-0.005352905335277319,0.04228665158748626
1746275968547026200,6.667026123046875,-0.04817044892907142,0.00005969429798424243,0.030257191097736356
1746275968557006000,6.677006103515625,-0.07341945647597313,0.041567105141282076,0.02931377276778221
1746275968566986000,6.686986083984375,-0.08622750012278556,0.03173347419537604,0.039570962888002395
1746275968576966100,6.696966064453125,-0.07235562663674354,0.020166224389895796,0.06593816080987452
1746275968586946000,6.706946044921875,-0.06723170775175094,0.03483699316866696,0.05478022245764732
1746275968596926200,6.71692626953125,-0.04622983625531196,0.025402736803889273,0.05663023423850536
1746275968606906000,6.726906005859375,0.016081950750946997,0.015394772204384207,0.05208148489296436
1746275968616886000,6.736885986328125,0.05521510674357414,0.006113660574704408,0.028399580532312393
1746275968626865200,6.746865234375,0.10310966134071349,0.021895240139588712,0.01172784719467163
1746275968636845000,6.756844970703125,0.14575988554358482,0.008122443113848566,0.016244447836279867
1746275968646825000,6.766824951171875,0.161485277941823,0.01188486438728869,0.0028945523977279663
1746275968656805000,6.77680517578125,0.16742168225347995,0.020574512929841873,-0.0030938743621110915
1746275968666785000,6.786784912109375,0.16679916644096374,0.013986001385003327,-0.0019680852025747296
1746275968676765200,6.79676513671875,0.09783259772062301,-0.005601327138394117,-0.006838321587443351
1746275968686745000,6.8067451171875,0.0664881959080696,0.004071706418320537,-0.000702010789513588
1746275968696724200,6.81672412109375,-0.014960253244638443,-0.014246771213039754,0.0070458268582820885
1746275968706704100,6.8267041015625,-0.18899872328937053,-0.051027372730150816,0.039836335825920104
1746275968716684000,6.83668408203125,-0.3381166870892048,-0.022895064831897616,0.046535541203618046
1746275968726664200,6.846664306640625,-0.36146366040706635,0.006825462105870247,0.09120353496968746
1746275968736644000,6.85664404296875,-0.24793548090457915,0.028690234041959046,0.11157646091282367
1746275968746624000,6.8666240234375,-0.11458499507904052,0.016908976159617305,0.12002221769690513
1746275968756604200,6.876604248046875,-0.014669161343574523,0.034824718208983536,0.09561667523682117
1746275968766584000,6.886583984375,0.048971243917942046,0.004829977439716458,0.07364215931594371
1746275968776563200,6.896563232421875,0.08334697625041007,0.018531097468733788,0.05271452209949493
1746275968786543000,6.906543212890625,0.0942214214861393,0.03654058221615851,0.020112813702225684
1746275968796523000,6.91652294921875,0.09293956498205662,0.04114676083736121,0.01650923625230789
1746275968806503200,6.926503173828125,0.09328034124374389,0.04061228863447904,-0.02185235084593296
1746275968816483000,6.936483154296875,0.08248422194123267,0.05097074717208743,-0.04903963297903537
1746275968826463200,6.946463134765625,0.08802432041168212,0.01954860394820571,-0.05205050523281097
1746275968836443100,6.956443115234375,0.11198387266993522,0.012410787957534194,-0.05869651911854744
1746275968846423000,6.966423095703125,0.06541384467482567,0.004431187380477786,-0.04226034810245037
1746275968856402200,6.976402099609375,0.016719079610705373,0.007424231716617941,-0.016992635855078698
1746275968866382000,6.986382080078125,-0.04176058188676834,0.00858085440583527,0.03588379880785942
1746275968876362000,6.996362060546875,-0.08877543103992938,0.008070201469957829,0.06953121686577797
1746275968886342100,7.006342041015625,-0.10728197858929633,0.03377024071998894,0.09161270029246807
1746275968896322000,7.016322021484375,-0.12076456049680709,0.02265416874811053,0.07575462142527103
1746275968906302200,7.02630224609375,-0.09067571170330047,0.012706775229424238,0.0794815329939127
1746275968916282000,7.0362822265625,-0.05700199016034603,0.021895386270061132,0.06137421389520168
1746275968926261200,7.04626123046875,-0.03165127580463886,0.033512320436164734,0.047402387166023255
1746275968936241200,7.0562412109375,0.0171884506881237,0.03516710190586746,0.048423546907305715
1746275968946221000,7.066220947265625,0.048285015219449993,0.0006667202804237604,0.03967266969680786
1746275968956201000,7.076200927734375,0.061823711228370666,0.001738441165164113,0.009466332003474236
1746275968966181000,7.08618115234375,0.05613923585116863,-0.01272467621229589,0.02166588836312294
1746275968976161000,7.0961611328125,0.041398178315162654,-0.00814772368557751,-0.021314006185531614
1746275968986141200,7.10614111328125,0.0244037888944149,0.012933642787858843,0.0061596916735172265
1746275968996121000,7.11612109375,0.014509002345800399,-0.006784691704064608,0.031549568995833395
1746275969006100200,7.126100341796875,-0.015249007058143615,-0.01700352257527411,0.03863280525505543
1746275969016080100,7.136080078125,-0.08555237734019756,0.01273614745438099,0.03920739027261734
1746275969026060000,7.14606005859375,-0.11496025813221931,0.02323357607126236,0.024738135415315627
1746275969036040200,7.156040283203125,-0.08587386437952518,0.027105302938073873,0.026601591199636457
1746275969046020000,7.16602001953125,-0.0743131904453039,0.034533991634100675,0.04857552259862423
1746275969056000000,7.176,-0.06599836656451225,0.03991290819346904,0.066597501501441
1746275969065980200,7.185980224609375,-0.05127309111952781,0.015420125841349363,0.03135843033790588
1746275969075960000,7.1959599609375,-0.04764554827213287,0.03971270944625139,0.041428573453426355
1746275969085939200,7.205939208984375,-0.06750526399612426,0.0514829344779253,0.04609130456745624
1746275969095919000,7.215919189453125,-0.05702770912349224,0.026400369539111852,0.04150865295231342
1746275969105899000,7.22589892578125,-0.04519757059812546,0.016390797504410148,0.07541910586059093
1746275969115879200,7.235879150390625,-0.026275427985191342,0.005160816829279065,0.06740005005598068
1746275969125859000,7.245859130859375,-0.01583177538216114,0.007759601150825619,0.06367898370623588
1746275969135838700,7.255838623046875,-0.009202128109335898,0.0010601035121828317,0.07130524080097675
1746275969145818600,7.265818603515625,-0.033791794964671135,0.02311645249761641,0.07979425220489501
1746275969155797800,7.2757978515625,-0.040488662254810334,0.03825330441817641,0.05399345599412918
1746275969165777700,7.285777587890625,-0.07843874594271183,0.018771482095867393,0.02174947499334812
1746275969175757800,7.2957578125,-0.09707038117647171,0.041168826538696884,-0.03459668160676956
1746275969185737700,7.30573779296875,-0.10144552752077579,0.04944361067004502,-0.04068739969730377
1746275969195718000,7.3157177734375,-0.07161503740251064,0.04307721744328737,-0.0012894552886486053
1746275969205697800,7.32569775390625,-0.02844400419592857,0.03991071623638272,0.018435820400714873
1746275969215677700,7.335677734375,-0.03363748118579388,0.037191008948907256,0.029003391644358632
1746275969225657600,7.34565771484375,0.03406476668715477,0.02495696579776704,-0.0008428805649280548
1746275969235636700,7.35563671875,0.06337094067037105,0.010607537927851081,0.0035503859579563138
1746275969245616600,7.36561669921875,0.09151625418066978,-0.006938932417705655,0.007737900775671005
1746275969255596800,7.3755966796875,0.09346563468277454,-0.033041926445439455,-0.030068975049257277
1746275969265577000,7.385576904296875,0.12044774963259697,-0.03427994380779564,-0.025943419551849364
1746275969275556900,7.395556884765625,0.12733224844932556,0.015676292559504507,0.0118991121083498
1746275969285536800,7.405536865234375,0.07411445300281047,0.060442778263986106,0.03191431065499782
1746275969295516700,7.4155166015625,0.001522095000743866,0.06961940660588443,0.006953472399711609
1746275969305496600,7.42549658203125,-0.0688414810359478,0.030977833522483705,-0.07882686847746372
1746275969315475700,7.435475830078125,-0.08538169694840908,0.005807663365453481,-0.106381814879179
1746275969325455600,7.44545556640625,-0.06399053387343884,0.019747998977825046,-0.10791150866448879
1746275969335435800,7.455435791015625,-0.04241407735943794,0.047908875383436675,-0.04074643640816211
1746275969345416000,7.465416015625,-0.03538578615784645,0.06998802072256803,0.023881226325035095
1746275969355395800,7.475395751953125,-0.04250467825233936,0.09613616906628013,0.14040800312161444
1746275969365375700,7.485375732421875,-0.02692074015140533,0.09167378282994032,0.20461714818179605
1746275969375355600,7.495355712890625,-0.021712650114297866,0.05330203966386616,0.1387631585240364
1746275969385334800,7.505334716796875,-0.04728489826619625,0.04836019934751093,0.05425473727881908
1746275969395314700,7.515314697265625,-0.09698562550246714,0.018651655108481643,-0.013497779476642607
1746275969405294800,7.525294921875,-0.14206278459131716,0.03623626550734043,-0.04512625892758369
1746275969415274800,7.535274658203125,-0.13841595252156258,0.058770241941884155,-0.09926467635035514
1746275969425255000,7.5452548828125,-0.033786534267663954,0.0300488821092993,-0.11891162610650062
1746275969435234800,7.55523486328125,0.0963560954272747,0.021138357357680795,-0.0792594146758318
1746275969445214700,7.565214599609375,0.1859925272107124,-0.003037175738811493,-0.09567571194767951
1746275969455194600,7.575194580078125,0.300109320256114,-0.06964812124371528,-0.04820493572056293
1746275969465173800,7.585173828125,0.3833867384016514,0.04981580498330295,0.010986088916659354
1746275969475153700,7.595153564453125,0.30083412739932536,0.2205778837058693,-0.15112112031579017
1746275969485133800,7.6051337890625,0.18338088340759276,0.07234408232942223,-0.15349720179736615
1746275969495113700,7.61511376953125,0.08781681514084339,-0.08113799496404826,-0.13412030115425586
1746275969505094000,7.625093994140625,-0.03666998074948787,-0.10165244826972485,-0.17037585588395596
1746275969515073800,7.63507373046875,-0.18853052125573158,-0.04707812364771962,-0.18099661861956118
1746275969525053700,7.6450537109375,-0.36086627903580665,-0.001712795267254114,-0.18213877439200876
1746275969535032800,7.65503271484375,-0.4627180492699146,0.06035261576250195,-0.09386427861154079
1746275969545012700,7.6650126953125,-0.47936523268818854,0.11295549418106675,0.07012742919325828
1746275969554992600,7.67499267578125,-0.4638151968568563,0.15454773376360534,0.14256430437266826
1746275969564972800,7.684972900390625,-0.40965690568983554,0.1532911578312516,0.13175123393535612
1746275969574953000,7.694952880859375,-0.26301965278983114,0.05791267526447773,0.050610243296623225
1746275969584932900,7.704932861328125,-0.09647299980521201,-0.020577216343581676,-0.009501987838745117
1746275969594912800,7.714912841796875,0.05273614940941333,-0.00901135477758944,0.01916705728471279
1746275969604892700,7.724892578125,0.18403554792404173,0.02377089781835675,0.11742051076591015
1746275969614871800,7.734871826171875,0.20853812101781366,0.0731000152632594,0.23493279146850107
1746275969624851700,7.744851806640625,0.24036299982368944,0.07958725839070975,0.2921604070782661
1746275969634831600,7.75483154296875,0.20272972699999808,0.09929426777102053,0.3356844915062189
1746275969644811800,7.764811767578125,0.1209644669830799,0.11618446616493165,0.3325076150357723
1746275969654792000,7.7747919921875,0.02647416542768478,0.07354037944190203,0.2525350836545229
1746275969664771800,7.784771728515625,-0.02066927854120731,0.03807465991564095,0.1330810212343931
1746275969674751700,7.794751708984375,0.04115151007771492,0.022001988449692724,0.061328621187806125
1746275969684731000,7.80473095703125,0.15292963104248045,-0.05794277814179659,0.0011076689809560775
1746275969694710800,7.814710693359375,0.25302432847619055,-0.11463906335383653,-0.0918073460817337
1746275969704690700,7.824690673828125,0.2694973243713379,-0.1552022521495819,-0.16525661317408083
1746275969714670600,7.834670654296875,0.3087538144826889,-0.1485289849307388,-0.18092355338335037
1746275969724650800,7.844650634765625,0.3389046225965023,-0.08237630458734929,-0.09425707732141017
1746275969734631000,7.854630859375,0.2960404633820057,0.004947027948126196,0.03979658833742142
1746275969744610800,7.86461083984375,0.2532832716733217,0.0516510575864464,0.17253040356934068
1746275969754590700,7.8745908203125,0.18027356504201889,0.08985708879679441,0.2384440144598484
1746275969764569900,7.88456982421875,0.09219313052892684,0.1260020958241075,0.28220541477501393
1746275969774549800,7.8945498046875,-0.0468207878857851,0.11665639452561735,0.27615269060730935
1746275969784529700,7.90452978515625,-0.16587620637714862,0.09397935635857284,0.2566547939330339
1746275969794509800,7.914509765625,-0.31629180877208707,0.05947627131938934,0.20876725359857082
1746275969804489700,7.92448974609375,-0.4026157550066709,0.025268881291151044,0.1727998681604862
1746275969814470000,7.934469970703125,-0.40324177795052524,-0.006228153799846768,0.17204875753223894
1746275969824449800,7.94444970703125,-0.3449818966835737,-0.00854432178772986,0.18498773408234118
1746275969834428700,7.9544287109375,-0.2643862649679184,-0.024533991145342587,0.21875147199630737
1746275969844408800,7.964408935546875,-0.14601239899992943,-0.0801154469832778,0.21972586998641488
1746275969854388700,7.974388671875,-0.02486614570915699,-0.07422500070519746,0.1677379085958004
1746275969864368600,7.98436865234375,0.07750467996299266,-0.04679097726941108,0.15250117649734019
1746275969874348800,7.994348876953125,0.1455699159294367,-0.027307036055251956,0.13168576748371125
1746275969884329000,8.004328857421875,0.1369336050093174,-0.0004942132577300071,0.10348317082822323
1746275969894308900,8.014308837890624,0.09828852479457854,-0.007826894233375787,0.07092062539756297
1746275969904287700,8.024287841796875,0.08862111726105212,-0.03619965982399881,0.062249243164062495
1746275969914268000,8.034267822265624,0.04373392778635025,0.010933701142296194,0.03545885139405727
1746275969924247800,8.044247802734375,-0.014054244315624236,0.058132017103582616,0.009194529324769973
1746275969934227700,8.054227783203125,-0.03158990100622177,0.043563831916451454,-0.04164192394316196
1746275969944207600,8.06420751953125,-0.0127922615557909,0.04823481940217316,-0.07304127081334591
1746275969954187800,8.074187744140625,0.07258943539261818,0.0499747949372977,-0.07224339843392372
1746275969964168000,8.08416796875,0.20294775366485118,0.049727761373668904,-0.058007367810606954
1746275969974147800,8.09414794921875,0.27078327252864837,-0.01946545570939779,-0.097793434754014
1746275969984126700,8.104126708984374,0.21606091773808,-0.05115224121883511,-0.19937340230941772
1746275969994107000,8.11410693359375,0.08821136741638183,-0.06621244770660996,-0.21359715797305107
1746275970004086800,8.124086669921875,0.06163257257044315,-0.04044190050363541,-0.15904782166182993
1746275970014066700,8.134066650390626,0.05017302092313766,0.023385844023525712,-0.03385200071930885
1746275970024046600,8.144046630859375,0.01937222446799278,0.13792546559087931,0.09326981984972953
1746275970034026800,8.15402685546875,-0.10546820716559886,0.08300225446596741,0.13855682229697702
1746275970044007000,8.1640068359375,-0.22445991277098654,0.0008679419409483671,0.01960311061441898
1746275970053985800,8.17398583984375,-0.2632294961482286,-0.0007550561510026454,-0.03518412610590458
1746275970063965700,8.183965576171875,-0.2147059959977865,0.040411286169663066,-0.01016015948653221
1746275970073945900,8.19394580078125,-0.12882687092125414,0.08170088954381645,0.06380757852196693
1746275970083925800,8.20392578125,-0.08956979628801345,0.1142844777625054,0.11819500226974487
1746275970093905700,8.21390576171875,-0.0666933630913496,0.09140826376155019,0.11317162114977836
1746275970103885800,8.2238857421875,-0.038003275179862975,0.053069838343188167,0.07171148351430892
1746275970113865700,8.23386572265625,-0.0024807108998298644,0.023479878982529043,0.04731061722934246
1746275970123846000,8.243845947265624,0.03175473617911339,-0.020629604117944834,0.04214695085585117
1746275970133825000,8.253824951171875,-0.008000935626029968,-0.01614317941889167,0.06644143415689469
1746275970143805200,8.26380517578125,-0.06898878055214881,-0.02251191073320806,0.10206044454872608
1746275970153785300,8.273785400390626,-0.07558511007726192,-0.028612346500158307,0.16974749485254287
1746275970163765200,8.28376513671875,-0.06867021612226963,-0.014809811923280358,0.18516893586814404
1746275970173745200,8.2937451171875,-0.11737491805851459,-0.023162995053082704,0.16065233424901962
1746275970183725000,8.30372509765625,-0.17105214771032332,-0.012030848729237913,0.12833587253391743
1746275970193705000,8.313705078125,-0.15694763451218605,0.013085472348704934,0.09191898976266384
1746275970203684000,8.32368408203125,-0.11068740311861038,0.06065569036230445,0.06753449009060859
1746275970213664000,8.3336640625,-0.031116438275575635,0.1062306429054588,0.04708499177992344
1746275970223644200,8.34364404296875,0.04520283129513263,0.07474281403422355,0.014118541723489761
1746275970233624300,8.353624267578125,0.1446352654278278,0.04674896475858986,-0.0505243185788393
1746275970243604200,8.363604248046874,0.22988427590727806,0.012469824668392538,-0.1324281102836132
1746275970253584100,8.373584228515625,0.25426117679476734,-0.012584025632590055,-0.16622867307662964
1746275970263564000,8.38356396484375,0.209779645511508,-0.0241945300579071,-0.1643658018141985
1746275970273543200,8.393543212890625,0.1963414872676134,-0.032801468753069635,-0.17132687299847602
1746275970283523000,8.403523193359375,0.15895488268136979,-0.029714389457926153,-0.11543839703798293
1746275970293503000,8.4135029296875,0.08597966284155845,0.010387830762565135,-0.010948094993829727
1746275970303483100,8.423483154296875,-0.0022562544941902157,0.02268419856019318,0.050289340779185294
1746275970313463300,8.43346337890625,-0.10450900674462318,0.07042838490121066,0.09262509220540523
1746275970323443200,8.443443115234375,-0.20594459739327428,0.07785283581353723,0.13692600622475146
1746275970333423000,8.453423095703124,-0.2269458843678236,0.035763752624765034,0.11898469134271145
1746275970343403000,8.463403076171875,-0.2052297271221876,0.017854221120476722,0.09618307694792746
1746275970353382100,8.473382080078125,-0.12359890713989734,0.010021335537731647,0.08280921611189841
1746275970363362000,8.483362060546876,-0.06962707845568657,0.0428478656668216,0.09142448424398898
1746275970373342000,8.493342041015625,-0.03332826910614967,0.03705554600097239,0.08102057912945747
1746275970383322000,8.503322021484376,0.014691373175382614,-0.022558599419146775,0.054743982100486754
1746275970393302300,8.51330224609375,0.025526070922613144,-0.04618117480799556,-0.02491056937277317
1746275970403282200,8.5232822265625,0.014302081596851347,-0.039244799673557276,-0.05891805291473865
1746275970413262000,8.533261962890625,0.02377718142867088,-0.0013788871377706526,-0.035844051319360734
1746275970423241200,8.5432412109375,0.013641571861505507,0.024199644624441862,-0.017414076137542724
1746275970433221000,8.55322119140625,-0.0003378536522388458,0.045764629896357656,0.011660042655467986
1746275970443201000,8.563200927734375,-0.04335223499238491,0.029795418804883955,0.019154197803139685
1746275970453181200,8.57318115234375,-0.0771241562128067,0.03020611849762499,0.004756839138269424
1746275970463161300,8.583161376953125,-0.10403788210153579,0.023434651601314544,-0.03949731312990189
1746275970473141200,8.593141357421874,-0.09156009332239627,0.017159370724111795,-0.034794250005483626
1746275970483121200,8.60312109375,-0.037165655311942096,0.03058773822635412,0.00770458302795887
1746275970493100300,8.613100341796875,-0.007917933517694473,0.0316353475831449,0.05006546889543533
1746275970503080200,8.623080078125,-0.007799860095977783,0.06915463863834738,0.08523322838842869
1746275970513060000,8.63306005859375,-0.0033721067816019057,0.04602043128833174,0.11062485927641391
1746275970523040000,8.6430400390625,-0.02239770976901054,0.021144640967994927,0.11076339096426963
1746275970533020200,8.653020263671875,-0.11215981375873088,0.0440961121622473,0.08565876032412052
1746275970543000300,8.663000244140624,-0.12957973511517046,0.03302621741965413,0.10679916350841522
1746275970552980200,8.672980224609375,-0.09432663542628288,0.031379984582588075,0.060818333578109736
1746275970562960100,8.682960205078125,-0.07116437102556228,0.04612023840099573,0.00011339724659919739
1746275970572939300,8.692939208984376,-0.03172609460651874,0.051878655797243114,0.007566635861992835
1746275970582919200,8.702919189453125,0.02263619470000267,0.0493253911178559,0.02195288861095905
1746275970592899000,8.712899169921876,0.0807879394173622,0.02393507540412247,0.047105450046062466
1746275970602879000,8.72287890625,0.11809563354849814,0.0036144641701132056,0.033795302096009255
1746275970612859100,8.732859130859374,0.10926409231722355,0.015754545427486298,0.058763739135861394
1746275970622839300,8.74283935546875,0.09442132797241211,0.0008745908774435519,0.08272446043789386
1746275970632819200,8.752819091796875,0.05604395878314972,-0.0813130592700094,0.028066987577080725
1746275970642798000,8.762798095703126,-0.00203998139500618,-0.0441238038867712,-0.009048398852348326
1746275970652778200,8.7727783203125,-0.052414077848196024,0.0002437456279993057,0.005558803170919418
1746275970662758100,8.782758056640626,-0.05611643949747085,0.0020197423245757818,-0.003924479967355728
1746275970672738000,8.792738037109375,-0.010360065972805022,0.05490129155404865,0.006747136172652244
1746275970682718000,8.802718017578124,0.07719196075201035,0.08625577636919915,0.05893441952764988
1746275970692698400,8.812698486328125,0.13737199642658232,0.07120821016728877,0.0860211638957262
1746275970702678300,8.82267822265625,0.15095745418667791,0.02332425002939999,0.047727381336688995
1746275970712657200,8.8326572265625,0.14873510196208953,-0.013623305552452801,-0.022614567390084266
1746275970722637000,8.842636962890625,0.14361001403331755,-0.011107377208769321,-0.05467500851750374
1746275970732617200,8.8526171875,0.15675941846370697,-0.04008585360758006,-0.043829789376258844
1746275970742597000,8.86259716796875,0.10345336021184921,-0.009273001388460397,-0.014512509477138518
1746275970752577000,8.872576904296874,0.0011386486411094664,0.011430983139947056,0.005990180325508117
1746275970762557200,8.88255712890625,-0.046433249872922897,0.01953632898852229,0.03496200778782368
1746275970772537300,8.892537353515625,-0.04774199438393116,0.0393637498781085,0.03363338953256607
1746275970782516200,8.90251611328125,-0.0510907202899456,0.05725728009566664,0.058410687914490694
1746275970792496000,8.91249609375,-0.06008534312844276,0.06802417330369354,0.09727554835975169
1746275970802476300,8.922476318359376,-0.09085574444532393,0.04196742957048118,0.08411912966668605
1746275970812456200,8.932456298828125,-0.10850187577307224,0.04385214733853936,0.036711481803655625
1746275970822436000,8.94243603515625,-0.0968307272017002,0.02841010192632675,-0.008822773402929305
1746275970832416000,8.952416015625,-0.07492109321057797,0.016801058805733918,-0.053823944646120066
1746275970842396200,8.962396240234375,0.016972177588939666,0.04367766755446791,-0.029622984847426412
1746275970852375300,8.972375244140625,0.1159060145497322,0.07575221027247607,-0.004496142375469208
1746275970862355200,8.982355224609375,0.1407674840837717,0.0831404938928783,0.015702596044540405
1746275970872335000,8.992335205078126,0.10719897648096084,0.06349405559338629,-0.0015688567519187926
1746275970882315300,9.002315185546875,0.03914426190853119,0.03410838663317263,-0.05674655409455299
1746275970892295200,9.012295166015624,-0.042674774122238156,0.06436901179701089,-0.048610009390115734
1746275970902275000,9.022275146484375,-0.057253919094800945,0.05420958296284079,0.01085515601336956
1746275970912255000,9.0322548828125,-0.07989303640425205,0.0449481258817017,0.052291328251361846
1746275970922234000,9.042234130859375,-0.05499766460061073,0.042100481365621084,0.11148235288858413
1746275970932214300,9.05221435546875,-0.012453238859772682,0.015806494810432194,0.1543131943553686
1746275970942194200,9.062194091796876,-0.0035971477091312405,-0.030340631597489117,0.1615980906665325
1746275970952174000,9.072174072265625,-0.03501052310466766,-0.04486863090470433,0.20202713168859482
1746275970962154200,9.082154296875,-0.040458267116546626,-0.08773315544538199,0.20094459714889526
1746275970972134100,9.092134033203125,-0.06085223584771156,-0.09081110158599913,0.16462065335810183
1746275970982114000,9.102114013671875,-0.08581716575622558,-0.10482391791269183,0.1385761115193367
1746275970992094000,9.112093994140626,-0.0878594852387905,-0.05846833638586103,0.1101069728821516
1746275971002073000,9.122072998046875,-0.08005611801147461,-0.0052394350234419105,0.09069266283810139
1746275971012053200,9.13205322265625,-0.0589899491071701,0.05394019143693149,0.07866963208913802
1746275971022033200,9.142033203125,-0.04482230754494667,0.029366671998798846,-0.010668109008669853
1746275971032013000,9.152012939453124,-0.05144260246753692,0.0192879802506417,-0.11406769320666789
1746275971041993200,9.1619931640625,-0.05423310996890068,0.04185929302088916,-0.1474333717137575
1746275971051973000,9.17197314453125,-0.024346505749225616,0.08639365046992897,-0.11063713423609733
1746275971061953000,9.181953125,-0.0056780456364154816,0.07692183857373892,-0.028967735809087753
1746275971071932200,9.19193212890625,0.014132570248842239,0.027012510088086125,-0.0465548304259777
1746275971081912000,9.201912109375,-0.0027332243561744686,0.031086992985382676,-0.04593114556968212
1746275971091892200,9.211892333984375,0.007303016489744186,0.029701968367770313,-0.02967792990505695
1746275971101872000,9.2218720703125,0.05778641853630542,0.043154082071781154,-0.03242226017713547
1746275971111852300,9.231852294921875,0.0456312858402729,0.043326296833530065,0.026786884638667106
1746275971121832200,9.241832275390625,0.000003507131338119507,-0.024325243765488266,0.05332768556177616
1746275971131812900,9.251812744140626,-0.03940145153999328,-0.027731545077636838,0.033680735805630684
1746275971141791700,9.261791748046875,-0.004601356315612793,-0.021372531439736484,0.03282499575912952
1746275971151772000,9.27177197265625,0.07023264313340187,-0.00878054169639945,0.017339841857552527
1746275971161751800,9.281751708984375,0.11462006639242171,-0.013318331256508827,0.05545008454322815
1746275971171731700,9.291731689453124,0.06466331856846809,-0.014345993803814053,0.04184241495132446
1746275971181711600,9.301711669921875,-0.02943886045217514,0.035976445527374744,-0.00020166005194187164
1746275971191691500,9.31169140625,-0.0773942053258419,0.0954210795994848,-0.03286182063817978
1746275971201672000,9.321671875,-0.06585106704831123,0.16591010864675043,-0.0020581015735864636
1746275971211650800,9.33165087890625,-0.05769698668718338,0.19555881245732307,0.0019651625931262967
1746275971221630700,9.341630615234376,-0.1041898577928543,0.14831468459293246,-0.10441431419849395
1746275971231611000,9.35161083984375,-0.13334405608475208,0.1305305330339819,-0.19364917944371698
1746275971241590800,9.3615908203125,-0.07023907287418842,0.11424816434010862,-0.1925380033314228
1746275971251570700,9.37157080078125,0.013036007183790206,0.14160035471133886,-0.10295359399616717
1746275971261550600,9.381550537109375,0.1009913540124893,0.14899470274634657,-0.013124854511022566
1746275971271530800,9.39153076171875,0.1339046125769615,0.07959653767570853,0.04247720572352409
1746275971281509600,9.401509521484375,0.12834171775281428,-0.016096636863425374,0.008329436928033828
1746275971291489800,9.41148974609375,0.1434685597360134,-0.04671323585808277,-0.011990297523140906
1746275971301469700,9.4214697265625,0.1738900014847517,-0.06956796867959202,0.01798106237053871
1746275971311449900,9.431449951171874,0.13478607158660888,-0.05306852316893637,0.08773615112006664
1746275971321429800,9.4414296875,0.0619616583943367,-0.03913805136345327,0.1783247690618038
1746275971331409700,9.45140966796875,-0.02802548652291298,-0.05030395382642746,0.23303309532701968
1746275971341389600,9.4613896484375,-0.1385889710009098,0.0022816811963915825,0.2699082432597875
1746275971351368700,9.47136865234375,-0.23840952766835688,0.02691767141148448,0.3105313455492258
1746275971361348600,9.4813486328125,-0.3106348059237003,0.006362082377821206,0.31326164729595185
1746275971371328800,9.491328857421875,-0.3409124552875757,0.019360314834490418,0.26187632797360416
1746275971381308700,9.50130859375,-0.3249643600493669,0.009144625768437982,0.17105623936355113
1746275971391288800,9.511288818359375,-0.26790391770005223,-0.014953969634324311,0.09202712631225586
1746275971401268700,9.521268798828125,-0.15010814388096333,0.022480200420692563,0.09679214875698089
1746275971411248600,9.53124853515625,-0.0689373426258564,0.014200593983754515,0.1313695411413908
1746275971421227800,9.541227783203125,-0.021686346629261968,0.008644201965630054,0.08437164312303065
1746275971431207700,9.551207763671876,0.07756020954251289,0.017780790558084843,-0.013652093255519866
1746275971441187600,9.5611875,0.17530454445779323,-0.019201324880495665,-0.09184007930755615
1746275971451167700,9.571167724609374,0.17623977948129177,0.01795950812585652,-0.10064707061946392
1746275971461148000,9.58114794921875,0.1920236240684986,0.0505776562012732,-0.09145195677280425
1746275971471127800,9.5911279296875,0.19122925882041453,0.060402592384070156,-0.0847661953985691
1746275971481107700,9.601107666015626,0.2110679317563772,0.061396791053190826,-0.08259469657838345
1746275971491086800,9.6110869140625,0.2061187849164009,0.056545332434028386,-0.06998422133028506
1746275971501066800,9.621066650390626,0.170944595682621,0.03206562875919044,-0.050122752040624614
1746275971511046700,9.631046630859375,0.11402736119627951,-0.002108443521335721,-0.04684416876137256
1746275971521026800,9.64102685546875,0.06790624601244927,0.019398308757320046,-0.00499532406926155
1746275971531006700,9.6510068359375,0.028625205981731412,0.020919746170938013,0.04035013056695461
1746275971540987000,9.66098681640625,-0.02254208667576313,0.018690014357492325,0.13532207815945146
1746275971550966800,9.670966796875,-0.08759469682276248,0.020035802943259476,0.1572539239823818
1746275971560945700,9.680945556640625,-0.13959844030439852,0.005855009638518095,0.1580348452270031
1746275971570925800,9.69092578125,-0.17982582127451896,0.002214095852896571,0.14891162757277487
1746275971580905700,9.70090576171875,-0.22057167316079138,-0.004814268413931131,0.10511924759745597
1746275971590885600,9.7108857421875,-0.22032383587956428,-0.000960077203810215,0.07613748326301574
1746275971600865800,9.72086572265625,-0.15691607033014296,0.0029480361506342887,0.03175122904777527
1746275971610845700,9.730845703125,-0.08233692242503166,0.010703107256814837,0.0089449384778738
1746275971620825900,9.740825927734376,-0.042809214156866074,0.05009776372984051,-0.02463701312839985
1746275971630804700,9.7508046875,-0.00461713840663433,0.033320889517292375,-0.05481120211780071
1746275971640784600,9.76078466796875,0.041914895665645595,0.022443448606878517,-0.07997603851258754
1746275971650764800,9.770764892578125,0.07680500726103782,0.031724779432266946,-0.07955985892713069
1746275971660744700,9.78074462890625,0.09586509703993797,0.027602073479071256,-0.08328150979876518
1746275971670724600,9.790724609375,0.07986848648488522,0.009183058082684874,-0.06054185472428798
1746275971680704800,9.800704833984375,0.0787882900327444,0.006429959982261061,-0.02700315773785114
1746275971690684700,9.8106845703125,0.0737210697710514,0.02538907360471785,0.023042437413334844
1746275971700663800,9.820663818359375,0.06538695666790008,-0.0035769817039370535,0.06461889490485191
1746275971710643700,9.830643798828126,0.017925532791018484,-0.042168066709116096,0.056197688040137285
1746275971720623600,9.84062353515625,-0.024077625679969787,-0.032368922554701564,0.05600421129465103
1746275971730603800,9.850603759765624,-0.040867432439327236,-0.01839563452079892,0.07774608750343322
1746275971740583700,9.860583740234375,-0.08221943352520465,-0.016440993321686984,0.04599953463077545
1746275971750563600,9.8705634765625,-0.10607961706221103,-0.028013649954646825,0.0225303962379694
1746275971760543700,9.880543701171876,-0.09171674518883227,0.044835167026519775,0.07077040327191353
1746275971770523000,9.89052294921875,-0.06852876182496548,0.06999035881012677,0.11976502806544304
1746275971780502800,9.900502685546876,-0.045567572954297066,0.0749510499574244,0.08366729424595833
1746275971790482700,9.910482666015625,-0.02188800668120384,0.06840922709852457,0.039727614754438395
1746275971800462800,9.920462890625,0.02396247486770153,0.08479337566643953,-0.000090016371011734
1746275971810442800,9.93044287109375,0.07899228817224502,0.11276384406648575,0.008576105165481566
1746275971820422700,9.940422607421874,0.11129998205900192,0.10780315291918814,-0.0005687397986650467
1746275971830402800,9.95040283203125,0.10867372520864009,0.07702040357738733,-0.04872749828994274
1746275971840381700,9.960381591796875,0.0681926617383957,0.05458667264692485,-0.08555646899342537
1746275971850361900,9.97036181640625,0.07377835291624069,0.06145312435030937,-0.06521919888556003
1746275971860341800,9.980341796875,0.07451368145346642,0.06898899974785745,-0.04168459404110908
1746275971870321700,9.99032177734375,0.0546504585981369,0.042945407757163045,-0.00817512314915657
1746275971880301800,10.0003017578125,0.02139700829386711,-0.0004456248756498098,0.01788344721496105
1746275971890281700,10.01028173828125,-0.02008651021718979,0.004797828735783696,0.03509995495378971
1746275971900261600,10.02026171875,-0.015873860958218574,0.0232378869201988,0.07246785483956336
1746275971910240800,10.03024072265625,-0.027673604345321654,-0.006748670542612672,0.10253624536693096
1746275971920221000,10.040220947265626,-0.069189856082201,-0.01626410238482058,0.09856617269217967
1746275971930200800,10.050200927734375,-0.11978490180969238,-0.006036138359084725,0.10034954897761345
1746275971940180700,10.0601806640625,-0.13614800758957862,0.013636603425443171,0.10758709901571273
1746275971950160600,10.07016064453125,-0.1246773500263691,-0.0008507716104388237,0.06848316911756992
1746275971960140800,10.080140869140624,-0.058497781676053996,0.00993117303624749,0.05130348625779152
1746275971970120700,10.09012060546875,0.006067337214946746,0.017385580695420504,0.08146890741884708
1746275971980099600,10.100099609375,0.06001520050168037,0.02575206169821322,0.06187398011088371
1746275971990079700,10.110079833984376,0.04599252036809921,0.021258768866956233,0.015390461355447768
1746275972000060000,10.120059814453125,0.032360885378718375,0.0006579524520784616,-0.023107903864979743
1746275972010039800,10.130039794921874,0.0007376666247844696,-0.0037953736949712037,-0.04363339002132415
1746275972020019700,10.140019775390625,-0.014414894321560859,0.001751227581501007,-0.018639818540215493
1746275972029999600,10.14999951171875,0.004496142375469208,-0.008798808005452156,0.0018254618614912033
1746275972039979800,10.159979736328125,0.03431786466538906,-0.018006196811795234,0.03955927245020866
1746275972049958700,10.169958740234375,0.04293488636314869,-0.012703121967613697,0.07016366955041885
1746275972059938600,10.1799384765625,0.042943654191493985,0.02504457101598382,0.07771919949650764
1746275972069918700,10.189918701171875,0.04616670789122581,0.03654028995521366,0.07865092738866805
1746275972079899000,10.19989892578125,0.02755611544549465,0.01628368386812508,0.0675777447104454
1746275972089878800,10.209878662109375,0.0000713116705417633,0.014095599239319563,0.009454641565680504
1746275972099858700,10.219858642578124,-0.028927988320589064,0.03143916742391884,0.01588788948357105
1746275972109838800,10.2298388671875,0.006215221253037452,0.035059549878165126,0.02984451864361763
1746275972119817700,10.239817626953124,0.017313538372516632,0.04731010577268898,0.05049041630923748
1746275972129796900,10.249796875,0.03394201709032058,0.07639788776487112,0.06534194848239422
1746275972139776800,10.25977685546875,0.040804304075241084,0.055032589783519506,0.06695289081037044
1746275972149756700,10.269756591796876,0.009409633380174637,0.023026582257077096,0.06729542063772678
1746275972159736800,10.27973681640625,-0.04637070603072643,0.029738720181584355,0.03279635418653488
1746275972169716700,10.289716796875,-0.06359130542278289,0.024897709891200066,-0.030599720925092694
1746275972179697000,10.29969677734375,-0.009457564175128936,0.02533851246125996,-0.04603811307549476
1746275972189675800,10.30967578125,0.028776012629270552,-0.000723418903723359,-0.02452712301313877
1746275972199655700,10.31965576171875,0.040759880411624906,0.020916165974363684,-0.015700842478871345
1746275972209635800,10.3296357421875,0.01816226415634155,0.02721950390227139,-0.007702829462289809
1746275972219615700,10.33961572265625,-0.03804594527781009,0.015433496779575943,0.0028068741142749784
1746275972229595600,10.349595703125,-0.07741875524520873,0.009350231343135238,0.030412089398503303
1746275972239575800,10.359575927734374,-0.0915805515885353,0.0337017785936594,0.053422378107905386
1746275972249555000,10.369554931640625,-0.08555997612476349,0.04401281779296696,0.05100187296271324
1746275972259534800,10.379534912109374,-0.0969312649667263,0.03525149225369095,0.05163257208168506
1746275972269514800,10.3895146484375,-0.09101181178987025,0.04533960941731929,0.04986380884349346
1746275972279494700,10.39949462890625,-0.10658055232167243,0.046425651088356966,0.04492810600697994
1746275972289474800,10.409474853515626,-0.11352174976170062,0.05564399968013167,0.08279284949898719
1746275972299454700,10.419454833984375,-0.13587678943276404,0.07713789247721434,0.10935352416634558
1746275972309435000,10.429434814453124,-0.13984569306373595,0.05682685278914869,0.12490239095389842
1746275972319413800,10.439413818359375,-0.09543722701668739,0.048629737003892656,0.14644260711073875
1746275972329394000,10.449393798828124,-0.01955927147269249,0.06690452162399887,0.10784487316906452
1746275972339373800,10.459373779296875,0.05642740514278412,0.041277547610178586,0.059330140846967694
1746275972349353700,10.469353759765625,0.1094704285442829,0.03344042424373329,0.017747838136553763
1746275972359333600,10.479333740234376,0.14112638052403925,0.024852555575221775,0.006091302612423896
1746275972369313800,10.489313720703125,0.17800971176326275,-0.007444105460867286,-0.027404724276065825
1746275972379293700,10.499293701171876,0.2149894891142845,-0.026294205750897526,-0.07080372101962566
1746275972389272600,10.5092724609375,0.20455343529582024,-0.027882059464231133,-0.0762000271052122
1746275972399253000,10.5192529296875,0.19934242264926433,-0.03485613626055419,-0.06929507002234458
1746275972409233000,10.52923291015625,0.13506021235287188,-0.04318221218772232,-0.04195990385115146
1746275972419212800,10.539212890625,0.004879004213213921,-0.01964117760248482,0.011927753680944442
1746275972429192700,10.549192626953126,-0.1222065759986639,0.009107508628442883,0.048964814177155494
1746275972439172900,10.5591728515625,-0.2173024422317743,0.037599443619325754,0.056663551986217496
1746275972449152800,10.56915283203125,-0.2641606395184994,0.03758366152830422,0.1094751047194004
1746275972459131600,10.579131591796875,-0.2538391519904136,0.0547935933958739,0.14007190303504466
1746275972469111800,10.58911181640625,-0.18350480204820632,0.04451251094341278,0.147908003488183
1746275972479092000,10.599092041015625,-0.09064882369637489,0.023061653570458293,0.10867606329619883
1746275972489071900,10.60907177734375,0.020602058523893355,0.014676540932431816,0.04101882360875606
1746275972499051800,10.6190517578125,0.14008476251661778,-0.05530322341844439,-0.030581016224622726
1746275972509031700,10.62903173828125,0.24889877297878263,-0.059845689153671264,-0.05135141705274582
1746275972519011800,10.63901171875,0.2737912221729755,-0.054599239867553113,-0.07687865701913833
1746275972528990700,10.64899072265625,0.2691945420324802,0.008781126218289137,-0.0075683894276618955
1746275972538970600,10.658970703125,0.19435177475512028,0.05193776557333767,0.06491817011237144
1746275972548950800,10.66895068359375,0.04665887532234192,0.08879435493610799,0.05767126772403717
1746275972558931000,10.678930908203125,-0.07151800676882267,0.0917810425966978,0.041894437399506566
1746275972568910800,10.688910888671876,-0.16808043842315673,0.13392170984223484,0.030756957313418386
1746275972578890800,10.698890869140625,-0.20102000047266483,0.13852386987544596,0.0060071314603090285
1746275972588870700,10.70887060546875,-0.23072189577519892,0.1099564584955573,-0.0190881468296051
1746275972598849800,10.718849853515625,-0.22540625371038914,0.0807116593107581,-0.030197569864988325
1746275972608829700,10.72882958984375,-0.16190847178995607,0.06466770248264074,-0.024312603479623794
1746275972618809600,10.7388095703125,-0.04052314904630184,0.03846022516712546,0.018330021938681603
1746275972628789800,10.748789794921874,0.011350246053934096,0.019107874443382022,0.06070318276584148
1746275972638770000,10.75877001953125,0.045021044987440105,-0.03666092066019773,0.05870470242500305
1746275972648749800,10.768749755859375,0.12262217106223106,-0.07187251929491759,0.02582242352068424
1746275972658729000,10.77872900390625,0.14703180517554282,-0.07058321013674139,0.06944821475744246
1746275972668708900,10.788708984375,0.13545242654085157,-0.04500285174362361,0.1113093344092369
1746275972678688800,10.798688720703124,0.10553659622669219,-0.002333192187920213,0.10950374629199504
1746275972688668700,10.808668701171875,0.016496376770734785,0.03680420158840716,0.09440437683761119
1746275972698648600,10.818648681640624,-0.030307459980249404,0.054251449343189595,0.08437748834192753
1746275972708629000,10.82862890625,-0.057823827937245366,0.06477050526998937,0.07779226473271847
1746275972718609000,10.83860888671875,-0.11039981834888457,0.06136427702307701,0.06538461858034134
1746275972728587800,10.848587890625,-0.11708031902611254,0.040151027798280114,0.02629647077322006
1746275972738568000,10.85856787109375,-0.10760463467240333,0.028238471686467526,-0.012566051584482192
1746275972748547800,10.8685478515625,-0.09715805945992469,0.03476451245434582,-0.023687749579548834
1746275972758527700,10.87852783203125,-0.08467559450566768,0.008948884000629187,-0.02812251715660095
1746275972768507600,10.888507568359374,-0.0903039557814598,-0.013806114773452281,0.0024848025530576703
1746275972778487800,10.89848779296875,-0.08117956908345222,-0.021405191600322723,0.013853753307461738
1746275972788468000,10.908468017578125,-0.0694552290201187,-0.008364362110942603,0.031394086173176766
1746275972798446800,10.91844677734375,-0.012067454412579537,-0.0026933307372033594,0.07379413500726223
1746275972808426800,10.9284267578125,0.08294307162463664,0.013914908910170196,0.06596621786057949
1746275972818407000,10.938406982421874,0.13104045531749725,0.02612242938056588,0.05993161387145519
1746275972828386800,10.94838671875,0.13912439305186272,0.04941672266311943,0.03980360260009765
1746275972838366700,10.95836669921875,0.07939443923234939,0.058173737353458994,0.028551556223630904
1746275972848346600,10.9683466796875,0.024805355432629583,0.03967186597920954,-0.01821019495129585
1746275972858326800,10.978326904296875,-0.029107436540722845,0.016092472144961355,-0.04819266076087951
1746275972868305700,10.9883056640625,-0.04762333644032478,0.01849324967637658,-0.05307867923676967
1746275972878285800,10.998285888671875,-0.015501520514488219,0.04340023885257542,-0.04245031771659851
1746275972888265700,11.008265625,0.02293839251697063,0.07507752588130533,0.008624035960435867
1746275972898246000,11.018245849609375,0.031149171501398086,0.07566847751177846,0.08647183027267455
1746275972908225800,11.028225830078124,-0.020097031611204148,0.024807547389715908,0.06694938367903232
1746275972918205700,11.038205810546875,-0.07071896534562111,-0.001063683708757162,0.007167407411336898
1746275972928185600,11.048185546875,-0.08524082717299461,-0.006158961021155119,-0.01593114410340786
1746275972938164700,11.058164794921876,-0.05992635317444801,0.015327406056597827,0.038729835888743396
1746275972948144600,11.06814453125,-0.039136078602075575,0.05720737653933465,0.0825748228341341
1746275972958124800,11.078124755859376,-0.04727613043785095,0.039479631342738866,0.11738134779930114
1746275972968105000,11.08810498046875,-0.056090136012434955,-0.0024753040723502636,0.12620353668034076
1746275972978084900,11.0980849609375,-0.04403203395009041,-0.0039031449183821675,0.07680734534859657
1746275972988064800,11.108064697265625,0.0043862522602081296,-0.0034526977371424432,0.06177753399908542
1746275972998043600,11.118043701171874,0.028113164806365967,0.0228146200068295,0.10148235239982605
1746275973008023800,11.12802392578125,0.02582593065202236,0.039890988622605796,0.10953647951781749
1746275973018003700,11.138003662109375,-0.004236030134558678,0.041782574522867794,0.0735468822479248
1746275973027983600,11.147983642578126,0.0026876316487789154,0.020117343746870756,-0.020805472141504286
1746275973037963800,11.1579638671875,0.03303016294240951,0.019251009241119027,-0.11207505808472633
1746275973047944000,11.16794384765625,0.08178104210793971,-0.003130480045452714,-0.18006605977118015
1746275973057923800,11.177923828125,0.1257739130914211,-0.009528145193308591,-0.22693419393002986
1746275973067902700,11.18790283203125,0.18600538669228553,0.01189560497701168,-0.22982348563075064
1746275973077883000,11.1978828125,0.19896189889907837,0.016228227353841065,-0.1731798073887825
1746275973087862800,11.20786279296875,0.1731716240823269,0.022816885029152034,-0.10029869557321071
1746275973097842700,11.2178427734375,0.08046294524669646,0.042379882828891276,-0.024231939458847045
1746275973107822800,11.22782275390625,-0.01974573395550251,0.06413162284456193,0.09135024996399879
1746275973117802800,11.237802734375,-0.11262217057347297,0.06333638081364333,0.1716851849168539
1746275973127782000,11.247781982421875,-0.2289367659240961,0.07141871111281216,0.21625614804923532
1746275973137762300,11.25776220703125,-0.3212450472652912,0.046855859199166294,0.25875088942945
1746275973147742200,11.2677421875,-0.290426130631566,0.017359496406093237,0.28990649067163465
1746275973157722000,11.27772216796875,-0.2131073286294937,0.004211114889010787,0.30065993987619877
1746275973167702300,11.287702392578124,-0.14852467408180237,-0.03624656770564615,0.27482699496150015
1746275973177682200,11.29768212890625,-0.09439677805304526,-0.03611512334570288,0.2394365326285362
1746275973187662300,11.307662353515624,-0.04821896424591541,-0.07078698908053338,0.16235329294800757
1746275973197641500,11.317641357421875,-0.017313538372516632,-0.05962254792228341,0.11312953557372092
1746275973207621400,11.327621337890625,0.037060441371798515,-0.02628141933456063,0.059418988174200056
1746275973217601300,11.337601318359376,0.04303074795305729,-0.009772475343197584,-0.008173954105377197
1746275973227581200,11.347581298828125,0.080762220454216,0.00822926448918879,-0.03349076619148254
1746275973237561300,11.357561279296876,0.12569792524576187,0.045035292708501214,-0.030928222227096555
1746275973247541200,11.367541259765625,0.1520616160362959,0.07417093243040145,-0.044397944653034205
1746275973257520000,11.37752001953125,0.16612696626782417,0.06795556504689157,-0.08455927464962006
1746275973267500300,11.387500244140625,0.1492804608851671,0.07373648653589189,-0.11244681400656699
1746275973277480400,11.39748046875,0.12989946858882903,0.09015702159143983,-0.11205343077480792
1746275973287460400,11.40746044921875,0.06226677882075309,0.055905134834349154,-0.13522329396009444
1746275973297440300,11.417440185546875,0.016612696626782417,0.06663900255560874,-0.133195003002882
1746275973307420200,11.427420166015626,0.011723171019554137,0.07174472819678485,-0.11432196022868156
1746275973317400300,11.437400390625,0.03893851020336151,0.08154635656923055,-0.07597264809012412
1746275973327379200,11.447379150390624,0.018339374288916587,0.08434329381138087,-0.060171852368116376
1746275973337359000,11.457359130859375,0.020107553005218503,0.06529314090460539,-0.028818098205327988
1746275973347339300,11.46733935546875,0.014556348618865012,0.042691286865621805,-0.035980244919657706
1746275973357319400,11.4773193359375,-0.03077858462333679,0.0051245034068822855,-0.00011807342171669006
1746275973367299300,11.48729931640625,-0.07370762576758862,0.003208952109143138,0.01384498547911644
1746275973377279200,11.497279296875,-0.11393500673770904,0.022327201816067097,0.040159576430916784
1746275973387259100,11.507259033203125,-0.17989947103261947,0.027836905148252843,0.08637889129221439
1746275973397238300,11.51723828125,-0.22699147707521913,0.043802901369333264,0.10532967547774315
1746275973407218200,11.52721826171875,-0.20131576854884622,0.015096666040644049,0.11283610558509825
1746275973417198000,11.537197998046874,-0.16942542329132557,0.0028121348112821578,0.1013707087188959
1746275973427178500,11.547178466796876,-0.0950970352768898,-0.002627864285558462,0.09419745608866215
1746275973437158400,11.557158447265625,-0.026582886499166486,0.012301409298926591,0.0812152249187231
1746275973447138300,11.56713818359375,0.032193127596378324,0.024639570411667228,0.10179097995758056
1746275973457118200,11.5771181640625,0.08462123396992682,0.008674231777712703,0.07306698977649212
1746275973467097300,11.587097412109374,0.09396890802979468,-0.0015213643483817576,0.03490589368641376
1746275973477077200,11.5970771484375,0.07971826435923576,-0.009203881675004959,0.026080197674036024
1746275973487057200,11.60705712890625,0.09221534236073493,0.0028825696989893913,0.03277531139850616
1746275973497037000,11.617037109375,0.07626373999118805,0.008123831353336572,0.055603813800215715
1746275973507017500,11.627017578125,0.023874212062358856,0.027939342609420416,0.08425590778887271
1746275973516997400,11.636997314453126,0.005202244818210602,0.015490341533347964,0.07053425642848014
1746275973526976300,11.646976318359375,-0.026973347121477125,0.032708675903081894,0.06807634188234805
1746275973536956400,11.656956298828124,-0.05419862317740917,0.05010448573157191,0.09074819241762161
1746275973546936300,11.666936279296875,-0.06018120471835136,0.05055632115229964,0.08288169682621956
1746275973556916200,11.676916259765624,0.002258592581748962,0.044401159523427484,0.053875382572412485
1746275973566896000,11.686896240234375,0.04570376655459404,0.0330314050514251,0.011874562188982963
1746275973576876300,11.696876220703125,0.10590835214853286,0.004699117601662874,-0.03545008356571197
1746275973586856400,11.7068564453125,0.1359223821401596,0.002935176669061184,-0.03845920225381851
1746275973596835300,11.71683544921875,0.16654665298461913,0.032715763230994344,-0.02288052484989166
1746275973606815200,11.726815185546876,0.17029577638506888,0.013951806854456662,0.022036475241184232
1746275973616795400,11.73679541015625,0.10537351461946963,0.010760609597712755,0.0078057053148746485
1746275973626775300,11.746775390625,-0.033005613023042675,0.008616802502050996,-0.009001637101173401
1746275973636755200,11.756755126953125,-0.17218728922009466,-0.006730696494504809,0.008912205252051353
1746275973646735000,11.766735107421875,-0.1877326488763094,0.005903744151070714,0.04335983377695083
1746275973656714200,11.77671435546875,-0.1680120493620634,0.0061973202701658,0.08567921859025955
1746275973666694100,11.786694091796875,-0.1050701477587223,0.03150419548414647,0.1431687000066042
1746275973676674300,11.79667431640625,-0.07378712074458599,0.029723668742924928,0.17245032407045363
1746275973686654200,11.806654296875,-0.059063598865270614,-0.02337400745525956,0.1435293500125408
1746275973696634400,11.81663427734375,-0.06308744755387306,-0.0014583090495318173,0.09699497785270214
1746275973706614300,11.8266142578125,-0.057197220471501345,0.014766630368679761,0.06337152519226073
1746275973716594200,11.83659423828125,-0.047234044861793514,0.044991818892955775,0.06473346119523048
1746275973726573300,11.8465732421875,-0.03510580017268657,0.060336979801952836,0.045642976278066634
1746275973736553200,11.85655322265625,-0.008210194462537766,0.07092318268083035,0.025063129585981368
1746275973746533400,11.866533447265626,0.018110241708159447,0.04325549661964178,0.008045943811535835
1746275973756513300,11.87651318359375,0.05400163930058479,0.027756241127476093,-0.011190087056159972
1746275973766493400,11.886493408203124,0.08466448858976364,0.014229235556349158,-0.04149170181751251
1746275973776473300,11.896473388671875,0.05044365455806255,0.007060512970760464,-0.02616144621670246
1746275973786452200,11.9064521484375,0.022338088536262513,0.0013185352526605128,0.00478664975464344
1746275973796432400,11.916432373046876,-0.011153846698999404,-0.030318200569972396,0.0369563964754343
1746275973806412300,11.926412353515625,-0.012358546313643455,-0.048131651288643475,0.06403437301516532
1746275973816392200,11.93639208984375,-0.007225859600305556,-0.04937186060808599,0.08966565787792205
1746275973826372400,11.946372314453125,-0.022457331001758573,-0.04872092241868376,0.12830255478620528
1746275973836352300,11.956352294921874,-0.050123921084403986,-0.005681333572044968,0.12705986124873161
1746275973846332400,11.96633251953125,-0.10184241788387298,0.021321897231042383,0.13649053741693495
1746275973856311300,11.976311279296874,-0.1447065770983696,0.01605732776634395,0.10159633416831493
1746275973866291200,11.986291259765625,-0.16643676286935805,0.03812047181874514,0.06405892293453216
1746275973876271400,11.996271240234375,-0.15580898587107658,0.051822833956778044,0.05015957691967487
1746275973886251300,12.006251220703126,-0.05649170255064964,0.052164340870827434,0.04339315152466297
1746275973896231200,12.016231201171875,0.047583004429936404,0.03778860951587558,0.028178046736121176
1746275973906211300,12.02621142578125,0.07519406493306159,0.019055778929963706,0.00675648852288723
1746275973916191200,12.036191162109375,0.052532151269912716,-0.008206395070254802,-0.04803717793822288
1746275973926170400,12.04617041015625,0.016910218268632888,-0.05230353014580905,-0.1139104568183422
1746275973936150300,12.056150390625,-0.000012274959683418274,-0.013230287646874785,-0.16051672517061233
1746275973946130200,12.066130126953125,0.05776479122638702,0.04557261445559561,-0.09954641590118407
1746275973956110300,12.0761103515625,0.010596212816238402,0.05946406942494213,0.05925766013264656
1746275973966090200,12.08609033203125,-0.010216273587942123,0.08186170612871646,0.17652385711967944
1746275973976070100,12.096070068359374,-0.00941430955529213,0.07701506981514394,0.16684359010457991
1746275973986049300,12.10604931640625,-0.029947394496202467,0.03174867176450789,0.1100549504339695
1746275973996029400,12.116029541015624,-0.03755319332480431,0.01848448184803128,0.06166705936193466
