time,seconds_elapsed,z,y,x
1746475000030116900,0.069116943359375,0.3691846100479364,-0.06516893000304698,0.10825813014507293
1746475000040112600,0.079112548828125,0.2523532973468304,-0.07566372827142477,0.06021949090212583
1746475000050108700,0.089108642578125,0.13103577914237977,-0.054964346852898596,-0.018753873373940588
1746475000060105700,0.099105712890625,0.07722469397783278,-0.03431844918727875,-0.017779036992415783
1746475000070101800,0.109101806640625,0.12369827586114406,0.018909867653250693,0.014633213247358797
1746475000080097800,0.119097900390625,0.19996435393989084,0.0148074007704854,0.03017681933790445
1746475000090094800,0.1290947265625,0.2679255450099706,-0.010794365736842155,0.005189385336637497
1746475000100090600,0.139090576171875,0.30314065077602864,-0.07058452531099318,-0.00035706980936229225
1746475000110086700,0.149086669921875,0.2467997548729181,-0.12834727071076632,-0.0051772565074265
1746475000120083000,0.1590830078125,0.19650515339672564,-0.15853139657229184,0.020139336382970212
1746475000130079700,0.169079833984375,0.10911620827913283,-0.15179858118593692,0.0629028117019683
1746475000140075800,0.17907568359375,0.012660159608721732,-0.11122048708200453,0.08939655861295759
1746475000150071800,0.18907177734375,-0.09746084179878234,-0.06955605904608965,0.11701514483541249
1746475000160068900,0.19906884765625,-0.22672902674674986,-0.04873685064017772,0.12156564774662255
1746475000170064600,0.209064697265625,-0.3356131798356771,-0.05215747273862362,0.11012845406159757
1746475000180061000,0.21906103515625,-0.4214519729018211,-0.050667526441812515,0.11070121244825422
1746475000190056700,0.229056640625,-0.4853180036127567,-0.0019119711011648178,0.11142587346099317
1746475000200053800,0.2390537109375,-0.4703863919407129,0.03236410024911165,0.09783091722019016
1746475000210049800,0.2490498046875,-0.3762842129200697,0.012149287477135657,0.08251359416618943
1746475000220045800,0.2590458984375,-0.2550479432582855,-0.004422200356423854,0.08071670081205666
1746475000230042600,0.269042724609375,-0.10527356137633323,-0.02925444379597902,0.06782090581655502
1746475000240039000,0.279038818359375,0.05800035354793071,-0.04477554579377174,0.017378639497980474
1746475000250034700,0.28903466796875,0.18911971932053565,-0.05075695829093456,-0.03906272110491991
1746475000260030700,0.29903076171875,0.291354935914278,-0.04139642474949359,-0.09045542001612483
1746475000270027800,0.30902783203125,0.2998591448873281,-0.03431318849027157,-0.1116806519396603
1746475000280023800,0.31902392578125,0.26679332610964773,-0.00168313078135252,-0.08557268947586416
1746475000290019800,0.329019775390625,0.18389584719240665,0.043081893618404865,-0.026229323821142313
1746475000300017000,0.339016845703125,0.14701894569396973,0.033063772951066495,0.07523483533486723
1746475000310013000,0.349012939453125,0.10653320604860782,0.0008761983126401901,0.12379669473432003
1746475000320008700,0.3590087890625,0.1357008483439684,-0.03171674225628376,0.08630027309805155
1746475000330005800,0.369005859375,0.14244564642906188,-0.018624913232028483,-0.006388385862857103
1746475000340001800,0.379001708984375,0.2357990529090166,0.011183949576318263,-0.0639208296380937
1746475000349997800,0.388997802734375,0.3426771268725395,-0.12887187910676,-0.05700220935605466
1746475000359993600,0.39899365234375,0.3100432697713375,-0.10774258183836936,0.021812238031253216
1746475000369991000,0.408990966796875,0.3007517098128795,-0.06616846243441105,0.051566301912441846
1746475000379986700,0.418986572265625,0.21280162368118763,-0.022279051825404166,0.017166823378205298
1746475000389982700,0.428982666015625,0.1091828437745571,0.05517185212373733,0.0005883943472057581
1746475000399979800,0.438979736328125,0.019417232653498647,0.1112485441327095,-0.04508505013436079
1746475000409975800,0.448975830078125,-0.024915830069780348,0.10153086771667003,-0.09641381696388125
1746475000419971600,0.4589716796875,0.022099603605270385,0.056335050684213635,-0.11316847934462129
1746475000429968000,0.4689677734375,0.03788929341137409,0.02332709957361221,-0.12832571646608412
1746475000439964700,0.478964599609375,0.027304771032929418,0.03166588885188103,-0.15162731627225876
1746475000449960700,0.488960693359375,-0.11422200698554515,0.06381371600180864,-0.1816778788819909
1746475000459957000,0.49895703125,-0.3054389908462763,0.06960340531915425,-0.13886683809421957
1746475000469953800,0.508953857421875,-0.4676829782009124,-0.003816635678708553,-0.10148717470541596
1746475000479949800,0.51894970703125,-0.4213894290596246,0.07441022107899188,-0.22004436135105787
1746475000489945900,0.52894580078125,-0.26268822887837884,0.17079554260075092,-0.23666809082850812
1746475000499942700,0.538942626953125,-0.10917582951188087,0.22218378453254697,0.07673581448234618
1746475000509938700,0.548938720703125,0.017492986592650413,0.08113952933400868,0.00827273830473423
1746475000519935000,0.55893505859375,0.055013446691632266,-0.08393208266198635,0.02417816344499588
1746475000529930800,0.5689306640625,0.07911328420341014,-0.09831716636717319,0.12527005522251128
1746475000539927800,0.578927734375,0.031440263402462004,-0.06452127974927425,0.12418905505277215
1746475000549923800,0.588923828125,-0.06738251439929008,-0.0705339641675353,0.12582995412759482
1746475000559919900,0.598919921875,-0.1626578288525343,-0.08600421276092529,0.10319200586192309
1746475000569916700,0.608916748046875,-0.18821254134774207,-0.08914017269909381,0.01970299079231918
1746475000579913000,0.618912841796875,-0.18089198920130728,-0.06452800175100565,0.045720644624158736
1746475000589908700,0.62890869140625,-0.1579383991152048,-0.022796645958721638,0.08994600918926299
1746475000599905800,0.63890576171875,-0.13247019585967063,-0.014658639949560164,0.04661949316002428
1746475000609901800,0.64890185546875,-0.04018003469705581,-0.017305062805116175,0.016460720935463906
1746475000619897900,0.65889794921875,0.026762919241189956,0.011503975310921668,0.019091288634762168
1746475000629894000,0.668893798828125,0.06879296571910382,0.006202654032409191,0.03543729714937508
1746475000639890700,0.678890625,0.12262100201845168,-0.017865327036380767,0.02201112160421908
1746475000649886700,0.68888671875,0.23558628694117068,-0.07449322318732739,0.033742987386882306
1746475000659882800,0.6988828125,0.28651334110200405,-0.10399725783020257,0.05584244486168027
1746475000669879600,0.708879638671875,0.30001930388510223,-0.08984773644655943,0.0279318168900907
1746475000679875800,0.718875732421875,0.3174573454201221,-0.06565262186676263,-0.010291019324585794
1746475000689870600,0.72887060546875,0.28143910657763477,-0.033169863674044606,-0.011758169267699122
1746475000699867400,0.738867431640625,0.225285257679224,-0.006001870763301849,-0.03430303242243826
1746475000709863700,0.74886376953125,0.12841302942335606,0.0160360657826066,-0.06168598325811326
1746475000719859700,0.758859619140625,0.008539280286431312,0.028387597833573818,-0.04046367394402623
1746475000729855500,0.76885546875,-0.06924772374927997,-0.031627894929051395,0.005192454076558351
1746475000739852500,0.7788525390625,-0.17752222050726413,-0.033332653020322324,0.0204558549862355
1746475000749848600,0.7888486328125,-0.30412849276959897,0.02775397610515356,0.03942344417609274
1746475000759844600,0.7988447265625,-0.2889291700720787,0.04570230524986982,-0.008212605615332722
1746475000769841700,0.808841552734375,-0.2244879698216915,0.06479322855845093,-0.058325566914305085
1746475000779837700,0.818837646484375,-0.15098668028116224,0.060940352522581814,-0.05043569044731557
1746475000789833500,0.82883349609375,-0.054257075366377826,0.01419131469875574,-0.020416618954390287
1746475000799829500,0.83882958984375,0.017257424271106717,-0.021054040075093507,0.004426949596777558
1746475000809826600,0.84882666015625,0.10252806206047535,-0.05358034514859318,0.038757308417558665
1746475000819822600,0.858822509765625,0.12897533948123455,-0.06490940228402614,0.05462101330794394
1746475000829818400,0.868818359375,0.08639642694890498,-0.040192601917684076,0.037768151249736544
1746475000839815700,0.878815673828125,0.04295417558550835,0.016008154862374065,0.01525923619121313
1746475000849811500,0.8888115234375,-0.02974281183481216,0.07707885576635598,-0.013267112525925039
1746475000859807500,0.898807373046875,-0.09684124859571457,0.080412530233711,-0.029116423564776776
1746475000869804500,0.908804443359375,-0.14981120676100254,0.05472732322663069,-0.03452083989158273
1746475000879800600,0.918800537109375,-0.13372399531304835,0.035272681172192094,-0.02855740144252777
1746475000889796600,0.928796630859375,-0.10020926372408866,0.007814911534637212,-0.0004893909521400928
1746475000899792600,0.938792724609375,-0.042057519006729126,-0.014544219789654016,0.028481413596868514
1746475000909789400,0.94878955078125,0.027054011142253875,-0.05200462026447057,0.012023176879435778
1746475000919785500,0.958785400390625,0.08023556623160838,-0.07041574461534619,-0.015368103393167257
1746475000929781800,0.96878173828125,0.10378829125463962,-0.08146116250380873,-0.039177725786715745
1746475000939778600,0.978778564453125,0.05318740030825138,-0.090842592702806,-0.016936375623196363
1746475000949774600,0.988774658203125,-0.02737491365969181,-0.10317805040180683,0.030345965359732507
1746475000959770600,0.9987705078125,-0.17380115415751934,-0.09163432760238648,0.11020363818965852
1746475000969767700,1.008767578125,-0.19259704004228115,-0.052596594808250664,0.13428089854344724
1746475000979763500,1.018763427734375,-0.17031798821687696,-0.02965206481143832,0.06752024236954748
1746475000989759700,1.028759765625,-0.1416694013595581,-0.028791940850764513,0.052671340544894335
1746475000999755500,1.038755615234375,-0.07021919912993907,-0.003073854487389326,0.040845585933700204
1746475001009752600,1.048752685546875,0.023655016353726386,0.009727467157691717,-0.000415814259275794
1746475001019748600,1.05874853515625,0.08458616265654563,0.020378478901088237,0.030683380620554087
1746475001029744600,1.06874462890625,0.0565454785645008,0.017509060944616794,0.07574044676944613
1746475001039741400,1.078741455078125,0.026143326038122177,0.022373159849643706,0.06921367534920572
1746475001049737700,1.08873779296875,-0.007073299387097358,0.013137860123068093,0.07847951634451747
1746475001059733500,1.0987333984375,-0.0482715712159872,0.0095147011898458,0.09392609180137515
1746475001069730600,1.10873046875,-0.05558510909974575,0.02805412809550762,0.05380743190273642
1746475001079726600,1.1187265625,-0.048263387909531594,0.013568506625294685,0.03182648624107241
1746475001089722600,1.12872265625,-0.05078910699486732,-0.019676614242047072,0.033118498812988395
1746475001099718700,1.13871875,-0.04858312138319015,-0.015039602091163395,-0.011041983822360634
1746475001109715500,1.148715576171875,-0.03690262046158314,-0.001561257967352867,0.015945830215886234
1746475001119711700,1.158711669921875,0.011356091272830963,-0.051086190245300526,0.05165186130404472
1746475001129707500,1.16870751953125,-0.015253683233261107,-0.06365560283064842,0.09718903912007808
1746475001139704600,1.17870458984375,-0.09122866941094399,-0.06421338284388184,0.10208031829297542
1746475001149700600,1.18870068359375,-0.14324351880848407,-0.0504055145047605,0.06473389958664774
1746475001159696600,1.198696533203125,-0.16998714882731436,-0.06009148060828447,0.061631476591899985
1746475001169692400,1.2086923828125,-0.19059212996065616,-0.04810629765167832,0.08688304142206907
1746475001179689700,1.218689697265625,-0.25647417666912076,-0.04165916733890772,0.08098287746757268
1746475001189685500,1.228685546875,-0.31865795338153835,-0.0005789689317345619,0.07460640123821795
1746475001199681500,1.238681640625,-0.3040560120552778,0.03424070777595043,0.1264327423263341
1746475001209678600,1.2486787109375,-0.23883798221349714,0.0050648821741342545,0.1529373028922826
1746475001219674600,1.258674560546875,-0.14884674564301967,-0.02491875267922878,0.09970905911698937
1746475001229670400,1.26867041015625,0.01038110876083374,-0.055421442970633505,0.11956585223153232
1746475001239667700,1.278667724609375,0.15066051706671713,-0.0786694859586656,0.16308905987665057
1746475001249663500,1.28866357421875,0.19762275924980638,-0.07426686708554625,0.10174041881412267
1746475001259659500,1.298659423828125,0.23722119466662406,-0.03837240075320005,-0.029133520830050108
1746475001269655600,1.308655517578125,0.260423791077733,-0.0035766894429922103,-0.0822386496823281
1746475001279652600,1.318652587890625,0.2815565954774618,0.03379705566167831,-0.04782419277466833
1746475001289648600,1.328648681640625,0.2996469634413719,0.04746902266144752,0.039898368211463094
1746475001299644400,1.33864453125,0.3175403475284576,0.05359978050142526,0.0998726521808654
1746475001309641500,1.348641357421875,0.2960164979845285,0.013521452613174915,0.09268887815661728
1746475001319637500,1.358637451171875,0.2924064907938242,-0.044319326458871364,0.07177921498827636
1746475001329633500,1.368633544921875,0.26117548622786996,-0.06120411802530289,0.036050899003073573
1746475001339630600,1.378630615234375,0.21282208194732666,-0.029342560470849273,-0.003093289840221405
1746475001349626600,1.388626708984375,0.11249065314829348,-0.013479513167589902,-0.0806440739672631
1746475001359622400,1.398622314453125,-0.004969605106115341,0.03357888286635279,-0.18228366275541483
1746475001369619700,1.40861962890625,-0.14348492634892462,0.09116013421937823,-0.2996966478019953
1746475001379615500,1.418615478515625,-0.1834761604756117,0.11099456937164068,-0.260131968524307
1746475001389611500,1.428611572265625,-0.10096738861501216,0.10775178805813193,-0.1770177781164646
1746475001399607600,1.438607666015625,-0.03542144199311733,0.1246139294013381,-0.10383388396203518
1746475001409604600,1.4486044921875,-0.048477907443046565,0.08271510808765888,0.01559920873530209
1746475001419600400,1.458600341796875,-0.07417232066988945,-0.000019727613776922224,0.14564341955706475
1746475001429596700,1.4685966796875,-0.06460311281383037,-0.04010141650289297,0.1927384943395853
1746475001439593500,1.478593505859375,-0.020535423028469085,-0.034795272918790573,0.1726884436752647
1746475001449589500,1.488589599609375,-0.02518938631415367,-0.012808189777284859,0.10199052111767232
1746475001459585800,1.498585693359375,-0.047640287575125694,-0.00382876450791955,0.0505688883729279
1746475001469582600,1.50858251953125,-0.09641279405057429,-0.024939503206312656,0.04576404537446797
1746475001479578400,1.518578369140625,-0.40334640736877914,0.07545110843405127,0.10511449835710227
1746475001489574700,1.52857470703125,-0.7611497917026281,0.13865341453924773,0.17172398255728183
1746475001499570700,1.53857080078125,-0.4229483489394188,-0.04617196858823299,0.21633980774469672
1746475001509567500,1.5485673828125,-0.3182213155299425,-0.15684987322613597,0.29572957080192863
1746475001519563800,1.558563720703125,-0.1749929942905903,-0.19487623702064155,0.4138352873530239
1746475001529559600,1.5685595703125,-0.250994283953309,-0.192241066211462,0.3059373688224703
1746475001539556600,1.578556640625,-0.2662988205909729,-0.1338439684309065,-0.007448270179331302
1746475001549552600,1.588552734375,-0.10347849465310573,-0.12184461081847547,-0.4993565389025956
1746475001559548700,1.598548583984375,0.23186697415709495,-0.07623758263662457,-0.6792329943858086
1746475001569545500,1.60854541015625,0.5899561896950006,-0.1357422032676637,-0.4617662284377962
1746475001579541800,1.618541748046875,0.7216349429160356,0.0829495013654232,0.24796273423768578
1746475001589537500,1.62853759765625,0.5278215128213167,-0.048152621011435984,0.388455566098541
1746475001599533600,1.638533447265625,-0.04176584258377552,-0.2400055646881461,0.19281777012087403
1746475001609530600,1.648530517578125,-0.49480947005748743,-0.04865764792412519,0.18636610976345835
1746475001619526700,1.658526611328125,-0.7197048516362905,0.19282807231917976,0.18264957345835864
1746475001629522700,1.668522705078125,-0.7368845344960689,0.3888723302058875,0.05884944465793669
1746475001639519700,1.678519775390625,-0.5600695854753256,0.4829189796470105,0.01800685439892113
1746475001649515500,1.688515625,-0.2176385423183441,0.46382016529291864,0.01609364118874073
1746475001659511600,1.698511474609375,0.10524959597885608,0.3272768747754395,-0.03268434517942369
1746475001669508600,1.708508544921875,0.3710550800949335,0.11482026513963937,-0.021497546058893202
1746475001679504600,1.718504638671875,0.6592477525860071,-0.058496904893219466,0.043279827343299986
1746475001689500700,1.728500732421875,0.8220487893015146,-0.1746408198520541,0.09697167004235088
1746475001699497000,1.7384970703125,0.7942343151807785,-0.2542433488771319,0.07979717481434345
1746475001709494000,1.748493896484375,0.638684272506833,-0.2754775678247213,0.012179098093509673
1746475001719490000,1.758489990234375,0.38432898768782614,-0.22860738783925771,-0.05294445839785039
1746475001729486000,1.768486083984375,0.08129822702705859,-0.08616524854153394,-0.09644837682060897
1746475001739483100,1.778483154296875,-0.09700140759348869,0.007871025636047125,-0.12877331410311163
1746475001749479200,1.788479248046875,-0.19367139127552507,0.02655556010082364,-0.15632752985246479
1746475001759475000,1.798474853515625,-0.1603174032062292,0.061140405139327045,-0.09726385792195796
1746475001769472000,1.808471923828125,-0.08747428531348705,0.08733122358098626,-0.026629355989396572
1746475001779468000,1.818468017578125,-0.0075169515013694755,0.0765131847076118,-0.0014336129996925591
1746475001789464000,1.828464111328125,0.03290858238935471,0.05765329367592931,0.01924443336986005
1746475001799459800,1.8384599609375,0.02039630681872368,0.06269187236502766,0.03170863201506436
1746475001809457200,1.84845703125,0.015892565658688546,-0.028216917441785335,-0.03757255561240017
1746475001819453000,1.858452880859375,-0.010876198801398276,-0.022787585869431495,0.00020034487769007682
1746475001829449000,1.868448974609375,-0.18386194492280483,0.02770151526555419,0.02453428340628743
1746475001839446000,1.878446044921875,-0.26231004321575163,0.03907353475987911,-0.0008288520395755767
1746475001849442000,1.888442138671875,-0.29850656123459335,0.014644026902318,0.01780263706371188
1746475001859437800,1.898437744140625,-0.30928689844608304,-0.0039028526574373243,0.04890563133582473
1746475001869435100,1.90843505859375,-0.2503326051741838,-0.0407666024133563,0.10671572300866246
1746475001879431000,1.918430908203125,-0.2259948672533035,-0.05336158783137798,0.12265841141939163
1746475001889427000,1.928427001953125,-0.14725333897173404,-0.022586218078434465,0.060930854041874406
1746475001899424000,1.938424072265625,0.07686872014701367,0.00796294170320034,-0.04351612031720578
1746475001909420000,1.948419921875,0.327959450212121,0.02716360899657011,-0.20996683864668012
1746475001919416000,1.958416015625,0.475095300284028,0.04516162250190973,-0.247006967882812
1746475001929413000,1.9684130859375,0.5483990214258432,0.05696107362806797,-0.15225385067276656
1746475001939409000,1.978408935546875,0.5260369674921035,-0.0007505261063575744,-0.024612901600450276
1746475001949405000,1.988405029296875,0.37701603432595726,-0.07101502568274735,0.14233290676958857
1746475001959401200,1.998401123046875,0.12626257339119912,-0.10821224517673253,0.24603395813219248
1746475001969398000,2.00839794921875,-0.06283785670697689,-0.07663374234735966,0.2484440149486065
1746475001979394000,2.01839404296875,-0.26193010398745536,0.012364976054430007,0.1551982335615903
1746475001989390000,2.02839013671875,-0.4334036919802427,0.10744301436990498,0.021481033315509556
1746475001999387100,2.03838720703125,-0.531002480944991,0.16006810462027787,-0.10579363972768187
1746475002009383000,2.0483828125,-0.532759553745389,0.16588263611793516,-0.17383695612326264
1746475002019379200,2.058379150390625,-0.41649464275538917,0.10848580142110585,-0.15584033085741103
1746475002029376000,2.0683759765625,-0.31062486905157566,0.09055442341119051,0.0012171207047998905
1746475002039372000,2.0783720703125,-0.0523018496453762,0.02978518967181444,-0.04073189642615616
1746475002049368000,2.0883681640625,0.21397125198245048,-0.07921440649032592,-0.09244308670200407
1746475002059365000,2.098365234375,0.23632453808784484,-0.023209318412840366,0.07582768666148185
1746475002069361000,2.10836083984375,0.2344043836802244,0.013712883532047271,0.18338833606168628
1746475002079357200,2.118357177734375,0.12515490441024302,-0.07444996856749057,0.1794562573097646
1746475002089353000,2.12835302734375,0.009112696260213852,-0.07000730994492768,0.09925072089023887
1746475002099350000,2.13835009765625,-0.09185644592046738,-0.007377543030679225,0.059952656659483905
1746475002109346000,2.148345947265625,-0.10550094039142131,-0.015211889918148517,0.03220255301184952
1746475002119342000,2.158342041015625,-0.060283496049046516,-0.04225625644922256,0.009017784518375992
1746475002129339000,2.1683388671875,-0.01785772825181484,-0.07193710896372794,-0.02546286949329078
1746475002139335200,2.178335205078125,-0.03414309262037277,-0.07863689886331558,-0.05855535708218813
1746475002149331200,2.188331298828125,-0.07980126646757126,-0.007101648698747158,-0.05338241142369807
1746475002159328000,2.198327880859375,-0.12947978187203407,0.06162029761075973,-0.09150105661153793
1746475002169324000,2.208323974609375,-0.15456336972415446,0.09953823259472847,-0.11240721264854073
1746475002179320000,2.218320068359375,-0.12590776860415934,0.07292144382596015,-0.12733005649223922
1746475002189316900,2.22831689453125,-0.011765256595611572,-0.00855856950879097,-0.0376510276760906
1746475002199313000,2.23831298828125,0.22235388040244577,-0.09525573296993971,0.05209142176508903
1746475002209309200,2.24830908203125,0.4499614435493946,-0.1272264499872923,0.15527202945016325
1746475002219305000,2.258304931640625,0.4523953926980495,-0.07443652456402779,0.19340704125091432
1746475002229302000,2.268302001953125,0.39770927826464175,-0.0970487538665533,0.132542749639228
1746475002239298000,2.278298095703125,0.3654723115265369,-0.1581760072633624,0.06026866380609572
1746475002249294000,2.288294189453125,0.3574626080721617,-0.20148820250630378,0.006460282055288553
1746475002259291000,2.298290771484375,0.2343172899186611,-0.15726415311545133,-0.014560294141620397
1746475002269287200,2.308287109375,0.08296645250022411,-0.11105652869194746,-0.013557912166044116
1746475002279283000,2.318282958984375,-0.055177112820744514,-0.0779322577252984,-0.01167538635507226
1746475002289280000,2.328280029296875,-0.1440314543157816,-0.002287964806705713,0.05395056670047343
1746475002299276000,2.338276123046875,-0.11750351287424564,0.09509455105885863,0.1558760597579181
1746475002309272000,2.34827197265625,-0.07661971382200718,0.10568404187336564,0.19147600012309848
1746475002319268900,2.358268798828125,-0.08618775263428688,0.05775690018087625,0.15624628130979834
1746475002329265200,2.36826513671875,-0.12616554275751113,0.014817776034027338,0.13540237685404719
1746475002339261000,2.378260986328125,-0.11207447356283665,-0.03321180311962962,0.14882920998632906
1746475002349258000,2.388258056640625,-0.07582184144258498,-0.06524681754484772,0.08692278891056776
1746475002359254000,2.39825390625,-0.005910685348510742,-0.0748302000567317,0.07483144216574728
1746475002369250000,2.40825,0.07391045486330985,-0.07350581958517431,0.03718289870768785
1746475002379246800,2.418246826171875,0.180168935623765,-0.08358692248612642,-0.012921148632466793
1746475002389243100,2.4282431640625,0.2542763743638992,-0.08348916120007634,-0.06318878903649747
1746475002399239200,2.4382392578125,0.18609891019463537,-0.10075111551582813,-0.09616627194359897
1746475002409236000,2.448236083984375,0.0655558834940195,-0.06878653597831726,-0.08196487424224615
1746475002419232300,2.458232177734375,-0.005219195953011513,0.02172448668256402,-0.12912066623605786
1746475002429228000,2.46822802734375,-0.04299567663967609,0.1366245390601456,-0.21425182248950003
1746475002439224000,2.47822412109375,-0.16890753689706325,0.16329130445048212,-0.2501106329865754
1746475002449221000,2.48822119140625,-0.2509615507274866,0.1658396737590432,-0.22505678268559276
1746475002459217200,2.498217041015625,-0.22138883476257323,0.17950287293046713,-0.11648761382997035
1746475002469213000,2.508212890625,-0.143182144010067,0.1974034174107015,-0.04650083521641791
1746475002479210200,2.518210205078125,-0.11476795043051242,0.2479743516102433,-0.10308386931233107
1746475002489206000,2.5282060546875,0.003465630283951759,0.0015825930163264274,0.12892865079529583
1746475002499202000,2.5382021484375,-0.25327742645442486,-0.14599778595268725,0.2899314789824188
1746475002509199000,2.54819921875,-0.4382172297418117,-0.07685746810063719,0.11097549934498965
1746475002519195100,2.558195068359375,-0.48166065014898773,-0.02445347325503826,-0.16693660215027628
1746475002529191000,2.56819091796875,-0.41789398815929885,-0.010620908866077661,-0.23326157032065092
1746475002539188200,2.578188232421875,-0.3393868531554937,0.04689809090569615,-0.12612959466129542
1746475002549184000,2.58818408203125,-0.3511602930575609,0.04177826367393136,0.00300232362113893
1746475002559180000,2.598179931640625,-0.38935587593913074,-0.03588964402675628,0.12812946324162183
1746475002569177000,2.608177001953125,-0.3635644320785999,-0.051970864125341174,0.19441753346771
1746475002579173000,2.618173095703125,-0.3061374945044517,0.01462006150484085,0.16053440695777535
1746475002589169200,2.628169189453125,-0.2527992875486612,0.08439721595570444,0.10509637817852198
1746475002599166200,2.638166259765625,-0.246766437125206,0.1648458404161036,0.05479176676496863
1746475002609162000,2.648161865234375,-0.11645312703847885,0.18619374887123702,-0.007509060455858707
1746475002619158000,2.658157958984375,0.16986498375236986,0.16599077266752718,0.03351977309025824
1746475002629154800,2.66815478515625,0.5765910966873169,0.022516659973561764,0.2284218021392822
1746475002639151000,2.678151123046875,0.8820745111972093,-0.14188567445874214,0.440379595407471
1746475002649147100,2.688147216796875,1.0411071352899075,-0.21308146353587507,0.5256228337332606
1746475002659144000,2.69814404296875,0.8999544512808323,-0.4452992969572544,0.7711804065253585
1746475002669140200,2.70814013671875,0.381009487876296,-0.3218754541233182,0.5905572243280709
1746475002679136000,2.718135986328125,-0.0265168355256319,-0.1169645836919546,0.14511062785461545
1746475002689133000,2.728133056640625,-0.17540040604770182,0.055077305708080525,-0.3234446031361818
1746475002699129000,2.738129150390625,-0.30607261257469653,0.12141820209994911,-0.5721585941325873
1746475002709125000,2.748125,-0.40343057852089403,0.09128434512093662,-0.5791680345032364
1746475002719121000,2.758120849609375,-0.5045055191636085,0.05539557787701487,-0.3816916249215603
1746475002729118200,2.7681181640625,-0.5614607475727796,0.012348901702463626,-0.1738766670791432
1746475002739114000,2.778114013671875,-0.5303337879031896,-0.025886428667604922,-0.006074862934276461
1746475002749110000,2.788110107421875,-0.42661797736287116,0.02072510038167238,0.11241466530263423
1746475002759107000,2.798107177734375,-0.17710370283424853,0.19557576359212397,0.21003124565239994
1746475002769103000,2.80810302734375,0.11145254227221012,0.29850451540797945,0.23631058262772855
1746475002779099000,2.818098876953125,0.425987862765789,0.2501249537728727,0.09321882031485437
1746475002789096200,2.82809619140625,0.7200327684164047,-0.13745119914263487,0.15640826693847776
1746475002799092000,2.838092041015625,0.4536252267539501,-0.3619011750414967,0.20090565337799487
1746475002809088000,2.848087890625,0.270254280218482,-0.24947876482382414,0.03627539194133132
1746475002819085000,2.8580849609375,0.3360305284649133,-0.03379164883419871,-0.24600422058105467
1746475002829081000,2.8680810546875,0.6845844384163617,0.08237579313069582,-0.29013460033908484
1746475002839077000,2.8780771484375,0.5379261427283287,-0.09885507263615727,-0.16244334585163742
1746475002849074200,2.88807421875,0.22386136235594747,-0.047498394886404276,-0.11572532422058283
1746475002859070000,2.898070068359375,0.034389176335930825,-0.1812977935232222,-0.1282074603812769
1746475002869066000,2.90806591796875,-0.1276350307881832,-0.216986946541816,0.007913220809958875
1746475002879063000,2.91806298828125,-0.3036772418707609,-0.073401044036448,0.07127184998802841
1746475002889059000,2.92805908203125,-0.3811895206183195,0.11875775071904063,0.06991776849795132
1746475002899055000,2.93805517578125,-0.4445283125847578,0.2984954553186893,0.018149404674768447
1746475002909051100,2.948051025390625,-0.5271715244799852,0.3853023627646267,-0.047002245399914676
1746475002919048200,2.958048095703125,-0.4557382733851671,0.3000428308911621,-0.02678860167171806
1746475002929044000,2.9680439453125,-0.35437399440705775,0.19649448587223886,-0.062479690919071434
1746475002939040300,2.978040283203125,-0.08538812668919563,0.04052066482827067,-0.07993216283824295
1746475002949037000,2.988037109375,0.3326502383768558,-0.3485321365110576,0.06191025700066238
1746475002959033000,2.998033203125,0.43215398418009277,-0.38742841500788927,-0.03937558644637465
1746475002969029000,3.008029052734375,0.4404091868281364,-0.21746070153340696,-0.1520719912998378
1746475002979026200,3.018026123046875,0.24038404261171817,-0.023068887028843164,-0.19330474992021918
1746475002989022000,3.02802197265625,0.07595920408666133,0.03821910988762975,-0.14548150699362158
1746475002999018200,3.038018310546875,0.02836684730648994,-0.010333616357296705,-0.039851752590760584
1746475003009015000,3.04801513671875,0.0042144028246402735,-0.10014087466299533,0.06597118629664182
1746475003019011000,3.058010986328125,-0.027747254103422162,-0.13812851388230918,0.0748626410216093
1746475003029007000,3.068007080078125,-0.1019376949518919,-0.12012582420185208,0.026517858438938856
1746475003039004200,3.078004150390625,-0.22085399723351,-0.08858706886097788,-0.09712678753882646
1746475003049000000,3.088,-0.35629999403357504,-0.03471884668171406,-0.2769847575172782
1746475003058996000,3.097995849609375,-0.3299894947350025,0.05466609455868601,-0.42504831689335404
1746475003068993000,3.107992919921875,-0.04851356327831745,0.10878843762949109,-0.4019703697752207
1746475003078989000,3.117989013671875,0.35603286752998825,0.16342326026707887,-0.14384228841923177
1746475003088985000,3.127985107421875,0.5568471162974834,0.23747823816761374,0.20089980815909803
1746475003098982100,3.137982177734375,0.7600637500315904,0.11733020213395357,0.4185666267238557
1746475003108978000,3.14797802734375,0.5588076027154922,-0.016746552139520643,0.6917920317076146
1746475003118974000,3.157973876953125,0.14053893602490425,-0.0300745280072093,0.5971744505107403
1746475003128970200,3.16797021484375,0.033201427856087685,-0.10736600361093879,0.24027079149559138
1746475003138967000,3.177967041015625,0.06669394761323928,-0.13341478323340414,-0.03533310612253845
1746475003148963000,3.187963134765625,0.015651158118247986,-0.1670860205583274,-0.10110153638869523
1746475003158959000,3.197958984375,-0.09540566283464431,-0.16712532965540886,-0.03153970518894494
1746475003168956200,3.2079560546875,-0.3101648503243923,-0.12402853072881698,0.10926314246915281
1746475003178952000,3.217951904296875,-0.532087938094139,-0.05521627578735351,0.22708989594839513
1746475003188948200,3.2279482421875,-0.6820721633344888,0.06890870105326176,0.2592696526065469
1746475003198945000,3.237945068359375,-0.7123153259068727,0.19363178991749883,0.20633710384219883
1746475003208941000,3.247941162109375,-0.6097358259201049,0.22152137510105965,0.0797752552434802
1746475003218937000,3.25793701171875,-0.4446405407875776,0.2778400591723621,-0.04350771781504154
1746475003228934100,3.26793408203125,-0.11344985356926918,0.29098274160102006,-0.07386573893874883
1746475003238930000,3.277929931640625,0.3592372165292501,-0.1961357355624437,0.2303949288431555
1746475003248926200,3.28792626953125,0.36886604561805725,-0.2828236928038299,0.1524507614843547
1746475003258922000,3.297921875,0.4092880723774433,-0.34550139051303264,-0.054047597334161396
1746475003268919000,3.3079189453125,0.27595746029615403,-0.3059443100199103,-0.1996744310826063
1746475003278915000,3.3179150390625,-0.015671616384387015,-0.09399082760065794,-0.3062184507861733
1746475003288911000,3.3279111328125,-0.2792179233968258,0.25370763456523415,-0.3988227924644947
1746475003298908000,3.337907958984375,-0.36106150934696196,0.28356062877625227,-0.34755306234583255
1746475003308904200,3.347904296875,-0.28907939219772816,0.12639102207645772,-0.08630918705686927
1746475003318900200,3.357900146484375,-0.0819774414628744,0.0293413914270699,0.11600677151046693
1746475003328897000,3.36789697265625,0.10759002162516117,-0.09739186821579933,0.14578187817968427
1746475003338893000,3.37789306640625,-0.06344166781902313,-0.18406828114986418,0.03344802302829921
1746475003348889000,3.38788916015625,-0.09545242458581923,-0.09980521296784281,-0.17488427321910857
1746475003358886000,3.397885986328125,-0.11226093604564666,-0.09008768268227577,-0.09876622530892491
1746475003368882200,3.407882080078125,-0.12627894000411033,-0.0916426570393145,0.006710530489310622
1746475003378878200,3.417878173828125,-0.1465881530612707,-0.03765650756880641,0.0359936889231205
1746475003388875000,3.427875,-0.20316753389537334,-0.012935761679708956,0.023712884020805357
1746475003398871300,3.437871337890625,-0.25533318994045257,0.03486453876271844,-0.0031983576498925683
1746475003408867000,3.4478671875,-0.2745592839360237,0.07292831195816397,0.05294577357210219
1746475003418863000,3.457863037109375,-0.2784855174690485,0.07707432572171091,0.09687537006102502
1746475003428860200,3.467860107421875,-0.23970541269779205,0.03734071961790323,0.13303221365660428
1746475003438856200,3.477856201171875,-0.17389233957231043,0.0019457272402942179,0.13174020108468829
1746475003448852000,3.48785205078125,-0.15109481683075426,-0.004056435783952475,0.0819126325983554
1746475003458849300,3.497849365234375,-0.1772439880877733,0.01844356531575322,0.09003310295082628
1746475003468845000,3.507844970703125,-0.10118132362663745,0.041135435725748536,0.20009857477881013
1746475003478841000,3.517841064453125,0.12273907544016838,0.04869081954136491,0.2713661869831383
1746475003488838100,3.527838134765625,0.3213023304104805,0.11614610691592096,0.26211437451317904
1746475003498834200,3.537834228515625,0.6162012225419282,0.33067499278113244,0.17554449069350958
1746475003508830000,3.547829833984375,0.3807990599960088,0.22088599980697035,-0.023780323233827946
1746475003518827000,3.557826904296875,0.16519173124432562,-0.007787439005821943,-0.28459742447808384
1746475003528823000,3.567822998046875,0.08430091597437858,-0.17119813205227255,-0.2751367184977978
1746475003538819000,3.577819091796875,-0.2112783596366644,-0.08838087876439094,-0.15330065631195902
1746475003548815000,3.587815185546875,-0.4868517890512943,0.05751359294429421,0.05165595295727252
1746475003558812200,3.597812255859375,-0.5256055903375149,0.16971563840955495,0.3654566755659878
1746475003568808200,3.60780810546875,-0.3508335453212261,0.3008651070594787,0.5572445911824703
1746475003578804000,3.617803955078125,-0.2572054135531187,0.38807431169599294,0.47247145458646117
1746475003588801000,3.627801025390625,-0.08934826249182223,0.4828048517480492,0.34420981633253395
1746475003598797000,3.637797119140625,0.35200784979760646,0.42367461738735435,0.33106932586096227
1746475003608793000,3.64779296875,0.6242623639225959,0.23687223509848115,0.47800117779336865
1746475003618790100,3.6577900390625,1.1110387496501206,-0.054224049879610534,0.3940292745776474
1746475003628786200,3.6677861328125,1.5382634607344865,-0.33296909506767985,0.11001958685964346
1746475003638782000,3.677781982421875,1.1742775883734224,-0.36077041744589805,-0.4119437014527619
1746475003648778000,3.687778076171875,0.5091629895806312,-0.30556261722594497,-0.7476815305814146
1746475003658775000,3.697775146484375,0.017444471275806426,-0.1876134064108133,-0.7729587413094937
1746475003668771000,3.70777099609375,-0.31719197248220443,-0.09301263021826743,-0.5102014657828956
1746475003678766800,3.717766845703125,-0.5802075336188077,-0.030145255155861375,-0.18011859367601574
1746475003688764200,3.72776416015625,-0.6608528496950864,-0.018696809424459934,-0.014922478517517447
1746475003698759700,3.737759765625,-0.47952422264218325,-0.03196925571262836,0.013049378122016786
1746475003708756000,3.747755859375,-0.25181729077398773,-0.04755523964017629,-0.07085698557682335
1746475003718752800,3.757752685546875,-0.4185948299050331,-0.17274784571230412,-0.303010813851282
1746475003728748800,3.767748779296875,-0.4654027583092451,-0.3349535468831658,-0.44445868141464884
1746475003738745000,3.7777451171875,-0.3203928143501282,-0.4934218150913715,-0.353460167497769
1746475003748740900,3.787740966796875,-0.30715748520195485,-0.35307021833211183,-0.10819251756295561
1746475003758738000,3.797738037109375,-0.20011691415309904,-0.14271657232493162,0.075244114619866
1746475003768734000,3.80773388671875,-0.03369067267775536,-0.04594371279031038,0.05864537345319986
1746475003778730000,3.81772998046875,0.06285363879799842,-0.05160831442326307,-0.07494666604325174
1746475003788726800,3.827726806640625,0.06759469584524631,-0.04442074100673198,-0.2703195274744183
1746475003798723000,3.83772314453125,0.1633890657365322,0.035000293971598144,-0.40369799728542566
1746475003808718800,3.84771875,0.30733576437830923,0.12970569958239794,-0.38055677567273377
1746475003818716000,3.8577158203125,0.5627297445952892,0.15272563290297983,-0.23253062569759786
1746475003828712000,3.8677119140625,0.7533107686400413,0.12227701088637113,-0.1252627486988902
1746475003838708000,3.8777080078125,0.738443454375863,0.051344402790069577,-0.09393339832499623
1746475003848703700,3.887703857421875,0.5225625693798065,0.041622634720802305,-0.035899288637936115
1746475003858701000,3.897701171875,0.10136720158755778,0.09495675002336501,0.03872136032134294
1746475003868696800,3.90769677734375,-0.35887013678252694,0.14843801871165632,0.15891681569330393
1746475003878692900,3.91769287109375,-0.676286565670371,0.12824264129251242,0.3401083723630756
1746475003888690000,3.92768994140625,-0.704957364359498,0.06862608471959829,0.4664101817861199
1746475003898686000,3.93768603515625,-0.5761567969232797,0.09698211837112904,0.5790307449243962
1746475003908682000,3.947681884765625,-0.3359761679291725,0.17287147209197282,0.4733595625326037
1746475003918679000,3.957678955078125,-0.11340016920864582,0.29989421620070933,0.2328354538630694
1746475003928674800,3.9676748046875,-0.18764146346151828,0.5814166171476245,0.26743688471019267
1746475003938670800,3.9776708984375,-0.23036183029115198,0.03399842345267534,-0.1872358052700758
1746475003948667000,3.9876669921875,0.11003507668972015,-0.1668865524634719,-0.5172764456704259
1746475003958664000,3.997663818359375,0.29368250207901,-0.16879560095518825,-0.5505944125782698
1746475003968660000,4.007659912109375,0.3525415182828903,-0.15346972926855088,-0.4851109367333352
1746475003978655700,4.01765576171875,0.4404617937982082,-0.12235592134147882,-0.3423112161695957
1746475003988653000,4.027653076171875,0.4931459207594394,-0.04671732751131057,-0.22871961604207752
1746475003998648800,4.03764892578125,0.46824937991201876,0.02985357873290777,-0.09605930443778633
1746475004008644900,4.047644775390625,0.4068897790640592,0.12523001547306775,0.105293581251055
1746475004018641000,4.057640869140625,0.27117665576040745,0.1410664670303464,0.2739901057459414
1746475004028638000,4.067637939453125,-0.03242459826469421,-0.027899522055685518,0.4294910485811531
1746475004038633700,4.0776337890625,-0.33719431154727936,-0.22048399487733839,0.6699994482249021
1746475004048630000,4.087630126953125,-0.5325163926392793,-0.47779666819721456,0.824456581095606
1746475004058626800,4.097626708984375,-0.4543523719847202,-0.4322831635177135,0.6807131499409675
1746475004068622800,4.107622802734375,-0.10881868663728236,-0.22731471768021583,0.16679375961348414
1746475004078619000,4.117618896484375,0.011308744999766349,-0.09486322652101516,-0.18663944681212305
1746475004088616000,4.127615966796875,0.039973113948106764,-0.017613105840981004,-0.19560528194755314
1746475004098611700,4.13761181640625,0.2116834333062172,-0.05345481907278299,-0.04233049072921276
1746475004108608000,4.14760791015625,0.38926001434922214,-0.11325140838772058,0.22647242163717746
1746475004118604000,4.15760400390625,0.4244236821889877,-0.1528779008552432,0.4567670319110155
1746475004128600800,4.167600830078125,0.3767746267855167,-0.14119126245379446,0.5311043338842689
1746475004138597000,4.17759716796875,0.2901011364609003,-0.10328414112478494,0.3598500877305865
1746475004148593000,4.187593017578125,0.14688976635634898,0.0038411855980753896,0.10904884213134645
1746475004158590000,4.19758984375,-0.09587678747773169,0.13287147013694048,-0.04477905292510986
1746475004168586000,4.2075859375,-0.3100070294141769,0.2898787258818745,-0.11868980004936457
1746475004178582000,4.21758203125,-0.36258301982581614,0.36940088314712044,-0.15191417038962243
1746475004188577800,4.227577880859375,-0.34330782599151133,0.40835196057111023,-0.12419599625021219
1746475004198575000,4.2375751953125,-0.12970657636523247,0.21724048291146755,-0.04152523876093328
1746475004208571000,4.24757080078125,0.20989479632377622,-0.33699235923439264,-0.05934482695944607
1746475004218567000,4.25756689453125,0.4388561121672392,-0.37239977270215746,-0.10642996486984192
1746475004228564000,4.26756396484375,0.3354974445015192,-0.12587678894400595,-0.12907200478874145
1746475004238560000,4.27756005859375,0.10778642098009586,-0.025049977843463418,-0.06792977301850915
1746475004248555800,4.2875556640625,0.03307458660602569,-0.05113046777844429,0.04126541878096759
1746475004258553000,4.297552978515625,0.12221008313000202,-0.04587240111976862,0.06679631200917065
1746475004268548900,4.307548828125,0.23326047434210775,-0.08032032190561295,0.01503470672033727
1746475004278545000,4.317544921875,0.294769712793827,-0.09440759170800447,0.021405703056976196
1746475004288541000,4.327541015625,0.25335166073441506,-0.09761895496994256,0.09535261747315525
1746475004298538000,4.3375380859375,0.13185060265660284,-0.0791346192523837,0.1509964710228145
1746475004308534000,4.347533935546875,-0.025799042645096776,-0.026478841602802276,0.1757235735874623
1746475004318529800,4.35752978515625,-0.22994389714002608,-0.014232377361506223,0.12066847971118985
1746475004328526800,4.36752685546875,-0.35953181556165215,-0.010853548578172922,0.041664647231623525
1746475004338523000,4.37752294921875,-0.40247488523125646,0.027807021466642618,-0.06955065221861004
1746475004348519000,4.387518798828125,-0.44916941638886926,0.05878375901058316,-0.10160407908335327
1746475004358515000,4.397514892578125,-0.5001975928366184,0.08058145705983043,-0.07653897673599422
1746475004368512000,4.407511962890625,-0.4977034379333257,0.1287900460422039,-0.00848594266399741
1746475004378507800,4.4175078125,-0.41007659240663047,0.163426767398417,0.08230565050393343
1746475004388504000,4.427504150390625,-0.23574819950461387,0.15412906996011733,0.138818468907848
1746475004398500900,4.4375009765625,-0.06827507932484149,0.11746128116771579,0.14299012856930493
1746475004408497000,4.447496826171875,0.21975801869034767,0.14264321482777595,0.09752908472940325
1746475004418492700,4.45749267578125,0.5589765295416116,0.013753507803380489,0.06310615225434303
1746475004428490000,4.467489990234375,0.5298924738764763,-0.1920857295192778,0.2333694876745343
1746475004438485800,4.47748583984375,0.3012076368868351,-0.23112039357349276,0.18223587809093295
1746475004448481800,4.487481689453125,0.1166857667505741,-0.29156258731558915,0.032297099427506325
1746475004458478000,4.49747802734375,0.01087561427950859,-0.25608371604681013,0.041045930811390276
1746475004468475000,4.507474853515625,-0.1254781450152397,-0.11852861813828348,0.13578582321368157
1746475004478471000,4.517470947265625,-0.24328268666267394,0.0291300867639482,0.1880629037439823
1746475004488467000,4.527467041015625,-0.32295477379262444,0.09476093519032001,0.2355884058330208
1746475004498463700,4.537463623046875,-0.3567939150303602,0.07435863702222704,0.2426735417883843
1746475004508459800,4.547459716796875,-0.31859774762690063,-0.020751403866708276,0.21955124407187102
1746475004518456000,4.5574560546875,-0.22355390384197235,-0.08391045535206794,0.22004677250385282
1746475004528451800,4.567451904296875,-0.12158464470803737,-0.037152065178006885,0.20996428136341272
1746475004538449000,4.577448974609375,-0.035005262407660484,0.06639014236107468,0.07518306861501187
1746475004548445000,4.58744482421875,-0.025738836890459058,0.1513077289290726,-0.1924212450839579
1746475004558441000,4.59744091796875,0.020110475614666938,0.20591537129878998,-0.3941562984907999
1746475004568437800,4.607437744140625,0.11675766294300556,0.17022607214972377,-0.4445110326563939
1746475004578434000,4.61743408203125,0.26700726112127304,0.0479839864462614,-0.3597883476059884
1746475004588429800,4.627429931640625,0.34750644672513004,-0.07372749951183795,-0.17600136761553584
1746475004598425900,4.63742578125,0.3599848200261593,-0.11878025481179356,-0.024792203690111637
1746475004608423000,4.6474228515625,0.30558336775302886,-0.10225289838090539,0.012257131765782832
1746475004618419000,4.6574189453125,0.20231354741454124,-0.08708601664826274,-0.06825177151449024
1746475004628415000,4.6674150390625,0.11252397089600562,-0.05452171765193343,-0.14496478964313864
1746475004638412000,4.677412109375,-0.006098316875100135,-0.02633899474069476,-0.17086714653223753
1746475004648408000,4.687407958984375,-0.13834697893857956,-0.0007397124513983726,-0.08113050577733666
1746475004658403800,4.69740380859375,-0.22175357642173765,0.01015109939724207,0.034782778763398525
1746475004668399900,4.70739990234375,-0.26573417244553565,-0.05356207883954048,0.08440828533899039
1746475004678397000,4.71739697265625,-0.2757014397084713,-0.10256722502708435,0.07271255031563341
1746475004688393000,4.72739306640625,-0.2904413282006979,-0.08222571713551878,0.06729973148666323
1746475004698389500,4.737389404296875,-0.3524865732252598,0.02383124970346689,0.06918945422340184
1746475004708386300,4.74738623046875,-0.3766501236230135,0.14366963526606558,0.056920887748152016
1746475004718382300,4.75738232421875,-0.33664135383963584,0.18632643534019588,0.005890007886663079
1746475004728378400,4.76737841796875,-0.21050854430794716,0.15993965593501924,-0.017303382304683326
1746475004738374400,4.77737451171875,-0.030334347987174985,0.10953764856159687,0.07138944848570972
1746475004748371500,4.787371337890625,0.04426175105273723,0.07150105563402176,0.14516327135730533
1746475004758367200,4.7973671875,0.05559855310320854,0.07627382299378514,0.21025190266575663
1746475004768363500,4.807363525390625,0.03728255968987942,0.0913463044412434,0.20704875924289226
1746475004778360300,4.8173603515625,-0.06882745251059531,0.10780848668143153,0.13111859858762473
1746475004788356400,4.8273564453125,-0.1401613348841667,0.0993156758852303,0.07353073483072221
1746475004798352400,4.837352294921875,-0.12794248930215835,0.07766907674446702,-0.004960325821116566
1746475004808348400,4.847348388671875,-0.020934651479125023,0.06849836668670177,-0.05638926508948207
1746475004818345200,4.85734521484375,0.11062193666696547,0.02822977692335844,-0.0341109073838219
1746475004828341500,4.867341552734375,0.2273071188956499,-0.010800503216683865,0.04210084669180214
1746475004838337500,4.877337646484375,0.3155418671876192,-0.025970892080664634,0.10613638875074684
1746475004848334300,4.887334228515625,0.3250701585114002,-0.018272738793492317,0.14479615507796406
1746475004858330400,4.897330322265625,0.22945289875268934,-0.028338790255784986,0.1269700640734285
1746475004868326400,4.907326416015625,0.06125789403915405,-0.042780572584271426,0.0186992936424911
1746475004878322400,4.917322509765625,-0.06856558670401573,-0.052744332715868945,-0.10951477914266287
1746475004888319500,4.927319580078125,-0.12147066293954849,-0.0005979658931493759,-0.15065087245553732
1746475004898315500,4.9373154296875,-0.08058861745297909,0.024750410374999046,-0.11007197463400661
1746475004908311300,4.947311279296875,-0.016588731229305265,0.02898614824861288,-0.02663408696344122
1746475004918308600,4.95730859375,0.004568623089790344,0.030672493900358675,0.11027829259475692
1746475004928304400,4.967304443359375,0.07171732873320578,0.027492987081408498,0.18342866807207464
1746475004938300400,4.977300537109375,0.14700082551538943,0.004850070379674434,0.1517024638677016
1746475004948296200,4.987296142578125,0.16452537629008293,0.005799041667580604,0.020426427962351588
1746475004958293500,4.99729345703125,0.1284668054372072,0.020506196933984755,-0.06908045915728435
1746475004968289300,5.007289306640625,0.07147884380221367,0.03034720746874809,-0.10882489718236028
1746475004978285300,5.017285400390625,0.01326630880832672,0.02703501418083906,-0.12012810749048367
1746475004988282400,5.027282470703125,-0.010461188259720802,0.03914806130081415,-0.08922936708619818
1746475004998278400,5.0372783203125,0.09088029436469078,0.1012815691307187,-0.03159720752984285
1746475005008274400,5.0472744140625,0.19950784234404562,0.007087912434339523,-0.05953119811071082
1746475005018270500,5.0572705078125,0.142077982160449,-0.07245148822665214,-0.10120211068633943
1746475005028267300,5.067267333984375,0.13620645977854728,0.04215396511852741,-0.0910043043368496
1746475005038263300,5.07726318359375,-0.022111878564953804,-0.043675183336436746,-0.0032095914299599825
1746475005048259600,5.087259521484375,-0.17144377737641334,-0.15061930827349423,0.19677733966792002
1746475005058256400,5.09725634765625,-0.2886503531306982,-0.13282003221064806,0.35102841030620036
1746475005068252400,5.10725244140625,-0.35030046135783194,-0.076472706566751,0.3823169537456706
1746475005078248400,5.11724853515625,-0.33468262098729606,0.008204349243640899,0.40481816042177377
1746475005088244500,5.127244384765625,-0.1568354063093662,0.10450549961328506,0.47329818773418664
1746475005098241300,5.1372412109375,0.09755787243247031,0.12396803271323442,0.49228908473439514
1746475005108237600,5.147237548828125,0.1883551646888256,0.14471855979710815,0.29786552338469774
1746475005118233300,5.1572333984375,-0.03141688252687454,0.17311550998091696,-0.141044492660556
1746475005128229400,5.1672294921875,-0.2667822201937437,0.19874387223422527,-0.41293147038109596
1746475005138226400,5.177226318359375,-0.3181716311693191,0.14377251111865041,-0.4209046412173658
1746475005148222500,5.187222412109375,-0.24015374098718165,0.0676060940220952,-0.3101044253740459
1746475005158218500,5.197218505859375,-0.04152618860900402,-0.05599748929291963,-0.0932854740765877
1746475005168215600,5.207215576171875,0.18824878170490264,-0.1827931466475129,0.09816084329430014
1746475005178211300,5.21721142578125,0.48108431156575676,-0.23795856903046367,0.23043891411535442
1746475005188207400,5.227207275390625,0.6544774694442749,-0.20486498546302317,0.22356995992762968
1746475005198203400,5.237203369140625,0.6108177759379149,-0.1516992124646902,0.05349742523864843
1746475005208200400,5.247200439453125,0.4038169474899769,-0.1269058397307992,-0.25541188119985164
1746475005218196500,5.257196533203125,0.23424948537945747,-0.22553601756989955,-0.5914063154380769
1746475005228192300,5.267192138671875,-0.36036475925445555,-0.21348785237967965,-0.544641422457993
1746475005238189600,5.277189453125,-0.5431961920857429,-0.06960895827710628,-0.3701661318985745
1746475005248185300,5.287185302734375,-0.7567085943847894,-0.26190263145864007,-0.23034887947803362
1746475005258181400,5.297181396484375,-0.9018301820248364,-0.40097383301854134,-0.13062849524943157
1746475005268177400,5.307177490234375,-0.9398954165250062,-0.18762188197821378,-0.06372011943422258
1746475005278174500,5.317174560546875,-0.6961760920107364,0.016009762297570704,0.00011120528951287269
1746475005288170200,5.327170166015625,-0.3073240739405155,0.014302373857796192,0.04394431913401931
1746475005298166500,5.33716650390625,-0.006650690060853958,-0.09780600197464227,-0.06802857548417524
1746475005308163300,5.347163330078125,0.22057284220457077,-0.18489917901605366,-0.22068879673443734
1746475005318159400,5.357159423828125,0.38116906235218045,-0.1336553139910102,-0.30011417909432203
1746475005328155400,5.3671552734375,0.32576632408201694,-0.04984305831640958,-0.2610575224040076
1746475005338151400,5.3771513671875,0.17352876695692537,0.004563070131838321,-0.10008837729077785
1746475005348148200,5.387148193359375,0.11359949117302894,0.0539186371922493,0.11599361976794897
1746475005358144500,5.39714453125,0.05696107362806797,0.10754647474437952,0.2396823240831494
1746475005368140500,5.407140625,0.02929506806731224,0.22637656004726886,0.30461466885134575
1746475005378136300,5.41713623046875,0.10497077903747558,0.38008272842019797,0.3146307802246883
1746475005388133600,5.427133544921875,0.25584347755014897,0.5232438296422361,0.2839570442153141
1746475005398129400,5.43712939453125,0.3204167797476053,0.6135685359507799,0.2477311905041337
1746475005408125400,5.44712548828125,0.3384755835294723,0.5743453635871411,0.24345095590166746
1746475005418122500,5.45712255859375,0.3749070793479681,-0.02219049675911665,0.09910119288433343
1746475005428118500,5.467118408203125,0.6095201373428106,-0.34656536648273467,-0.07142682135403156
1746475005438114300,5.4771142578125,0.4307441173821687,-0.49137452717274427,-0.05626220464371144
1746475005448110300,5.4871103515625,0.05662205093204975,-0.3203086431980133,-0.04545187415275723
1746475005458107400,5.497107421875,-0.21047698012590407,-0.14019085323959588,0.004432612152583897
1746475005468103400,5.507103515625,-0.39190263781249524,-0.06772241387814283,0.1447937804577872
1746475005478099500,5.517099365234375,-0.5059259073555469,-0.00782177966684103,0.15939108214154837
1746475005488096500,5.527096435546875,-0.5141594826936722,0.00940378816127777,0.04837853872179985
1746475005498092300,5.53709228515625,-0.4665992746174335,-0.05645955384671688,-0.046194436148367816
1746475005508088300,5.54708837890625,-0.4547580301761627,-0.1388940914273262,-0.146437492544204
1746475005518084600,5.557084716796875,-0.4097001603096723,-0.1259931088000536,-0.186846331028454
1746475005528081400,5.567081298828125,-0.28049919537901874,-0.05574497583657503,-0.12259707315359264
1746475005538077400,5.577077392578125,-0.08480769645273685,0.01647358041703701,-0.03771302352901548
1746475005548073500,5.587073486328125,0.0312923793643713,0.06676672058850526,0.06805730838831514
1746475005558070500,5.597070556640625,0.0847837310552597,0.11078326470851897,0.15894574952684343
1746475005568066300,5.60706640625,0.23182021240592002,0.14726853654086589,0.20461974199768154
1746475005578062300,5.617062255859375,0.4080161527454853,0.15695026486068964,0.2094517287313938
1746475005588058400,5.627058349609375,0.5794774657785892,0.1268047174438834,0.19315482005551457
1746475005598055400,5.637055419921875,0.6069125851929188,0.04792874912768602,0.13275599053110926
1746475005608051200,5.64705126953125,0.5240583608955145,-0.017833178332448005,0.07383359023481607
1746475005618047500,5.657047607421875,0.4233820641815662,-0.020903379558026788,0.018683401953615248
1746475005628043500,5.66704345703125,0.23370938715338704,-0.0034866730719804763,0.002520093062147498
1746475005638040300,5.677040283203125,-0.03289689195156097,0.01643178710192442,-0.024802250160090623
1746475005648036400,5.687036376953125,-0.2902577883273363,0.09059533994346856,-0.013136325753107666
1746475005658032400,5.697032470703125,-0.40637481527924535,0.0981315806671977,-0.04297890816796571
1746475005668029200,5.707029296875,-0.3490817332178354,0.023282968170940874,-0.0657219973085448
1746475005678025500,5.717025390625,-0.1812578999042511,-0.07920037796497345,-0.02760269453357905
1746475005688021500,5.727021484375,0.015855740779638288,-0.15768033270090817,0.007078487018868327
1746475005698017000,5.73701708984375,0.1526362010538578,-0.15290946503728628,0.012837927328422665
1746475005708014000,5.74701416015625,0.17797464044988154,-0.11905687979608774,-0.036861923125013706
1746475005718009900,5.757009765625,0.10276830055713652,-0.07331979549378156,-0.09475333640575409
1746475005728006100,5.767006103515625,-0.03556055820286274,-0.024965222169458866,-0.07949497699737548
1746475005738003000,5.7770029296875,-0.18349837230741978,0.06045329965800047,-0.04061239823233336
1746475005747999000,5.7869990234375,-0.2841898665904999,0.11641922476887702,0.009827931857481598
1746475005757995000,5.7969951171875,-0.26483810038864614,0.1252431672155857,0.03912932006772607
1746475005767991000,5.806990966796875,-0.20717150883972643,0.07870411888062953,0.047327458766289056
1746475005777987800,5.81698779296875,-0.09918518137335777,0.0253927999317646,0.07062357867974788
1746475005787984100,5.826984130859375,0.058440498530864714,-0.030652035634219643,0.07281560883130878
1746475005797980200,5.836980224609375,0.24602117171585558,-0.06538403405845165,0.07282781072575599
1746475005807977000,5.84697705078125,0.3585071486890316,-0.06217793149352073,0.016327815270796416
1746475005817973200,5.85697314453125,0.3612701836615801,-0.058955754576623436,-0.05614018569923937
1746475005827969000,5.866968994140625,0.3053893064856529,-0.06874182005375623,-0.1027910238455981
1746475005837965000,5.876965087890625,0.1970212862253189,-0.06243599790781736,-0.0879748552467674
1746475005847962000,5.886962158203125,0.0670031596928835,-0.02832563851326704,-0.03601834844034165
1746475005857958100,5.896958251953125,-0.07370294959247112,0.010647358481585979,0.03324143107291311
1746475005867954000,5.906953857421875,-0.16038170061409474,0.044696635338664054,0.08102404972817748
1746475005877951200,5.916951171875,-0.19591478628814218,0.03180588184446096,0.1256057534502819
1746475005887947000,5.926947021484375,-0.11738193232119083,0.01158756194114685,0.13687997512593864
1746475005897943000,5.936943115234375,-0.051173722398281093,0.011195055492222309,0.07593878235314042
1746475005907939000,5.94693896484375,-0.03054068421423435,-0.03610679390877485,0.025856873779557643
1746475005917936000,5.95693603515625,-0.08724749082028865,-0.053579322235286234,-0.012031214055418968
1746475005927932000,5.966931884765625,-0.14337386718988418,-0.005425532180070877,-0.012268420344777405
1746475005937928000,5.976927978515625,-0.1108165824562311,0.03672258771955967,-0.017346527326665816
1746475005947925000,5.986925048828125,-0.060600306913256644,0.034923721604049204,-0.05196110991630703
1746475005957921000,5.996921142578125,-0.0011047463715076445,-0.0032230536997318268,-0.07020009257066995
1746475005967917000,6.0069169921875,0.0390349563151598,-0.022689678452908993,-0.0411891752069816
1746475005977913000,6.0169130859375,-0.021594576692581177,-0.010978490132093429,0.01732939352877438
1746475005987910100,6.02691015625,-0.11223697064816951,0.07701397383660077,0.046332858238369225
1746475005997906000,6.036906005859375,-0.17304478283226488,0.12893529973179102,0.04900784960128367
1746475006007902200,6.046902099609375,-0.1830699177622795,0.13299538877755404,0.019053806168586016
1746475006017898000,6.05689794921875,-0.18109306473135947,0.08912731321752071,-0.0051758682679384944
1746475006027895000,6.06689501953125,-0.19450141235888002,0.06355535732656717,-0.03023081454746425
1746475006037891000,6.07689111328125,-0.2202221290707588,0.04235533290952444,-0.05979739303253591
1746475006047887000,6.08688720703125,-0.17771394368708132,0.031766718877851964,-0.04413651723787188
1746475006057884000,6.0968837890625,-0.12215221546292304,0.035740298683941366,0.0066374652530997984
1746475006067880200,6.106880126953125,-0.09785831668376922,0.015623685589432716,0.03338620983846485
1746475006077876000,6.1168759765625,-0.1375473529934883,-0.022076807251572607,0.013655381191149353
1746475006087872000,6.1268720703125,-0.13214870882034302,-0.04820055180639028,0.018873992622271178
1746475006097868800,6.136868896484375,-0.07540390829145908,-0.038843233135342596,0.04494191533662378
1746475006107865000,6.146864990234375,-0.037328736919164655,-0.0068175710603594775,0.06317432211972773
1746475006117861000,6.156861083984375,0.03408288686573505,0.005443944619596004,0.04683255138881504
1746475006127858000,6.16685791015625,0.13026771737933157,-0.02530833651870489,0.07296447925008832
1746475006137854200,6.176854248046875,0.1944897219210863,-0.04373918848335743,0.0583593961186707
1746475006147850000,6.18685009765625,0.1538771410256624,-0.05286503648608923,0.023971900283172726
1746475006157846000,6.196845947265625,0.10729600711464882,-0.03725625620484352,0.053329877518862485
1746475006167843000,6.206843017578125,0.0883387931883335,0.02473199793547392,0.08151654595285654
1746475006177839000,6.216839111328125,0.08189210126698017,0.055235857270658016,0.10088920881226658
1746475006187835000,6.2268349609375,0.12982640335261822,0.04718026884794235,0.05675123026967048
1746475006197832200,6.236832275390625,0.2652963655501604,0.002802490200102329,0.003481850766390562
1746475006207828000,6.246827880859375,0.400515567857027,-0.06213409235179424,0.0027666151691228148
1746475006217824000,6.256823974609375,0.4611819257438183,-0.0835091810747981,0.013881298901513218
1746475006227820000,6.266820068359375,0.39811785906553265,-0.056443771755695336,0.05612403828203678
1746475006237817000,6.276817138671875,0.273952550214529,0.008026362328231335,0.09633081485554576
1746475006247812900,6.286812744140625,0.11959727028310298,0.07782236761003732,0.006729746646434069
1746475006257809000,6.296808837890625,0.18082009300887583,0.12761457252204417,-0.171589907848835
1746475006267806000,6.306805908203125,0.2738309696614742,-0.03564122222363949,-0.0244375450335443
1746475006277802000,6.316802001953125,0.06018763445913791,-0.16597440605461597,0.17641404006965458
1746475006287798000,6.326798095703125,-0.19607552980780601,-0.15418196919113397,0.06608714082650839
1746475006297794000,6.3367939453125,-0.4425917915642261,-0.05313683916479349,0.0006269727919250727
1746475006307791000,6.346791015625,-0.5707984847605229,0.05664864667803049,0.04545936333946883
1746475006317787000,6.356786865234375,-0.594202156701684,0.0811909672603011,0.037019670969992875
1746475006327783200,6.366783203125,-0.5222089336365461,0.02805617392212152,-0.0016002748034894465
1746475006337780000,6.376780029296875,-0.38328736968040467,-0.07639087350219488,-0.007416925192996859
1746475006347776000,6.38677587890625,-0.24940087728202343,-0.11830986082106829,-0.010125818825513123
1746475006357772000,6.39677197265625,-0.11909165884852409,-0.08962415682375431,0.01144289277344942
1746475006367768000,6.40676806640625,-0.038896424627304076,-0.027855682913959026,0.05040734113566577
1746475006377764900,6.416764892578125,-0.008832125753164291,0.009995616574585437,0.05633132435716688
1746475006387761200,6.42676123046875,0.03664659987390041,0.034003976410627364,0.07133242106884717
1746475006397757000,6.4367568359375,0.09961305139660835,0.020243454344570637,0.09108451169990002
1746475006407754000,6.44675390625,0.1256482408851385,-0.001691314087808132,0.10463372910283505
1746475006417750000,6.45675,0.17300386629998682,-0.036594577425718304,0.08683437997475266
1746475006427746000,6.46674609375,0.1928302642762661,-0.04945873517394066,0.027947014459222555
1746475006437742000,6.4767421875,0.23961013562977312,-0.048178632235527034,-0.051972617691010234
1746475006447739100,6.4867392578125,0.263583131891489,-0.029643443113565444,-0.11293123652264475
1746475006457735200,6.496735107421875,0.21233809782266616,-0.003424421490728855,-0.08998553748205304
1746475006467731000,6.50673095703125,0.08936988980174064,0.024092238727211952,-0.05304565375000238
1746475006477728300,6.516728271484375,-0.02828209163248539,0.046829555714130396,-0.01879690879806876
1746475006487724000,6.52672412109375,-0.11733575509190558,0.06553980914205312,0.023991262570768595
1746475006497720000,6.536719970703125,-0.1731961740016937,0.04988777424097061,0.030701646929606793
1746475006507715800,6.5467158203125,-0.1573421867877245,0.029704817911982536,0.020163447910919785
1746475006517713200,6.556713134765625,-0.1149000523775816,0.03372077555507421,0.022984423615783452
1746475006527709000,6.566708984375,-0.06829612211287021,0.02655453718751669,0.018200623405352234
1746475006537705000,6.576705078125,-0.05001578453481197,0.04296031306535005,-0.0029464287154376506
1746475006547702000,6.586701904296875,-0.05000643218457698,0.03416062827706337,-0.01983268158659339
1746475006557698000,6.596697998046875,-0.050614334949851035,0.016013561689853666,-0.017454335082694887
1746475006567693800,6.60669384765625,-0.027851298999786375,0.018643910193443296,0.007376300921663642
1746475006577690000,6.616690185546875,-0.047078562039136886,0.01686696364879608,0.028981325943022964
1746475006587687000,6.62668701171875,-0.09771510882079601,0.02317249353379011,0.038008608942106364
1746475006597683000,6.636682861328125,-0.11499416040182113,0.029632044936716555,0.03995959687940776
1746475006607679200,6.64667919921875,-0.07233516837060451,0.0554673279389739,0.053783831831440324
1746475006617676000,6.656676025390625,-0.015283493849635123,0.0361111778229475,0.04736592761315405
1746475006627672000,6.666672119140625,0.030246669703721998,0.001853226651251316,0.03523439498841762
1746475006637668000,6.676668212890625,0.08519815707504749,-0.020816870318353175,0.02564480193145573
1746475006647664000,6.6866640625,0.17711480875015256,-0.03368775006830692,-0.0005194207642227411
1746475006657661000,6.696660888671875,0.20636837576329706,-0.05154197118878364,-0.0025335370656102895
1746475006667657200,6.7066572265625,0.20418577102720736,-0.0637108401492238,0.002361103108152747
1746475006677653000,6.716653076171875,0.1339911218166351,-0.07037409743070602,0.017592720640078188
1746475006687650000,6.726650146484375,0.03608195172846317,-0.026964579293131827,-0.0061490972142666574
1746475006697645300,6.736645263671875,-0.05958616143465042,0.019687574027478692,-0.02354278815090656
1746475006707641300,6.746641357421875,-0.12386837173104286,0.04198416150957346,-0.03760390059873461
1746475006717637400,6.756637451171875,-0.10984686064124106,0.025211890406906603,-0.03432772847227752
1746475006727634400,6.766634521484375,-0.07226327217817306,-0.016069091269373892,0.0053025633875280614
1746475006737630500,6.77663037109375,-0.08049860108196735,-0.028975334593653677,0.056220703589543695
1746475006747626200,6.786626220703125,-0.1231429800659418,-0.04074731319099664,0.07488112652637063
1746475006757623600,6.79662353515625,-0.11602584153711795,-0.030215397782623766,0.08365838028714061
1746475006767619300,6.806619384765625,-0.0559925208568573,-0.016170213556289673,0.059719213229790326
1746475006777615400,6.816615478515625,-0.038975335082411765,-0.02743278132677078,0.03506064585670829
1746475006787611400,6.826611328125,-0.06353986749649047,-0.04703910681158304,0.007369286658987403
1746475006797608400,6.8366083984375,-0.12151041042804717,-0.04402940360158682,0.010945318514853716
1746475006807604200,6.846604248046875,-0.1307762514233589,0.003432604797184467,0.06203910754472017
1746475006817600500,6.8566005859375,-0.1008785412877798,0.04644727839827537,0.10822174365743994
1746475006827597300,6.866597412109375,-0.05954232229292392,0.05051087457537651,0.08616466401964426
1746475006837593300,6.87659326171875,-0.04374328013658523,0.02987842091321945,0.039043066556379194
1746475006847589400,6.88658935546875,-0.010453589475154876,0.0027668343648314473,0.005269318705052137
1746475006857585400,6.89658544921875,0.028835049340128895,-0.005381400777399539,0.031029929035902022
1746475006867582200,6.906582275390625,0.0838204389810562,0.010534838017821312,0.05475362671166658
1746475006877578500,6.91657861328125,0.1329378133714199,-0.010568740287423134,0.025429478680342434
1746475006887574500,6.926574462890625,0.18221476223766803,-0.05678805514872074,-0.037104791970178484
1746475006897571300,6.9365712890625,0.23030279358029365,-0.07162380523085594,-0.05028144973367452
1746475006907567600,6.946567626953125,0.2014525466710329,-0.061463645744323725,-0.03209215143993497
1746475006917563400,6.9565634765625,0.129595517206192,-0.015126841983199118,-0.005500789373368025
1746475006927559400,6.966559326171875,0.0035813656181097027,0.03920592896789312,-0.009032835957035423
1746475006937556500,6.976556396484375,-0.14944354249238967,0.07323854695111513,-0.05344320170022547
1746475006947552500,6.986552490234375,-0.24032734398841857,0.08496259475350379,-0.025626608687639236
1746475006957548300,6.99654833984375,-0.2720090149313211,0.07682751135379076,0.002752148252353072
1746475006967545600,7.006545654296875,-0.26323767945468424,0.06156622933596372,0.016908318572491407
1746475006977541400,7.016541259765625,-0.20054887582957742,0.022269407214224338,0.0631572979196906
1746475006987537400,7.026537353515625,-0.12615969753861428,-0.0039633506730198855,0.08088781959526241
1746475006997533400,7.036533447265625,-0.0303337634652853,-0.043346682034432885,0.07068520920649171
1746475007007530500,7.046530517578125,0.0042453824847936625,-0.05299538486748934,0.0282194016598165
1746475007017526300,7.0565263671875,-0.027348610174655914,-0.05549217011928558,0.027457258180901407
1746475007027522300,7.066522216796875,-0.06560673689842224,-0.027690555480122565,0.023840455923229455
1746475007037519400,7.076519287109375,-0.07706453498005866,0.010391045632958411,0.048707478415220974
1746475007047515400,7.086515380859375,-0.01837327655851841,0.04529635479748249,0.06653050067983568
1746475007057511400,7.096511474609375,0.05879881044924259,0.020230302602052688,0.08847820165902376
1746475007067507500,7.106507568359375,0.07488719094097614,-0.007251286302506923,0.05651873668804765
1746475007077504500,7.11650439453125,0.06393325072824954,-0.016076105532050133,0.043492374115437264
1746475007087500300,7.126500244140625,0.04731704697012901,-0.009493512271344661,0.04314451052583754
1746475007097496600,7.13649658203125,0.037004327270388604,0.005716916342079639,0.034787162677571176
1746475007107493400,7.146493408203125,0.07998013016581534,-0.0022539164066314697,0.02562624336145818
1746475007117489400,7.156489501953125,0.1678723486304283,-0.023079846814274788,-0.011094152401015162
1746475007127485400,7.1664853515625,0.23826164363026617,-0.02985357873290777,-0.050131592934206125
1746475007137481500,7.1764814453125,0.23239012124836445,-0.02324614329189062,-0.11043189398758113
1746475007147478300,7.186478271484375,0.19807576371431349,-0.002674479906260967,-0.13423442905321717
1746475007157474600,7.196474609375,0.12047171503007412,0.038840602786839006,-0.10952332777529954
1746475007167470300,7.20647021484375,-0.021041618984937668,0.06530570812523365,-0.04099449288509786
1746475007177467400,7.21646728515625,-0.13227028937339783,0.08147358359396457,0.010637129348516464
1746475007187463400,7.22646337890625,-0.18748948777019978,0.07873276045322418,0.007012362980097532
1746475007197459500,7.23645947265625,-0.17578034527599812,0.07251490885168313,0.004889233346283436
1746475007207456300,7.246456298828125,-0.14300035770237446,0.04280570702552795,-0.019861030898243186
1746475007217452500,7.25645263671875,-0.08280220184922218,0.02679594472795725,-0.026328034955263136
1746475007227448600,7.266448486328125,-0.03975158015191555,0.007234042906761169,0.01580883289799094
1746475007237444400,7.2764443359375,0.0038823943912982936,-0.022743454466760158,0.059091290589794516
1746475007247441400,7.28644140625,0.05481470924913883,-0.05513678081035614,0.08287000638842582
1746475007257437400,7.2964375,0.08321838143467902,-0.07339139942526816,0.0782745683569461
1746475007267433500,7.30643359375,0.08098316972851753,-0.08050619986653328,0.08563084940388799
1746475007277430300,7.31643017578125,0.06643792702555656,-0.047082945953309537,0.062210883915051814
1746475007287426600,7.326426513671875,0.06221300280690193,-0.03764876265376806,0.046206090053543446
1746475007297422300,7.33642236328125,0.04977788412570953,-0.005013151986896992,0.007566635861992835
1746475007307418400,7.34641845703125,0.052660746085643764,0.011330080048739909,-0.009274243497475982
1746475007317415400,7.35641552734375,0.05042319629192352,-0.002978139027953148,-0.002917202620953321
1746475007327411500,7.366411376953125,0.027409400451183317,-0.007623042224347591,0.0075157824575901025
1746475007337407200,7.3764072265625,-0.0455833550453186,0.014778759197890758,0.011763064638525247
1746475007347404500,7.386404541015625,-0.07872165453732013,0.035160160708427424,0.006699789899587631
1746475007357400300,7.396400390625,-0.09342588719427584,0.03817921626865864,0.02010879511423409
1746475007367396400,7.406396240234375,-0.03677577921152115,-0.000263034850358963,0.025285832425951955
1746475007377392600,7.416392578125,0.040683308044075966,-0.03193418439924717,0.032553850667551155
1746475007387389400,7.426389404296875,0.05841010339260101,-0.028344050952792167,0.023362974604591726
1746475007397385500,7.436385498046875,0.07196341244876385,-0.03360504022091627,0.02788001363761723
1746475007407381200,7.44638134765625,0.07842764002680779,-0.022702245673537253,0.04771839431263506
1746475007417378300,7.45637841796875,0.0809054283171892,-0.04586830946654081,0.06238719033002853
1746475007427374300,7.466374267578125,0.08681260653436183,-0.04137041352540254,0.10055486229136586
1746475007437370400,7.476370361328125,0.084557521083951,-0.02273848603069782,0.1062711210463196
1746475007447366400,7.486366455078125,0.08194938441216945,-0.018163140939176082,0.07505063787437975
1746475007457363500,7.496363525390625,-0.020981997752189636,-0.013604746982455253,0.01686360264793038
1746475007467359200,7.506359130859375,-0.149825235286355,0.01575111136138439,-0.04389788617640734
1746475007477355500,7.51635546875,-0.20904139436483382,0.039293314990401264,-0.06694236941635608
1746475007487352300,7.526352294921875,-0.23661153833568094,0.03351619289368391,-0.060004971368610854
1746475007497348400,7.536348388671875,-0.21189444570839402,-0.002465513330698013,-0.016455679434165357
1746475007507344400,7.546344482421875,-0.11547639096081257,-0.028305180247128008,-0.003139174808561802
1746475007517340400,7.55634033203125,-0.02289747598469257,-0.03274579304307699,0.0005631868407130241
1746475007527337200,7.566337158203125,0.03982522991001606,-0.02060527339428663,0.0049829029791057106
1746475007537333500,7.57633349609375,0.022595862689614294,0.003796177412569523,0.02436031507886946
1746475007547329500,7.58632958984375,0.010159574964642525,0.017314999677240848,0.05617912947013974
1746475007557326300,7.596326416015625,-0.04482698372006416,0.02012947257608175,0.07786854483932257
1746475007567322400,7.606322265625,-0.09846855753660201,0.007365268070995807,0.08680829568542539
1746475007577318400,7.616318359375,-0.10334756174981594,0.0032888124123215674,0.06181888892278075
1746475007587315200,7.626315185546875,-0.06819967600107192,-0.002849544212222099,0.062205769348517057
1746475007597311500,7.6363115234375,-0.002304185289144516,-0.045425826396048065,0.09503171495571731
1746475007607307500,7.6463076171875,0.061385319811105725,-0.0794654586419463,0.13450696238428353
1746475007617303300,7.65630322265625,0.0772638569444418,-0.09387772261500359,0.18609167673625052
1746475007627300600,7.666300537109375,0.07592763990461826,-0.10079203204810619,0.20737126919552681
1746475007637296400,7.67629638671875,0.05335340452492237,-0.09474398405551909,0.17613653830252587
1746475007647292400,7.68629248046875,0.03522504263818264,-0.06738046857267618,0.10829298226274549
1746475007657289500,7.69628955078125,0.015417933884263038,-0.04384206433594227,0.022804537004232406
1746475007667285500,7.706285400390625,-0.019901801300048826,-0.02474836454838514,-0.01693440286181867
1746475007677281300,7.71628125,0.018041852647066117,-0.015169219820201396,-0.023123320629820227
1746475007687278600,7.726278564453125,0.11409925738871098,-0.01379617790132761,-0.0010697481233626603
1746475007697275400,7.736275390625,0.22597966968417166,-0.010091185903549195,0.0060369420766830445
1746475007707271400,7.746271484375,0.25780396396815775,-0.0037836101919412612,-0.022588848426938056
1746475007717267200,7.75626708984375,0.232866506588459,0.019620938532054422,-0.057377472409233445
1746475007727264500,7.766264404296875,0.11304711798727511,0.041408407448232175,-0.11128281172849237
1746475007737260300,7.77626025390625,-0.005919453176856041,0.08476677992045879,-0.1123233337573707
1746475007747256300,7.78625634765625,-0.07083820781111717,0.116428577119112,-0.12141074944585561
1746475007757253000,7.796253173828125,-0.1085164888203144,0.10211889673769474,-0.1048764518175274
1746475007767249400,7.80624951171875,-0.1342483114480972,0.0655322103574872,-0.07085165181457996
1746475007777245200,7.8162451171875,-0.08371405599713325,0.012868833923339843,-0.044626565777137875
1746475007787241200,7.8262412109375,-0.0063636898130178445,-0.004650748415291309,-0.004841521747037768
1746475007797238300,7.83623828125,-0.012530980271100996,-0.025239655196666717,0.040880438051372765
1746475007807234300,7.846234375,-0.02988017447888851,-0.044722938823699945,0.049846419317275285
1746475007817230300,7.856230224609375,-0.06547755756080151,-0.0474175847351551,-0.0038631782341748476
1746475007827227400,7.866227294921875,-0.08470423607826233,-0.04385170894712209,-0.011784472752735017
1746475007837223200,7.87622314453125,-0.06494447359740733,-0.03274038621559739,0.004582213223725557
1746475007847219200,7.88621923828125,-0.05880816279947757,-0.027448271156847476,0.0025013152964413164
1746475007857216300,7.89621630859375,-0.04975567229390144,-0.02636822083517909,-0.01482603240571916
1746475007867212300,7.90621240234375,-0.012232289585471153,-0.0008450725220143794,0.014031301831454037
1746475007877208300,7.916208251953125,0.02751169178187847,-0.005588321526348591,0.032128099536150694
1746475007887204000,7.9262041015625,0.014489128601551056,-0.0024979542955756184,0.037953079362586135
1746475007897201400,7.936201416015625,0.017805705803632735,0.017736293829232454,-0.0070325289852917194
1746475007907197200,7.946197265625,0.052695232877135276,0.028965543852001428,-0.018117109840363264
1746475007917193200,7.956193115234375,0.058140054279565805,0.010301906044781208,-0.01106909102499485
1746475007927190300,7.966190185546875,-0.008546879070997238,-0.01768266394585371,0.023692937211319803
1746475007937186300,7.976186279296875,-0.04387772017121315,-0.02755070861801505,0.06140446290299296
1746475007947182000,7.98618212890625,-0.037947161078453064,-0.007919687083363533,0.10446480227671563
1746475007957178400,7.996178466796875,-0.04451952520608902,0.0072714523077011105,0.10038330511674284
1746475007967175200,8.006175048828124,-0.07378069100379943,0.02766264455989003,0.08573745158351957
1746475007977171200,8.016171142578125,-0.08270634025931357,0.03859934137687087,0.06825827432051301
1746475007987167200,8.026167236328124,-0.11532441526949405,0.030896219653636214,0.014392097967863083
1746475007997164300,8.036164306640625,-0.1753326015084982,0.015976298419386147,-0.0015039748221635817
1746475008007160000,8.04616015625,-0.18704934278726576,0.023145897787809372,-0.02461677405796945
1746475008017156400,8.05615625,-0.15560031155645845,0.01015036874487996,-0.023885025717318056
1746475008027153200,8.066153076171876,-0.08024258049428462,-0.0033056174166500567,-0.021580986558645963
1746475008037149200,8.076149169921875,0.003729834178090095,-0.028077508971095084,-0.03889715527966618
1746475008047145500,8.0861455078125,0.07202712533473968,-0.04902794254124164,-0.04253558484725654
1746475008057141200,8.096141357421875,0.0998585505902767,-0.036380642414093015,-0.0034547435637563464
1746475008067138300,8.10613818359375,0.11682897461354731,-0.0017594108879566191,-0.012855609115585684
1746475008077134300,8.11613427734375,0.10965513746142387,0.007439794611930847,-0.007743234537914395
1746475008087130400,8.12613037109375,0.08778525095880031,0.04015548477768898,0.0028873920045793056
1746475008097127200,8.136127197265624,0.10173018968105316,0.04202610095515847,-0.008330021449923515
1746475008107123500,8.14612353515625,0.11833061134815215,0.03493263556286692,0.0011763503029942513
1746475008117119200,8.156119140625,0.10050444727838038,-0.006362228508293629,-0.026702202029898762
1746475008127116300,8.1661162109375,0.09647066171765327,-0.02120528511404991,-0.02246061893738806
1746475008137112300,8.1761123046875,0.0595259556800127,-0.02326923190653324,-0.011488850807026028
1746475008147108400,8.1861083984375,-0.02768763287067413,-0.02073357594907284,0.03845459914393723
1746475008157104000,8.196104248046876,-0.07821078240573406,0.010856617318093776,0.08487608551383018
1746475008167101400,8.206101318359375,-0.11774492041468619,0.02948708350807428,0.07380692142359913
1746475008177097200,8.21609716796875,-0.1413385619699955,0.03291471986919641,0.07062500345185399
1746475008187093200,8.22609326171875,-0.15435644897520542,0.009921528425067662,0.09323752501532435
1746475008197090300,8.23609033203125,-0.13074760985076428,0.0001442307762801647,0.0848640297498554
1746475008207086300,8.24608642578125,-0.09872399360239505,-0.007726940990239382,0.06652151365578174
1746475008217082400,8.256082275390625,-0.08143968132436274,-0.02925342088267207,0.0401225323561579
1746475008227078100,8.266078125,-0.05999941841065883,-0.07722220975980162,0.02875891536399722
1746475008237075500,8.276075439453125,-0.03461480178534984,-0.08572247321009635,0.022533830304071308
1746475008247071200,8.2860712890625,0.024079379245638848,-0.0934944223858416,0.02651289000287652
1746475008257067300,8.2960673828125,0.030788521495461463,-0.06620733314007521,0.044256125029549
1746475008267064300,8.306064208984376,0.02194821243584156,-0.04552724094390869,0.06655249331593513
1746475008277060400,8.316060302734375,0.0021340894192457198,-0.013984832341223954,0.06864763896428049
1746475008287056100,8.32605615234375,0.01089607254564762,0.010000731141120194,0.06144574476145208
1746475008297053400,8.336053466796875,0.0192798700094223,0.021140110923349855,0.051727995280176395
1746475008307049200,8.34604931640625,-0.006788052704930305,0.03675678225010633,0.04482603387199342
1746475008317045200,8.356045166015624,-0.03228898918628693,0.037008126662671566,0.008098477716371417
1746475008327041300,8.366041259765625,-0.05566168146729469,0.07627981434315442,-0.006231149474531412
1746475008337038300,8.376038330078124,-0.17006664380431175,0.10238953037261962,-0.0014941110152751206
1746475008347034000,8.3860341796875,-0.24800913066267966,0.09074965372234582,-0.0158254187066108
1746475008357030400,8.396030517578126,-0.22367548439502716,0.07111848605722189,-0.046288872966170305
1746475008367027200,8.406027099609375,-0.18219722658097742,0.03169803755581379,-0.06280534267686307
1746475008377023200,8.416023193359376,-0.07882569943368434,0.006298807883262634,-0.06043225686997175
1746475008387019500,8.42601953125,-0.0006184241592884064,0.0047463177442550655,-0.011874196862801908
1746475008397016300,8.436016357421876,0.11174831034839153,-0.017062778481841085,0.011727627998962998
1746475008407012400,8.446012451171875,0.15559212825000285,-0.03025280718356371,0.01813099223524332
1746475008417008400,8.45600830078125,0.15174071351885796,-0.033332068498432635,0.023240517268702385
1746475008427004400,8.46600439453125,0.09014555034935474,-0.010610825863480567,0.02937259028293192
1746475008437001200,8.476001220703125,0.008744447469711304,-0.014020342046022415,0.01728233951665461
1746475008446997500,8.48599755859375,-0.03313596140444278,0.021059154641628264,0.023692206558957693
1746475008456993300,8.4959931640625,-0.03751286131441593,0.03447480879276991,0.021498422841727732
1746475008466990300,8.505990234375,-0.04055763583779335,0.025653204433619976,0.03193191937692463
1746475008476986000,8.515986083984375,-0.027012510088086125,0.02257423537969589,0.01393828978575766
1746475008486982400,8.525982421875,0.013712299010157584,-0.006806465144455432,-0.010830240767821669
1746475008496979200,8.535979248046875,0.047961190092563624,-0.007470482011139392,-0.013342881175875662
1746475008506975200,8.545975341796876,0.057274377360939974,-0.0032592940568923947,-0.006184460788592696
1746475008516971300,8.55597119140625,0.03621288463175296,-0.023410978464782236,0.02293466618992388
1746475008526967300,8.56596728515625,-0.0010416180074214936,-0.03486234680563211,0.06912658158764243
1746475008536964000,8.575964111328124,-0.03381459131836891,-0.03627192134261131,0.0923764512065798
1746475008546960400,8.58596044921875,-0.04716390223503113,-0.03125350865870714,0.1232847266241908
1746475008556956400,8.595956298828124,-0.06182604931592941,-0.04303951578140258,0.09844714942239224
1746475008566953200,8.605953125,-0.0915893194168806,-0.029180794037878512,0.08080781316161155
1746475008576949200,8.61594921875,-0.08699614640772342,-0.017517244251072407,0.06144808284901082
1746475008586945300,8.6259453125,-0.05756663830578327,-0.02146978126913309,0.020582696236297486
1746475008596942000,8.635942138671876,-0.044807109975814816,-0.0017366145342588423,0.012060951606556772
1746475008606938400,8.6459384765625,-0.02454115153849125,-0.008666413797438145,-0.005004311093315482
1746475008616934400,8.655934326171876,0.016145663636922835,-0.023757015423476694,-0.01726370788142085
1746475008626930200,8.66593017578125,0.06062602587640285,-0.012182020702958107,-0.011221578172966836
1746475008636927500,8.675927490234375,0.10347323395609855,-0.012220306886732578,-0.02344027762450278
1746475008646923300,8.68592333984375,0.07533668827414512,-0.008080430603027343,-0.025817382019385694
1746475008656919300,8.695919189453125,0.08908113598823547,0.005469079060852527,-0.04325936907716095
1746475008666916400,8.705916259765624,0.08483516898155212,0.031578502829372884,-0.030320977048948407
1746475008676912400,8.715912353515625,0.05186228918433189,0.03525952942967415,-0.04556640391051769
1746475008686908200,8.725908203125,0.016075521010160444,0.07403817289620637,-0.07947451873123645
1746475008696905500,8.735905517578125,-0.05103519071042537,0.13512012584656477,-0.12445756979584693
1746475008706900700,8.745900634765626,-0.09028934273421764,0.12116028181612491,-0.09868329626582563
1746475008716896800,8.755896728515625,-0.07006839248239993,0.06172346572428941,0.02102934402525425
1746475008726892800,8.765892822265625,-0.022583587729930875,-0.006220774210989475,0.11666326265782118
1746475008736889900,8.775889892578125,0.008570844468474387,-0.04310147510170936,0.1164595567792654
1746475008746886000,8.785885986328125,0.02944178306162357,-0.056440556885302064,0.08633768249899149
1746475008756881700,8.795881591796874,0.032788755401968954,-0.008567045076191425,0.04093428713046014
1746475008766878700,8.805878662109375,-0.0239724117398262,0.011351999619603157,-0.012542305382713675
1746475008776874800,8.815874755859374,-0.05567395642697811,0.011763795290887355,-0.06351078753247856
1746475008786870800,8.825870849609375,-0.08179097898006439,-0.005825637413561344,-0.057392450782656666
1746475008796867800,8.835867919921874,-0.09959259313046932,0.010116904866695404,-0.06234269360117614
1746475008806864000,8.84586376953125,-0.11666647752821445,0.012746376587450503,-0.05344385928735137
1746475008816859600,8.855859619140626,-0.11543488990664481,-0.0024736966371536255,-0.02543152450695634
1746475008826856000,8.86585595703125,-0.07476853299736977,0.004257657444477081,0.009222878636419773
1746475008836852700,8.875852783203126,-0.031119945406913756,-0.01299362934678793,0.042592648796737194
1746475008846848800,8.885848876953125,0.02404313888847828,-0.00032031799554824825,0.06474222902357578
1746475008856844800,8.8958447265625,0.0379541753411293,-0.010773907470703125,0.05594064453914761
1746475008866841900,8.905841796875,0.054604865890741344,0.012027999185025692,0.00783420075699687
1746475008876837600,8.915837646484375,0.0817471398383379,0.031102702011168,-0.011240940460562706
1746475008886834000,8.925833984375,0.08878945956528186,0.06355272697806358,-0.0753898067008704
1746475008896830700,8.935830810546875,0.06958966905474662,0.04071837935745716,-0.14854147908613086
1746475008906826800,8.94582666015625,0.047314124360680575,0.03696633334755897,-0.22563589774779974
1746475008916822800,8.95582275390625,0.08290916935503483,0.038943478639423844,-0.2746415553919971
1746475008926818800,8.96581884765625,0.13574118035435676,0.08542349026352167,-0.3167996121637523
1746475008936815600,8.975815673828125,0.11788637471199034,0.20402298168092964,-0.33624913965165615
1746475008946812000,8.98581201171875,-0.017438041535019874,0.33765199218690395,-0.34958493349961933
1746475008956808000,8.995807861328124,-0.26769056721031664,0.4214323914185166,-0.4010171607036143
1746475008966804700,9.0058046875,-0.4988151985675096,0.43777299310564993,-0.41599553412683304
1746475008976801000,9.015801025390624,-0.6065425828367471,0.3408887821510434,-0.37263051271811126
1746475008986796800,9.025796875,-0.6753127522021531,0.08841185842454433,-0.3966673679962754
1746475008996793900,9.0357939453125,-0.5068161341935395,0.28699498713910576,-0.29454036101736125
1746475009006790000,9.045789794921875,-0.24836978066861629,0.1510781579568982,-0.35044140419848263
1746475009016786000,9.055785888671876,0.006700374421477318,-0.10557751275897026,-0.4756397093590349
1746475009026781700,9.06578173828125,0.2142792950183153,-0.04605623325407505,-0.5870254700053483
1746475009036779000,9.075779052734376,0.4921761989444494,0.28973288767039773,-0.3062532298386097
1746475009046774800,9.08577490234375,0.49336862359941003,0.15392477955967188,0.29674978069514035
1746475009056770800,9.095770751953125,0.41055765392184257,-0.06307634163796902,0.2547062171485275
1746475009066768000,9.105767822265625,0.3862327754825353,-0.2221063353821635,0.11442834321260452
1746475009076764000,9.115763916015625,0.28521277989745136,-0.12078472650200128,0.1823245062224567
1746475009086759700,9.125759765625,0.18393851729035376,-0.01229161855727434,0.3412510395921767
1746475009096757000,9.135757080078125,0.05108955124616622,0.06879881093800068,0.41104368387311696
1746475009106752800,9.145752685546874,-0.10070727637410164,0.03139525521695614,0.4296512075789273
1746475009116748800,9.155748779296875,-0.16267653355300427,-0.07162848140597343,0.4021368854485452
1746475009126744800,9.165744873046876,-0.1928606594145298,-0.1624336647078395,0.38934769263267516
1746475009136742000,9.175741943359375,-0.3002829232573509,-0.15922405501157044,0.36952100239545105
1746475009146738000,9.185738037109376,-0.41986090431809425,-0.07158814939558505,0.28109116992279887
1746475009156733700,9.195733642578125,-0.491852373817563,0.04584638989567756,0.17130305373147128
1746475009166731000,9.20573095703125,-0.5558154351621866,0.09102525579333305,0.07477795841284096
1746475009176726800,9.215726806640625,-0.5926303773403168,0.07965425921231507,0.0386360201254487
1746475009186722800,9.225722900390625,-0.5927613102436066,0.05534837773442268,0.06378565895110368
1746475009196719900,9.235719970703125,-0.6130909815669059,0.06319178471118211,0.03417078434489667
1746475009206716000,9.2457158203125,-0.6489923160314559,0.07871990097165107,0.020144962406158446
1746475009216711700,9.255711669921874,-0.6259849499315023,0.06297375804632901,0.02074877351820469
1746475009226709000,9.265708984375,-0.5148620780050754,0.01786298894882202,0.02678191620260477
1746475009236704800,9.275704833984374,-0.323039529466629,-0.0844981921121478,0.08708513986542821
1746475009246700800,9.28570068359375,-0.1097451538324356,-0.11847323468923568,0.18098580496460198
1746475009256696800,9.29569677734375,0.07358896782398223,-0.1102805758833885,0.21636311555504797
1746475009266694000,9.30569384765625,0.2838923449486494,-0.13187778292447327,0.18327026263996957
1746475009276689700,9.315689697265626,0.45928690577745435,-0.1331903268277645,0.1137855152644217
1746475009286686000,9.32568603515625,0.4742863219887018,-0.08175824575424194,0.06928966319486499
1746475009296682800,9.335682861328126,0.41881110300421714,-0.0029623569369316097,0.06600289660915731
1746475009306678800,9.3456787109375,0.4088730618357658,-0.00019698387682437897,0.12268033099025487
1746475009316675000,9.355675048828125,0.4195452624976635,-0.024313772523403165,0.17620938434302805
1746475009326672000,9.365671875,0.45095045458674426,-0.04528846375197172,0.17829992688149213
1746475009336668000,9.37566796875,0.4929810855865478,-0.030624270844459532,0.13866627402082085
1746475009346663700,9.38566357421875,0.5493547147154808,-0.0006967500925064087,0.05213759899437427
1746475009356660000,9.395659912109375,0.5391156447738409,0.05821545760333538,0.007559183207899332
1746475009366656800,9.40565673828125,0.45155718830823893,0.1078062947243452,-0.0657793169863522
1746475009376652800,9.41565283203125,0.3323562238663435,0.11087445012331008,-0.12108970079794526
1746475009386648800,9.42564892578125,0.26142098542153835,0.08826222082078457,-0.15905673562064765
1746475009396646000,9.43564599609375,0.19580080451965332,0.06532821221798658,-0.17363573446273803
1746475009406641700,9.4456416015625,0.15170447316169738,0.00944908860772848,-0.16831906948462128
1746475009416638000,9.455637939453124,0.07829904521107674,-0.003219546568393707,-0.13525412748977542
1746475009426634800,9.465634765625,0.013102642679214477,-0.024318448698520657,-0.035047494114190336
1746475009436630800,9.475630859375,-0.05337561635673046,-0.0427162751764059,0.04180164454951882
1746475009446626800,9.485626708984375,-0.22130817074179648,-0.023143559700250626,0.10689458670690655
1746475009456623900,9.495623779296874,-0.3372095091164112,-0.025185002399981022,0.07051219072714447
1746475009466619600,9.50561962890625,-0.293497793161869,-0.019930150611698626,-0.045137072582542896
1746475009476616000,9.515615966796876,-0.008273322826623917,-0.11555120976269244,0.09265329538658261
1746475009486612000,9.525612060546875,-0.2512923901170492,-0.201441148494184,0.17889818503558635
1746475009496608800,9.53560888671875,-0.13720190055668352,-0.1574409709870815,0.02716638547554612
1746475009506604800,9.545604736328125,-0.16275661305189132,-0.0873807618111372,0.011358867751806974
1746475009516600800,9.555600830078125,-0.1544967342287302,-0.0648982963681221,0.13814458823427558
1746475009526597600,9.56559765625,-0.01040682772397995,-0.07021773782521486,0.16938816002085805
1746475009536594000,9.575593994140625,0.15374796168804167,-0.008670213189721106,0.1202272387497127
1746475009546590000,9.58558984375,0.2854050875991583,0.02759440162926912,0.04898088852912187
1746475009556586800,9.595586669921875,0.333026670473814,0.027135844206809995,-0.02624766319543123
1746475009566583000,9.6055830078125,0.21712825470864772,0.06123129829317331,-0.0919220585025847
1746475009576578800,9.615578857421875,-0.05159808529019355,0.1182020165324211,-0.128347855232656
1746475009586576000,9.625575927734374,-0.21064649147391318,0.15338468133360147,-0.11908142971545457
1746475009596572000,9.635572021484375,0.35746669972538947,0.28254209938347336,0.022663228837400674
1746475009606568000,9.64556787109375,0.7142997777223586,0.03114420306533575,0.2605254978865385
1746475009616563700,9.655563720703125,0.7399573660701513,-0.24098639241904019,0.21095117350891232
1746475009626561000,9.66556103515625,0.4041378500074148,-0.18391484415382145,0.1585048008263111
1746475009636556800,9.675556884765625,-0.27989421522319313,-0.1384168293043971,-0.09092515641972422
1746475009646552800,9.685552734375,-0.7589584191381931,-0.11814970182329415,-0.19934943691194057
1746475009656550000,9.6955498046875,-0.8736082961469889,0.04976064072996378,0.009841010534763335
1746475009666546000,9.7055458984375,-0.720580465427041,0.1803805325478315,0.07117474628910422
1746475009676541700,9.715541748046874,-0.4703402147114277,0.09171206901371479,0.06841127292513847
1746475009686539000,9.7255390625,-0.1330903735846281,-0.003778349494934082,0.1044369644217193
1746475009696534800,9.73553466796875,0.2097141790598631,-0.07690116111189127,0.11395473435148597
1746475009706531300,9.74553125,0.4664946451991796,-0.12921499345600604,0.08933335718363523
1746475009716527000,9.755527099609376,0.5226017323464155,-0.18000614627748726,0.006971300317347049
1746475009726524400,9.7655244140625,0.4586649744868278,-0.1847401890620589,0.0006184241592884064
1746475009736520200,9.775520263671876,0.31687808422744274,-0.12890841172486542,0.07053074929714202
1746475009746516200,9.78551611328125,0.17898820140659807,-0.039299744731187816,0.10217632601335644
1746475009756513300,9.79551318359375,0.1329594406813383,0.03761456812322139,0.0639504941239953
1746475009766509300,9.80550927734375,0.1838625294446945,0.04889554833322763,0.025226795715093613
1746475009776505300,9.81550537109375,0.165163089671731,0.05686462751626968,0.025220950496196746
1746475009786502400,9.82550244140625,0.13855097707808017,0.061083706516027444,0.013320377083122729
1746475009796498200,9.835498291015625,0.1183025542974472,0.07711509612351655,-0.03834814309477806
1746475009806494200,9.845494140625,0.0511427427381277,0.060172436890006065,-0.02663373990356922
1746475009816491300,9.8554912109375,-0.005566401955485344,0.024962591820955275,0.04370397103950381
1746475009826487300,9.8654873046875,-0.07219546763896942,0.04128945724368095,0.06138225107118487
1746475009836483300,9.8754833984375,-0.09913841962218284,0.08476853348612785,-0.033777035786956545
1746475009846479000,9.88547900390625,-0.12489303860366344,0.10034195019304752,-0.12421002477556466
1746475009856476400,9.895476318359375,-0.16826748542785644,0.11305296320617199,-0.11629267577975988
1746475009866472200,9.90547216796875,-0.15523556989729403,0.08647299931645393,-0.11355521363988517
1746475009876468200,9.91546826171875,-0.14601473708748816,0.00511339749097824,-0.08825520655810833
1746475009886465300,9.92546533203125,-0.12585983780920504,-0.010052607458829878,-0.043807577544450756
1746475009896461300,9.93546142578125,-0.09032266048192977,-0.026689269483089445,0.009745733466744422
1746475009906457000,9.94545703125,-0.10989654500186442,-0.04216565555632114,0.04519961642473936
1746475009916454400,9.955454345703124,-0.14303484449386597,-0.04918956284373999,0.0721777858518064
1746475009926450200,9.9654501953125,-0.17093875046372412,-0.0311702142894268,0.07356222594752908
1746475009936446200,9.9754462890625,-0.18250702318251133,0.006224865864217281,0.0766543467439711
1746475009946443300,9.985443359375,-0.15683832891881466,0.0392854239448905,0.04873202833458781
1746475009956439300,9.995439208984376,-0.07686755110323429,0.05615764829069376,0.0010126841738820076
1746475009966435000,10.00543505859375,0.03811842599213123,0.05960574291795492,-0.07384177354127168
1746475009976432400,10.015432373046876,0.07174538578391075,0.04602963750809431,-0.053789019463211296
1746475009986428200,10.02542822265625,0.10009995813071727,0.038410979197919366,-0.05907865030393004
1746475009996424200,10.035424072265625,0.1129822360575199,0.006520049418509006,-0.057309156413376326
1746475010006420500,10.04542041015625,0.08938158023953437,-0.015116028328239916,-0.03857376854419708
1746475010016417300,10.055417236328125,0.05244213489890098,-0.00537964721173048,-0.0008091244257986545
1746475010026413300,10.065413330078124,0.05931552779972553,0.00961684639006853,-0.015061083270609378
1746475010036409300,10.075409423828125,0.07275894674062729,0.003740355572104454,-0.02067176275923848
1746475010046406100,10.08540625,0.07390168703496455,-0.00017126491367816925,-0.012526888617873192
1746475010056402200,10.095402099609375,0.061011810323596,0.007350947284698486,-0.02487155253663659
1746475010066398500,10.1053984375,0.06796703628897667,-0.0013543372184038162,-0.037769904815405604
1746475010076395300,10.115395263671875,0.059730538341403,0.047020986633002755,-0.05549991503432393
1746475010086391300,10.125391357421876,0.047003743237257,0.06239595815837383,-0.07955971279665827
1746475010096387300,10.13538720703125,0.024663316613435744,0.06833031664341688,-0.08311535945162177
1746475010106384400,10.14538427734375,0.007234042906761169,0.06756342392414807,-0.03736439275443554
1746475010116380200,10.155380126953125,-0.050506198400259016,0.044320203241705894,0.012844137873500585
1746475010126376400,10.16537646484375,-0.12320084773302077,0.04205459639728069,0.036361060930788516
1746475010136373200,10.175373291015624,-0.13943535869717597,0.04047083433717489,0.021882161462306975
1746475010146369300,10.185369384765625,-0.1406757141470909,0.02589431971311569,-0.03574468259811401
1746475010156365300,10.195365234375,-0.1592588340640068,0.021444646827876567,-0.06441606580913066
1746475010166361300,10.205361328125,-0.11869126135408878,-0.005157528893649578,-0.041224136922508474
1746475010176358100,10.215358154296876,-0.050503275790810584,-0.04089695079475641,0.003288227890431881
1746475010186354400,10.2253544921875,0.02679799055457115,-0.09401654656380415,0.15759294667840004
1746475010196350500,10.2353505859375,0.39338498532474037,-0.2283347083777189,0.5305692040942609
1746475010206347300,10.24534716796875,1.1733224796056747,-0.636630847108364,1.0772763269104062
1746475010216343300,10.25534326171875,0.6422568702965974,-0.7967708479210734,1.4346023029908537
1746475010226339300,10.26533935546875,0.7525882995843887,-0.7896890729665755,1.1804947093226015
1746475010236336000,10.275336181640625,0.45827977456152436,-0.8537447810307145,0.7248984747566283
1746475010246332200,10.285332275390624,-0.021754735690355298,-0.8766469331905246,0.7351641404442488
1746475010256328400,10.295328369140625,-0.31606384523510933,-0.7818450814679264,0.7531433031186461
1746475010266325200,10.3053251953125,-0.4070838403314352,-0.608851736561954,0.6333632236145437
1746475010276321300,10.3153212890625,-0.37703006285130974,-0.4600964685946703,0.5155057827360928
1746475010286317300,10.3253173828125,-0.4423386935859918,-0.24999767413139343,0.4025149249807
1746475010296314000,10.335314208984375,-0.5783282957434653,-0.06541910537183285,0.26771087934598325
1746475010306310100,10.34531005859375,-0.7419915022462606,0.0679679130718112,0.19513788363151252
1746475010316306400,10.355306396484375,-0.8322387594044208,0.20583178466856478,0.10906382050476968
1746475010326303200,10.36530322265625,-0.7822264820009469,0.34861353118419647,-0.04029496631361544
1746475010336299300,10.37529931640625,-0.6130073949366808,0.43361879603564735,-0.16678842585124073
1746475010346295300,10.38529541015625,-0.3035638446241617,0.38433103351444003,-0.23388006754517554
1746475010356291300,10.395291259765624,-0.05655833804607391,0.3069438424512744,-0.33306561424471437
1746475010366288100,10.4052880859375,0.1575111136138439,0.28157646922171115,-0.4548384019359946
1746475010376284400,10.415284423828124,0.31708149784505363,0.22710984275788068,-0.47974860598258673
1746475010386280200,10.4252802734375,0.45798400648534293,0.2317944934427738,-0.43091202129498124
1746475010396277200,10.43527734375,0.38587563260793684,0.21093787563592195,-0.3654077218577266
1746475010406273300,10.445273193359375,0.34960604935288425,0.18089082015752792,-0.37256358496174213
1746475010416269300,10.455269287109376,0.24048458037674425,0.19455080445855855,-0.38186712761893865
1746475010426266000,10.46526611328125,0.027606968849897384,0.2820119380295276,-0.36588469171971083
1746475010436262400,10.475262451171876,-0.00805354259610176,0.38182431139051914,-0.29790435755774375
1746475010446258400,10.485258544921875,0.04601648576557636,0.38128655125200744,-0.25264336633458734
1746475010456255200,10.495255126953126,0.23330957418084144,0.27702304370105263,-0.2829795409526676
1746475010466251300,10.505251220703125,0.590035684671998,0.144302964733541,-0.30191023219823837
1746475010476247300,10.515247314453125,1.3754367050558327,-0.08254355091303586,-0.2721815950192511
1746475010486244000,10.525244140625,1.5438456447809934,-0.1008022611811757,-0.2533735803052783
1746475010496240400,10.535240478515625,1.035434350350499,-0.035897827333211896,-0.46061219956446436
1746475010506236400,10.545236328125,0.7291302671074866,-0.013705284747481346,-0.49783393244519825
1746475010516233200,10.555233154296875,0.5863888526022434,-0.005035363818705081,-0.3888763487938791
1746475010526229500,10.5652294921875,0.3208656925588846,0.03474894955903292,-0.24948081065043806
1746475010536225300,10.575225341796875,0.04096446307301521,0.06255202550292015,-0.19060630461648106
1746475010546221300,10.58522119140625,-0.20255203234553337,0.05195376686006784,-0.2140997737329453
1746475010556218400,10.59521826171875,-0.23072364934086798,0.07002572238445282,-0.17601364257521926
1746475010566214400,10.60521435546875,-0.18704174400269985,0.09780074127763509,-0.10507445860765874
1746475010576210200,10.615210205078125,-0.19213526774942874,0.08659574891328811,-0.039549993165209886
1746475010586207500,10.62520751953125,-0.23173136507868766,0.05719312881827354,-0.025766967006400226
1746475010596203300,10.635203369140624,-0.2304869179755449,0.036866964626312254,-0.0413815925065428
1746475010606199300,10.64519921875,-0.2896878794848919,0.009543196631968022,-0.07283588443435728
1746475010616196400,10.6551962890625,-0.4133516685545444,0.018593349049985407,-0.08854688298106193
1746475010626192400,10.6651923828125,-0.5904360821664333,0.10209902299344539,-0.05825893141888082
1746475010636188200,10.675188232421876,-0.6057838734239339,0.190778884704411,0.0003629150282591581
1746475010646185500,10.685185546875,-0.38962124887704846,0.23051059111207722,0.09798501180335879
1746475010656181200,10.69518115234375,-0.04791618190705776,0.16466303119510411,0.18776384773217142
1746475010666177300,10.70517724609375,0.363370370811224,-0.008632511527836322,0.2295120085287839
1746475010676174300,10.71517431640625,0.6198147368639707,-0.1847372664526105,0.3514670939844102
1746475010686170400,10.72517041015625,0.6834153946369886,-0.1728591971322894,0.6074108170386403
1746475010696166400,10.73516650390625,0.810928844872117,-0.13767565554827452,0.8122639659333973
1746475010706163000,10.745162841796875,0.4676543366283178,-0.36525019320845603,0.9448409831684083
1746475010716159200,10.7551591796875,-0.014997662645578384,-0.34751229194402694,0.7179455138135701
1746475010726155000,10.765155029296874,-0.5557657508015632,-0.38704000021219254,0.17397468409352004
1746475010736151800,10.77515185546875,-0.8153004840850829,-0.21228081467747686,-0.3051220338515937
1746475010746148000,10.785148193359374,-0.8756886095523834,0.11022972247898578,-0.4203982625978067
1746475010756144000,10.79514404296875,-0.8336462881147861,0.24799130274504422,-0.3359098977599293
1746475010766141000,10.805140869140626,-0.8137795581281184,0.22610183475911616,-0.1729942582214251
1746475010776137200,10.81513720703125,-0.7722837646573781,0.14336013092547653,0.06317837724033742
1746475010786133000,10.825133056640626,-0.762214790585637,0.06146744513660669,0.18770930453334003
1746475010796130000,10.835130126953125,-0.7485995222091675,-0.025811025343835354,0.12416366488318889
1746475010806126000,10.8451259765625,-0.6288081906586885,-0.02379559386819601,-0.05095321151539683
1746475010816122000,10.8551220703125,-0.3938531873583793,0.03214899619370699,-0.28574180874023586
1746475010826119000,10.865118896484375,0.0042132337808609005,0.13098346443325282,-0.45609019209537655
1746475010836115200,10.875115234375,0.36312604066133497,0.3226417623206973,-0.52531972260084
1746475010846111000,10.885111083984375,0.8374088555186986,0.36142888135462997,-0.4434935627095401
1746475010856107000,10.89510693359375,1.2023510056912898,-0.07739128271639346,0.06449552425350993
1746475010866104000,10.90510400390625,0.9883481895267963,-0.3652443479895591,0.2754132704168558
1746475010876100000,10.91510009765625,0.5741881271988153,-0.4341372669517994,0.3289321677017957
1746475010886096100,10.92509619140625,0.13945289435386657,0.0814291599303484,0.16156020634155718
1746475010896093200,10.93509326171875,-0.15680325760543345,0.37474019834846256,-0.07628737659510225
1746475010906089000,10.9450888671875,-0.3329039208769798,0.25457360374480487,-0.2181825495345518
1746475010916085000,10.9550849609375,-0.3324573461532593,0.06598199995160102,-0.21368743007238952
1746475010926082000,10.96508203125,-0.22226561759710312,-0.05346154107451439,-0.13733403903637081
1746475010936078000,10.975078125,-0.02935118216872215,-0.10542378350198268,-0.09325246685612947
1746475010946074000,10.98507421875,0.1185287642687559,-0.1108563299447298,-0.06177084852997213
1746475010956071200,10.9950712890625,0.1275228025853634,-0.10846388185024261,-0.06368479239251464
1746475010966067200,11.005067138671874,0.09831775088906287,-0.07202537176907062,-0.07520648602321743
1746475010976063000,11.01506298828125,0.0061287120133638375,0.08344926758110523,-0.051326026883162554
1746475010986060000,11.02506005859375,-0.10446516760289669,0.2282894079312682,-0.010171959522180259
1746475010996056000,11.03505615234375,-0.16586685402691365,0.25576456709504125,0.03984521325211972
1746475011006052000,11.045052001953126,-0.11287585307359695,0.1929167735159397,0.07187978928592055
1746475011016049200,11.055049072265625,0.010029811105132102,0.10305763889253139,0.11055953895524144
1746475011026045200,11.065045166015626,0.12296996158659458,0.023797931955754754,0.10228311085607857
1746475011036041000,11.075041015625,0.16161211919188498,-0.060597092042863364,0.03085946783982217
1746475011046038300,11.085038330078126,0.117279056468606,-0.10378098473101854,-0.07189345248509198
1746475011056034000,11.095033935546875,-0.02380173134803772,-0.13433219033926724,-0.12381134431418031
1746475011066030000,11.105030029296875,-0.1505143865942955,-0.12951748353391884,-0.11104629955887795
1746475011076027100,11.115027099609375,-0.2208715328902006,-0.06127835230529308,-0.14125745955780147
1746475011086023200,11.125023193359375,-0.2741530412226915,-0.01582300755381584,-0.1073337087765336
1746475011096019000,11.13501904296875,-0.30237200449109075,0.02048983032107353,-0.02388992108814418
1746475011106016000,11.14501611328125,-0.28772388593554493,0.049205637195706364,0.09373268812112509
1746475011116012000,11.155011962890624,-0.18958558326661587,0.030229718568921086,0.20360504852980374
1746475011126008000,11.165008056640625,-0.0503542227089405,-0.05289513936340808,0.23882768001519142
1746475011136004900,11.1750048828125,0.13258710023760795,-0.14305354919433594,0.23997692311555147
1746475011146001200,11.185001220703125,0.2965834842175245,-0.15086626877188683,0.17732180256433783
1746475011155997000,11.194996826171876,0.40154315733909607,-0.12621171998679637,0.07348053901344537
1746475011165993000,11.204992919921875,0.3551134145975113,-0.0651163230329752,-0.04097681109793484
1746475011175990000,11.214989990234375,0.23301789775788784,-0.015479893204569816,-0.0644871582839638
1746475011185986000,11.224986083984374,0.10029401939809322,0.03453939846158027,-0.010260551121085882
1746475011195982000,11.234982177734375,-0.031276012751460074,0.08021013952940702,0.06370419121272862
1746475011205979100,11.244979248046874,-0.1673983013778925,0.07873597532361745,0.14170220765061675
1746475011215975200,11.25497509765625,-0.2063110926181078,0.0701721451178193,0.19194544426575302
1746475011225971000,11.264970947265626,-0.17038053205907344,0.067390113183856,0.15908311217091978
1746475011235968000,11.274968017578125,-0.08341419626772403,0.042994215334951874,0.0687901892401278
1746475011245964000,11.284964111328126,0.036332711619138716,0.013752338759601116,-0.02689502118825912
1746475011255960000,11.2949599609375,0.10555120927393435,-0.02442950785756111,-0.0417610202781856
1746475011265957000,11.30495703125,0.10079963083267211,-0.04139057953059673,-0.008637041572481394
1746475011275953200,11.314953125,0.02767068173587322,-0.02569178287833929,-0.029000834361091254
1746475011285949000,11.324948974609375,-0.07391162390708923,0.029779344452917574,-0.04934577631875872
1746475011295946200,11.3349462890625,-0.14914718989431858,0.09044950173199176,-0.03800780522450804
1746475011305942000,11.34494189453125,-0.17616788328886032,0.09284253434836864,-0.05271357225142419
1746475011315938000,11.35493798828125,-0.14201134666502474,0.0685194094747305,-0.10329787738919258
1746475011325935000,11.36493505859375,-0.11444412530362605,0.07757745293825864,-0.11401976241171359
1746475011335931100,11.37493115234375,-0.13659165970385073,0.04484364259392023,-0.18785744429975748
1746475011345927000,11.384927001953125,-0.17011340555548668,-0.006029927814006805,-0.3098164022129029
1746475011355924200,11.39492431640625,-0.26034488062262534,0.14432020812928675,-0.3113180389475077
1746475011365920000,11.404919921875,-0.36999183477759356,0.45662908474504943,-0.1188102846238762
1746475011375916000,11.414916015625,-0.6500345185607671,0.6878364259496331,0.21989355470351873
1746475011385913000,11.4249130859375,-0.727007283604145,0.654359688283503,0.6365900767065584
1746475011395909000,11.4349091796875,-0.3372743910461664,0.10854892978519201,1.0832076166555284
1746475011405905000,11.44490478515625,0.09278700476884841,-0.19885843852460383,1.2267664850234985
1746475011415902200,11.454902099609376,0.8326473402053117,-0.32705577937066554,0.9410920789636671
1746475011425898000,11.46489794921875,1.370689802789688,-0.4506798209518194,0.5034606497531756
1746475011435894000,11.47489404296875,1.3983008632928131,-0.31632424973696466,0.06103694476485252
1746475011445891000,11.48489111328125,0.8680471548885107,-0.24353169298768043,-0.44784562043920156
1746475011455887000,11.49488720703125,0.4511889395177364,-0.2512558574989438,-0.7148001284599304
1746475011465883100,11.504883056640624,0.1475643046170473,-0.17869126428663729,-0.7079857722699642
1746475011475880200,11.514880126953125,-0.13532675433456898,-0.15051204850673675,-0.5042791630618274
1746475011485876000,11.5248759765625,-0.3440419854849577,-0.19527765742838382,-0.2974903333967551
1746475011495872000,11.5348720703125,-0.43778059189021584,-0.19207126260250806,-0.31993495104741304
1746475011505869000,11.544869140625,-0.2775964596748352,-0.12399579750299453,-0.4769051627175882
1746475011515865000,11.554864990234375,-0.5072025031626224,-0.2896659599140286,-0.6831222569093108
1746475011525861000,11.564861083984376,-0.5506535223543644,-0.40656566167622804,-0.8919909250557422
1746475011535857000,11.57485693359375,-0.41065760716497895,-0.47200025687813757,-0.7389318954799324
1746475011545854200,11.584854248046875,-0.43427638316154477,-0.24650632488429544,-0.33447365441173316
1746475011555850000,11.59485009765625,-0.5662006355762481,0.0333662630289793,0.06943805868960917
1746475011565846000,11.604845947265625,-0.6225842015773058,0.07079056927710771,0.3910830650579184
1746475011575843000,11.614843017578124,-0.4875485391438007,0.00785743550211191,0.5070181595716625
1746475011585839000,11.624839111328125,-0.2367190903633833,-0.02079056683331728,0.429823714601621
1746475011595835000,11.6348349609375,-0.17827976087629793,-0.041918110536038874,0.20968217648640275
1746475011605832200,11.644832275390625,-0.22754852643609044,0.03901975874602794,0.12434789887629448
1746475011615828000,11.654827880859376,-0.18289689928293226,0.23201865758746862,0.1944918408129364
1746475011625824000,11.664823974609375,-0.14021335733234883,0.4105152760848403,0.42094124690070744
1746475011635821000,11.674821044921876,0.08108312297165393,0.35624446445405483,0.5868670645732432
1746475011645817000,11.684817138671875,0.3413771501898765,0.19952274765223263,0.5716100203391165
1746475011655812900,11.694812744140625,0.6474053391009569,0.15623802493810654,0.524875084105879
1746475011665810200,11.70481005859375,0.900396934351325,0.3308125015556812,0.33122838888019324
1746475011675806000,11.714805908203125,1.1492904466331004,0.5686614727318287,0.13503968102149663
1746475011685802000,11.724802001953124,0.8642465935617685,0.26075930664241315,-0.19524287837594748
1746475011695799000,11.734799072265625,0.8217191189557314,-0.1368181619361043,-0.4224057664953172
1746475011705795000,11.744795166015624,0.7768447889626026,-0.4043944551169872,-0.3671843030761927
1746475011715791000,11.754791015625,0.4474287102013826,-0.3408835214540362,-0.1527592429116368
1746475011725788000,11.764787841796876,0.12477379613816737,-0.05546002141535282,0.19900924517214297
1746475011735784000,11.774783935546875,-0.16563947501182555,0.1111985675111413,0.40394605376236137
1746475011745780000,11.784780029296876,-0.3859843536794185,0.08112842341810464,0.4487120280101895
1746475011755776800,11.79477685546875,-0.3756464995384216,0.021370120286941525,0.4415170019395649
1746475011765773000,11.80477294921875,-0.14942834492325782,-0.009656301617622374,0.3839078396663069
1746475011775769000,11.81476904296875,0.27157997586429117,-0.05397153642326593,0.3502556723680347
1746475011785766000,11.824765869140625,0.6650894643515348,-0.1168275133088231,0.35725261858329177
1746475011795762200,11.83476220703125,0.7994687087029219,-0.15346885248571634,0.2525956547353417
1746475011805758000,11.844758056640625,0.4432096312016248,-0.12396890949606895,-0.06794489752240479
1746475011815755000,11.854755126953124,-0.11656067906618117,0.03300415171831846,-0.4320371528673917
1746475011825751000,11.8647509765625,-0.5181950218200684,0.1908320761963725,-0.514326473291032
1746475011835747000,11.8747470703125,-0.8123883960306644,0.2303761510774493,-0.34780057083349675
1746475011845742800,11.884742919921875,-1.0093366170197724,0.1970218707472086,-0.027412359593249856
1746475011855740200,11.894740234375,-1.1000117442011832,0.10194967765063047,0.20969649727270007
1746475011865736000,11.90473583984375,-0.9919769014179706,0.057685003988444804,0.29009543737247584
1746475011875732000,11.91473193359375,-0.6836299141705036,0.04711246430873871,0.2511433370351791
1746475011885728800,11.924728759765625,-0.2714613179206848,0.01021335097849369,0.18844722688645124
1746475011895725000,11.93472509765625,0.12589958529770373,-0.0661836600035429,0.0893804477283731
1746475011905720800,11.944720947265624,0.29029461320638655,-0.12244067701548338,-0.06785206813979894
1746475011915718000,11.9547177734375,0.10633972930312156,-0.15534224514216183,-0.2790252503689378
1746475011925714000,11.9647138671875,-0.24489362899065018,-0.11019582020938395,-0.4335183678684756
1746475011935710000,11.9747099609375,-0.34993981135189534,0.055614919716119766,-0.32583179053366185
1746475011945706800,11.984706787109374,-0.18959259752929208,0.13099310904443262,-0.06981259109042584
1746475011955703000,11.994703125,0.20616846927702426,0.11145049644559621,0.11806436162739992
1746475011965699000,12.004698974609376,0.46087388270795343,-0.027364684526622295,0.06344915700573474
1746475011975696000,12.01469580078125,0.4345645524531603,-0.2850327471554279,-0.18234317439030856
1746475011985692000,12.02469189453125,0.221167300966382,-0.24095570501983166,-0.3465236462328583
1746475011995688000,12.03468798828125,0.05186813440322876,-0.017015724469721317,-0.4383762927610427
1746475012005684700,12.044684814453126,-0.08177753497660159,-0.09113105425536631,-0.39964481290448456
1746475012015681000,12.054680908203125,-0.11837912666499614,-0.23475246646553277,-0.2555380283301696
1746475012025677000,12.064677001953125,-0.13420330326259136,-0.23032529767304658,-0.1318860758287832
1746475012035673900,12.074673828125,-0.15341127707958221,-0.13798165275752544,-0.02258928681835532
1746475012045670100,12.084670166015625,-0.1900409258186817,0.002756605231761932,0.09757405638229101
1746475012055666000,12.094666015625,-0.2824947531104088,0.10855243691653013,0.2049880273208022
1746475012065662000,12.104661865234375,-0.3197977710664272,0.17460867114812134,0.26267814587578175
1746475012075659000,12.114658935546874,-0.2985959930837154,0.14336451483964918,0.21113924342691898
1746475012085655000,12.124655029296875,-0.1964285810291767,0.08570347624868153,0.153468048768118
1746475012095650800,12.13465087890625,-0.12170213360786437,0.0677802815452218,0.07246544368676841
1746475012105648000,12.144648193359375,-0.006805003839731216,0.08447510349750519,-0.011865794360637665
1746475012115644000,12.154643798828126,0.02489654084742069,0.09395195689499378,-0.03289294642880559
1746475012125640000,12.164639892578125,0.039732290929555894,0.11066636033058166,0.015752937992289662
1746475012135637000,12.174636962890625,0.08702946415543555,0.11109656844139099,0.08430025838725268
1746475012145633000,12.184633056640624,0.1276841306269169,0.0944558147639036,0.09248440509308128
1746475012155628800,12.19462890625,0.1821592326581478,0.07774959463477134,0.011634871681593358
1746475012165626000,12.204626220703124,0.22865444185137748,0.03544716095626354,-0.08743121335674077
1746475012175622000,12.214621826171875,0.2801110728442669,-0.019636428362131118,-0.18458781151194123
