time,seconds_elapsed,z,y,x
1746474926977938400,0.9459384765625,0.002599368843436241,0.07184504676610232,0.08892353427372872
1746474926987935200,0.955935302734375,-0.018214871126413346,0.08213409332931042,0.05626008575186133
1746474926997932500,0.9659326171875,0.014696633872389793,0.0713508335083723,0.03623107787556946
1746474927007928300,0.97592822265625,0.09699263976514338,0.0668432929560542,0.037066724982112643
1746474927017925400,0.98592529296875,0.15934885043501854,0.026748890715837477,0.05368753185011446
1746474927027921400,0.99592138671875,0.19426117386221883,0.023648002091050148,0.06509199230931699
1746474927037918200,1.005918212890625,0.14432371526062487,0.027338381041586396,0.04481901960931718
1746474927047915500,1.01591552734375,0.03404080128967762,0.029343583384156224,0.01765431463420391
1746474927057911300,1.025911376953125,-0.02146189022362232,0.031790392014384265,-0.026684739438444374
1746474927067908600,1.03590869140625,-0.054716509571671484,0.034575346557796,-0.07241670917421579
1746474927077905400,1.045905517578125,-0.0478489618897438,0.003512392035126686,-0.07164616319313645
1746474927087901400,1.0559013671875,-0.04052314904630184,0.0008732757031917572,-0.0378420932687819
1746474927097898500,1.0658984375,-0.0350742359906435,0.013166355565190314,0.024274463426321745
1746474927107894500,1.07589453125,-0.11380348931252955,0.006208206990361213,0.07013458958640695
1746474927117891300,1.085891357421875,-0.15081716893315314,0.017183482252061365,0.040131446314975616
1746474927127888400,1.095888427734375,-0.15226269156634806,0.026502807000279426,-0.016789806759357453
1746474927137884400,1.105884521484375,-0.14883797781467437,0.011271043337881564,-0.05170651410073042
1746474927147881500,1.115881591796875,-0.12446692214608192,0.007104279047250747,-0.05105769480317831
1746474927157877500,1.12587744140625,-0.09264028977453709,0.004785480710864067,-0.015240239229798317
1746474927167874300,1.135874267578125,-0.09104980571269988,0.00760433752387762,-0.008270400217175483
1746474927177871400,1.145871337890625,-0.09977847109138965,-0.0007943652480840683,-0.0016403876181691885
1746474927187867400,1.155867431640625,-0.1064554646372795,0.003233282832801342,-0.019822379388287664
1746474927197864200,1.1658642578125,-0.09830138427615165,0.010324994659423827,-0.041834816166758534
1746474927207861500,1.175861572265625,-0.06104980424642562,0.015392214921116828,-0.04295651367306709
1746474927217857300,1.185857177734375,-0.021691022804379463,0.009611001171171665,-0.016893778590485454
1746474927227854600,1.1958544921875,-0.001980944684147835,0.008745616513490677,-0.013804945729672908
1746474927237850400,1.205850341796875,0.023505963271856306,-0.0048562078595161436,-0.008047916572913528
1746474927247847400,1.215847412109375,0.0678565616518259,-0.008495148883759974,-0.02458572133257985
1746474927257844500,1.225844482421875,0.0853723445981741,-0.0017164485290646551,-0.02987213730290532
1746474927267840500,1.235840576171875,0.06334639075100422,-0.03385755367726087,-0.04414060889109969
1746474927277837600,1.245837646484375,0.058043023645877836,-0.04972849202603102,-0.07055822182595729
1746474927287834400,1.25583447265625,0.05887888994812965,-0.04306289665699005,-0.0483849684625864
1746474927297830400,1.265830322265625,0.03227437613904476,0.0019192776247859,-0.02495338560119271
1746474927307827500,1.275827392578125,-0.013979425513744353,0.02520078449100256,-0.009640154200419783
1746474927317823500,1.285823486328125,-0.06164426300823688,0.04360007227361202,0.0344146761033684
1746474927327820300,1.2958203125,-0.10138824437558651,0.07479045256823301,0.04008395391143858
1746474927337817300,1.3058173828125,-0.11148235288858413,0.06272942789644002,0.022083456188067792
1746474927347813400,1.3158134765625,-0.08355272795557975,0.023976503393054006,0.024353373881429434
1746474927357810400,1.325810546875,-0.024762100812792776,0.043104982233047484,0.05081555661037564
1746474927367806500,1.335806396484375,0.0009428338080644607,0.051716450972855085,0.052468949840590355
1746474927377803300,1.34580322265625,0.01685176607966423,0.031515958987176414,0.011097951793298125
1746474927387800600,1.355800537109375,0.003512392035126686,-0.008702361893653868,0.005920914481580257
1746474927397796400,1.36579638671875,-0.03852759131491184,-0.012661913174390792,0.026912849105894563
1746474927407793400,1.37579345703125,-0.04211889380514622,-0.01234744039773941,0.040706761984899635
1746474927417790500,1.38579052734375,-0.036979192829132077,-0.0007154547929763794,0.05092186652906239
1746474927427786200,1.3957861328125,-0.037215924194455144,0.009737842421233654,0.042925607078149915
1746474927437783600,1.405783447265625,-0.019971943926811217,0.0050225043371319765,0.047623994027450677
1746474927447779300,1.415779296875,-0.005703764599561691,0.01399871473610401,0.04875855101533234
1746474927457776400,1.4257763671875,0.011620295166969299,0.01662994002252817,0.0815223911717534
1746474927467773400,1.4357734375,0.03385726141631603,-0.007884615769982338,0.09916421165056526
1746474927477769500,1.44576953125,0.0426554848998785,-0.00033230069428682324,0.09883315306529403
1746474927487766500,1.4557666015625,0.05187397962212562,0.006158230368793011,0.08177103217057884
1746474927497762600,1.465762451171875,0.05810322940051555,-0.0010933481946587562,0.10026391652077436
1746474927507759400,1.47575927734375,0.005115735578536987,0.002538286305963993,0.09786204301081597
1746474927517756400,1.48575634765625,-0.0512432805031538,0.005611410140991211,0.11520349230356514
1746474927527752400,1.49575244140625,-0.0881254426985979,-0.025844927613437173,0.10753500350229442
1746474927537749500,1.50574951171875,-0.0806663588643074,-0.029823768116533755,0.06692592973820864
1746474927547746300,1.515746337890625,-0.037729134413599964,0.0014335399344563484,0.058611325053125614
1746474927557742300,1.525742431640625,0.03514437861740589,-0.004830781157314777,0.011768471466004848
1746474927567739400,1.535739501953125,0.05259177250266075,0.011149462784826755,-0.03990728217028081
1746474927577735400,1.5457353515625,0.046696869245171545,0.009798340436816214,-0.07197707564793526
1746474927587732200,1.555732177734375,-0.01486146904528141,0.013699731789529324,-0.07067731816098094
1746474927597729500,1.5657294921875,-0.07119476616382599,0.032737317475676535,-0.05940021040849387
1746474927607725300,1.575725341796875,-0.08975625877082348,0.04252601330131292,-0.019188903790339825
1746474927617722600,1.58572265625,-0.12538052985966205,0.00934065979719162,-0.017329831920191646
1746474927627718700,1.59571875,-0.11500059014260768,-0.001213175182044506,-0.017900763675943017
1746474927637715500,1.605715576171875,-0.06596621786057949,0.01938362264484167,-0.015379866896197199
1746474927647712800,1.615712646484375,-0.005606733965873718,0.022050796027481556,-0.006015241701528429
1746474927657708500,1.62570849609375,0.006904372560977936,0.010289631085097789,-0.004602963750809431
1746474927667705600,1.63570556640625,-0.02314414422214031,-0.005528408032655715,-0.0026805443208664653
1746474927677701600,1.64570166015625,-0.08145897054672241,0.0050955695733428,0.017784224624186752
1746474927687698700,1.65569873046875,-0.09426233801841735,0.041998190034925935,0.006991685518249869
1746474927697695700,1.66569580078125,-0.12346329806149005,0.05935235267877578,-0.01337634505406022
1746474927707691800,1.67569189453125,-0.10711538985073565,0.04382920485436916,-0.023131284740567207
1746474927717688600,1.6856884765625,-0.04376783005595207,0.03451426402032375,-0.01634038249142468
1746474927727684900,1.695684814453125,0.029772622451186177,0.0017617489755153656,0.0009223024766892194
1746474927737681700,1.705681640625,0.10898118372261524,-0.01281271982192993,0.018162337221577764
1746474927747678500,1.715678466796875,0.16376491331160067,-0.044916415569186206,0.011580986069887876
1746474927757674800,1.7256748046875,0.18792671014368534,-0.0751198306530714,0.0000795680422335863
1746474927767671600,1.735671630859375,0.20110592519044876,-0.0785702633678913,0.016929580556228757
1746474927777668600,1.745668701171875,0.17083704365491867,-0.06449205365478992,0.04956716398447752
1746474927787664600,1.75566455078125,0.10416706143915652,-0.012617197249829768,0.05050773277021944
1746474927797661400,1.765661376953125,0.00018470891714096068,0.026238603106141088,0.04404058258272707
1746474927807657700,1.77565771484375,-0.09141454737186432,0.07288695703446865,0.04735109537020325
1746474927817654500,1.785654541015625,-0.1762199057370424,0.10031447766423225,0.06486234827190637
1746474927827651600,1.795651611328125,-0.19072949260473251,0.07720920414775609,0.019255320090055466
1746474927837647600,1.805647705078125,-0.18344868794679642,0.06697364133745431,-0.0017951397884637117
1746474927847644700,1.815644775390625,-0.10695289276540279,0.0462806896597147,-0.030976883674412963
1746474927857640400,1.825640380859375,-0.040650574818253515,-0.0022986323311924932,-0.037219431325793265
1746474927867637800,1.8356376953125,0.022848960667848587,-0.011269874294102191,-0.026996289605647324
1746474927877634600,1.845634521484375,0.03388941012024879,-0.0033022564157843587,-0.011600713683664799
1746474927887630600,1.855630615234375,0.002833177599310875,0.021949381479620934,0.010906082483008504
1746474927897627600,1.865627685546875,-0.04969605106115341,0.018277122707664965,0.01659063092544675
1746474927907623400,1.87562353515625,-0.09046703738868236,0.00677343965768814,0.020136706034466625
1746474927917620700,1.885620849609375,-0.0737514649093151,0.006115852531790733,0.005711509514600038
1746474927927617500,1.895617431640625,-0.04362403767108917,0.0011924246549606323,-0.004282499624788761
1746474927937613800,1.90561376953125,-0.012910334977507591,-0.008659691795706748,0.0064496145308017725
1746474927947610600,1.915610595703125,-0.0005026888251304626,-0.015908347749710082,-0.007160320083424448
1746474927957606700,1.925606689453125,-0.005925298395752907,0.00900251388400793,0.02140584918744862
1746474927967603700,1.935603759765625,-0.002403554010391235,0.033630174662172795,0.026172552132606504
1746474927977600500,1.9456005859375,0.015235563054680823,0.025269758073985574,0.013413242998346685
1746474927987596500,1.955596435546875,0.0677782357186079,0.02763414911776781,-0.00838474731184542
1746474927997593600,1.965593505859375,0.09978022465705871,-0.00835632493495941,0.009075725250691174
1746474928007589600,1.975589599609375,0.07135258707404137,-0.01731879906952381,0.0759529204763472
1746474928017586700,1.985586669921875,0.03315232801735401,-0.023629297390580176,0.13325674312748015
1746474928027583500,1.99558349609375,0.028653847554326057,-0.008555354638397693,0.10894435884356499
1746474928037579500,2.00557958984375,0.03831891700029373,-0.000905132146179676,0.09382080479599535
1746474928047576600,2.01557666015625,0.013760229805111884,0.007252163085341453,0.07003317503854632
1746474928057572600,2.025572509765625,-0.006795651489496231,0.02007248169183731,0.08021737298779189
1746474928067569700,2.035569580078125,-0.014867314264178276,0.02420943536609411,0.09961188235282897
1746474928077566700,2.045566650390625,-0.04116320051550865,0.03560995030254126,0.13419102830290794
1746474928087562500,2.0555625,-0.035605566388368606,0.034731121641397474,0.15431334048584103
1746474928097559800,2.065559814453125,-0.03306874138712883,0.026631694076955318,0.16861498369127512
1746474928107555600,2.0755556640625,-0.03723872054815292,-0.0196808520257473,0.16473419673517345
1746474928117552600,2.085552734375,0.0216021754771471,-0.021566227380931377,0.1294935181364417
1746474928127549700,2.0955498046875,0.03928805429339409,-0.025250468851625917,0.0681117785219103
1746474928137545500,2.10554541015625,0.0017325228810310363,-0.024160627788305283,-0.022283581870049238
1746474928147542800,2.115542724609375,-0.008465630528330803,-0.023081308118999003,-0.08534326463416218
1746474928157538600,2.12553857421875,0.02273848603069782,0.011184826359152793,-0.07030161671638488
1746474928167535600,2.13553564453125,0.01783200928866863,0.04674363099634647,-0.028965470786765216
1746474928177532700,2.14553271484375,-0.004925765964388847,0.05881517706215381,0.02101085852049291
1746474928187528700,2.15552880859375,-0.02598667417168617,0.06551905861496925,0.002747691272944212
1746474928197525500,2.165525390625,-0.05083937587738037,0.07898907330185174,-0.02637874222919345
1746474928207521800,2.175521728515625,-0.060140872707962985,0.08544424079060554,-0.0669978259306401
1746474928217518600,2.1855185546875,-0.03788169462680816,0.05218932918161154,-0.09323357949256897
1746474928227515600,2.195515625,0.024563947892189023,0.04716682484447956,-0.059391296449676154
1746474928237511700,2.20551171875,0.06767477534413337,0.04215191929191351,0.0059612464919686315
1746474928247508500,2.215508544921875,0.08873802163898944,0.05573240861594676,0.02632029004022479
1746474928257504800,2.2255048828125,0.05270809235870838,0.03370294763743877,0.02040733966939151
1746474928267501600,2.23550146484375,-0.005937573355436325,0.014012158739566802,-0.027309666403755543
1746474928277498600,2.24549853515625,-0.02990413987636566,0.007987491622567176,-0.041172625930979846
1746474928287494700,2.25549462890625,-0.05181026673614979,0.015107845021784305,-0.04613682420961559
1746474928297491500,2.265491455078125,-0.028840310037136076,-0.00003711713999509811,-0.04576543361395597
1746474928307487700,2.27548779296875,-0.007042904248833656,0.007630641008913516,-0.03591185585856437
1746474928317484500,2.285484619140625,0.035841713231801985,0.019247136783599853,-0.03821194949448108
1746474928327481600,2.295481689453125,0.06656535279750823,-0.008286182308197021,-0.044968364952132106
1746474928337477600,2.3054775390625,0.1335521458774805,-0.045235564520955084,-0.04832008653283119
1746474928347474700,2.315474609375,0.1517389599531889,-0.06255757846087218,-0.04914923083335161
1746474928357470500,2.325470458984375,0.13480945246219633,-0.05939823764711618,-0.017874825517088175
1746474928367467500,2.335467529296875,0.0950794996201992,-0.03925298298001289,0.004807765607908368
1746474928377464600,2.345464599609375,0.04633446567356586,-0.02229454165548086,0.037709260669350625
1746474928387460600,2.355460693359375,-0.024800094735622405,-0.013092413546144962,0.04185951221659779
1746474928397457700,2.365457763671875,-0.05581716428995132,0.008970949701964855,0.011558481977134943
1746474928407453400,2.375453369140625,-0.09001286388039588,0.0190969146579504,-0.0025430355463176963
1746474928417450800,2.38545068359375,-0.09704700030088424,0.039815000776946545,0.003645809156447649
1746474928427447600,2.395447509765625,-0.14094400969445706,0.05059270763993263,0.0004246551528573036
1746474928437443800,2.40544384765625,-0.18079788117706774,0.015251637406647204,0.0008209609940648078
1746474928447440600,2.415440673828125,-0.2053127292305231,0.007494155147671699,0.03565298572666943
1746474928457436700,2.425436767578125,-0.16252338881790637,-0.03493862691223621,0.08738470733389257
1746474928467433700,2.435433837890625,-0.12107435709834098,-0.07246551675200462,0.08712547187581658
1746474928477430500,2.445430419921875,-0.10750643499493598,-0.08132657633870839,0.08579108146689832
1746474928487426600,2.455426513671875,-0.11942775893509387,-0.10055120902955532,0.08250497246831655
1746474928497423600,2.465423583984375,-0.09073591745793819,-0.08719371480643749,0.05656213743835687
1746474928507419600,2.475419677734375,-0.057771220967173575,-0.07389964120835066,0.03617218729518354
1746474928517416700,2.485416748046875,-0.09526888471245765,-0.06376373938024044,0.036226986222341655
1746474928527413500,2.49541357421875,-0.1329910048633814,-0.04692307921648025,0.04126242310628295
1746474928537409500,2.505409423828125,-0.15468085862398145,-0.01642038892507553,0.049418914620205756
1746474928547406600,2.515406494140625,-0.13303718209266663,0.01876490622460842,0.057617491710186
1746474928557402600,2.525402587890625,-0.13164075929820537,0.05947364097088575,0.07033515365980565
1746474928567399400,2.5353994140625,-0.12573416560292244,0.06987257764935494,0.05334186021760106
1746474928577396700,2.545396728515625,-0.12978665586411953,0.07679185551851987,0.04352722623310983
1746474928587392500,2.555392578125,-0.0743704735904932,0.07110679561942815,0.03976590093821287
1746474928597389800,2.565389892578125,0.009517185407876967,0.07425006208121776,0.025330183024331925
1746474928607385600,2.575385498046875,0.1017243444621563,0.06804682352691889,0.04198788783662021
1746474928617382700,2.585382568359375,0.1545364817172289,0.07009615727216005,0.05938815464451909
1746474928627379700,2.595379638671875,0.19568506918549536,0.06542144345939159,0.05038162217251956
1746474928637375500,2.60537548828125,0.18699322868585586,0.07156126138865947,0.0358398135356605
1746474928647372800,2.615372802734375,0.17308569936454296,0.06550181521922349,0.008346095801889896
1746474928657368600,2.62536865234375,0.1609492713689804,0.02300473575145006,-0.004014642468839883
1746474928667365600,2.63536572265625,0.14643442380428312,0.02225713225454092,0.028058877335861324
1746474928677362700,2.64536279296875,0.1356786365121603,0.015178864431381224,0.055688058017566794
1746474928687358700,2.655358642578125,0.09072013536691666,0.024654841046035287,0.06523008560575544
1746474928697355800,2.665355712890625,0.027684125739336013,0.027879940572381016,0.06378828929960727
1746474928707351800,2.675351806640625,-0.03148702515363693,0.0333379137173295,0.04820647009052336
1746474928717348600,2.6853486328125,-0.05246610029637813,0.03770809162557125,0.03938296603523195
1746474928727345700,2.695345703125,-0.07062018114626407,0.013883856184780597,0.007175006195902824
1746474928737341700,2.705341796875,-0.058685413202643394,0.0040092356413602825,0.021276596784591675
1746474928747338800,2.7153388671875,-0.011361351969838143,0.004973404498398303,0.03974434669353068
1746474928757334800,2.725334716796875,0.010020458754897116,-0.00995674586892128,0.060145037426427
1746474928767331600,2.73533154296875,0.008341711887717247,-0.004926058225333691,0.02775397610515356
1746474928777328600,2.74532861328125,-0.03408464043140411,-0.0013014379873871802,-0.0007980185098946094
1746474928787324700,2.75532470703125,-0.08165887703299522,0.03599281214028597,-0.03710647247061133
1746474928797321500,2.765321533203125,-0.1459878490805626,0.05283551813066006,-0.03650836044698953
1746474928807317800,2.77531787109375,-0.16949907304942607,0.05872662199586629,-0.03938026262149214
1746474928817314600,2.785314453125,-0.1658031411409378,0.05221358684003353,-0.03122859341315925
1746474928827311900,2.795311767578125,-0.14328326629698276,0.06351414853334426,-0.002410714403539896
1746474928837307600,2.8053076171875,-0.10974573835432529,0.060462944269180294,0.005409530893340706
1746474928847304700,2.8153046875,-0.08361234918832779,0.05050035318136215,0.016551467958837746
1746474928857300700,2.82530078125,-0.046159693628549575,0.0278197348177433,0.034123876463249325
1746474928867297500,2.835297607421875,-0.0159293905377388,0.02104629516005516,0.04157645749151707
1746474928877294800,2.845294921875,0.01474164205789566,0.02135813758820295,0.04022036670744419
1746474928887290600,2.85529052734375,0.031818449065089224,0.004517185163497924,0.055883288328722115
1746474928897287700,2.86528759765625,0.03688040862977505,0.010947218210995197,0.05616049783490598
1746474928907283500,2.875283447265625,0.044780221968889235,0.007338087803125381,0.03132993489578366
1746474928917280800,2.88528076171875,0.060251931867003436,0.013697101441025733,0.02496668347418308
1746474928927277600,2.895277587890625,0.060246671169996255,0.01075491050928831,0.010263985187187791
1746474928937273900,2.90527392578125,0.07094517531692981,-0.0070204001560807226,-0.010694266363233328
1746474928947270700,2.915270751953125,0.07212240240275859,-0.017896891218423843,-0.01703910534530878
1746474928957266700,2.9252666015625,0.05564882198572158,-0.019308803842961787,-0.013327464411035179
1746474928967263700,2.935263671875,0.04512041370868682,-0.023794424824416637,0.009736600312218069
1746474928977260500,2.945260498046875,0.030269466057419776,-0.018844401201605795,0.02362330604121089
1746474928987256800,2.9552568359375,0.011418635115027427,-0.005718085385859013,0.025464842254668472
1746474928997253600,2.965253662109375,0.008460954353213309,0.01154138471186161,0.034621742982789874
1746474929007249700,2.975249755859375,0.014586743757128715,0.017099311099946498,0.02112900500744581
1746474929017246700,2.985246826171875,-0.0003577273964881897,0.0023088614642620083,0.024141484696418046
1746474929027243500,2.995243408203125,-0.018342881420254708,0.006247954478859901,0.03925174087099731
1746474929037239600,3.005239501953125,-0.04415595259070396,0.006656535279750824,0.02940868450962007
1746474929047236600,3.015236572265625,-0.042969373154640195,-0.006713526163995265,0.036279300931468604
1746474929057232600,3.025232666015625,-0.037784079471230504,-0.007125029574334621,0.024686405228078363
1746474929067229700,3.035229736328125,-0.0360416197180748,-0.011984744565188884,0.03213116827607155
1746474929077226800,3.045226806640625,-0.01014496191740036,-0.03184562933295965,0.025969503841176626
1746474929087222500,3.055222412109375,-0.0021229835033416745,-0.04392360513955355,-0.0084575202871114
1746474929097219600,3.065219482421875,-0.006797989577054977,-0.03992927480638027,-0.034056218054518105
1746474929107215600,3.075215576171875,-0.020893150424957273,-0.03458323760330677,-0.03469458902329206
1746474929117212700,3.085212646484375,-0.03821428758203983,-0.034622108308970924,-0.03932648660764098
1746474929127209700,3.095209716796875,-0.05259469511210918,-0.02642155845761299,-0.03841982009150088
1746474929137205500,3.10520556640625,-0.06644669485390185,0.001662380254268646,-0.012936346201598644
1746474929147202800,3.115202880859375,-0.03864508021473884,-0.0029389760613441466,-0.019933950003981588
1746474929157198600,3.125198486328125,-0.04262801237106323,-0.01937105542421341,-0.04170819411240518
1746474929167195600,3.135195556640625,-0.05262801285982131,-0.03313362331688404,-0.0037740386459976434
1746474929177192700,3.145192626953125,0.0015139116942882538,-0.01849485711157322,0.04800415245145559
1746474929187188700,3.155188720703125,0.03148117993474007,-0.01403320152759552,0.04619264605008065
1746474929197185800,3.165185791015625,0.07319441554844379,-0.015909224532544612,0.014784166025370358
1746474929207181600,3.175181640625,0.09653554364740848,-0.016828385204076767,0.017502265877649185
1746474929217178600,3.1851787109375,0.02728723537623882,-0.00521188942939043,0.029135931982845066
1746474929227175700,3.19517578125,0.05753273603618145,-0.01774842265844345,0.02524878835119307
1746474929237171700,3.205171630859375,0.08831073613762855,0.013666998563706874,0.0234937613774091
1746474929247168500,3.21516845703125,0.027435703936219212,0.025799919427931306,0.03701126846782863
1746474929257164800,3.225164794921875,-0.02073766760230064,0.04795651391744613,0.11403437545895576
1746474929267161600,3.23516162109375,-0.0008247603863477706,0.04939969846308231,0.1387907041180879
1746474929277158700,3.24515869140625,-0.0056231005787849425,0.04730915592461824,0.1325828624539077
1746474929287154700,3.25515478515625,0.0010375263541936874,0.04201835604012012,0.06469159481488168
1746474929297151500,3.2651513671875,0.025642975300550458,0.013585165499150752,-0.023401772245019672
1746474929307147800,3.275147705078125,0.029601942059397694,-0.019661270542442797,-0.08113872561641038
1746474929317144600,3.28514453125,0.0008966565787792205,-0.03256546804010868,-0.09943849854730069
1746474929327142000,3.295141845703125,-0.02006020673215389,-0.031039281386137006,-0.0688780136540532
1746474929337137700,3.3051376953125,-0.05908405713140964,-0.007807751141488552,-0.018871654534712432
1746474929347134500,3.315134521484375,-0.07824643824100494,-0.005656710587441921,0.0028555355615913864
1746474929357130800,3.325130859375,-0.08747077818214893,0.01310293494015932,0.019241145434230566
1746474929367127600,3.33512744140625,-0.10396715495288371,0.018140929107367993,0.028503917689621447
1746474929377124600,3.34512451171875,-0.11093816300928593,0.05482113898992538,0.024993571481108662
1746474929387120600,3.35512060546875,-0.12029869655072688,0.07646627682596445,0.06045483402796089
1746474929397117700,3.36511767578125,-0.13453589621782303,0.08971972615271806,0.07406148070655763
1746474929407113500,3.375113525390625,-0.1380874512195587,0.0910275938808918,0.07326609254516661
1746474929417110800,3.38511083984375,-0.13175883271992206,0.08910188651531935,0.06286014160402119
1746474929427107600,3.395107666015625,-0.12410510309636592,0.090574004894495,0.028704043371602893
1746474929437103900,3.405103759765625,-0.09561842880249023,0.06631283934116364,0.013297142338007687
1746474929447100700,3.4151005859375,-0.04491816913485527,0.02958206831514835,0.011103358620777725
1746474929457096700,3.4250966796875,-0.011865794360637665,0.020665186887979508,0.04021554440185427
1746474929467093800,3.43509375,-0.00048281508088111874,0.015480477726459503,0.07617869205623864
1746474929477090600,3.445090576171875,0.003469721937179565,0.0051817865520715715,0.05556128983274102
1746474929487086800,3.4550869140625,0.03735854753553867,-0.000732113666832447,-0.005942103400081396
1746474929497083600,3.465083740234375,0.04600479532778263,0.0011988543957471847,-0.04085669184960425
1746474929507079700,3.47507958984375,0.021777532044053076,-0.003144435505568981,-0.0435648548297584
1746474929517076700,3.48507666015625,-0.009531798455119133,-0.006281856748461723,-0.0005208820689469576
1746474929527073500,3.495073486328125,-0.09478840771913528,-0.00585281768143177,0.034604353456571695
1746474929537069600,3.505069580078125,-0.12246902632713318,0.004421615834534168,0.032596666895970704
1746474929547066600,3.515066650390625,-0.05904898581802845,0.015109306326508521,0.03377060604616999
1746474929557062700,3.525062744140625,0.006797989577054977,0.02220949372053146,0.03995557829141617
1746474929567059700,3.535059814453125,0.005678630158305168,0.01926642600595951,0.0498046990673989
1746474929577056800,3.545056884765625,-0.045915948000550266,0.004117956712841988,0.048385406854003665
1746474929587052500,3.555052490234375,-0.024982465565204618,0.02753478039652109,0.04125350914746523
1746474929597049600,3.565049560546875,0.00986263784468174,0.029188392822444436,0.024979542955756186
1746474929607045600,3.575045654296875,0.014721768313646315,0.03302490224540233,0.012937076853960752
1746474929617043000,3.58504296875,0.03713292208611965,0.01993921070098877,-0.009507321600988506
1746474929627040300,3.595040283203125,0.030305706414580344,-0.013316285429894924,0.00796557205170393
1746474929637036000,3.6050361328125,0.006453706184029579,0.0070709612995386115,0.0414767965093255
1746474929647033000,3.615033203125,0.023916297638416288,-0.006339139893651008,0.05247757153846323
1746474929657030100,3.625030029296875,0.026889760491251944,-0.023840309792757034,0.039735213539004326
1746474929667026000,3.63502587890625,0.024697218883037567,-0.019431261178851127,0.02524878835119307
1746474929677023200,3.645023193359375,0.013313070559501648,-0.037165947572886944,-0.0007999912712723016
1746474929687019000,3.65501904296875,-0.014192191481590271,-0.02543342420309782,-0.015122092742845416
1746474929697016000,3.66501611328125,-0.015215104788541793,-0.019337737676501272,-0.028517069432139396
1746474929707012000,3.67501220703125,-0.02600362530648708,0.01405365979373455,-0.030056700089573857
1746474929717009200,3.685009033203125,-0.023381460109353065,0.0372372592434287,-0.023725012850016353
1746474929727006200,3.695006103515625,0.01787526390850544,0.014439736501872538,-0.07099792841747403
1746474929737002200,3.705002197265625,0.04908347212076187,-0.010009352838993072,-0.12468896739892661
1746474929746999000,3.7149990234375,0.08817688062489032,-0.0232601718172431,-0.12570055559426546
1746474929756995300,3.724995361328125,0.12090016957521438,-0.034714170506596566,-0.09047989687025547
1746474929766992100,3.7349921875,0.10515022725760936,-0.01522825653105974,-0.030195889364555476
1746474929776989200,3.7449892578125,0.03641922085881233,-0.0019788988575339317,0.04321304571740329
1746474929786985200,3.754985107421875,-0.09035422466397285,0.02452449266463518,0.05389445259906351
1746474929796982000,3.76498193359375,-0.15511808099746704,0.05151362187713384,0.021375088723003862
1746474929806978300,3.774978271484375,-0.13564531876444816,0.046025838115811346,-0.0009095891255885362
1746474929816975000,3.78497509765625,-0.08048398803472519,0.010938742643594741,0.03469714630655944
1746474929826972000,3.794971923828125,-0.018245850786566733,-0.006536416031420231,0.08445895608030259
1746474929836968200,3.80496826171875,0.0164390936255455,-0.034816461837291715,0.10170162117369472
1746474929846965000,3.814965087890625,0.032256255960464476,-0.05459639032334089,0.09739406017288565
1746474929856962300,3.82496240234375,0.014043722921609878,-0.05171294384151697,0.08117949601821602
1746474929866958000,3.8349580078125,-0.0210357737660408,-0.050230888590216634,0.09673398882895708
1746474929876955100,3.844955078125,-0.07231938627958297,-0.052312955561280246,0.1284458357144147
1746474929886951200,3.854951171875,-0.12022621583640575,-0.050210722585022446,0.12766367236077786
1746474929896948200,3.8649482421875,-0.1239928748935461,-0.022455577436089516,0.11144625866189599
1746474929906945300,3.8749453125,-0.07832184156477451,0.015154314512014388,0.05819660677239299
1746474929916941000,3.884941162109375,-0.01808569178879261,0.027898353011906147,0.029145722724497315
1746474929926938000,3.894938232421875,0.06379413451850414,0.03602876023650169,0.014898293924331665
1746474929936934100,3.90493408203125,0.11999474516808986,0.027208032660186288,-0.010202245062589644
1746474929946931200,3.91493115234375,0.12910101168751717,0.03177753253281116,-0.05170563731789589
1746474929956928000,3.924927978515625,0.07839081514775753,0.04462824627757072,-0.0736642980825156
1746474929966924300,3.93492431640625,0.0424766212016344,0.0578571456849575,-0.04551481985375285
1746474929976921000,3.944921142578125,-0.012144611302018165,0.06729366707205772,-0.015030688132345675
1746474929986917000,3.954917236328125,-0.026041034707427024,0.05003215114772319,-0.0017526158209890126
1746474929996914200,3.9649140625,-0.0468383235424757,0.06234335118830204,0.004397723502293229
1746474930006911000,3.974910888671875,-0.03141922061443329,0.04597907636463642,0.013215966860577463
1746474930016907300,3.9849072265625,0.015504443123936652,0.011559504890441894,0.02992985883951187
1746474930026904000,3.994904052734375,0.028153496816754338,0.026805297078192233,0.0064017568010836835
1746474930036900000,4.004900146484375,0.057686465293169016,0.014853577999770641,0.014189415002614258
1746474930046897200,4.014897216796875,0.049687867754697794,-0.0015656418815255164,0.00719502607062459
1746474930056894000,4.02489404296875,0.03764379421770572,0.014039923529326915,0.044424467333778736
1746474930066890000,4.034889892578125,0.0048287353307008745,0.005158990198373794,0.09322188905477523
1746474930076887000,4.044886962890625,-0.026194179442524907,-0.0039022681355476378,0.12885500103719533
1746474930086883000,4.054883056640625,-0.07157470539212227,-0.023583120161294935,0.13065854332782328
1746474930096880000,4.064880126953125,-0.09112462451457977,-0.021250877821445465,0.09473441250957548
1746474930106877200,4.074877197265625,-0.1219236674040556,-0.040297231335937975,0.0896308788254857
1746474930116873000,4.084873046875,-0.1548404330998659,-0.035922669513523575,0.05965089723393321
1746474930126870300,4.094870361328125,-0.1333434715628624,0.001724339574575424,0.03760791918672621
1746474930136866000,4.104865966796875,-0.12691782242953775,0.023183891710638997,-0.005330108981579542
1746474930146863000,4.114863037109375,-0.13697452154159545,0.01867167498320341,-0.03878580385968089
1746474930156860200,4.124860107421875,-0.12421674677729606,0.02740881592929363,-0.02437529345229268
1746474930166856000,4.13485595703125,-0.12779869691729545,0.032036183468997476,-0.03730177584700286
1746474930176853200,4.144853271484375,-0.15041151074171066,0.05131693026125431,-0.046883623988926405
1746474930186849000,4.15484912109375,-0.13791092560887336,0.03148644063174724,-0.08062091228738427
1746474930196846000,4.16484619140625,-0.055821840465068814,0.00538052399456501,-0.1007172132462263
1746474930206843100,4.174843017578125,0.04123568122982978,0.013627251075208187,-0.04486008227206766
1746474930216839200,4.184839111328125,0.11875848137140273,0.009864683671295641,0.03554426465518772
1746474930226836200,4.194836181640625,0.12320610843002795,-0.0001493453428149223,0.09184811648353934
1746474930236832300,4.204832275390625,0.12360124522745608,0.00535392824858427,0.11028152573145926
1746474930246829000,4.2148291015625,0.09798165080249309,-0.007148118188977241,0.09619761692993342
1746474930256826000,4.224826171875,0.06585106704831123,0.021891806073486803,0.08529496851302683
1746474930266822100,4.234822265625,0.09309154067337512,0.030811025588214396,0.055176236037909984
1746474930276819200,4.244819091796875,0.11186287663877009,0.03779986156225204,0.037288551039248705
1746474930286815200,4.254815185546875,0.1347808108896017,0.06177841078191995,0.02211962347999215
1746474930296812000,4.26481201171875,0.13177753742039203,0.08257102344185113,0.037005204053223134
1746474930306809000,4.27480908203125,0.08921206889152526,0.06454232253730297,0.0034468525182455778
1746474930316805000,4.28480517578125,0.03440846555829048,0.03221680073291063,-0.023510201055556533
1746474930326802000,4.294802001953125,-0.0433089803725481,0.004290682931244373,-0.011474018564075232
1746474930336798200,4.304798095703125,-0.07679390134513378,-0.009314648573100567,0.0303931655023247
1746474930346795000,4.314794921875,-0.09033084378838539,-0.013992284995317458,0.0748943513341248
1746474930356792300,4.324792236328125,-0.07662789712846278,-0.0002919686838984489,0.059943523504957553
1746474930366788000,4.3347880859375,-0.021755320212244987,0.02300999644845724,0.04733224453926086
1746474930376785200,4.34478515625,-0.01111702181994915,0.03065495824366808,0.012403481433913111
1746474930386782200,4.3547822265625,-0.04581541023552418,0.02493745737969875,-0.029042846871912477
1746474930396778000,4.364778076171875,-0.07759586537778378,0.0045966801404953,-0.018077435417100787
1746474930406775300,4.374775390625,-0.10178805734813212,-0.013016717961430549,0.02341989242359996
1746474930416771000,4.38477099609375,-0.11569558666944503,-0.014345628477632998,0.06760163704268633
1746474930426768100,4.39476806640625,-0.08524024265110493,-0.019457564663887022,0.1186906768321991
1746474930436765200,4.40476513671875,0.009629998132586479,-0.0033417116433382033,0.07292129769548773
1746474930446761200,4.41476123046875,0.06393032811880112,0.01513502528965473,0.03330854149237275
1746474930456758000,4.424758056640625,0.0345253699362278,0.028395488879084586,0.03520575341582298
1746474930466754300,4.43475439453125,0.04368248986005783,-0.006510989329218864,0.05305734418779611
1746474930476751000,4.444751220703125,0.023497779965400693,-0.044346506726741786,0.07972286746911704
1746474930486748200,4.454748046875,0.02214285822510719,-0.04500935454964637,0.07438238322399557
1746474930496744200,4.464744140625,0.014192191481590271,0.003010579992830753,0.022759163492545482
1746474930506741000,4.474740966796875,0.0032440964877605435,0.039999125172197815,-0.03056538026407361
1746474930516737300,4.4847373046875,-0.0324514862716198,0.031303777541220185,-0.05382869388647377
1746474930526734000,4.494734130859375,-0.09078501729667186,0.03732406074404716,-0.02114486016370356
1746474930536731000,4.50473095703125,-0.123452192145586,0.0659068888887763,-0.012113193250447511
1746474930546727200,4.51472705078125,-0.16476736835241318,0.05883271271884441,0.010666501573473215
1746474930556724000,4.524723876953125,-0.1704044974565506,0.04563420844972133,0.017967545301839707
1746474930566720000,4.534719970703125,-0.09728197810053825,0.049878714151680464,0.0007379588857293128
1746474930576717000,4.544717041015625,-0.027596447455883025,0.055234980487823486,-0.003159779205173254
1746474930586714000,4.554714111328125,0.03283317906558513,0.05370587122440338,-0.042096024386212225
1746474930596710100,4.564710205078125,0.073455112311244,0.024986557218432424,-0.04946626089327037
1746474930606707200,4.574707275390625,0.09115034347772598,0.02296294243633747,-0.03895568053387105
1746474930616703000,4.584702880859375,0.07284662502408028,-0.009573007248342036,-0.022361761672794817
1746474930626699800,4.59469970703125,0.055095864278078076,-0.0053708793833851815,0.00526873418316245
1746474930636696800,4.60469677734375,0.03079378219246864,0.024003975921869276,-0.01216996493898332
1746474930646692900,4.61469287109375,0.05203355409801006,0.04730944818556308,-0.031133462475612758
1746474930656689700,4.624689697265625,0.022830255967378615,0.0417468456223607,-0.015717939744144677
1746474930666685700,4.634685791015625,-0.014410218146443367,0.02244096438884735,0.010699088668823242
1746474930676682800,4.644682861328125,-0.0022001403927803037,0.016719371871650218,0.01733195081204176
1746474930686679800,4.6546796875,0.037758360508084295,0.027813889598846436,0.027098727066814897
1746474930696675800,4.66467578125,0.06525602376461029,0.04978431386649608,0.06332834363766014
1746474930706672600,4.674672607421875,0.05219079048633575,0.03472878355383873,0.09327208487205207
1746474930716669000,4.6846689453125,0.0067132339030504225,0.029174072036147115,0.09183562232814729
1746474930726665700,4.694665771484375,-0.012967618122696875,0.02265577618330717,0.05316811108589172
1746474930736662500,4.70466259765625,-0.045269466790556906,0.00016454291194677352,0.011220262998715043
1746474930746658800,4.714658935546875,-0.06193827751874923,-0.006793897923827171,0.015583791970461607
1746474930756655600,4.724655517578125,-0.08765139544606208,0.015183540606498718,0.06133987323418259
1746474930766651600,4.734651611328125,-0.14050094210207462,-0.004317278677225113,0.06257694074846804
1746474930776648700,4.744648681640625,-0.11884674417674541,-0.03922551045119762,0.05740867126509547
1746474930786645800,4.754645751953125,-0.09065583795905113,-0.0434331912741065,0.03192760852798819
1746474930796641800,4.764641845703125,-0.06525134758949279,-0.02643032628595829,0.002047945505753159
1746474930806638600,4.774638671875,-0.029462825849652288,-0.003838847510516643,-0.014073606603220105
1746474930816636000,4.784635986328125,-0.015344868648052215,-0.011402853024005889,-0.030774200709164142
1746474930826631700,4.794631591796875,-0.00835807850062847,-0.01691401766091585,-0.053758112868294114
1746474930836628700,4.804628662109375,-0.009533552020788193,0.011812018346786498,-0.0342310631647706
1746474930846624800,4.814624755859375,-0.0042220016092062,0.028443127413094044,-0.03899199395626783
1746474930856621800,4.824621826171875,-0.01812485475540161,0.0614297434747219,-0.04355798669755458
1746474930866618600,4.83461865234375,-0.04205634996294975,0.09029343438744544,-0.02427877427525818
1746474930876615000,4.844614990234375,-0.032623920229077334,0.09759265148490667,-0.01748290359005332
1746474930886611700,4.85461181640625,-0.05121522345244884,0.0834159498333931,-0.03448094627261162
1746474930896607700,4.864607666015625,-0.008541033852100371,0.07815466830432415,-0.03558335455656052
1746474930906604800,4.874604736328125,0.0622357991605997,0.018367431339621543,-0.016159765227511523
1746474930916601600,4.8846015625,0.08748831383883952,0.007951543526351452,0.04108392473421991
1746474930926598000,4.894597900390625,0.08599602945446967,0.018077216221392155,0.07269983696453274
1746474930936594700,4.9045947265625,0.07255670216679573,0.019216449384391307,0.03819244107641279
1746474930946590700,4.9145908203125,0.02789455361962318,0.015681845517456532,0.0009880611892789603
1746474930956587800,4.924587890625,0.014780220502614974,-0.0022007249146699906,-0.013405425018072127
1746474930966584600,4.93458447265625,-0.01171907936632633,-0.0123129536062479,-0.006142959734424949
1746474930976580900,4.944580810546875,-0.003861351603269577,-0.018232699044048783,0.060115153744816775
1746474930986577700,4.95457763671875,0.02709258958697319,-0.03219546568393707,0.0917296777356416
1746474930996573700,4.96457373046875,0.040683308044075966,-0.03326397169828415,0.1011100850213319
1746474931006570800,4.97457080078125,0.03137888860404491,-0.0704623602360487,0.12057429862171411
1746474931016567800,4.98456787109375,0.015042086309194564,-0.0691074384957552,0.12388320397399365
1746474931026563600,4.9945634765625,-0.003245265531539917,-0.0652580695912242,0.10141199057735502
1746474931036561000,5.004560791015625,-0.01998188079893589,-0.03579436695873737,0.06544504353068768
1746474931046556700,5.014556640625,-0.05708499226868152,-0.011027005448937416,0.043349020121991634
1746474931056553700,5.0245537109375,-0.11822013671100139,-0.000034779052436351776,0.0354084363810718
1746474931066550800,5.03455078125,-0.14821896913349628,0.009476853397488593,0.0382876450791955
1746474931076546600,5.044546630859375,-0.08370937982201576,0.019408172564208508,0.007208470074087381
1746474931086544000,5.0545439453125,-0.01953647511899471,0.0349108621224761,-0.025323095696419474
1746474931096539600,5.06453955078125,-0.016181903994083403,0.024683774879574773,-0.0225466167204082
1746474931106536700,5.07453662109375,-0.03422960186004639,0.02084580415189266,0.009233546160906552
1746474931116533800,5.08453369140625,-0.035085341906547544,0.031229835522174832,0.0020375702422112227
1746474931126529800,5.09452978515625,-0.04933014035820961,0.03930734351575375,-0.013696516919136047
1746474931136526800,5.10452685546875,-0.04972644619941711,0.0541340335085988,-0.006379106577858329
1746474931146523000,5.11452294921875,-0.05879530331790447,0.04583528397977352,0.010372487062960862
1746474931156519700,5.124519775390625,-0.0613777210265398,0.024881927800178526,0.022090616581216454
1746474931166516700,5.134516845703125,-0.04081891712248325,-0.0027718028008937834,0.00070486033372581
1746474931176512800,5.1445126953125,-0.00937806919813156,-0.007182312719523906,-0.008030161720514297
1746474931186509800,5.154509765625,0.02941957122981548,-0.007648468926548958,-0.012729498517885804
1746474931196506600,5.164506591796875,0.06892915931940079,-0.02157207259982824,-0.013463000424206256
1746474931206502700,5.174502685546875,0.06777531310915946,-0.028984102421998975,-0.02422200258672237
1746474931216499700,5.184499755859375,0.031951135534048075,-0.0042681788384914396,-0.020798384813591836
1746474931226495700,5.194495849609375,-0.012929624199867248,0.0009171148449182509,-0.00945522608757019
1746474931236492500,5.204492431640625,-0.03545943591594696,0.03081073332726955,0.0011725509107112884
1746474931246489900,5.21448974609375,-0.05648936446309089,0.046234512430429454,0.035766309908032416
1746474931256485600,5.224485595703125,-0.0970318027317524,0.0690115769058466,0.07109371694214642
1746474931266483000,5.23448291015625,-0.11452362028062343,0.06434796900898218,0.08194120110571385
1746474931276478700,5.244478759765625,-0.10560381624400615,0.05300736756622791,0.07132387243621051
1746474931286475800,5.254475830078125,-0.08902443736493587,0.0426338575899601,0.034967414615303276
1746474931296472800,5.264472900390625,-0.04265080872476101,0.03756166889220476,0.005031199100241065
1746474931306468600,5.274468505859375,-0.00783610045313835,0.023248481379449366,0.011694164120778441
1746474931316466000,5.2844658203125,0.013637480208277701,0.014509586867690086,0.02166230816654861
1746474931326461700,5.294461669921875,0.015536007305979729,-0.01799509089589119,0.04169518850035965
1746474931336458800,5.304458740234375,0.06931845089793205,-0.011166121658682823,0.04559935633204877
1746474931346455800,5.314455810546875,0.057791094711422915,0.0018079262048006056,0.04615728247575462
1746474931356451800,5.324451904296875,0.03192015587389469,0.013782733897864817,0.03533427516631782
1746474931366448600,5.33444873046875,-0.03742226042151451,0.025728607757389544,0.019903189539536834
1746474931376445000,5.34444482421875,-0.07502630715072155,0.026756781761348245,0.015515841300785541
1746474931386441700,5.354441650390625,-0.10642156236767768,0.03720364923477173,0.01055602693632245
1746474931396438800,5.364438720703125,-0.1092921493679285,0.03266366771757603,0.003231529267132282
1746474931406434800,5.374434814453125,-0.1083031383305788,0.02716390125751495,0.002345540212839842
1746474931416431600,5.384431640625,-0.11160627152919769,0.032866204552352424,0.0001822246991097927
1746474931426428000,5.394427978515625,-0.062142860180139536,0.0007277297526597976,-0.02213730526715517
1746474931436424700,5.4044248046875,-0.044021512556076045,0.019179624505341053,-0.018934125311672687
1746474931446421800,5.414421875,-0.01726560757756233,0.053252866759896274,0.00818316032513976
1746474931456417800,5.424417724609375,0.014981880554556846,0.056118777585029596,-0.028124782178923485
1746474931466414600,5.43441455078125,0.024991817915439606,0.0182625096604228,-0.040488150798156854
1746474931476412000,5.444411865234375,0.04648877945244312,0.004199789777398109,-0.023848200838267802
1746474931486407700,5.45440771484375,0.07675941455364227,0.013665244998037814,0.0019509148720651863
1746474931496404700,5.46440478515625,0.06487023931741714,0.012804244254529475,0.04780468435660004
1746474931506400800,5.47440087890625,0.03621171558797359,0.0019856208592653273,0.06226502525508403
1746474931516397800,5.484397705078125,-0.01071136362850666,0.011407821460068225,0.06467369383201002
1746474931526395000,5.494394775390625,-0.026171383088827133,0.017782617188990116,0.03354030442163348
1746474931536390700,5.504390625,0.00968085153698921,-0.0018856676161289215,0.032038594621792434
1746474931546387700,5.5143876953125,0.05422551118433475,-0.011524725838005541,0.03639678983129561
1746474931556383700,5.5243837890625,0.06931085211336613,-0.0146919576972723,0.06317892522960901
1746474931566380800,5.534380859375,0.0776993257522583,-0.038273616553843016,0.10090265281572937
1746474931576377600,5.544377685546875,0.04157236583828926,-0.05949848315119743,0.1153085601132363
1746474931586374000,5.554373779296875,0.013466215294599532,-0.058437283660471434,0.09398425172939896
1746474931596370700,5.56437060546875,0.005257189875841141,-0.05154840092957019,0.06794182878248393
1746474931606366700,5.57436669921875,-0.00658171647787094,-0.05148381126075983,0.037219431325793265
1746474931616363800,5.58436376953125,-0.005183540117740631,-0.052983986690640444,-0.004102686078473926
1746474931626362600,5.594362548828125,0.03512625843882561,-0.03158259448260069,-0.012164046654850243
1746474931636358400,5.6043583984375,0.030738252612948415,-0.006104162093997001,-0.02421637656353414
1746474931646355700,5.614355712890625,0.010427870512008667,0.015937573844194412,-0.029855770689994093
1746474931656351500,5.6243515625,-0.017125322324037552,0.032874095597863195,-0.028195728523284194
1746474931666348800,5.634348876953125,-0.053310734426975245,0.055141164724528784,-0.032546763339638705
1746474931676345600,5.644345703125,-0.04542962578833103,0.0899886062219739,-0.02256539448611438
1746474931686341600,5.654341552734375,-0.014628244811296463,0.08497399293035268,-0.02375109713934362
1746474931696338700,5.664338623046875,0.020281740528345107,0.06719955904781819,-0.01279934888370335
1746474931706334500,5.67433447265625,0.0899205094218254,0.06459843663871288,0.01617372068762779
1746474931716331800,5.684331787109375,0.12306699222028254,0.05224076710790396,0.030636107412725686
1746474931726328600,5.69432861328125,0.12489946834445,0.03451280271559953,0.021982406966388226
1746474931736324600,5.70432470703125,0.11728431716561316,0.029595804579555986,0.002401142857596278
1746474931746321700,5.71432177734375,0.07506137846410274,0.016337386816740036,0.009995981900766492
1746474931756317700,5.724317626953125,0.03637771980464458,-0.0015533669218420981,0.011045052562281488
1746474931766314500,5.734314453125,0.04419979173243046,0.011246201157569885,0.019091288634762168
1746474931776311600,5.7443115234375,0.06024257951676845,0.010768646773695946,0.0375774509832263
1746474931786307600,5.7543076171875,0.025979659909009932,0.020414719258248806,0.07377564950250089
1746474931796304600,5.7643046875,0.015552373918890952,0.011152385394275188,0.07839929071515798
1746474931806301700,5.7743017578125,0.011592822638154029,0.010231763418018817,0.05756152373924851
1746474931816297500,5.78429736328125,-0.04664835392832756,-0.013750292932987213,0.021674510060995817
1746474931826294800,5.794294677734375,-0.05391688362658024,0.002209492743015289,0.046604368656128645
1746474931836290600,5.80429052734375,-0.03456277933716774,0.0009419570252299308,0.06595679244510828
1746474931846287600,5.81428759765625,-0.02498889530599117,-0.014127601812779902,0.0887059460002929
1746474931856284700,5.82428466796875,0.0043885903477668756,-0.010386661718785762,0.11205854534134269
1746474931866280400,5.834280517578125,-0.002928454667329788,-0.003511515252292156,0.10814677872508764
1746474931876277800,5.84427783203125,-0.0002858312040567398,-0.01319616618156433,0.06512267970852553
1746474931886273500,5.8542734375,-0.005099953487515449,-0.005354220509529113,0.035618645065650344
1746474931896270600,5.8642705078125,-0.03973404449522495,0.014375146833062171,0.017060951850935816
1746474931906267600,5.874267578125,-0.1276870532363653,0.021688976977765558,-0.006862579245865344
1746474931916263700,5.884263671875,-0.19362346048057077,0.03564765196442604,-0.023552140501141548
1746474931926260700,5.8942607421875,-0.20671908889710902,0.017920564354956148,-0.02807802042774856
1746474931936256800,5.9042568359375,-0.17966098610162734,0.011854980705678463,-0.02644822726882994
1746474931946253600,5.914253662109375,-0.11325579230189323,-0.0037251580029726027,-0.05530789959356189
1746474931956250600,5.924250732421875,-0.04815232875049114,-0.012779986596107483,-0.07163534953817725
1746474931966246700,5.93424658203125,0.015214520266652107,-0.024177871184051035,-0.09894070509299635
1746474931976243700,5.94424365234375,0.07011690779924393,-0.03034691520780325,-0.08676964417546987
1746474931986240500,5.954240478515625,0.06508242076337337,-0.031178982117772102,-0.07947305742651224
1746474931996236500,5.964236572265625,0.05747954454421997,0.002515489952266216,-0.030851211468130347
1746474932006233600,5.974233642578125,-0.006287701967358589,0.03156798143535852,0.012613836248964071
1746474932016229600,5.984229736328125,-0.11131459510624409,0.04335398855805397,0.03927526787705719
1746474932026226400,5.994226318359375,-0.1683908195465803,0.07502367680221796,0.07045337321199477
1746474932036223700,6.0042236328125,-0.15809797359108924,0.09078823216706514,0.06543510665856302
1746474932046219500,6.014219482421875,-0.08411036183834075,0.06493015281111002,0.043507425554096694
1746474932056216800,6.024216796875,-0.01641571274995804,0.03271744373142719,0.03477591063119471
1746474932066212600,6.034212646484375,0.07077449492514133,0.02271802776455879,0.025624782056733963
1746474932076209700,6.044209716796875,0.1142681842148304,0.011647475434839724,0.07218735739775002
1746474932086206700,6.054206787109375,0.11435644702017307,0.002127367417514324,0.09364778631664812
1746474932096202500,6.064202392578125,0.06763561237752437,0.0023626374781131744,0.08338197449855506
1746474932106199600,6.074199462890625,0.044164135897159576,0.009383914417028426,0.060525853437557814
1746474932116196600,6.084196533203125,0.024913491982221602,0.005521393769979476,0.00730696201249957
1746474932126192600,6.094192626953125,0.03383271149694919,-0.018714052820205686,0.01528049817495048
1746474932136189700,6.104189697265625,0.01117839661836624,-0.045619887663424015,0.009437763496115803
1746474932146185700,6.114185791015625,-0.00878945565521717,-0.03400543771535158,0.03276639743968844
1746474932156182500,6.1241826171875,-0.02211363213062286,-0.018643910193443296,0.08127250806391238
1746474932166179600,6.1341796875,-0.08897007682919501,-0.014340367780625819,0.07677351614423096
1746474932176175600,6.144175537109375,-0.15167933872044084,-0.035411212860047815,0.04238799307011067
1746474932186172700,6.154172607421875,-0.13041793950498104,-0.04495353270918131,0.018149916131421924
1746474932196168700,6.164168701171875,-0.11655775645673275,-0.029640812765061853,0.006913724911212921
1746474932206165500,6.17416552734375,-0.08570844468474388,0.00015869769304990768,0.03972798008061945
1746474932216162600,6.18416259765625,-0.10514613560438156,0.0012900398105382919,0.0586550911296159
1746474932226158600,6.19415869140625,-0.1326841308712959,0.012426935374736785,0.03564239126741886
1746474932236155400,6.2041552734375,-0.12722761903107166,0.013593056544661522,0.031071137829124927
1746474932246152700,6.214152587890625,-0.12150514973104,0.024592589464783668,-0.02397409224025905
1746474932256148500,6.2241484375,-0.12405191160440444,0.04061170411258936,-0.034606399283185596
1746474932266145800,6.234145751953125,-0.10267477705478667,0.05158347224295139,-0.02301423423215747
1746474932276141600,6.2441416015625,-0.04196750263571739,0.03539923016130924,-0.0035568887639790773
1746474932286138600,6.254138671875,-0.006284779357910156,0.03097206136882305,0.02899769255593419
1746474932296135700,6.2641357421875,0.029320202508568764,0.039732875451445576,0.025136706278845667
1746474932306131700,6.274131591796875,0.04342354666292667,0.04270955317467451,0.05357713027819991
1746474932316128800,6.284128662109375,0.060447746700048446,0.046447570659220214,0.05843041552826762
1746474932326124500,6.29412451171875,0.06791618288457393,0.034950317350029944,0.04032455773428082
1746474932336121600,6.30412158203125,0.10728723928630352,0.0009115618869662284,0.006852788504213094
1746474932346118700,6.31411865234375,0.11570435449779033,-0.015126841983199118,0.010629968955367802
1746474932356114700,6.32411474609375,0.06990998705029487,0.004233692046999931,0.033883418770879505
1746474932366111500,6.334111572265625,0.011957564297318458,0.004092530010640621,0.009000833383575081
1746474932376107800,6.344107666015625,-0.03695990360677242,0.022793138827383517,-0.009247647751495242
1746474932386104600,6.3541044921875,-0.057977557194232934,0.037054596152901645,0.006923296457156539
1746474932396101600,6.3641015625,-0.07063011801838874,0.03161649675220251,0.021510113279521462
1746474932406097700,6.37409765625,-0.05073007028400898,0.03990764749646187,0.035969942721351976
1746474932416094500,6.384094482421875,-0.013556231665611266,0.028159049774706364,0.026770298830047248
1746474932426091800,6.394091796875,0.017010171511769295,0.010524608884751796,0.014079232626408337
1746474932436087600,6.404087646484375,0.06674713910520076,-0.0005319149196147918,0.020527531982958317
1746474932446084600,6.414084716796875,0.08591361186802386,0.0013099135547876358,0.04304514180459082
1746474932456080600,6.42408056640625,0.020702596288919448,-0.00008066402077674865,0.06740735657960176
1746474932466077400,6.434077392578125,-0.038331776481866836,-0.0015068974316120147,0.06353051514625549
1746474932476074800,6.44407470703125,-0.07265490184426307,0.011883622278273104,0.05016118435487151
1746474932486070500,6.454070556640625,-0.07717325605154036,0.018536358165740965,0.04331935563609004
1746474932496067600,6.464067626953125,-0.06618132191598415,0.018921850351989268,0.04331197604723275
1746474932506063600,6.474063720703125,-0.06389817941486835,0.019731120908260343,0.04600296869687736
1746474932516060700,6.484060791015625,-0.020892565903067588,0.038059973803162575,0.03428695807047188
1746474932526057700,6.4940576171875,-0.004959668233990669,0.01605272465646267,0.003956336410343647
1746474932536053800,6.5040537109375,0.011440846946835517,0.00452303038239479,0.0007764642652124166
1746474932546050600,6.514050537109375,0.03756254567503929,0.006928630219399929,0.016093202797323465
1746474932556047600,6.524047607421875,0.05872340712547302,0.00932020153105259,0.0046196226246654985
1746474932566043600,6.534043701171875,0.03255319308042526,-0.0015343699604272842,0.024850802009552714
1746474932576040400,6.54404052734375,-0.007370236507058143,0.0010287585258483885,0.029450697020441292
1746474932586036700,6.55403662109375,-0.02216682362258434,-0.005323533110320568,0.014220979184657334
1746474932596033500,6.564033447265625,-0.009252981513738632,-0.011489362263679503,-0.02983560468479991
1746474932606030600,6.574030517578125,0.004942717099189758,-0.0158335289478302,-0.02472951371744275
1746474932616026600,6.584026611328125,0.022917934250831603,-0.014440028762817383,-0.030127573368698358
1746474932626021600,6.594021728515625,0.030775077491998672,0.008105565044283867,-0.04315203624516725
1746474932636017700,6.604017578125,0.025212767189741133,0.02740413975417614,-0.010204729280620812
1746474932646014700,6.6140146484375,-0.03500233979821205,0.027675357910990715,-0.006770809309184551
1746474932656011500,6.624011474609375,-0.02938566896021366,0.0467073906391859,-0.04434131909497082
1746474932666007600,6.634007568359375,0.016364274823665616,0.028676059386134146,-0.05967625087089836
1746474932676004600,6.644004638671875,0.035143794095516205,0.006129004274308681,-0.024512363835424184
1746474932686000600,6.654000732421875,0.061548985940217966,0.01482873581945896,0.01966616591326892
1746474932695997700,6.663997802734375,0.04666355149745941,0.014658639949560164,0.022150018618255853
1746474932705994500,6.673994384765625,0.015655249771475793,-0.00810498052239418,-0.008601824128627776
1746474932715990500,6.683990478515625,0.022390110984444617,-0.030236440570652483,-0.029634163828566668
1746474932725987600,6.693987548828125,0.03504617893993854,-0.030850773076713082,-0.005284297078475356
1746474932735984600,6.703984619140625,0.04411211344897747,-0.039056291364133355,0.0377313994359225
1746474932745980400,6.71398046875,0.030618425625562665,-0.05323474658131599,0.07945493724793196
1746474932755977700,6.723977783203125,-0.03595569500029087,-0.07902414461523294,0.08516505852304398
1746474932765973500,6.733973388671875,-0.1033095678269863,-0.069864978864789,0.05580006702467799
1746474932775970800,6.743970703125,-0.16401450415849686,-0.05278963316231966,0.026898601384833454
1746474932785967600,6.753967529296875,-0.16051730969250202,-0.026544600315392016,0.017448709059506653
1746474932795963600,6.763963623046875,-0.12802490688860416,-0.021749182732403276,0.012542524578422308
1746474932805960700,6.773960693359375,-0.08663198927044868,-0.007398585818707943,0.031161519526317714
1746474932815956500,6.78395654296875,-0.03287526464164257,-0.0054030280873179435,0.02534362702779472
1746474932825953800,6.793953857421875,0.03409516182541847,-0.012968787166476248,0.02042998989261687
1746474932835950600,6.80395068359375,0.08074351575374603,-0.01144727668762207,-0.008756722429394721
1746474932845946600,6.813946533203125,0.05388999561965465,0.00905132146179676,0.0019346213243901728
1746474932855943700,6.823943603515625,0.005643558844923973,0.01120762271285057,-0.0026297639816999434
1746474932865939700,6.833939697265625,-0.01798456950187683,0.04233692046999931,-0.024604060706868765
1746474932875936500,6.8439365234375,-0.025233225455880165,0.04370207134336233,-0.038056466671824454
1746474932885933600,6.85393359375,-0.020158406409621236,0.033281507354974746,-0.045600744571536775
1746474932895929600,6.8639296875,-0.015718378135561942,0.03181318836808204,-0.03712590782344341
1746474932905926700,6.8739267578125,0.003692424777150154,0.030044132868945597,-0.008845131365209818
1746474932915922700,6.883922607421875,-0.0019487959802150724,0.027253625367581844,0.00398950802758336
1746474932925919500,6.89391943359375,-0.02026595843732357,0.028069617925584316,0.0018381021473556755
1746474932935916500,6.90391650390625,-0.0035632454395294185,0.02307224802970886,-0.00046922494694590566
1746474932945912600,6.91391259765625,0.01570493413209915,0.003977671459317207,-0.02868533867113292
1746474932955909600,6.92390966796875,0.015118658676743507,-0.014563947403430939,0.0022209639851003883
1746474932965905700,6.93390576171875,0.01779459988772869,-0.011580255417525767,0.00875752614699304
1746474932975902500,6.94390234375,0.004968436062335968,-0.005268295791745185,0.021382760572805998
1746474932985899800,6.953899658203125,-0.03552490236759186,-0.006695405985414981,0.02545117905549705
1746474932995895600,6.9638955078125,-0.06288695654571055,-0.006643968059122562,0.018268062618374825
1746474933005892600,6.973892578125,-0.08840542868375778,0.0009995324313640593,0.00021663842536509035
1746474933015888600,6.983888671875,-0.08294131805896758,0.003784486974775791,-0.007058759405091404
1746474933025885700,6.9938857421875,-0.055956280499696726,0.009104220692813397,-0.004635477780923247
1746474933035882800,7.0038828125,-0.01006605146229267,-0.003043313218653202,0.01634936951547861
1746474933045878500,7.01387841796875,0.035443069303035736,0.006640753188729286,0.050924350747093554
1746474933055875600,7.02387548828125,0.06471008031964302,-0.0003001519903540611,0.050064519047364586
1746474933065871600,7.03387158203125,0.07529226461052894,0.025588322503864763,0.056445817582309245
1746474933075868700,7.04386865234375,0.061865796804428094,0.022426643602550027,0.04381956024318933
1746474933085865700,7.05386572265625,0.052747839847207066,0.02318155362308025,0.035408874772489066
1746474933095861800,7.06386181640625,0.01528758550286293,0.022818565529584882,0.05852656937912106
1746474933105858600,7.073858642578125,-0.012768296158313751,0.029568039789795875,0.06770012898109853
1746474933115854600,7.0838544921875,-0.026896774753928182,0.034415187560021876,0.06498794741295277
1746474933125851600,7.0938515625,-0.02860182510614395,0.03104045042991638,0.05050670985691249
1746474933135848400,7.103848388671875,-0.04410860631763935,0.03202390850931406,0.0783791977752
1746474933145844700,7.1138447265625,-0.02976853079795837,0.02584989604949951,0.09946604414135217
1746474933155841500,7.123841552734375,0.00442892235815525,0.019185469724237916,0.07914229110218585
1746474933165837600,7.133837646484375,0.011879822885990142,0.01348375095129013,0.06364405852332711
1746474933175834600,7.143834716796875,0.005776245313882827,0.017078560572862625,0.04927972534522414
1746474933185831400,7.15383154296875,0.004806523498892784,0.006940612918138503,0.03253368466235697
1746474933195827700,7.16382763671875,0.014727613532543182,0.03358224386721849,0.02435943829603493
1746474933205824500,7.173824462890625,-0.023417700466513633,0.03569850536882877,-0.0008281213872134685
1746474933215820500,7.183820556640625,-0.03560439734458923,0.01918313163667917,-0.02066277573518455
1746474933225817600,7.193817626953125,-0.030856910556554793,0.006588146218657494,-0.06101707102060318
1746474933235814700,7.203814697265625,-0.025309797823429105,0.03207271608710289,-0.054596901779994364
1746474933245810400,7.213810546875,-0.00549684385061264,0.047184945023059845,-0.0251679781999439
1746474933255807700,7.223807861328125,0.03364040379524231,0.04768324993401766,-0.019819749039784073
1746474933265803500,7.233803466796875,0.047022447937726974,0.028385844267904758,-0.030715090933069584
1746474933275800800,7.24380078125,0.03854863410294056,0.003191489517688751,-0.0675865125387907
1746474933285797600,7.253797607421875,0.02322130111157894,-0.026162907521426675,-0.04613514370918274
1746474933295793400,7.26379345703125,-0.0071831895023584365,-0.011399638153612612,-0.00489054852053523
1746474933305790700,7.273790771484375,-0.0345253699362278,0.05171235931962728,0.05017287479266524
1746474933315786500,7.283786376953125,-0.0748451053649187,0.05477963793575764,0.040946342894434926
1746474933325783800,7.29378369140625,-0.07098842993676661,0.035222412289679046,0.008108122327551245
1746474933335780600,7.303780517578125,-0.049371056890487666,-0.0010796119302511214,-0.00009213526286184787
1746474933345776600,7.313776611328125,-0.0248351660490036,-0.0025809564039111135,0.028822409054264423
1746474933355773700,7.323773681640625,-0.0054506666213274,-0.009346505016088484,0.06429192797280847
1746474933365769700,7.333769775390625,0.0008726911813020706,-0.024480069001019,0.10634718195721507
1746474933375766500,7.3437666015625,-0.010863339319825171,-0.041696576739847654,0.16161051175668834
1746474933385763600,7.353763671875,-0.045264790615439414,-0.03463993622660637,0.14676562852002678
1746474933395759600,7.363759521484375,-0.06462415560185909,-0.032820904105901716,0.11500373194776475
1746474933405756700,7.373756591796875,-0.09944354004859923,-0.01590016444325447,0.11404117052592336
1746474933415752700,7.383752685546875,-0.08005377992391585,-0.01679302162975073,0.09501863627843558
1746474933425749500,7.39374951171875,-0.04292085783779621,-0.003928571620583534,0.07396795720420778
1746474933435746600,7.40374658203125,-0.022106033346056937,0.01340747084468603,0.049472690634056925
1746474933445742600,7.41374267578125,0.0007867664635181426,0.030530455081164837,0.04303944271616637
1746474933455739600,7.42373974609375,0.004558686217665672,0.03690466628819704,0.015390826681628823
1746474933465735700,7.433735595703125,0.009374562066793442,0.052308279386162754,-0.02591908882819116
1746474933475732500,7.443732421875,0.0061824880272150036,0.06207768598943948,-0.041475262139365074
1746474933485729800,7.453729736328125,0.010287585258483885,0.06379618034511804,-0.039697731072828174
1746474933495725600,7.4637255859375,-0.007507014629244804,0.048888534070551395,-0.006899111863970756
1746474933505722600,7.47372265625,-0.004243628919124603,0.04962269356399774,0.028328049666061995
1746474933515718700,7.48371875,-0.0013128361642360687,0.053362172353267665,0.037663156505301595
1746474933525715700,7.4937158203125,0.02598842773735523,0.05602262373417616,0.02542370652668178
1746474933535712800,7.503712646484375,0.06049976914823055,0.04889145667999983,0.02459273559525609
1746474933545708500,7.51370849609375,0.06982698494195938,0.051233635891973967,0.031563743651658295
1746474933555705600,7.52370556640625,0.06378536669015884,0.05513444272279739,0.05738192938864231
1746474933565701600,7.53370166015625,0.04894552495479584,0.030294308237731455,0.06029913200959563
1746474933575698700,7.54369873046875,0.026440847679972648,0.03120207073241472,0.03396415585689246
1746474933585695500,7.553695556640625,-0.016587562185525893,0.01568885978013277,0.00293218099437654
1746474933595691800,7.56369189453125,-0.049748073509335515,-0.00739390964359045,0.00044467502757906914
1746474933605688600,7.5736884765625,-0.0834504366248846,-0.013390811970829962,0.004604132794588804
1746474933615684600,7.5836845703125,-0.0784095198482275,-0.016666472640633583,-0.0008795593135058879
1746474933625681700,7.593681640625,-0.041352585607767105,-0.01699205133318901,0.025105215162038803
1746474933635678700,7.6036787109375,-0.02700140417218208,-0.0264864403873682,0.0619130700122565
1746474933645674800,7.6136748046875,-0.03645838382542133,-0.0019917583391070364,0.09105170540884136
1746474933655671600,7.623671630859375,-0.007299509358406066,0.006077858608961105,0.09573073007054626
1746474933665667800,7.633667724609375,-0.008233575338125229,0.005548574037849903,0.050911052874103184
1746474933675664600,7.64366455078125,-0.01550502764582634,0.0017661328896880148,0.024004998835176226
1746474933685661400,7.653661376953125,-0.003237666746973991,0.012384849798679352,0.0034014059413224455
1746474933695657700,7.66365771484375,0.0023579613029956815,0.02804974418133497,0.01669825601838529
1746474933705654500,7.673654541015625,-0.0263034850358963,0.03836830909997225,0.026375088967382908
1746474933715650600,7.683650634765625,-0.047293666094541546,0.034740181730687617,0.04270706895664334
1746474933725647600,7.693647705078125,-0.06544307076931,0.027465806813538073,0.015113178784027695
1746474933735644700,7.703644775390625,-0.07563420991599559,0.015042963092029094,-0.03446275302879512
1746474933745640700,7.713640625,-0.06950958955585956,0.00995499230325222,-0.036589535924419755
1746474933755637800,7.7236376953125,-0.08253624438941479,0.005294307015836238,-0.01220372107811272
1746474933765633500,7.733633544921875,-0.0674468118071556,0.014428630585968494,-0.02473112115263939
1746474933775630600,7.743630615234375,-0.03337561537921428,0.015359189434349536,-0.050395723763108254
1746474933785627600,7.753627685546875,-0.004622983625531196,-0.0038557986453175543,-0.06573796206265688
1746474933795623400,7.76362353515625,0.02637713479399681,-0.016750059270858764,-0.07169044072628021
1746474933805620700,7.773620849609375,0.04001461500227451,-0.027562837447226048,-0.08770224885046482
1746474933815616500,7.783616455078125,0.02428863808214664,-0.018257248963415622,-0.055999315923824906
1746474933825613800,7.79361376953125,-0.01676934849321842,0.02031213566660881,-0.04776873626038432
1746474933835610600,7.803610595703125,-0.02393500233888626,0.04640431603938341,-0.04725165358372033
1746474933845606700,7.813606689453125,0.03698912970125675,0.044454351015388964,-0.07160977670550346
1746474933855603700,7.823603759765625,0.06741583214700221,0.02775777549743652,-0.08684336699880658
1746474933865599700,7.833599853515625,0.10227964025735854,-0.011041910757124424,-0.08866802514269947
1746474933875596800,7.8435966796875,0.10487141031622886,-0.02789280005395412,-0.060671472453325985
1746474933885593600,7.853593505859375,0.08822305785417556,-0.00036591070294380185,0.008844327647611498
1746474933895589600,7.863589599609375,0.054933367192745206,0.014753040234744549,0.05049005098305642
1746474933905586700,7.873586669921875,-0.00523673160970211,0.014182839131355285,0.04513868001773953
1746474933915582700,7.883582763671875,-0.06123159055411815,0.02267272731810808,0.05762487129904329
1746474933925579500,7.89357958984375,-0.06843932997584343,0.0053559740751981735,0.06115589496940374
1746474933935576600,7.90357666015625,-0.05623392839729786,-0.014676175606250763,0.10339125476107
1746474933945572600,7.913572509765625,-0.06425181515812874,-0.026698329572379588,0.12698818425200878
1746474933955569700,7.923569580078125,-0.08360884205698967,-0.02450666474699974,0.13468341492973268
1746474933965565700,7.933565673828125,-0.09140461049973964,-0.02937602434903383,0.12551080517582594
1746474933975562500,7.9435625,-0.09840952082574367,-0.03348725906014442,0.08260090712346137
1746474933985559800,7.953559814453125,-0.07709726820588111,-0.045459144143760205,0.05400500030145049
1746474933995555600,7.9635556640625,-0.0329477453559637,-0.04587035529315471,0.07876629739664495
1746474934005553000,7.973552978515625,0.001319265905022621,-0.020266542959213256,0.11101517376825212
1746474934015548700,7.983548583984375,0.0002034136176109314,0.008346972584724426,0.09694251701310276
1746474934025545500,7.99354541015625,0.0029869068562984463,0.023914544072747228,0.07179828501492738
1746474934035542800,8.003542724609375,0.0017874679386615752,0.024673838007450103,0.024596608052775262
1746474934045538600,8.01353857421875,-0.014630582898855209,0.05056640415489674,-0.009228431594371795
1746474934055535600,8.02353564453125,-0.023483166918158528,0.059872869421541686,-0.04701850241497159
1746474934065531600,8.03353173828125,0.004292728757858276,0.0653182753458619,-0.06074219960197806
1746474934075528700,8.04352880859375,0.018902268868684766,0.06571487344801426,-0.05419869624264538
1746474934085525800,8.05352587890625,0.030911271092295644,0.05443301645517349,-0.042905221877247095
1746474934095521800,8.063521728515624,-0.0031722002953290937,0.06539777032285929,-0.014907134817913174
1746474934105518600,8.0735185546875,-0.04774842412471771,0.07044657814502715,0.010625950367376208
1746474934115515000,8.083514892578124,-0.05820610525310039,0.07231646367013454,-0.015510215277597307
1746474934125511700,8.09351171875,-0.020836451801657677,0.06782499746978282,-0.050126259171962735
1746474934135508700,8.1035087890625,0.016927753925323485,0.02538023271113634,-0.056263300622254604
1746474934145504800,8.1135048828125,0.03354161959588527,-0.007648468926548958,-0.012575330869480967
1746474934155501600,8.12350146484375,0.046803836750984186,-0.023050620719790457,0.007901420774310827
1746474934165497600,8.13349755859375,0.038596564897894856,-0.01502571969628334,0.0014841741431504487
1746474934175494700,8.14349462890625,0.02604337279498577,-0.03782821087390184,-0.02008680247813463
1746474934185491500,8.153491455078125,-0.01134089370369911,-0.03209405113607645,-0.023794497889652846
1746474934195487700,8.16348779296875,-0.04050678243339061,-0.02383388005197048,-0.005263546551391482
1746474934205484500,8.173484619140625,-0.018422376397252083,-0.008915712383389472,-0.007966083508357405
1746474934215480600,8.18348046875,-0.0014700725525617598,0.01957096191048622,-0.017250921465083956
1746474934225477600,8.1934775390625,0.005424363136291504,0.01286065061688423,0.001199950374290347
1746474934235474700,8.203474609375,-0.0021650690793991088,0.011418342854082584,0.02948964079134166
1746474934245470700,8.213470703125,-0.003116670715808868,0.00030599720925092693,0.04443520792350173
1746474934255467800,8.2234677734375,-0.013158172258734703,0.019015666115283963,0.04223937837965786
1746474934265463600,8.233463623046875,-0.04632102167010307,0.025247546242177486,0.04539791547581553
1746474934275460600,8.243460693359374,-0.05213000020980835,0.026676994523406026,0.046987888080999254
1746474934285457700,8.253457763671875,-0.020876199290156362,0.015037994655966757,0.046008229393884534
1746474934295453400,8.263453369140626,0.019959084445238112,0.014224632446467876,0.03093918201252818
1746474934305450800,8.27345068359375,0.012995090651512145,0.01511369024068117,0.03904956936240196
1746474934315446500,8.283446533203126,-0.032010172244906425,-0.004815291327238082,0.04412672649621963
1746474934325443800,8.29344384765625,-0.06424421637356281,-0.01796323445290327,0.05208287313245236
1746474934335440600,8.303440673828124,-0.08036591461300849,-0.03761515264511108,0.0476133265029639
1746474934345436700,8.313436767578125,-0.05445639733076095,-0.020768939523398876,0.037219431325793265
1746474934355433700,8.323433837890626,-0.011359598404169082,0.0010629530563950537,0.0356568581841886
1746474934365429800,8.3334296875,0.012968787166476248,0.003855506384372711,0.04133417316824198
1746474934375426800,8.3434267578125,0.03441840243041515,-0.0032902737170457837,0.044671793158352374
1746474934385422600,8.353422607421875,0.026172552132606504,-0.040788814245164395,0.02238499641790986
1746474934395419600,8.363419677734376,0.01965688662827015,-0.019327800804376603,-0.01126446746662259
1746474934405416700,8.373416748046875,0.03730243343412876,0.0019154782325029372,-0.015101999802887438
1746474934415412700,8.383412841796876,0.05936521216034889,0.03316343393325805,0.0009507248535752296
1746474934425409500,8.393409423828125,0.05674713861644268,0.03404956911802292,0.01651625051498413
1746474934435406600,8.403406494140626,0.04971066410839557,0.0420087114289403,0.016103212734684347
1746474934445402600,8.413402587890625,0.043941433057188985,0.033433483046293254,0.013532047072425484
1746474934455399700,8.423399658203126,0.02632569686770439,0.02752864291667938,0.03088686730340123
1746474934465395700,8.433395751953125,0.019294483056664466,0.04009995519816875,0.061991030619293445
1746474934475392500,8.443392578125,-0.012397124758362769,0.03949994347840547,0.07329261522591114
1746474934485389800,8.453389892578125,-0.025696751314401627,0.028494857600331304,0.041768326801806685
1746474934495385600,8.463385498046875,-0.03280921366810798,0.02495323947072029,0.004012669707462191
1746474934505382700,8.473382568359375,-0.028103227934241293,0.020713702204823492,0.004557590239122509
1746474934515378700,8.483378662109375,0.0061906713336706155,0.013252572543919086,0.04638349244706332
1746474934525375500,8.49337548828125,0.02837561513483524,0.0006076105043292046,0.08129062824249267
1746474934535372800,8.503372802734376,-0.00036415713727474213,-0.002355330954492092,0.11236395802870393
1746474934545368600,8.51336865234375,-0.008318915534019469,0.022241934685409068,0.09740070910938084
1746474934555365600,8.52336572265625,0.024608371555805204,-0.028613807804882523,0.07179251286126673
1746474934565361700,8.533361572265624,0.021355507239699364,-0.06225479612201452,0.07505224530957638
1746474934575358700,8.543358642578125,0.052394204103946684,-0.041271337065100666,0.08116502910144627
1746474934585355800,8.553355712890625,0.05355097292363643,-0.015781798760592936,0.06450593604966998
1746474934595351800,8.563351806640625,0.0444417837947607,-0.01273000997453928,0.05487031189389527
1746474934605348600,8.5733486328125,-0.001620294678211212,-0.04604162020683288,0.05161174848936498
1746474934615344600,8.5833447265625,-0.1082376718789339,-0.04585194285362958,0.039905163278430696
1746474934625341700,8.593341796875,-0.14052081584632395,-0.0022246903121471403,0.057848085595667356
1746474934635338500,8.60333837890625,-0.14486848966181276,0.016843290512263773,0.026681305372342465
1746474934645334800,8.613334716796874,-0.10063070400655269,0.019581483304500578,0.006640607058256864
1746474934655331600,8.62333154296875,-0.037926118290424346,0.004336860160529614,0.0004919482354074716
1746474934665327600,8.63332763671875,0.030851065337657926,0.0186851189866662,0.019804405340179798
1746474934675324700,8.64332470703125,0.040216275054216384,0.000542144052684307,0.052009515635296696
1746474934685321500,8.653321533203124,0.02384089431464672,-0.0030804303586483,0.04956307233124971
1746474934695317500,8.6633173828125,0.018875380861759185,0.01628185723721981,0.0248999749135226
1746474934705314600,8.673314453125,0.010325579181313514,0.022522505192458627,-0.00959996832050383
1746474934715310600,8.683310546875,0.0019026187509298324,0.021404607078433037,-0.01590279479175806
1746474934725307600,8.6933076171875,0.01312251642346382,0.011095102249085902,-0.019561536495015023
1746474934735304700,8.7033046875,0.05327741667926311,-0.003632219022512436,-0.0174281046628952
1746474934745300500,8.713300537109374,0.040782092243432995,-0.002262391974031925,-0.0034564240641891952
1746474934755297500,8.723297607421875,0.013666121780872344,0.00004793079495429992,-0.036611674690991636
1746474934765293600,8.73329345703125,0.0024526538491249084,-0.011135434259474277,-0.054557884943857785
1746474934775290600,8.74329052734375,-0.006506897675991058,-0.004927519530057906,-0.070849240661785
1746474934785287700,8.75328759765625,0.013249942195415495,0.0007353285372257233,-0.058365460533276195
1746474934795283500,8.763283447265625,0.011969839257001876,0.014853577999770641,-0.03999751773700118
1746474934805280800,8.77328076171875,-0.0008387889117002486,0.015366495957970619,0.004243117462471128
1746474934815276500,8.783276611328125,0.0040928222715854645,0.0010766893208026885,0.04349266637638211
1746474934825273600,8.793273681640626,-0.021807342660427092,-0.011885083582997322,0.0594894961271435
1746474934835270700,8.803270751953125,-0.06698211690485477,-0.01400748256444931,0.05809526528976857
1746474934845266700,8.8132666015625,-0.11115268254280089,0.00950140331685543,0.05691840353012085
1746474934855263700,8.823263671875,-0.11996025837659835,0.017698153775930404,0.02299501807503402
1746474934865259500,8.833259521484376,-0.10966975050866604,0.01821077947318554,0.02450761459507048
1746474934875256600,8.843256591796875,-0.08294365614652634,0.01610328579992056,0.006287409706413745
1746474934885253600,8.853253662109376,-0.05975275017321109,0.013630758206546306,0.005055968215316534
1746474934895249700,8.863249755859375,-0.026992636343836782,0.028199089524149894,0.02206000224724412
1746474934905246700,8.873246826171876,-0.03996785325109958,0.010358604668080806,0.01643295614570379
1746474934915242800,8.88324267578125,-0.017256255227327346,0.008528758892416954,0.0006762187611311673
1746474934925239600,8.893239501953126,0.0026432079851627347,0.010371171888709068,-0.025882337014377116
1746474934935236600,8.903236572265625,-0.02205634898543358,0.0017594108879566191,-0.020284955398738383
1746474934945232600,8.913232666015626,-0.012543839752674101,-0.002094634191691875,-0.0154163264490664
1746474934955229400,8.9232294921875,0.026650106516480445,-0.0005754618003964424,-0.0016230711571872233
1746474934965225700,8.933225830078126,0.013272738549113273,-0.001299099899828434,-0.024470643585547805
1746474934975222500,8.943222412109375,-0.029006898775696753,0.011795943994820117,-0.051084728940576314
1746474934985219800,8.9532197265625,-0.021439093869924545,0.051312838608026504,-0.037077319441363214
1746474934995215600,8.963215576171875,-0.03891045315265655,0.02425035189837217,-0.05153400707803666
1746474935005212700,8.973212646484376,-0.028150574207305906,0.016353461168706417,-0.08407251404598355
1746474935015208700,8.983208740234375,0.015198153653740882,0.018980887062847614,-0.08015833627693354
1746474935025205500,8.99320556640625,0.09060147742331028,0.00442804557532072,-0.056799234129860994
1746474935035202600,9.00320263671875,0.09366729473471641,-0.0005570493608713149,-0.016643457091227172
1746474935045198600,9.013198486328125,0.0772679485976696,0.001358136610686779,0.012937222984433174
1746474935055195600,9.023195556640625,0.05062836347520351,0.03258446500152349,0.018715952516347167
1746474935065191400,9.03319140625,0.05012158299684524,0.041703298741579055,0.017355550883337855
1746474935075188700,9.043188720703125,0.02602291452884674,0.037841947138309476,0.0682136314611882
1746474935085185500,9.053185546875,-0.01655073730647564,0.013595979154109953,0.09618636488355696
1746474935095181800,9.063181884765624,-0.03132043641507625,-0.0052551440492272375,0.13820581690222025
1746474935105178600,9.0731787109375,-0.019347674548625945,-0.015936112539470196,0.1698280127428472
1746474935115174700,9.083174560546874,-0.012802198427915572,-0.022911212249100206,0.1910427232723683
1746474935125171700,9.093171630859375,-0.0006108253747224808,-0.044692543685436244,0.17367577421218156
1746474935135168500,9.10316845703125,-0.016683423775434494,-0.06576426554769277,0.1401222449827939
1746474935145164800,9.113164794921875,-0.02722235344648361,-0.07176701309382916,0.09848032103963196
1746474935155161600,9.12316162109375,-0.03734042735695839,-0.0629676205664873,0.06769742556735873
1746474935165157600,9.13315771484375,-0.02556055771410465,-0.04398293411135673,0.048899201595038175
1746474935175154700,9.14315478515625,-0.01196925473511219,-0.04249357233643532,0.014875570635870099
1746474935185151500,9.1531513671875,0.032791678011417386,-0.025768355245888233,-0.015722908180207013
1746474935195147500,9.1631474609375,-0.014203881919384001,0.0030921207964420315,-0.03644954293183982
1746474935205144600,9.17314453125,-0.12728899382948874,0.026896190232038496,-0.01432348971106112
1746474935215140600,9.183140625,-0.1626262646704912,0.05000847801119089,-0.01849061932787299
1746474935225137700,9.1931376953125,-0.14570669405162334,0.07329992174953222,-0.04633863039202988
1746474935235134700,9.203134765625,-0.09343173241317272,0.0364203899025917,-0.0840883692022413
1746474935245130500,9.213130615234375,-0.10250117405354976,-0.009816752876341343,-0.09169219526946544
1746474935255127600,9.22312744140625,-0.062492988792061804,-0.01672755517810583,-0.06917122444696724
1746474935265123600,9.23312353515625,-0.011518003836274146,0.0003968903630971908,-0.02048537334166467
1746474935275120600,9.24312060546875,0.012720365363359451,0.012988076388835906,0.019375439338386057
1746474935285117700,9.25311767578125,0.026885084316134452,0.002184358301758766,0.0007202040333300828
1746474935295113500,9.263113525390626,0.008369768938422202,-0.02643207985162735,-0.02502586631551385
1746474935305110800,9.27311083984375,-0.004189852905273437,-0.023916589899361133,-0.04305288671962917
1746474935315106600,9.2831064453125,-0.03598784370422363,-0.029053368265926836,-0.028452041371911763
1746474935325103600,9.293103515625,-0.041649522727727886,-0.019976035580039023,-0.01546338046118617
1746474935335100700,9.3031005859375,-0.038057635715603826,0.007815057665109634,-0.03444455978497862
1746474935345096700,9.3130966796875,-0.025512042397260664,0.01009352399110794,-0.026309549450501797
1746474935355093800,9.32309375,-0.00993453403711319,0.0009270517170429229,-0.018095044139027596
1746474935365089500,9.333089599609375,0.014037877702713012,0.01975011786967516,-0.021813260944560167
1746474935375086600,9.343086669921876,0.0305079509884119,0.03472849129289388,-0.015912001011520623
1746474935385083600,9.353083740234375,0.009456395131349563,0.02219341936856508,-0.004463189953938127
1746474935395079700,9.36307958984375,-0.0006517419070005417,0.015855156257748602,0.015981339920684696
1746474935405076500,9.373076416015625,-0.002335164949297905,0.02750818465054035,0.03128982208110392
1746474935415072800,9.38307275390625,-0.012830840000510215,0.03722966045886278,0.03928571620583534
1746474935425069600,9.393069580078125,-0.022371406283974646,0.03771276780068874,0.022298194917291403
1746474935435066600,9.403066650390626,-0.030301614761352538,0.039080841283500194,0.01911561935842037
1746474935445062700,9.413062744140625,0.0024526538491249084,0.023402502897381782,0.015120558372884988
1746474935455059500,9.4230595703125,-0.0012508768439292908,0.006641922232508659,0.014199790266156196
1746474935465055700,9.4330556640625,-0.014360533785820006,-0.00647241088449955,0.033425153609365224
1746474935475052500,9.443052490234376,-0.007548515683412552,-0.007264438045024872,0.00559007509201765
1746474935485049600,9.453049560546875,-0.004226677784323692,-0.011132803910970688,0.022952786368504164
1746474935495045600,9.463045654296875,-0.01840893239378929,-0.007573942385613918,0.021310791315138338
1746474935505042400,9.47304248046875,-0.02788870840072632,0.009676175361871719,0.018490765458345413
1746474935515038700,9.483038818359375,-0.05011807586550712,0.019739304214715956,0.027631080377846954
1746474935525035500,9.493035400390625,-0.05475976419150829,0.01561696358770132,0.015977759724110363
1746474935535032600,9.503032470703126,-0.04583996015489101,0.030014906774461267,-0.00011602759510278701
1746474935545028600,9.513028564453125,-0.04172258796393871,0.03512859652638435,-0.029018150822073218
1746474935555025700,9.523025634765625,-0.03731587743759155,0.033254619348049165,-0.02059000275991857
1746474935565021400,9.533021484375,0.0009779051214456557,0.043675767858326435,0.007989391318708657
1746474935575018800,9.543018798828125,0.06584814443886279,0.039919922456145285,0.013949322636425494
1746474935585015600,9.553015625,0.09460136071443558,0.020927929477393626,-0.014968728812038897
1746474935595011600,9.563011474609375,0.10977730253636836,-0.005218903692066669,-0.023593787685781718
1746474935605008600,9.573008544921874,0.07840718176066876,0.012282266207039356,0.02140051542520523
1746474935615004400,9.58300439453125,0.06423895567655563,0.0298936184823513,0.04939670278839767
1746474935625001500,9.59300146484375,0.03638531858921051,0.04884849432110786,0.0647234512578696
1746474935634998500,9.60299853515625,0.000533083963394165,0.03300006006509065,0.061774099932983516
1746474935644994600,9.61299462890625,-0.009303834918141364,0.03680208269655704,0.04381218065433204
1746474935654991400,9.622991455078125,0.008900514814257621,0.04161299010962247,0.05399389438554644
1746474935664987600,9.632987548828124,0.007902735948562622,0.023808161088824272,0.08083440890759229
1746474935674984400,9.642984375,-0.0029845687687397003,-0.015742635793983936,0.08653240135349333
1746474935684981500,9.6529814453125,-0.03047229515314102,-0.005415887568891048,0.09626951312236487
1746474935694977500,9.6629775390625,-0.05850421141684055,-0.0038341713353991507,0.07486169117353857
1746474935704974300,9.672974365234374,-0.066079030585289,-0.009019172757863998,0.07032770100571215
1746474935714970600,9.682970703125,-0.03205868756175041,-0.012899813583493232,0.07287095574773847
1746474935724967400,9.692967529296874,-0.01641395918428898,-0.012992168042063712,0.07382131527513265
1746474935734964700,9.70296484375,0.005816577324271202,-0.006981237189471721,0.08362360123470425
1746474935744960500,9.71296044921875,0.011294131952524185,-0.01656622713655233,0.06624810354188085
1746474935754957300,9.722957275390625,-0.005981997019052505,-0.013978548730909824,0.03204487823210656
1746474935764953300,9.732953369140626,-0.06504559588432311,-0.029774960538744923,0.015007014995813368
1746474935774950400,9.742950439453125,-0.12944997125566005,-0.016501052945852277,-0.010837255030497909
1746474935784946400,9.752946533203126,-0.14799334368407727,0.00968874258249998,0.00166449914611876
1746474935794943500,9.762943603515625,-0.144884856274724,0.04266133011877536,-0.0035356267802417276
1746474935804940500,9.7729404296875,-0.13721768264770506,0.0452829107940197,0.0051468613691627975
1746474935814936300,9.782936279296875,-0.11242167956531048,0.03001958294957876,0.012902516997233033
1746474935824933600,9.79293359375,-0.06904080300033093,0.03887479731738567,0.02034618406668305
1746474935834929400,9.802929443359375,-0.034442367827892305,0.05012947404235601,0.04233100218586623
1746474935844926700,9.8129267578125,0.018907529565691947,0.028837679688632486,0.04403853675611317
1746474935854923500,9.822923583984375,0.07106149517297744,0.011534662710130214,0.030076793029531836
1746474935864919600,9.83291943359375,0.10507599297761916,-0.011613280904293059,0.0030615795277059077
1746474935874916600,9.84291650390625,0.1298795948445797,-0.03341974678188562,-0.007257789108529687
1746474935884912400,9.852912353515626,0.15882453429996968,-0.03818652279227972,-0.017260054619610308
1746474935894909400,9.862909423828125,0.1684136159002781,-0.0352396556854248,-0.017939634381607172
1746474935904906500,9.872906494140626,0.143085113376379,-0.027274960416555402,-0.011921031679213046
1746474935914902500,9.882902587890625,0.09273848945200443,-0.01502396613061428,-0.0054775546282529826
1746474935924899600,9.892899658203126,0.024861469534039497,0.011004793617129326,0.005717062472552061
1746474935934895600,9.9028955078125,-0.022582418686151504,0.013715221619606017,-0.01368161161094904
1746474935944892400,9.912892333984376,-0.01430500420629978,0.021828969970345495,-0.02379647065103054
1746474935954889500,9.922889404296875,-0.02842939114868641,0.03699643622487783,0.020612726048380135
1746474935964885500,9.932885498046875,-0.027351532784104345,0.03843874398767948,0.04791515899375081
1746474935974882600,9.942882568359375,-0.029078794968128204,0.0440934087485075,0.037897768978774546
1746474935984878600,9.952878662109375,-0.025106968727707863,0.01913169371038675,0.03153334851339459
1746474935994875400,9.96287548828125,-0.020778584134578705,-0.003479658809304237,0.008067351925745606
1746474936004872400,9.97287255859375,0.0015326163947582245,-0.012068331195414065,0.004977934543043375
1746474936014868500,9.982868408203124,-0.0014864391654729843,-0.007548515683412552,0.032898864712938666
1746474936024865300,9.992865234375,-0.004067103308439255,-0.01130173073709011,0.07371084063798189
1746474936034861600,10.002861572265624,-0.012293079861998558,0.0015159575209021568,0.08736278776302933
1746474936044858400,10.0128583984375,-0.07118366024792194,0.016640753677487373,0.08757818407937884
1746474936054855700,10.022855712890625,-0.09613163902163505,0.0374073551133275,0.04119403404518961
1746474936064851500,10.0328515625,-0.07487783859074115,0.025170097091794012,-0.006176935069262981
1746474936074848500,10.0428486328125,-0.0501104770809412,0.014777882415056228,-0.04034348163045943
1746474936084844500,10.052844482421875,-0.00184825821518898,0.007182312719523906,-0.04406856656819582
1746474936094841600,10.062841552734374,0.0145481653124094,0.0003121346890926361,-0.057127808497101064
1746474936104838700,10.072838623046875,0.028162849166989325,0.011197685840725898,-0.02853971965536475
1746474936114834400,10.08283447265625,0.011256138029694556,0.03944236807227135,0.003992284506559371
1746474936124831500,10.09283154296875,-0.0034469255834817885,0.07383768188804388,0.04115801288373768
1746474936134827300,10.1028271484375,-0.0038549218624830245,0.07178571779429913,-0.008239566687494516
1746474936144824600,10.112824462890625,0.0025210429102182387,0.042945115496218204,-0.048186888607218856
1746474936154821400,10.1228212890625,0.05041267489790916,0.02848550525009632,-0.04967793088257313
1746474936164817700,10.132817626953125,0.07116963172256946,0.021515373976528644,-0.00859510212689638
1746474936174814500,10.142814453125,0.04457563930749893,0.032011925810575485,0.042725043004751204
1746474936184810500,10.152810546875,0.03079085958302021,0.06048281801342964,0.04952982764877378
1746474936194807600,10.1628076171875,0.026239772149920463,0.017136720500886438,0.023476664112135767
1746474936204804400,10.172804443359375,0.05671031373739242,0.0031689854249358175,0.003375686978176236
1746474936214800600,10.182800537109374,0.10029577296376228,-0.012367314141988753,0.01892842622324824
1746474936224797400,10.19279736328125,0.12648878336250782,-0.03842822259366512,0.05651062644682824
1746474936234793500,10.20279345703125,0.08841244294643402,-0.07135814003199338,0.05769742507860064
1746474936244790500,10.21279052734375,0.02229015774130821,-0.08422843526005744,0.06367109266072511
1746474936254787300,10.222787353515624,-0.040219782185554505,-0.08925327768474817,0.0637412352874875
1746474936264783400,10.232783447265625,-0.0879249516904354,-0.06945844389051199,0.06386537312380969
1746474936274780400,10.242780517578124,-0.11697627412974834,-0.05710340470820665,0.07648001309037208
1746474936284776400,10.2527763671875,-0.13335983817577363,-0.05415916794985533,0.06448905798010528
1746474936294773500,10.2627734375,-0.13763853840827941,-0.01535509778112173,0.0672428867328912
1746474936304770600,10.2727705078125,-0.17668576968312263,0.012605506812036036,0.06206270761601627
1746474936314766300,10.282766357421876,-0.1761772356390953,0.030446868450939652,0.052588996023684734
1746474936324763600,10.292763671875,-0.14709960971474648,0.04887421328425407,0.010817454351484774
1746474936334759400,10.302759521484376,-0.11355506750941276,0.032434827397763724,-0.027886808704584834
1746474936344756500,10.312756591796875,-0.048072833773493764,0.023612346255779265,-0.033660569800436496
1746474936354753500,10.32275341796875,-0.0047404725253582,0.02050385884642601,-0.034229747990518804
1746474936364749300,10.332749267578125,0.03329144422709942,0.01689180582910776,-0.025008549854531884
1746474936374746600,10.34274658203125,0.07367781515121459,0.002755436187982559,-0.023695859820768234
1746474936384742400,10.352742431640625,0.08545593122839927,-0.0026458383336663244,-0.024744492090865967
1746474936394739500,10.362739501953126,0.05101531696617603,0.006791852097213268,-0.02353555469252169
1746474936404736500,10.372736572265625,0.004012158250808716,0.028234745359420773,0.0009174071058630943
1746474936414732500,10.382732666015626,0.00722702864408493,0.03350450245589018,-0.015367226610332727
1746474936424729600,10.3927294921875,0.016909049224853513,0.03345423357337713,-0.03589614683277905
1746474936434725600,10.4027255859375,0.01851999155282974,0.02228840417563915,-0.03094078944772482
1746474936444722400,10.412722412109375,0.006976853275299072,0.03677928634285926,-0.021722367790713903
1746474936454719500,10.422719482421876,-0.010490998876094818,0.05090455006808042,-0.009213087894767522
1746474936464715500,10.432715576171875,-0.023161095356941223,0.04519230990111828,-0.024302374346554276
1746474936474712600,10.442712646484376,-0.0692769498437643,0.06988631391376257,-0.004298573976755142
1746474936484708600,10.45270849609375,-0.10918167473077774,0.09066548257023095,0.020533596397563813
1746474936494705400,10.462705322265625,-0.17756313703954218,0.010030103366076945,0.021048560182377694
1746474936504702500,10.472702392578125,-0.21860767961144445,0.06047697279453277,-0.047189109741523856
1746474936514698500,10.482698486328125,-0.1341267308950424,0.12797843739837408,-0.0623640286501497
1746474936524695300,10.4926953125,-0.035869185760617255,-0.006928337958455085,0.12742343386411667
1746474936534691600,10.502691650390625,0.018548633125424385,-0.07582564083486795,0.1981756438922137
1746474936544688400,10.5126884765625,0.07643383586108685,-0.030958325104415416,0.05751257003098726
1746474936554685700,10.522685791015626,0.20258125844001768,0.03564619065970182,-0.1270571578349918
1746474936564681500,10.532681396484374,0.18627485128343105,0.011536708536744118,-0.1707834137715399
1746474936574678500,10.542678466796875,0.09727730192542075,0.014063012143969536,-0.12385310109667479
1746474936584674600,10.552674560546874,0.040806057640910144,0.004575052830576897,-0.025724077712744473
1746474936594671400,10.56267138671875,0.0010457096606492995,0.013617606464028358,0.013457520531490444
1746474936604668400,10.57266845703125,-0.07714169186949729,0.008122516179084778,0.030505612900853154
1746474936614664400,10.58266455078125,-0.13435177182257174,-0.02351853049248457,0.03939582551680505
1746474936624662300,10.592662353515625,-0.09747077867090702,-0.03552665593326092,0.06293203779645264
1746474936634658300,10.602658203125,-0.1012140568524599,-0.0443263407215476,0.07019545292817056
1746474936644655000,10.612655029296874,-0.05754734908342361,-0.03294482274651527,0.059574105670675635
1746474936654652400,10.62265234375,-0.036873978888988496,-0.0378562679246068,0.032830329521372915
1746474936664648200,10.632648193359374,-0.10482874021828174,-0.019206512512266634,-0.013621040530130267
1746474936674645200,10.642645263671875,-0.15761223590075968,0.027111878809332846,-0.032070451064780355
1746474936684641300,10.652641357421874,-0.14244798451662063,0.05619622673541307,-0.05358589810654521
1746474936694638300,10.662638427734375,-0.08737024041712284,0.05721300256252288,-0.047243178016319866
1746474936704634000,10.672634033203124,-0.00485854594707489,0.057504094463586806,-0.03454918920323252
1746474936714631400,10.68263134765625,0.20462942314147947,-0.005220072735846042,0.019703794509917497
1746474936724628200,10.692628173828124,0.32443186060786244,-0.08752513871788978,0.042255452731624246
1746474936734624300,10.702624267578125,0.36688217832446096,-0.0895741802021861,0.09655402915216982
1746474936744621300,10.712621337890624,0.31504560810327525,-0.032546763339638705,0.1300059977032244
1746474936754617000,10.7226171875,0.2561807466804981,0.009305880744755267,0.06182444188073277
1746474936764614400,10.732614501953124,0.13354279352724552,0.027616028939187524,0.006388385862857103
1746474936774611200,10.742611083984375,0.08719196124076843,0.044369303080439564,-0.028610446804016827
1746474936784607200,10.752607177734374,0.059379240685701364,0.02626023041605949,-0.03240618582516908
1746474936794604300,10.762604248046875,0.04498071297705173,-0.008535188633203506,0.0023097382470965385
1746474936804600300,10.772600341796876,-0.01569675082564354,-0.024770868641138075,0.053099502829089755
1746474936814597000,10.78259716796875,-0.13073942654430865,-0.03566431083828211,0.08347885900177061
1746474936824594200,10.79259423828125,-0.24082827924787997,-0.01454553496390581,0.08010755593776703
1746474936834590200,10.802590087890625,-0.29646716436147685,-0.004309387631714344,0.05557122670486569
1746474936844587300,10.812587158203126,-0.298828048273921,0.029064766442775725,0.010571005309745668
1746474936854583300,10.822583251953125,-0.2081190188229084,0.03682604809403419,-0.00025740882717072963
1746474936864580000,10.832580078125,-0.1192997486412525,0.017747253614664078,0.022506357775256038
1746474936874577400,10.842577392578125,-0.0424462260633707,-0.004687865555286407,0.06250869781784713
1746474936884573200,10.8525732421875,-0.00623275690972805,-0.024751579418778417,0.103283118211478
1746474936894570200,10.8625703125,-0.026384149056673047,-0.021978899835050105,0.13627367979586125
1746474936904566300,10.872566162109376,-0.07185761398673057,0.0035828269228339194,0.12659991558678446
1746474936914563000,10.88256298828125,-0.11483750853538513,0.05133329687416553,0.04107537610158324
1746474936924560400,10.892560302734376,-0.15090835434794425,0.053420916803181166,-0.02993592325411737
1746474936934556200,10.90255615234375,-0.11332184327542781,0.07008417457342148,-0.054200888199731706
1746474936944553200,10.91255322265625,-0.0072936641395092,0.016149463029205797,-0.023265067188069224
1746474936954549200,10.92254931640625,0.14065174874961375,-0.014219956271350384,0.05199884811080992
1746474936964546300,10.93254638671875,0.22356442523598669,0.0342573666498065,0.16154373013079165
1746474936974543400,10.94254345703125,0.17374445553421974,0.054125557941198346,0.08265241811499
1746474936984539400,10.952539306640626,0.18384382474422453,0.06217150175273418,-0.0012790800251066684
1746474936994536200,10.9625361328125,0.09029752604067325,0.06522621314823628,-0.053708939964324236
1746474937004532200,10.9725322265625,0.01340834762752056,0.036270752298831935,-0.04926065531857311
1746474937014529300,10.982529296875,-0.04241933805644512,-0.024655425567924976,-0.048201940045878286
1746474937024526300,10.9925263671875,-0.03166647337377071,-0.053043315662443635,-0.04757357901446521
1746474937034522400,11.0025224609375,-0.024142507609724997,-0.0035205753415822982,-0.05466353727541864
1746474937044519200,11.012519287109376,-0.024475100564956664,0.04168517856299877,-0.06648242375440895
1746474937054515500,11.022515380859375,-0.02185585797727108,0.03221796977669,-0.08790317825004458
1746474937064512300,11.03251220703125,-0.014644026902318,0.01965805567204952,-0.06010580139458179
1746474937074509000,11.042509033203125,-0.1467974118977785,0.020676292803883552,-0.055118003044649956
1746474937084505300,11.05250537109375,-0.20402385846376417,0.04549889163225889,-0.023134938002377748
1746474937094502100,11.062502197265625,-0.19303309337198732,0.06297141995877027,0.041600422888994217
1746474937104498200,11.072498291015625,-0.2073380975782871,0.016148586246371267,0.05510981973819434
1746474937114495200,11.0824951171875,-0.18703180713057516,0.010223872372508049,0.025107480184361337
1746474937124492300,11.0924921875,-0.09754735103845595,-0.013172785305976866,0.00974909446761012
1746474937134488300,11.10248828125,0.09119418261945247,-0.01194002864062786,-0.007215630467236041
1746474937144485000,11.112485107421875,0.1300719025462866,-0.05259352606832981,-0.0011404022067785262
1746474937154481200,11.122481201171874,0.14163842169940472,-0.06370762527883052,0.0865929724343121
1746474937164478200,11.132478271484375,0.08151333108246325,-0.04309270727336406,0.11213124525137246
1746474937174475300,11.142475341796874,-0.03315174349546432,0.012552607581019401,0.06667955376170576
1746474937184471000,11.152470947265625,-0.14847557424306868,0.0374228449434042,-0.03510682308599353
1746474937194468400,11.16246826171875,-0.2517582540631294,0.06690466775447129,-0.12808007114194334
1746474937204464000,11.172464111328125,-0.26772446947991846,0.09454612339586019,-0.16205759793706237
1746474937214461400,11.18246142578125,-0.13513620019853115,0.10023059877306223,-0.08477262513935566
1746474937224458200,11.192458251953125,0.030058453655242918,0.07181845102012158,0.030366862017288804
1746474937234454300,11.202454345703124,0.17057517784833906,0.016359306387603283,0.15140066790953277
1746474937244451300,11.212451416015625,0.2386959433943033,-0.058144145932793614,0.18005743807330726
1746474937254447000,11.222447021484374,0.2826373764514923,-0.13683862020224333,0.08912351382523774
1746474937264444400,11.2324443359375,0.31978198897540566,-0.11411007104367017,-0.03047602148018777
1746474937274441200,11.242441162109374,0.2674392227977514,0.006889467252790928,-0.08996632132492959
1746474937284437200,11.252437255859375,0.18834113616347312,0.05930412962287664,-0.08461487729437649
1746474937294434300,11.262434326171874,0.2019412069708109,0.025799042645096776,-0.06689400022998451
1746474937304430300,11.272430419921875,0.2646118904173374,-0.0258896435379982,-0.013325272453948855
1746474937314427100,11.28242724609375,0.2943272297233343,-0.05658873318433761,0.018762495071813462
1746474937324424200,11.292424072265625,0.28429098887741566,-0.050315936525166034,0.047107861198857424
1746474937334420200,11.302420166015626,0.19977847597897053,-0.028679566517472267,0.11228205189891159
1746474937344417300,11.312417236328125,0.017569558960199357,-0.011705927623808383,0.14973763006813823
1746474937354413300,11.322413330078126,-0.16144494593143463,-0.0020420272216200826,0.1503491130299866
1746474937364410000,11.33241015625,-0.30505028378963467,0.006990297278761863,0.10988938460871576
1746474937374407200,11.3424072265625,-0.3740086692035198,0.02568739896416664,0.08224222987890244
1746474937384403200,11.3524033203125,-0.32562896143794057,0.059606035178899765,0.042484512247145174
1746474937394400300,11.362400146484376,-0.24504502016007898,0.07191402034908533,0.033325273431465026
1746474937404396300,11.372396240234375,-0.14103519510924814,0.042757191708683966,0.04184599514789879
1746474937414393000,11.38239306640625,-0.07895312520563602,0.00028057050704956055,0.007779474895074963
1746474937424390400,11.392390380859375,-0.04666121340990066,-0.011174012704193591,-0.0048648295573890206
1746474937434386200,11.40238623046875,-0.007955342918634414,-0.029262042580544947,-0.011062295958027242
1746474937444383200,11.41238330078125,0.02493570381402969,-0.023059388548135756,0.009998393053561448
1746474937454379300,11.422379150390626,0.07877484602928161,-0.004575052830576897,0.04513334625549614
1746474937464376300,11.432376220703125,0.05118482831418514,0.0048792964741587634,0.07414177940115332
1746474937474373400,11.442373291015626,-0.02233282783925533,0.006448737747967243,0.08135682534649967
1746474937484369200,11.452369140625,-0.07138239769041538,0.0187505854383111,0.0876724382340908
1746474937494366200,11.4623662109375,-0.05063713130354881,0.017569851221144198,0.06765541305653751
1746474937504362200,11.4723623046875,-0.02676934898197651,0.0255824772849679,0.03767280111648142
1746474937514359300,11.482359375,-0.040482817035913464,0.020787644223868845,-0.01961187844276428
1746474937524356000,11.492356201171875,-0.04292085783779621,0.02669248435348272,-0.0429545409116894
1746474937534352400,11.502352294921875,-0.03401625137031078,0.02312280917316675,-0.0287020706102252
1746474937544349200,11.51234912109375,-0.026744214540719985,0.006335340501368045,-0.0011687515184283257
1746474937554345200,11.52234521484375,0.003564414483308792,0.0005269464835524559,0.0428209045946598
1746474937564342300,11.53234228515625,0.05893500404953956,0.0070996028721332545,0.04926036305762827
1746474937574339000,11.542339111328126,0.0909317322909832,0.007261515435576438,0.04771846737787127
1746474937584335400,11.55233544921875,0.0003524666994810104,-0.020571955646574495,0.0032405162911862133
1746474937594332200,11.562332275390625,-0.08995382716953754,-0.02609481072127819,-0.028266090345755217
1746474937604328200,11.572328125,-0.09590484452843666,-0.018854045812785623,-0.0637695845991373
1746474937614325200,11.5823251953125,-0.0893061769157648,0.002382218961417675,-0.10029409246332943
1746474937624322300,11.592322265625,0.07717500961720943,-0.05681318958997726,-0.0921064751587808
1746474937634318300,11.602318359375,0.2849234415620565,-0.06689473088234663,0.0360017991643399
1746474937644315400,11.6123154296875,0.27773732945024965,-0.009874912804365157,0.06847403596304356
1746474937654311400,11.6223115234375,0.23007541456520555,-0.033062603907287116,0.011247808592766523
1746474937664308200,11.63230810546875,0.24518588993549345,-0.055928807970881456,0.0036273967169225215
1746474937674305500,11.642305419921875,0.1942149966329336,-0.02270107662975788,0.03875409354716539
1746474937684301300,11.65230126953125,0.08611410287618637,-0.015401567271351814,0.07825082215517759
1746474937694298400,11.66229833984375,0.03080897976160049,-0.021349662020802497,0.12904160965047776
1746474937704294400,11.67229443359375,-0.030459435671567916,-0.03347352279573679,0.15008425154872237
1746474937714291500,11.68229150390625,-0.07215104397535324,-0.04501081585437059,0.11256335305832325
1746474937724288500,11.69228857421875,-0.04972527715563774,-0.034067104774713516,0.0641306729964912
1746474937734284300,11.7022841796875,-0.12202128255963325,-0.017213585129380225,0.020687325654551385
1746474937744281300,11.71228125,-0.13716566019952298,-0.006145078626275062,-0.002651829683035612
1746474937754277400,11.72227734375,-0.11599077022373676,-0.005132978974282741,0.003927037250623107
1746474937764274400,11.7322744140625,-0.13038695984482765,0.018508593375980854,-0.01587532226294279
1746474937774271200,11.742271240234375,-0.1531014804780483,0.016411328835785388,-0.02690210851617157
1746474937784267500,11.752267578125,-0.18445757272839544,0.022585341295599935,-0.028963351894915102
1746474937794264300,11.762264404296875,-0.17569091342687607,0.030058161394298073,-0.028288667503744362
1746474937804260400,11.77226025390625,-0.19607319172024726,0.042860359822213645,-0.02857617920823395
1746474937814257400,11.78225732421875,-0.2014993084222078,-0.00720481681227684,-0.065031348163262
1746474937824254200,11.792254150390624,-0.1710018788278103,-0.053664954692125316,-0.07030453932583332
1746474937834250500,11.80225048828125,-0.1679074199438095,-0.04506050021499395,-0.09671294604092835
1746474937844247300,11.812247314453124,-0.20147943467795848,0.014906477230787276,-0.13960983848124742
1746474937854243300,11.822243408203125,-0.1690922458142042,0.08523410517126322,-0.12875336729362608
1746474937864240400,11.832240478515626,-0.13040508002340792,0.07535013227760791,-0.08037249048426746
1746474937874237200,11.8422373046875,0.0024795418560504914,-0.05127747503370046,-0.019557152580842375
1746474937884233500,11.8522333984375,0.19555472080409525,-0.10925064831376075,0.052024347878247494
1746474937894230300,11.862230224609375,0.28016075720489025,-0.05818038628995418,0.07918934511430561
1746474937904226300,11.872226318359376,0.23328093260824678,0.014900632011890411,0.07821041707955301
1746474937914223400,11.882223388671875,0.18948972167670725,0.019178747722506523,0.006297858035191894
1746474937924220400,11.892220458984376,0.2386310614645481,0.02124970877766609,-0.042551586133986706
1746474937934216200,11.90221630859375,0.20574293734133242,0.008372983808815479,-0.056335854401811956
1746474937944213500,11.912213623046876,0.17293839984834194,0.019454934315383435,0.016887641110643743
1746474937954209300,11.922209228515625,0.11124094534814358,0.04114683390259743,0.10407799491621553
1746474937964206300,11.932206298828126,0.09738076229989528,0.06773907275199889,0.1215841332513839
1746474937974203400,11.942203369140625,0.10918225925266742,0.04886135380268097,0.08523125562705099
1746474937984199200,11.95219921875,0.11785481052994727,0.026127251686155796,0.08244476671367883
1746474937994196500,11.962196533203125,0.05857026239037513,0.006357844594120979,0.05674611570313572
1746474938004192300,11.972192138671875,-0.020028642550110817,-0.008289981700479983,0.05875007593668997
1746474938014189600,11.982189453125,0.002277297282218933,-0.01082680670171976,0.07814853082448243
1746474938024186400,11.992186279296876,0.052901569104194635,0.011434709466993808,0.07293671446032822
1746474938034182400,12.002182373046875,0.05426408962905407,-0.004167056551575661,0.08832586064152419
1746474938044179500,12.012179443359376,-0.03313303879499435,-0.04368336664289236,0.09701265963986515
1746474938054175500,12.022175537109375,-0.1434983703523874,-0.057573360307514664,0.11317490908540785
1746474938064172300,12.03217236328125,-0.3500286586791277,-0.02699146730005741,0.12940649744011462
1746474938074169300,12.04216943359375,-0.44441900699138637,0.031125498364865778,0.1252775078766048
1746474938084165400,12.052165283203125,-0.38813539423346516,0.06207943955510854,0.09328151028752327
1746474938094162400,12.062162353515625,-0.2352940259963274,0.06451806487888097,0.05801343222521245
1746474938104158500,12.072158447265625,-0.061953475087881085,0.025796120035648344,0.03247713216952979
1746474938114155300,12.0821552734375,0.0662269146233797,-0.030754326964914796,0.010364449886977671
1746474938124152300,12.09215234375,0.07766308539509773,-0.06433773987591267,0.007972001792490482
1746474938134148400,12.1021484375,0.008048866420984268,-0.03637187458574772,0.01687127449773252
1746474938144145200,12.112145263671875,-0.10544657985568046,-0.009707739543914795,0.006369900358095764
1746474938154141400,12.122141357421874,-0.13895371266007422,0.04144903171956539,-0.027246757235378026
1746474938164138200,12.13213818359375,-0.08920271654129028,0.056523266732692715,-0.0748369220584631
1746474938174135600,12.142135498046875,-0.0070031567603349686,0.03194119866192341,-0.08469152272716164
1746474938184131300,12.15213134765625,0.04660217669904232,0.012039981883764267,-0.06826514245271682
1746474938194128400,12.16212841796875,0.1142588318645954,-0.004171732726693153,-0.04941555361934006
1746474938204124400,12.17212451171875,0.14054302767813204,-0.028668752862513063,0.01976626528687775
1746474938214121200,12.182121337890624,0.07391980721354484,-0.017870587733387944,0.055258361363410946
1746474938224117200,12.1921171875,-0.047915012863278386,0.0039621816292405125,0.06034786652214825
1746474938234114300,12.2021142578125,-0.12951017701029777,0.025979075387120246,0.01622793509289622
1746474938244111400,12.212111328125,-0.12719605484902857,0.02811696419864893,-0.05971753272935748
1746474938254107400,12.222107421875,-0.04835398880243301,0.02641775906533003,-0.10728095567598939
1746474938264104400,12.2321044921875,0.057846039769053455,0.01116144548356533,-0.08611329915858805
1746474938274100200,12.242100341796874,0.11841828963160514,-0.014070610928535461,-0.03801518481336534
1746474938284097500,12.25209765625,0.10904781921803951,-0.02982230681180954,0.003604381167516112
1746474938294094300,12.26209423828125,0.055640638679265976,-0.02019698485434055,0.014282427048310637
1746474938304090400,12.27209033203125,0.031161446461081502,0.02111293065547943,0.04276742084175348
1746474938314087400,12.28208740234375,0.03547287991940975,0.035571371857821936,0.052885202491283416
1746474938324083500,12.29208349609375,0.025400983238220213,0.013179799568653106,0.036652737353742124
1746474938334080500,12.30208056640625,0.02619359492063522,-0.024056875152885914,0.032378932492062446
1746474938344077300,12.312077392578125,0.027151041775941846,-0.03228518979400396,0.04652392383106053
1746474938354073300,12.3220732421875,-0.029809447330236435,-0.013387597100436686,0.05771934464946389
1746474938364070400,12.3320703125,-0.07495558000206946,0.013964227944612502,0.0708722562111914
1746474938374066400,12.34206640625,-0.1066997947871685,0.04440963509082794,0.061655076663196084
1746474938384063500,12.3520634765625,-0.09648936641812324,0.041621757937967775,0.03210479172579944
1746474938394060300,12.362060302734376,-0.07968553113341331,0.020268588785827157,0.023679931599274277
1746474938404056300,12.372056396484375,-0.021026421415805817,0.0034659225448966024,0.003212166979536414
1746474938414053400,12.382053466796876,0.03326338717639446,-0.0049973698958754535,-0.02506685591302812
1746474938424049400,12.39204931640625,0.048337622189521784,-0.02126227599829435,-0.022551439025998113
1746474938434046200,12.402046142578126,0.06894786401987076,-0.011555120976269245,-0.004964709735289216
1746474938444043500,12.41204345703125,0.05756137760877609,-0.008099719825387,0.006175619895011186
1746474938454039300,12.422039306640626,0.05264847112596035,0.011208499495685099,0.009627075523138046
1746474938464036400,12.432036376953125,0.028370354437828062,0.0033922727867960927,0.014393486207351088
1746474938474032400,12.442032470703126,0.0027250410497188567,0.021744506557285784,0.03161408559940755
1746474938484029200,12.452029296875,0.0018576105654239655,0.025008184528350828,0.05448028966300189
1746474938494026500,12.462026611328126,0.045830607804656025,0.014430384151637554,0.02564202545247972
1746474938504022300,12.472022216796875,0.11997194881439208,0.000180032742023468,-0.02002462396211922
1746474938514019300,12.482019287109376,0.1680424445003271,-0.009539397239685058,-0.055589566079154606
1746474938524015400,12.492015380859375,0.13411679402291773,-0.022431027516722678,-0.0661843175906688
1746474938534012400,12.502012451171876,0.07908990332782267,0.007894844903051852,-0.023569676157832144
1746474938544009500,12.512009521484375,0.016933014622330666,0.032060733388364314,-0.005102803031727671
1746474938554005500,12.522005615234375,0.004845686465501785,0.04100859447568655,-0.02377542786300182
1746474938564002300,12.532002197265625,-0.03806523450016975,0.018307225584983825,-0.05663410669602453
1746474938573998300,12.541998291015625,-0.08807634285986422,-0.00788666159659624,-0.03763312669321894
1746474938583995400,12.551995361328125,-0.08484393680989742,-0.01514730024933815,-0.001619490960612893
1746474938593992400,12.561992431640626,-0.08493044604957103,-0.007133212880790233,0.04555595558173954
1746474938603988500,12.571988525390625,-0.07276479195952415,0.025037702883780003,0.07125767533220351
1746474938613985300,12.5819853515625,-0.08330489067435264,0.018303426192700863,0.036652956549450756
1746474938623981000,12.59198095703125,-0.07674713959395885,0.009327215793728827,-0.010918795834109186
1746474938633978000,12.60197802734375,-0.02405833645761013,-0.009920505511760712,0.005269537900760769
1746474938643974100,12.61197412109375,0.007466682618856429,-0.007514905674755573,0.057817398196458814
1746474938653971000,12.621970947265625,-0.010195230799913406,-0.015901625747978685,0.133182874173671
1746474938663968000,12.631968017578124,-0.04846855509281158,-0.014968728812038897,0.1547648105803877
1746474938673964000,12.641964111328125,-0.07928805624842643,-0.02509907768219709,0.12512399781532585
1746474938683961000,12.651961181640624,-0.09650982468426227,-0.020076573345065116,0.0730061264347285
1746474938693957000,12.66195703125,-0.09965221436321735,0.003816635678708553,0.03507240935973823
1746474938703954000,12.671953857421874,-0.10292086077034472,0.028052082268893715,0.03779365101717412
1746474938713951200,12.681951171875,-0.05018354231715202,0.03930763577669859,0.021234438143298028
1746474938723947000,12.691947021484374,0.008088613909482956,0.026206162141263485,0.011448007339984178
1746474938733944000,12.701944091796875,0.034842765322327614,0.0266214649438858,0.0030394407611340282
1746474938743940000,12.711940185546876,0.054098669934272765,0.03839110545367002,0.006447495638951659
1746474938753937000,12.72193701171875,0.04361526984274387,0.01798544628471136,0.010655614853277802
1746474938763934200,12.731934326171874,0.04036123648285866,0.0017795768931508063,-0.002351239301264286
1746474938773930000,12.741929931640625,0.018162848678231237,0.00982902783602476,0.01482858968898654
1746474938783927000,12.751927001953124,0.0221294142216444,0.027591186758875844,0.0016392916396260262
1746474938793923000,12.761923095703125,0.01091477724611759,0.04581482571363449,-0.021274697088450194
1746474938803920100,12.771920166015626,-0.0046855274677276605,0.03718903618752956,-0.015633987787738442
1746474938813917000,12.7819169921875,-0.022948329389095305,0.029814415766298768,-0.022070596706494687
1746474938823913200,12.791913330078126,-0.013949030375480651,0.03204465903639793,-0.008453282503411173
1746474938833910000,12.801909912109375,-0.013418284499645232,0.035166298188269135,0.009300473917275667
1746474938843906000,12.811906005859376,-0.023403087419271468,0.011633154648542404,-0.001182195521891117
1746474938853903000,12.821903076171875,-0.03351122445762157,-0.0181187172755599,-0.010545797803252936
1746474938863900000,12.83189990234375,-0.019123218142986297,-0.03164601510763168,-0.03670731708519161
1746474938873896200,12.841896240234375,0.00008183306455612182,-0.020168927803635595,-0.024226751827076076
1746474938883893000,12.85189306640625,-0.02149111631810665,-0.006297931100428104,-0.008518237498402595
1746474938893889000,12.861888916015625,-0.053396659144759176,0.0006777531310915946,-0.00422565487101674
1746474938903886000,12.871885986328126,-0.07424480138421058,0.013232698799669741,-0.02060680776424706
1746474938913882000,12.881882080078125,-0.08003332165777682,0.027440380111336708,-0.044215062366798515
1746474938923879200,12.891879150390626,-0.047646717315912246,-0.0029652795463800427,-0.04011500663682818
1746474938933876000,12.9018759765625,-0.040024551874399183,-0.004138414978981018,-0.004890183194354176
1746474938943872000,12.9118720703125,-0.021740707165002822,-0.014798632942140101,0.001421776431426406
1746474938953869000,12.921869140625,0.007221183425188064,-0.017533318603038788,0.019176263504475353
1746474938963865000,12.931864990234375,0.026831892824172972,-0.0021747136905789373,0.03561082708537578
