time,seconds_elapsed,z,y,x
1745505988419879200,0.033879150390625,-0.02203063002228737,-0.02910977462828159,0.034592736084014176
1745505988429848300,0.043848388671875,-0.007358546069264412,-0.008542202895879744,-0.04637611285820603
1745505988439817200,0.053817138671875,0.04285714495182037,-0.0098556235820055,-0.04099171640612185
1745505988449787100,0.063787109375,0.0376624989181757,0.01485445478260517,-0.04959595168754458
1745505988459756000,0.073756103515625,0.04060089045763016,0.022615444172918796,-0.01982438868228346
1745505988469725200,0.08372509765625,0.05883621985018253,0.004034077821671963,-0.0009682970428839325
1745505988479695000,0.093695068359375,0.06469488275051116,-0.0009781973823904991,0.03947473597191274
1745505988489664000,0.1036640625,0.05760404770672321,-0.025020459488034247,0.039962044564820824
1745505988499633200,0.113633056640625,-0.025655834782123563,-0.01007043537646532,0.02893909423649311
1745505988509603300,0.123603271484375,-0.029954993280768394,-0.004135784630477428,0.009504216328449546
1745505988519572200,0.133572265625,-0.07778817307949065,0.00014379238486289978,0.02439542292486876
1745505988529541400,0.143541259765625,-0.17683774537444114,-0.014421616323292254,-0.003917904096096754
1745505988539511300,0.15351123046875,-0.11597265004515647,0.0009197451934218406,-0.013747589519247412
1745505988549480200,0.163480224609375,-0.035191724890470504,-0.022497955273091792,-0.019887151720188557
1745505988559449000,0.173448974609375,0.10835632982254027,-0.03195931884050369,-0.06741758571267127
1745505988569419300,0.183419189453125,0.1723725826591253,0.009124386698007582,-0.06585577975604683
1745505988579388200,0.19338818359375,0.16788287002444266,0.01263151803612709,-0.043173919283412396
1745505988589357000,0.203357177734375,0.11665946326553821,0.0296627323359251,0.008015037216618656
1745505988599327000,0.213326904296875,0.028144144466519354,0.0373702379733324,0.01382507520224899
1745505988609296100,0.223296142578125,-0.05016425309479236,-0.006826046627759933,0.06565211041010915
1745505988619265000,0.23326513671875,-0.024828736308217046,-0.06794657802283763,0.09376498295553028
1745505988629235200,0.243235107421875,0.029709494087100028,-0.0459735234066844,0.050264790859818456
1745505988639204400,0.253204345703125,0.057661915373802185,-0.04045563676804304,-0.022044439351931212
1745505988649173200,0.26317333984375,0.005476970106363296,0.0022650223225355146,-0.02825874728951603
1745505988659143200,0.27314306640625,0.02366261513829231,0.03744067286103964,-0.05558057905510068
1745505988669112300,0.2831123046875,0.05686579656004905,0.015423779103159903,-0.04631196158081293
1745505988679081200,0.293081298828125,0.027967618855834004,-0.0014162965387105942,0.0070345017466694115
1745505988689051100,0.303051025390625,0.0031149171501398086,-0.028318331989645958,0.030847594738937913
1745505988699020000,0.31302001953125,-0.05064999078512192,-0.02409749942421913,0.03101703302171081
1745505988708989200,0.3229892578125,-0.07463935365974902,-0.017947744622826577,0.030684440066479145
1745505988718959000,0.332958984375,-0.0064233110457658765,-0.037620997864007945,0.04949380648732185
1745505988728928000,0.342927978515625,0.10179974778592586,0.004730827914178371,0.011230492131784557
1745505988738897200,0.352897216796875,0.10301321522891521,0.011140110434591769,-0.01820924510322511
1745505988748867300,0.362867431640625,-0.03863105168938637,-0.0012292495340108871,-0.055582588349096476
1745505988758836200,0.372836181640625,-0.16315934863388537,0.021559213118255136,-0.0034104294979944824
1745505988768805400,0.382805419921875,-0.11775368824303149,-0.0008393734335899353,0.01957790310792625
1745505988778775300,0.392775390625,-0.02324818911850452,0.011277473078668117,-0.020370514790341257
1745505988788744200,0.402744140625,0.05722936917543411,-0.011690145532786845,-0.020495346746407447
1745505988798713000,0.412713134765625,0.11973521744906902,-0.03312631679326296,-0.03810998695734888
1745505988808683300,0.422683349609375,0.10508183819651604,-0.03802139535844326,-0.008449775372073054
1745505988818652200,0.432652099609375,0.08574410052001476,-0.03495937743932009,0.018396145977452396
1745505988828621000,0.44262109375,0.025319734695553778,-0.041891222529113294,0.05676880245897919
1745505988838591000,0.452591064453125,-0.08900690170824527,0.013753507803380489,-0.010877733171358704
1745505988848560000,0.46256005859375,-0.16009236227869986,0.025266543203592298,-0.10812895080745219
1745505988858529000,0.472529052734375,-0.11892331654429435,0.04788929390013218,-0.06969112013522535
1745505988868500200,0.482500244140625,-0.05985796411335468,0.015059037443995475,-0.021823015153594312
1745505988878469000,0.49246923828125,0.022942484170198438,-0.014618892461061477,0.01170866757016629
1745505988888438300,0.502438232421875,0.08849895218610764,0.001411328102648258,0.02999912468343973
1745505988898408200,0.512408203125,0.09030804743468761,-0.004357318426668644,0.024964491517096756
1745505988908377000,0.522377197265625,0.07420797650516033,0.009844809927046299,0.03439202588014304
1745505988918347000,0.532346923828125,0.0757037680208683,-0.015348375779390334,0.02736322322189808
1745505988928316200,0.542316162109375,0.05770692355930805,-0.018593933571875096,0.00820529909171164
1745505988938285000,0.55228515625,0.07611936308443545,0.005085048179328441,-0.03356218745987862
1745505988948255200,0.562255126953125,0.02685293561220169,-0.011159107396006583,-0.02848360555395484
1745505988958224400,0.572224365234375,-0.047600540086627,-0.014787234765291214,0.0063291664889082305
1745505988968193300,0.582193359375,-0.06293780995011329,0.013449264159798621,0.047494778157211835
1745505988978163200,0.5921630859375,-0.105100542896986,-0.02663110955506563,0.07526818961519748
1745505988988132400,0.60213232421875,-0.22636486960947513,0.02854863361418247,0.21827413680814206
1745505988998101200,0.612101318359375,-0.3016021891623735,0.04999941792190075,0.22229382077828047
1745505989008071200,0.6220712890625,-0.1603437066912651,0.0011593991681933403,0.13212613166235387
1745505989018040000,0.6320400390625,-0.18128011173605918,-0.018911036697030065,0.06050707567185163
1745505989028009200,0.64200927734375,-0.11361351969838142,-0.13594167136251925,-0.01342960961125791
1745505989037979100,0.651979248046875,0.04010053972005844,-0.11643413007706403,-0.045567938280478115
1745505989047948000,0.661947998046875,0.08315349950492382,-0.06267740544825792,-0.06089395609758794
1745505989057917200,0.671917236328125,0.07703530888557433,0.002553483875095844,-0.1612692240383476
1745505989067887400,0.681887451171875,0.0798515353500843,0.044837797375023365,-0.26518326056450603
1745505989077856300,0.691856201171875,0.13329261815845966,0.05162205068767071,-0.2560226335093379
1745505989087825400,0.701825439453125,0.15307868412435055,0.028327976600825786,-0.16283026280999183
1745505989097795300,0.71179541015625,0.18768997877836227,-0.023252573032677172,-0.048036520351096984
1745505989107764200,0.72176416015625,0.2037567319601774,-0.03842822259366512,0.047361105307564134
1745505989117733000,0.731733154296875,0.151076696652174,-0.06858283009976149,0.1282791008453816
1745505989127703300,0.741703369140625,0.049555765807628625,-0.08535568572431802,0.1274216802984476
1745505989137672200,0.751672119140625,-0.02128887174427509,0.0011889175236225128,0.09047836250029503
1745505989147642000,0.76164208984375,-0.09473170909583568,0.06409370198696851,-0.00880889100804925
1745505989157611000,0.771611083984375,-0.10230302113294601,0.09999795906096696,-0.0478333989944309
1745505989167580200,0.781580078125,-0.08370645721256732,0.09043722677230834,-0.07624174735508858
1745505989177550000,0.791550048828125,-0.08627192378640175,0.06706658031791449,-0.0844826292168349
1745505989187519000,0.80151904296875,-0.10190613076984882,0.0061091305300593375,-0.013837532825022935
1745505989197488400,0.81148828125,-0.0324468100965023,-0.06191957281827926,0.07268778120055794
1745505989207458300,0.821458251953125,0.04571428794860839,-0.10392360807210206,0.15551672492623328
1745505989217427200,0.83142724609375,0.09619301382005215,-0.1213587269976735,0.18786343564912675
1745505989227396400,0.841396240234375,0.13161387129127977,-0.09700549924671649,0.199494106079638
1745505989237366300,0.8513662109375,0.12672083855271338,-0.0311290054962039,0.1270902563869953
1745505989247335200,0.861335205078125,0.16701310145258902,0.037411154505610465,0.041407895991578694
1745505989257304000,0.871303955078125,0.19771160657703876,0.04440758926421404,-0.008358224631100893
1745505989267274200,0.881274169921875,0.07429448574483394,-0.013933248284459113,0.02122398981451988
1745505989277243100,0.8912431640625,-0.13473930983543395,0.010364742147922516,0.11446348759122192
1745505989287212000,0.9012119140625,-0.3806377319544553,-0.07326572721898555,0.06458754991851746
1745505989297182200,0.91118212890625,-0.5177063615202904,-0.03230009510219097,0.02718677067644894
1745505989307151000,0.921151123046875,-0.40763036829829213,0.0782590054616332,-0.015429039800167082
1745505989317121300,0.931121337890625,-0.4081149369448423,0.10805179391801356,0.051652299695461985
1745505989327090200,0.941090087890625,-0.1470148540407419,-0.05251724596172571,0.1819816841341555
1745505989337059300,0.951059326171875,0.21779285609722135,-0.0545978516280651,0.16373517576046287
1745505989347029200,0.961029296875,0.45828971143364905,0.019941548788547515,0.07516045492440461
1745505989356998100,0.970998046875,0.4842974283933639,0.05808160209059715,0.008603943020477891
1745505989366967300,0.98096728515625,0.3100789256066084,0.0698608872115612,-0.016750936053693294
1745505989376937200,0.990937255859375,0.08199497711956501,0.04312544049918651,0.055324558467417954
1745505989386906000,1.000906005859375,-0.03947510129809379,-0.02836480147987604,0.004764291792362928
1745505989396875300,1.010875244140625,-0.02308452298939228,-0.02984802577495575,-0.08381152502223849
1745505989406845200,1.02084521484375,0.09122399323582649,-0.056826633593440055,-0.0773881409112364
1745505989416814000,1.03081396484375,0.1736281356781721,-0.0819645819813013,-0.08744863941557705
1745505989426783000,1.040782958984375,0.1684779133081436,-0.0763093326985836,-0.12182970551028847
1745505989436753200,1.050753173828125,0.25176000762879847,-0.061174015147984026,-0.1519238880660385
1745505989446722300,1.060722412109375,0.2685895618766546,-0.009028817369043826,-0.17927549391537903
1745505989456692200,1.070692138671875,0.22478198433220384,0.006637246057391166,-0.1521644188236445
1745505989466661000,1.0806611328125,0.19458207637965677,-0.002755143927037716,-0.08794058765098452
1745505989476630300,1.09063037109375,0.09979133057296276,-0.020709026029706,-0.04468589474894106
1745505989486600200,1.10060009765625,0.007339256846904754,-0.04139642474949359,-0.06497625697515905
1745505989496569000,1.110569091796875,-0.05020575414896011,-0.08628829039931296,-0.043870559778064484
1745505989506538200,1.120538330078125,-0.194480954092741,-0.09071136753857136,0.009987141007184982
1745505989516508200,1.130508056640625,-0.32327216917872426,-0.08800152405798435,0.033254984674230215
1745505989526477000,1.14047705078125,-0.34121406858265396,-0.044564533391594885,0.04109926843382418
1745505989536446200,1.1504462890625,-0.2417500702679157,0.02925532057881355,-0.015083733493834734
1745505989546416400,1.16041650390625,-0.14669570508897303,0.09308481867164373,-0.06469400596767663
1745505989556385300,1.17038525390625,-0.03021685908734798,0.09400836325734853,-0.061844534820690744
1745505989566354200,1.180354248046875,0.02583937465548515,0.07197831775695085,-0.0773178521540016
1745505989576324400,1.190324462890625,-0.05188450101613998,0.0864174697369337,-0.06347776204571128
1745505989586293200,1.200293212890625,-0.09616203415989875,0.13766308832764626,-0.12813399328626693
1745505989596263200,1.21026318359375,-0.035839959666132924,0.06542232024222612,-0.13493490547277032
1745505989606232000,1.220232177734375,0.04389408678412437,0.030110476103425023,-0.12356076708659529
1745505989616201200,1.230201171875,0.031153263154625892,0.031650983543694014,-0.07000511798784137
1745505989626171100,1.240171142578125,0.012408815196156501,0.004864975687861442,-0.06206687233448028
1745505989636140000,1.25014013671875,-0.029859131690859794,0.005430792877078056,0.007682736522331833
1745505989646109200,1.260109130859375,0.06321838045716285,-0.03947977747321128,0.06808437905833124
1745505989656079400,1.270079345703125,0.11618600053489207,-0.032334874154627324,0.1021881625816226
1745505989666048300,1.28004833984375,0.1314607265561819,-0.027424013498425482,0.0822110310230404
1745505989676017400,1.290017333984375,0.14832944377064705,-0.01645136858522892,0.06821129337362945
1745505989685987300,1.2999873046875,0.15959727223813533,-0.03447480879276991,0.011118483124673366
1745505989695956200,1.309956298828125,0.1214613105893135,-0.05526888275742531,-0.0006531301464885472
1745505989705926100,1.319926025390625,0.04444879805743694,-0.07025777757465838,0.007327420278638601
1745505989715895300,1.329895263671875,-0.1066471878170967,-0.05004997906535864,0.026391528645530342
1745505989725864200,1.3398642578125,-0.19023674065172672,-0.03315671193152666,0.04960793438628316
1745505989735834000,1.349834228515625,-0.12884089944660662,-0.03156155169457197,0.049094797232374546
1745505989745803000,1.359802978515625,0.024733459240198135,-0.046532618594169614,0.04144106760881841
1745505989755772200,1.369772216796875,0.13759119213521478,-0.02804360670149326,0.07831935734674333
1745505989765742300,1.379742431640625,0.13475567644834519,0.014346505260467528,0.08701616628244518
1745505989775711200,1.389711181640625,0.031677579289674754,0.03880143982023,0.08479154903553426
1745505989785680400,1.399680419921875,-0.04417465729117393,0.048289691394567485,0.04708177690953016
1745505989795650300,1.409650390625,-0.19318799167275427,0.11660714855641126,0.04074168716780841
1745505989805619200,1.419619140625,-0.27465280743837356,0.1014949196204543,-0.005707856252789497
1745505989815589000,1.429589111328125,-0.151507489284873,0.03261339883506298,-0.027682518304139373
1745505989825558300,1.439558349609375,-0.05108136793971062,-0.024614509035646916,-0.016701251693069935
1745505989835527200,1.449527099609375,0.0620528438091278,-0.04982756848633289,-0.009837065012007951
1745505989845497000,1.4594970703125,0.14774433735907078,-0.08029547972530127,0.04065210918821394
1745505989855466200,1.46946630859375,0.20846914743483067,-0.14107581938058136,0.09362952000759542
1745505989865435100,1.47943505859375,0.2600795076847076,-0.13869973789900542,0.11618227420784533
1745505989875404500,1.489404541015625,0.1669365290850401,-0.08566255971640348,0.045757542568445206
1745505989885373700,1.499373779296875,-0.033440497308969495,0.012464344775676726,-0.014418255322426557
1745505989895342600,1.509342529296875,-0.17392215018868445,0.0679261197566986,-0.029169468926265835
1745505989905312800,1.519312744140625,-0.16609306399822235,0.020475801795721053,-0.035464331286773086
1745505989915281700,1.52928173828125,-0.08860416612625122,-0.02180003613680601,-0.005955620468780398
1745505989925251800,1.539251953125,-0.05939268468916416,-0.028141806378960608,0.008988631489127874
1745505989935220700,1.549220703125,-0.010077157378196715,-0.006119359663128853,0.0035316081922501324
1745505989945189600,1.559189697265625,0.10498363851904868,0.0047404725253582,-0.008408347383141517
1745505989955159600,1.56915966796875,0.18480711681842804,0.03101736181527376,-0.009456833522766828
1745505989965128700,1.579128662109375,0.21533026537597177,-0.006976268753409385,0.03024433161616325
1745505989975097600,1.58909765625,0.12501169654726982,0.010910685592889786,0.003997691334038973
1745505989985067500,1.599067626953125,-0.02260346147418022,0.017047580912709234,-0.01362220957390964
1745505989995036700,1.60903662109375,-0.17003040344715117,0.004710077387094497,-0.033248701063916086
1745505990005006800,1.6190068359375,-0.17664134601950646,-0.04010141650289297,-0.044060529392212625
1745505990014975700,1.628975830078125,-0.16457564517259596,-0.06353606810420752,-0.0493854507420212
1745505990024945000,1.63894482421875,-0.0875333220243454,-0.03675298285782337,-0.023208660825714468
1745505990034914800,1.648914794921875,0.027864743003249166,-0.0022770050212740896,-0.035386955201625825
1745505990044883700,1.6588837890625,0.07975275115072726,0.020040625248849392,-0.05643186212219298
1745505990054852600,1.6688525390625,0.0597480739980936,0.042345396037399764,-0.04551745020225644
1745505990064822800,1.67882275390625,0.06770341691672802,-0.055962125718593596,0.05540894881524145
1745505990074791700,1.688791748046875,-0.07295709966123104,0.002239303359389305,-0.009150178726390004
1745505990084761600,1.69876171875,-0.2570738961279392,0.11273030712306499,-0.043942894361913204
1745505990094730500,1.70873046875,-0.2922907554596662,0.03726385498940944,-0.04391469118073582
1745505990104699600,1.71869970703125,-0.22595979593992233,0.012149871999025345,-0.028517873149737714
1745505990114669800,1.728669921875,0.04096972377002239,-0.011799451126158237,-0.04119900248125195
1745505990124638700,1.738638671875,0.30672961517870423,-0.031793606884777545,-0.0662673927642405
1745505990134608000,1.74860791015625,0.4295832569092512,-0.000933189196884632,-0.04416135941818356
1745505990144577800,1.758577880859375,0.42273090679645536,-0.0361287134796381,0.047587096083164214
1745505990154546700,1.768546630859375,0.22484745078384874,-0.053850832653045654,0.10859247666597366
1745505990164516600,1.7785166015625,0.03396072179079056,-0.026629648250341413,0.1434286661170423
1745505990174485800,1.78848583984375,-0.1442746154218912,0.003802607153356075,0.07883804745860397
1745505990184454700,1.79845458984375,-0.21117022308707237,-0.01686228747367859,0.015632599548250435
1745505990194424600,1.808424560546875,-0.18124562494456767,-0.05030278478264808,0.0018277999490499495
1745505990204393700,1.818393798828125,-0.04465454976260662,-0.05469605130553245,-0.010970818282291293
1745505990214363600,1.82836376953125,0.03172609460651874,-0.02316372570544481,-0.012436214659735559
1745505990224332500,1.83833251953125,0.018219547301530838,0.020704349854588508,0.0009277093041688203
1745505990234301700,1.8483017578125,0.09499123681485652,0.0006105331137776374,0.06784998578056693
1745505990244271900,1.85827197265625,0.12290449513494968,-0.0029372224956750867,0.05483392540626227
1745505990254240800,1.86824072265625,0.24779402660727498,0.0908595438376069,0.07084514900855719
1745505990264209700,1.878209716796875,0.28949323369562624,-0.032439211311936375,0.058441959835588926
1745505990274179600,1.8881796875,-0.2356803949654102,-0.03372749755680561,-0.13779592092707751
1745505990284148700,1.898148681640625,-0.3635831367790699,0.0771788090094924,-0.08857764344550668
1745505990294118700,1.90811865234375,-0.1300572894990444,-0.1730070811703801,-0.06827697902098298
1745505990304087600,1.918087646484375,0.0056026423126459115,-0.0942141149625182,-0.030657515526935457
1745505990314056700,1.928056640625,0.03882862008810043,0.01311433311700821,-0.005638955735042691
1745505990324026600,1.938026611328125,0.09328384837508201,0.013540741835534572,0.055547918894514436
1745505990333995500,1.94799560546875,0.1745043339908123,-0.009571253682672977,0.07243124915622175
1745505990343964700,1.957964599609375,0.10630816512107849,0.04842150108069181,0.04987462249845266
1745505990353934800,1.967934814453125,0.04717208554148674,0.036654198658466336,0.023731150329858064
1745505990363903700,1.97790380859375,-0.05174070863127708,0.01425619662851095,-0.05494323099963366
1745505990373873700,1.987873779296875,-0.20296704288721085,0.06360591847002506,-0.0949181715786457
1745505990383842800,1.9978427734375,-0.18635259269475934,0.0068073419272899624,-0.030905279742926357
1745505990393811700,2.007811767578125,-0.040539515659213064,-0.06218553027808666,-0.016939882754534483
1745505990403781600,2.01778173828125,0.01248772565126419,-0.040006139434874056,-0.008511223235726355
1745505990413750500,2.02775048828125,0.039627076989412306,-0.025799919427931306,-0.031976196910068394
1745505990423720700,2.037720703125,0.056530280995368956,-0.029225217701494693,-0.024051614455878733
1745505990433689600,2.047689697265625,0.022694646888971326,-0.0030947511449456212,0.002934372951462865
1745505990443658500,2.057658447265625,-0.005050853648781776,-0.002719488091766834,-0.010249664400890469
1745505990453628700,2.067628662109375,-0.04046937303245068,0.009993570747971534,-0.06763904644362628
1745505990463597800,2.077597900390625,-0.026236849540472028,0.007862111677229404,-0.061107891109213226
1745505990473567700,2.087567626953125,-0.0061871642023324964,-0.031515082204341884,-0.027139351338148116
1745505990483536600,2.09753662109375,-0.02079261265993118,-0.013850538437068462,-0.04095554911419749
1745505990493505800,2.107505859375,0.020841712498664854,-0.004797463409602642,-0.02704765446670353
1745505990503475700,2.117475830078125,0.07213000118732452,-0.039784021116793154,0.01077799912393093
1745505990513444600,2.127444580078125,0.09887655381560324,-0.05156739789098501,0.048625353089720005
1745505990523413800,2.137413818359375,0.1302659638136625,-0.036465982609987256,0.06550020778402686
1745505990533383700,2.1473837890625,0.11084463950693607,-0.02682020238637924,0.10282872550748288
1745505990543352600,2.1573525390625,0.06408522641956806,-0.02911825019568205,0.05092325476855039
1745505990553322800,2.16732275390625,0.017907412612438202,-0.0018605331748723982,0.011043079800903797
1745505990563292000,2.1772919921875,-0.015505612167716025,0.04021335244476795,-0.04660064232908189
1745505990573260800,2.1872607421875,-0.046567105385661126,0.05157499667555093,-0.13191628830395638
1745505990583230700,2.197230712890625,-0.12846212926208972,0.017288403931260108,-0.16816687459759413
1745505990593199600,2.20719970703125,-0.048158758491277695,-0.013921265585720538,-0.13549801924824714
1745505990603169800,2.217169677734375,-0.006089549046754837,-0.0024447628036141393,-0.08041990982256829
1745505990613138700,2.227138671875,-0.027621581897139546,-0.039353813005983826,-0.02335712938569486
1745505990623107600,2.237107666015625,0.022187866410613058,-0.08527706753015518,0.016221797613054513
1745505990633077500,2.247077392578125,0.04589139808118343,-0.033687165546417236,0.007702683331817388
1745505990643046700,2.257046630859375,-0.0020808979272842407,0.016810849547386167,-0.029763343166187405
1745505990653016800,2.267016845703125,-0.09098433926105498,0.024967267996072767,-0.0671078621763736
1745505990662985700,2.27698583984375,-0.20879238803982733,0.04882365214079618,-0.08554017544575035
1745505990672955000,2.286954833984375,-0.24639351215958594,0.0157268537029624,-0.06406754463240504
1745505990682924800,2.2969248046875,-0.17131576708257198,0.015137071116268634,0.003308320830389857
1745505990692893700,2.306893798828125,0.004369885647296905,-0.006753273652493954,0.06040317690595984
1745505990702863600,2.316863525390625,0.16349895585179328,-0.013371522748470305,0.08893719747290015
1745505990712832800,2.326832763671875,0.221020001450181,-0.00642184974104166,0.0962055810406804
1745505990722801700,2.3368017578125,0.21690321378111838,-0.004331891724467277,0.08022679840326309
1745505990732771600,2.346771484375,0.21319149978160856,-0.02418079379349947,0.08566986624002457
1745505990742740700,2.35674072265625,0.14555062670707702,-0.01398614751547575,0.07172748480103909
1745505990752709600,2.366709716796875,0.06832534820735454,-0.008192074283957481,0.034821211077645416
1745505990762679600,2.376679443359375,-0.0588636923789978,-0.025736791063845157,-0.0057286067798733705
1745505990772648400,2.3866484375,-0.12263444602191448,-0.022259470342099665,-0.024421762942522764
1745505990782619000,2.396618896484375,-0.1217617548406124,-0.024319325481355188,-0.02106507292576134
1745505990792587800,2.406587890625,-0.05080781169533729,-0.03320931890159845,-0.034440906523168086
1745505990802556700,2.416556640625,0.029285715717077252,-0.03280629105865955,-0.015999094773083925
1745505990812526600,2.426526611328125,0.05269757096469402,-0.003660276073217392,-0.0031958734318614005
1745505990822495700,2.436495849609375,0.07763561286628246,-0.011858195576071739,-0.013054419623315333
1745505990832465700,2.446465576171875,0.08168810312747955,0.008639818051457405,-0.0363879489377141
1745505990842434600,2.4564345703125,0.0726361971437931,-0.022149287965893744,0.02051445330567658
1745505990852403700,2.46640380859375,0.07598550757169723,-0.04713379935771227,0.02668145150281489
1745505990862373600,2.47637353515625,0.05038227975964546,-0.0421674091219902,0.03433613097444176
1745505990872342300,2.48634228515625,0.02338379819691181,-0.06470540414452552,-0.013257833240926265
1745505990882312200,2.496312255859375,0.0009428338080644607,-0.04887655137181282,-0.03390928386449814
1745505990892281300,2.50628125,-0.0531646039545536,0.00797813927233219,-0.08371953588984907
1745505990902250200,2.516250244140625,-0.11254735177159308,0.05830109006017446,-0.14118658627867697
1745505990912220200,2.52622021484375,-0.10662789859473705,0.012514905919134615,-0.13829174162000418
1745505990922189300,2.536189208984375,-0.01037584806382656,0.004873158994317055,-0.05624415753036737
1745505990932159200,2.5461591796875,0.08529577223062515,0.008683657193183899,-0.0404519835062325
1745505990942128000,2.556128173828125,0.08423603404462338,0.004350304163992405,-0.04734093930236995
1745505990952097300,2.56609716796875,0.0469821159273386,-0.008381459376215934,0.0037302725695073603
1745505990962067500,2.5760673828125,-0.004840425768494605,-0.0032476036190986633,0.031753421004861594
1745505990972036400,2.586036376953125,-0.07523439694344997,-0.014869652351737022,-0.0015722177527844904
1745505990982006300,2.59600634765625,-0.15499474687874315,0.014297697682678698,-0.022871830086782573
1745505990991975400,2.605975341796875,-0.1332172148346901,0.007135258707404136,-0.004879515669867396
1745505991001944300,2.6159443359375,-0.07997603851258754,-0.008738894511759281,0.003366626888886094
1745505991011914200,2.625914306640625,-0.046648938450217246,0.016931261056661605,-0.06477832325026392
1745505991021883100,2.635883056640625,0.07393500478267669,0.01893967826962471,-0.09316687093190848
1745505991031853300,2.645853271484375,0.10240531246364117,0.01610883875787258,-0.021536855155974626
1745505991041822200,2.655822265625,0.1029740522623062,-0.005463233841955661,0.05239705364815891
1745505991051792400,2.66579248046875,0.12403729855716228,-0.03621142332702875,0.04824249125197529
1745505991061761300,2.67576123046875,0.07823474780321121,-0.036655952224135396,0.04836911330632865
1745505991071730400,2.68573046875,0.1151134028673172,-0.05853519107699394,0.06022372868582606
1745505991081700400,2.695700439453125,0.18586510143876075,-0.06326309638172388,0.07308817869499325
1745505991091669200,2.705669189453125,0.08248656002879143,-0.07910042472183704,0.03705006610825658
1745505991101639200,2.71563916015625,-0.021093641433119772,-0.04158960923403501,-0.03581182955019176
1745505991111608300,2.7256083984375,-0.07415420049130916,-0.00012654898911714554,-0.0595698678869754
1745505991121577200,2.7355771484375,-0.1214963819026947,0.03652911097407341,-0.07505005335249006
1745505991131547100,2.745547119140625,-0.1232259821742773,0.03917348800301552,-0.022442571824043987
1745505991141516300,2.755516357421875,-0.08740472720861435,0.02444616673141718,-0.02225961647257209
1745505991151486200,2.765486328125,-0.03648176470100879,0.03443272321671247,-0.023779008059576154
1745505991161455000,2.775455078125,0.007230535775423049,0.03423193994760513,-0.018982932889461516
1745505991171424500,2.785424560546875,0.08201777347326278,0.041838615559041496,0.023513854317367074
1745505991181394400,2.79539453125,0.054209729093313216,0.017111878320574758,0.020838351497799158
1745505991191363300,2.80536328125,-0.003531681257486343,-0.0022998013749718667,0.03723338678590953
1745505991201333200,2.815333251953125,-0.026733693146705626,-0.030374972258508205,0.028114918372035023
1745505991211302400,2.825302490234375,-0.04209551292955875,-0.04763327331244945,0.0025857787095010278
1745505991221271300,2.835271240234375,-0.010106967994570731,-0.06267623640447854,-0.007939195501431823
1745505991231241200,2.8452412109375,0.05427636458873748,-0.08017711404263973,0.005734232803061604
1745505991241210000,2.855210205078125,0.06751286278069019,-0.07228928340226412,0.01748655685186386
1745505991251180300,2.86518017578125,0.0471738391071558,-0.05211655620634555,0.0012043342884629964
1745505991261149200,2.875149169921875,0.03442424764931202,-0.03173047852069139,-0.018894377823173998
1745505991271119400,2.885119384765625,-0.030679215902090072,-0.025147885259985923,-0.03399221290759742
1745505991281088300,2.895088134765625,-0.055664604076743125,-0.008414192602038384,-0.012363368619233369
1745505991291057400,2.905057373046875,-0.006235094997286797,0.004569207611680031,-0.017599661837518214
1745505991301027300,2.91502734375,0.007310615274310111,0.012167699916660784,-0.028661738599836825
1745505991310996200,2.924996337890625,0.009247136294841765,-0.014682605347037315,0.00668188891671598
1745505991320966100,2.934966064453125,0.007929623955488204,0.005198445425927639,0.017104352601245043
1745505991330935300,2.944935302734375,-0.006153846454620361,-0.00030687399208545685,0.023956921909749507
1745505991340904200,2.954904296875,0.006938274830579757,-0.0038221886366605756,0.03625840427391231
1745505991350874000,2.9648740234375,0.04344458945095539,-0.0033346973806619644,-0.01275572893768549
1745505991360843300,2.97484326171875,0.05899170267283916,0.00734334850013256,0.006535685379058122
1745505991370813400,2.9848134765625,0.06329261473715304,0.007339549107849597,0.0013856091395020485
1745505991380782300,2.9947822265625,0.08532441380321978,-0.010794073475897312,-0.009417743621394038
1745505991390751500,3.00475146484375,0.055662265989184376,-0.0053445758983492846,-0.03564750583395362
1745505991400721400,3.014721435546875,0.023771336209774015,0.0019327216282486914,-0.027297829835489392
1745505991410690300,3.024690185546875,0.04983633631467819,0.010511749403178691,0.018825404240190982
1745505991420660200,3.03466015625,0.06950842051208019,0.022886954590678212,0.08135536404177546
1745505991430629400,3.04462939453125,0.12053835052549838,0.01447363877147436,0.11844371633380651
1745505991440599300,3.054599365234375,0.10306289958953857,0.02710866393893957,0.1526909269157797
1745505991450568200,3.064568115234375,0.03613163608908653,-0.011083704072237015,0.09705189567171037
1745505991460537000,3.074537109375,0.004507248291373253,-0.04345978702008724,0.0746128309790045
1745505991470507300,3.08450732421875,-0.06738835961818694,-0.05894464866071939,-0.009480287463590501
1745505991480476400,3.094476318359375,-0.10823358022570609,-0.09662117610424756,-0.10924005385451019
1745505991490446300,3.1044462890625,-0.03254033359885215,-0.08189473161548376,-0.15559899638220667
1745505991500415200,3.114415283203125,-0.06420739149451256,-0.042940147060155864,-0.13739289308413863
1745505991510384400,3.12438427734375,-0.07659574842453003,-0.024317279654741286,-0.10143836712762713
1745505991520354300,3.134354248046875,-0.08745441156923771,0.01730886219739914,-0.05459843614995479
1745505991530323200,3.1443232421875,-0.08255085743665695,0.03280161488354206,-0.018480755520984528
1745505991540293000,3.154293212890625,-0.014896540358662605,-0.014625614462792872,0.03605279869921505
1745505991550262300,3.16426220703125,0.058687751290202136,-0.01021510454416275,0.05510938134677708
1745505991560232200,3.174232177734375,0.016561258700489998,0.0035819501399993892,0.04646057627126574
1745505991570201000,3.184201171875,0.0031768764704465866,-0.028490181425213812,0.022379516525194047
1745505991580170200,3.194170166015625,-0.06874269683659076,-0.03553951541483402,0.0005759732570499182
1745505991590140400,3.204140380859375,-0.041219314616918565,-0.036794191651046276,0.0022703560847789047
1745505991600109300,3.214109375,-0.03554652967751026,0.005327040241658687,-0.03832578513249755
1745505991610079200,3.224079345703125,-0.04522036695182323,-0.009510755667090415,-0.02035758224353194
1745505991620048400,3.23404833984375,0.0045031566381454466,-0.007459083834290504,-0.03313800723105669
1745505991630017300,3.244017333984375,0.06878127528131008,-0.00027677111476659774,-0.009326412076130509
1745505991639987200,3.2539873046875,0.1109656355381012,-0.024371347929537296,0.009453837848082184
1745505991649956400,3.263956298828125,0.114677349537611,-0.021859365108609197,-0.0085196257378906
1745505991659926300,3.27392626953125,0.07589139954745769,-0.003260463100671768,-0.03156535108685493
1745505991669895200,3.283895263671875,0.05801496659517288,-0.02461597034037113,-0.032786928771063685
1745505991679865300,3.293865234375,0.014188099828362465,-0.025793489687144754,-0.0567979189556092
1745505991689834200,3.303834228515625,-0.004209142127633094,-0.029773499234020707,-0.05209470970071852
1745505991699803400,3.313803466796875,-0.007810966011881828,-0.0437599390104413,-0.0014810323379933832
1745505991709773300,3.323773193359375,-0.04519640155434608,-0.0440583374351263,-0.00943747123517096
1745505991719742200,3.3337421875,-0.056466568109393114,-0.020562311035394666,-0.025165347851440308
1745505991729712000,3.343712158203125,-0.04647065927386283,-0.009262041603028773,-0.01706131717711687
1745505991739681300,3.353681396484375,0.00888707081079483,0.0186938868150115,-0.03018127631731331
1745505991749651200,3.363651123046875,0.026932430589199065,0.021431202824413777,-0.03167348763644695
1745505991759620000,3.3736201171875,0.028884733700752258,0.0042108956933021545,-0.02913096354678273
1745505991769589200,3.38358935546875,-0.0015536591827869414,0.010052899719774723,-0.01971117409877479
1745505991779559400,3.393559326171875,0.0152495915800333,-0.008427052083611488,-0.012167699916660784
1745505991789528300,3.4035283203125,0.023726328024268148,-0.0040606735676527025,0.003588306815549731
1745505991799498200,3.413498291015625,0.015150222858786581,-0.004284837712347507,0.028321181533858177
1745505991809467400,3.42346728515625,-0.018307225584983825,-0.031176936291158197,0.03243409674540162
1745505991819437300,3.433437255859375,-0.05518763421475887,-0.011331541353464127,0.03197371269203722
1745505991829406200,3.44340625,-0.05348199934065342,-0.011006839443743229,0.018319719740375877
1745505991839375400,3.453375244140625,-0.011793898168206213,0.0012637363255023955,-0.003520940667763352
1745505991849345300,3.46334521484375,0.0178857853025198,0.0006733692169189453,-0.0007617050874978304
1745505991859314200,3.473314208984375,0.06381459278464317,-0.006128127491474151,-0.006218801449611783
1745505991869284400,3.483284423828125,0.05804945338666439,-0.029812369939684866,0.003599120470508933
1745505991879254500,3.493254638671875,0.024669746354222297,-0.015839374166727066,-0.006639291884005069
1745505991889224400,3.503224365234375,0.022187281888723372,-0.023823650918900964,-0.016887714175879955
1745505991899193600,3.513193603515625,0.025277649119496343,-0.022482173182070252,-0.026722002708911893
1745505991909162500,3.52316259765625,0.016082535272836686,-0.012620412120223044,-0.025809271778166294
1745505991919132400,3.53313232421875,0.021347908455133437,-0.0025558219626545904,-0.0006538607988506555
1745505991929101600,3.5431015625,-0.0016764087796211243,-0.0013473229557275771,0.022205986589193344
1745505991939071500,3.553071533203125,-0.030433132186532017,-0.007493278364837169,0.03275836026370525
1745505991949040400,3.563040283203125,-0.01606266152858734,-0.006078735391795635,0.01005976785197854
1745505991959010600,3.573010498046875,0.03671849606633186,-0.005888473516702652,0.015487565054371951
1745505991968979700,3.582979736328125,0.049098085168004034,-0.012587386633455752,0.03648001113533973
1745505991978948600,3.592948486328125,0.012850129222869872,-0.034278409437835215,-0.008747150883451104
1745505991988918500,3.60291845703125,0.04056172749102115,-0.03282908741235733,-0.03633161564059555
1745505991998887400,3.612887451171875,0.003741524615883827,-0.02408873159587383,-0.04923595926873386
1745505992008857600,3.622857666015625,0.016563596788048744,-0.036999651095271105,-0.05064940626323223
1745505992018826500,3.632826416015625,0.016089549535512924,-0.027947160589694976,-0.07355747670717537
1745505992028796400,3.64279638671875,-0.0013636895686388016,-0.003387304350733757,-0.05606660900637507
1745505992038765300,3.652765380859375,0.010148469048738479,0.011952888122200965,0.010498670725896954
1745505992048735700,3.66273583984375,0.03926467341780662,0.01420095930993557,0.04840659577250481
1745505992058704600,3.67270458984375,0.050040918976068494,0.03131868284940719,0.045643853060901164
1745505992068673500,3.682673583984375,0.031550153517723084,0.06276040755659341,0.03466090594939887
1745505992078643500,3.6926435546875,-0.008892916029691696,0.014325754733383655,-0.005532791946828365
1745505992088612600,3.702612548828125,-0.047183775979280466,-0.0796355545118451,-0.004268690295144915
1745505992098582500,3.71258251953125,-0.057500587332248686,-0.04908581020832062,-0.02987031067200005
1745505992108551400,3.722551513671875,-0.04662964922785759,-0.02780804437994957,-0.02648731717020273
1745505992118521300,3.732521240234375,-0.04085223487019539,-0.001093055933713913,-0.042635903416574
1745505992128490500,3.742490478515625,0.029051322439312934,-0.04875818568915129,-0.00180566118247807
1745505992138459400,3.75245947265625,0.017870587733387944,-0.04214665859490633,0.00044423663616180415
1745505992148429600,3.7624296875,0.04150046964585781,-0.05555763657093048,-0.012775675747171044
1745505992158398700,3.772398681640625,0.08789046489894389,-0.04322451695948839,-0.0032701077118515967
1745505992168368600,3.78236865234375,0.09248831408321857,0.021525895370543002,0.01457483412362635
1745505992178337500,3.792337646484375,0.08977379442751407,0.012423135982453822,0.017826967787370085
1745505992188307500,3.802307373046875,0.041807928159832954,0.010528116016089916,0.006112564596161246
1745505992198276600,3.812276611328125,-0.021885668593645095,0.012335457699000834,0.008900953205674886
1745505992208246500,3.82224658203125,-0.031896774998307224,-0.0018017887249588964,0.010692293601855635
1745505992218215400,3.83221533203125,0.0035270050823688506,-0.03351327028423547,0.016254896165058017
1745505992228184600,3.8421845703125,0.01274783789217472,-0.01478606572151184,-0.027729718446731565
1745505992238154500,3.852154541015625,-0.012049918755888938,-0.01279927581846714,-0.0860069892399013
1745505992248123400,3.862123291015625,-0.04228548254370689,0.007955050657689571,-0.06329203021526336
1745505992258093600,3.872093505859375,-0.02037058785557747,-0.006344400590658187,-0.00802775056771934
1745505992268062500,3.8820625,-0.01403144796192646,-0.021795067700743673,0.033948373765870926
1745505992278032600,3.89203271484375,0.03398585623204708,-0.023706454280018805,0.03347249988242983
1745505992288001500,3.90200146484375,0.06167232005894184,-0.010341361272335052,-0.0028697102174162865
1745505992297971500,3.911971435546875,0.04654956972897052,-0.020521394503116606,-0.011733546283096074
1745505992307940600,3.921940673828125,0.03923369375765323,-0.028444296456873415,-0.00024323417134582996
1745505992317909500,3.931909423828125,0.007967033356428146,-0.01949731215238571,0.006140183255448937
1745505992327879400,3.94187939453125,-0.01619827060699463,-0.01466711551696062,0.01963737821020186
1745505992337848300,3.951848388671875,-0.0404161815404892,-0.011723463280498982,-0.017609525644406675
1745505992347818500,3.961818603515625,-0.03253098124861717,-0.006425064611434936,-0.028599560083821415
1745505992357787600,3.97178759765625,-0.020424363869428634,-0.0074032619938254355,-0.020072116365656256
1745505992367757600,3.981757568359375,0.02416121231019497,-0.011803542779386042,-0.0008072247296571731
1745505992377726500,3.9917265625,0.041299394115805625,-0.018024901512265205,-0.013132672491297124
1745505992387696400,4.0016962890625,0.03725567168295383,-0.005819499933719634,-0.02967047725096345
1745505992397665500,4.01166552734375,0.024976620346307755,-0.003906944310665131,-0.006484758909419178
1745505992407634400,4.021634521484375,0.018146482065320015,-0.010353051710128784,-0.003294292305037379
1745505992417604400,4.031604248046875,0.010962123519182205,-0.006902911256253719,-0.008721504985541105
1745505992427573500,4.041573486328125,0.004155366113781929,0.011331541353464127,0.013190613223612308
1745505992437543700,4.051543701171875,-0.011592822638154029,0.0030865678384900093,0.01542334071174264
1745505992447512600,4.0615126953125,0.01612052919566631,-0.024051029933989047,-0.00547470508404076
1745505992457482500,4.071482421875,0.03329787396788597,0.012494155392050742,-0.008941796672716737
1745505992467451600,4.08145166015625,0.1033534069687128,-0.01922375590801239,-0.07656944493949412
1745505992477421600,4.091421630859375,0.12410627214014529,0.014662439341843128,-0.13232508830055595
1745505992487390500,4.101390380859375,0.19808219345510006,-0.08097995485812425,0.07379720374718308
1745505992497360400,4.1113603515625,0.10670213287472724,-0.13192220658808945,0.17697883434556425
1745505992507329500,4.12132958984375,0.051993806609511375,-0.08956190524250268,0.13269509065672755
1745505992517298400,4.13129833984375,0.007254501172900199,-0.026632278598845004,0.00839526870585978
1745505992527268400,4.141268310546875,-0.03989712610244751,-0.03132365128546953,-0.0633821196515113
1745505992537237500,4.151237548828125,-0.08431494449973106,-0.011506897920370102,-0.11096548940762876
1745505992547207700,4.161207763671875,-0.12457798130512236,0.008422960430383682,-0.08640044553689658
1745505992557176600,4.171176513671875,-0.14096914413571357,0.026521803961694238,-0.08034881734773516
1745505992567146500,4.181146484375,-0.13532558529078959,0.05523761083632707,-0.03776347507461905
1745505992577115600,4.19111572265625,-0.07305354577302932,0.06767799021452665,-0.0025573563326150178
1745505992587085600,4.20108544921875,0.02146422831118107,0.044209436343610284,0.04033222958408296
1745505992597054500,4.211054443359375,0.06515022530257701,0.009014788843691349,0.04430317904166877
1745505992607024400,4.2210244140625,0.09537351413071155,-0.03124123369902372,0.05007964355126023
1745505992616993500,4.23099365234375,0.057167994377017015,-0.03281593566983938,0.03981280881986022
1745505992626962400,4.24096240234375,0.018828034588694573,-0.042945115496218204,0.0023963205520063638
1745505992636932600,4.2509326171875,-0.02470364862382412,-0.02165156757682562,-0.03526522851809859
1745505992646901500,4.260901611328125,-0.05368249034881591,-0.008197919502854346,-0.03533047577403486
1745505992656871700,4.27087158203125,-0.01872866586744785,-0.01845394057929516,-0.06388721962943673
1745505992666840600,4.280840576171875,0.02277823351919651,0.015534546001255511,-0.027973610205203295
1745505992676810500,4.290810546875,0.08130114963650703,0.02268237192928791,-0.01496361424550414
1745505992686779400,4.300779296875,0.07743044568300246,0.03153232560008764,0.03759863990172744
1745505992696749600,4.31074951171875,0.031163784548640248,0.04047521825134754,0.04121741492077708
1745505992706718500,4.320718505859375,-0.01640460683405399,-0.005455050535500049,0.008263605150207876
1745505992716688600,4.330688720703125,-0.024719430714845655,-0.018170447462797164,0.0011265928771346807
1745505992726657500,4.340657470703125,-0.0063075757116079325,-0.04324877461791038,-0.0239919932231307
1745505992736627500,4.35062744140625,0.01721767678260803,-0.055875031957030294,-0.0260975872002542
1745505992746596600,4.3605966796875,0.010381693282723425,-0.06412731199562549,-0.038022199076041575
1745505992756565500,4.3705654296875,0.02825578814744949,-0.04511106135845184,-0.07366181386448442
1745505992766535400,4.380535400390625,0.038380291798710824,-0.06428367160111666,-0.07325681326016784
1745505992776504600,4.390504638671875,0.08108546105921267,-0.05141600672155618,-0.03235547855123877
1745505992786474500,4.400474609375,0.10956862822175026,-0.029551380915939805,0.019309534495323896
1745505992796443400,4.410443359375,0.06243512112498283,-0.037624797256290914,0.04679886831492185
1745505992806413300,4.420413330078125,0.025491584131121636,-0.036187165668606754,0.015550108896568417
1745505992816382500,4.430382568359375,-0.004814122283458709,-0.012995382912456988,-0.012234335412085056
1745505992826352600,4.4403525390625,-0.07498305253088473,0.00963379752486944,-0.01680398141518235
1745505992836321500,4.450321533203125,-0.09972527959942817,0.01799713672250509,-0.008157076035812496
1745505992846291500,4.46029150390625,-0.0705184743374586,0.02258738712221384,0.0012010463528335095
1745505992856260600,4.470260498046875,-0.052449149161577224,0.0393333547398448,0.0053434068545699116
1745505992866230500,4.48023046875,-0.026586393630504607,0.021610651044547558,0.01129193999543786
1745505992876199200,4.49019921875,0.006737199300527573,0.004248889616131782,0.016507994143292307
1745505992886168300,4.500168212890625,0.04897182843983173,0.0066617959767580025,0.06139204181283712
1745505992896138200,4.51013818359375,0.04879062665402889,-0.014750994408130646,0.06696801531426608
1745505992906107100,4.520107177734375,0.02037526403069496,-0.03782002756744623,0.020513795718550682
1745505992916077000,4.5300771484375,-0.006240355694293975,-0.04883154318630695,-0.017206716997176408
1745505992926046200,4.540046142578125,-0.04540215325951576,-0.04106266275048256,-0.04713343403153121
1745505992936016100,4.55001611328125,0.008244096732139586,-0.04427548731714487,-0.09000636107437313
1745505992945985000,4.559985107421875,0.11724632324278354,-0.026439094114303587,-0.018501798309013245
1745505992955955200,4.569955078125,0.1638075834095478,0.007651976057887077,0.016128639436885715
1745505992965924400,4.57992431640625,0.09449030155539512,0.018368308122456073,-0.010291530781239271
1745505992975894300,4.589894287109375,-0.058574938565492625,0.009833996272087097,-0.04189823679178953
1745505992985863200,4.59986328125,-0.11289631133973597,0.003541618129611015,-0.038977161713317034
1745505992995833000,4.6098330078125,-0.09935527724325656,-0.048829497359693046,-0.01896181703619659
1745505993005802200,4.61980224609375,-0.067595280367136,-0.045071606130897994,-0.021001798431202767
1745505993015772200,4.629772216796875,-0.0535217468291521,-0.02417904022783041,-0.06299852716140449
1745505993025741000,4.639740966796875,0.07924597067236899,-0.057848962378501886,0.00429923156388104
1745505993035711200,4.649711181640625,0.09973580099344254,-0.024646657739579678,-0.014013620044291018
1745505993045680400,4.659680419921875,0.09627017070949077,-0.008994038316607474,0.0239676624994725
1745505993055649300,4.669649169921875,0.10255728815495967,0.0186830731600523,0.024831001330539584
1745505993065619200,4.679619140625,0.02697393164336681,0.031789515231549735,0.04727963756918907
1745505993075588400,4.68958837890625,0.004224924218654632,0.026446985159814355,0.03148943630643189
1745505993085558300,4.699558349609375,0.01825637218058109,0.010246960987150668,0.0065193918313831084
1745505993095527200,4.709527099609375,0.04005962318778038,0.01731967585235834,-0.0010764701250940562
1745505993105497000,4.7194970703125,0.0551297665476799,-0.02130553061813116,0.03962488503232598
1745505993115466200,4.72946630859375,0.07488719094097614,-0.06566898847967385,0.0991146003551781
1745505993125436400,4.7394365234375,0.052719198274612425,-0.06735036569535732,0.09825228443741797
1745505993135405300,4.7494052734375,0.08436872051358223,-0.038221594105660915,0.05952814763709902
1745505993145375200,4.759375244140625,0.06167056649327278,0.015868015739321707,-0.03922171105891466
1745505993155344100,4.76934423828125,0.010928221249580383,0.042863574692606925,-0.08107859292700886
1745505993165314300,4.779314208984375,-0.0011316343784332275,0.024032325233519076,-0.12652100513167677
1745505993175283200,4.789283203125,-0.06116027888357639,0.023885610239207742,-0.0801674694314599
1745505993185253000,4.799253173828125,-0.07670622306168079,-0.03392828082591295,-0.0753696406956762
1745505993195222000,4.809221923828125,-0.06934709247052669,-0.04081599451303482,-0.05144881301261484
1745505993205192200,4.819192138671875,-0.12105915952920913,-0.03364332640469074,-0.010618716908991336
1745505993215161000,4.8291611328125,-0.00329436537027359,-0.0767082688882947,-0.0038243805937469002
1745505993225131300,4.83913134765625,0.03513561078906059,-0.04384674051105976,0.042252822383120656
1745505993235100200,4.84910009765625,0.05286299065947532,-0.03125964613854885,0.033179362154752014
1745505993245069300,4.8590693359375,0.07958090171515941,-0.007996551711857319,-0.011778773664310575
1745505993255039200,4.869039306640625,0.08109890506267547,0.02746200742125511,-0.03766096454821527
1745505993265008000,4.879008056640625,0.016423311534523963,0.03948182329982519,0.006922419674322009
1745505993274978000,4.88897802734375,-0.11730828256309032,0.013711422227323054,-0.020900456948578356
1745505993284947200,4.898947265625,-0.0965560019135475,0.004156535157561302,-0.03460113858617842
1745505993294917000,4.908917236328125,-0.05323357753753662,-0.00748275697082281,-0.007097045588865876
1745505993304886000,4.918885986328125,-0.006167874979972839,-0.02409574585855007,0.007520604763180017
1745505993314856200,4.928856201171875,-0.002449146717786789,-0.0035921792730689048,0.004256634531170129
1745505993324825300,4.938825439453125,0.06090834994912147,-0.01780629032552242,0.04138100798465311
1745505993334795300,4.948795166015625,0.060842883497476574,-0.025427578984200953,0.012630568188056348
1745505993344764200,4.95876416015625,0.0858031372308731,-0.03995762411803007,0.02626191091649234
1745505993354734000,4.968734130859375,0.04170972848236561,-0.03202390850931406,0.017206570866703987
1745505993364703200,4.978703125,-0.002385433831810951,-0.02982055324614048,0.029390491265803575
1745505993374673200,4.988673095703125,-0.02480243282318115,-0.015001462037861346,-0.0021668957103043794
1745505993384642000,4.99864208984375,-0.022260347124934195,-0.022080606643855572,-0.008509323539584874
1745505993394612000,5.008612060546875,-0.018234160348773003,-0.029466625241935253,-0.010395210351422428
1745505993404581400,5.018581298828125,-0.0050900166153907776,-0.02149403892755508,-0.010140431872755288
1745505993414551300,5.02855126953125,0.019653964018821714,-0.019738427431881426,-0.020220219599455594
1745505993424520200,5.038520263671875,0.03700783440172672,-0.025750819589197633,0.0053257250674068925
1745505993434490000,5.048489990234375,0.038651509955525395,-0.012694061878323554,0.014387787118926644
1745505993444459300,5.058459228515625,0.014016834914684294,0.01961889270544052,0.014916779429093002
1745505993454429200,5.06842919921875,0.036979192829132077,0.018270692966878412,0.005530673054978251
1745505993464398000,5.078398193359375,0.03701426414251327,0.012954466380178928,0.0006437777962535619
1745505993474368000,5.088367919921875,0.0577788197517395,0.054692544174194335,0.0064770870596170425
1745505993484337200,5.098337158203125,0.008205518287420272,0.027629180681705473,-0.039010260265320534
1745505993494307300,5.108307373046875,0.03297521788477897,-0.006387947471439838,-0.022974121417477726
1745505993504276200,5.118276123046875,-0.011477671825885771,-0.023768705861270428,-0.013575009431317448
1745505993514246100,5.12824609375,-0.004541150560975074,-0.036055063721537585,-0.007602583958208561
1745505993524215300,5.13821533203125,-0.04148001137971878,-0.032871172988414764,0.020647139774635434
1745505993534185200,5.148185302734375,-0.003437573233246803,-0.01412643276900053,0.0037293227214366194
1745505993544154000,5.158154052734375,0.011057400587201118,-0.017935177402198313,-0.004078428420051932
1745505993554123300,5.168123291015625,0.03478314408957958,-0.04071750257462263,0.020110475614666938
1745505993564093200,5.17809326171875,0.028961890590190886,-0.04349193572402,0.0018817951586097479
1745505993574062000,5.18806201171875,0.001191255611181259,-0.053581660322844976,-0.018413973895087837
1745505993584032300,5.1980322265625,-0.06474632067680358,-0.036276012995839116,-0.04638977605737746
1745505993594001400,5.20800146484375,-0.13301730834841727,-0.03178513131737709,-0.07475063201449811
1745505993603971300,5.217971435546875,-0.15312544587552546,-0.05379121142029762,-0.07332227971181272
1745505993613940200,5.227940185546875,0.027842531171441077,-0.02408610124737024,-0.06837832050360738
1745505993623910100,5.23791015625,0.16493337256908416,-0.011040157191455364,-0.015876783567667006
1745505993633879300,5.24787939453125,0.08416998307108879,-0.02630786895006895,-0.046308308319002386
1745505993643849200,5.25784912109375,0.1278226623147726,-0.019100129528343675,0.021416224450990555
1745505993653818000,5.267818115234375,0.05596446380615234,0.021004209583997725,0.05390555851496756
1745505993663788000,5.2777880859375,-0.027143442991375923,-0.009457271914184093,0.0001248684886842966
1745505993673757200,5.287757080078125,-0.074178750410676,-0.016022037257254124,-0.0011977584172040224
1745505993683727400,5.297727294921875,-0.03555003680884838,0.007604045262932777,-0.016455606368929145
1745505993693696300,5.3076962890625,-0.018406594306230543,0.020242577561736107,0.008867270131781697
1745505993703666200,5.317666259765625,0.03747662095725536,-0.013603870199620723,0.02224916814379394
1745505993713635300,5.32763525390625,0.0726315209686756,-0.03204758164584637,0.026774390483275054
1745505993723605200,5.337605224609375,0.06668985596001148,-0.017908873917162418,0.017902590306848286
1745505993733574100,5.34757421875,0.05739186626076698,-0.03571779459118843,-0.008590645147487521
1745505993743544000,5.3575439453125,0.021752397602796552,-0.024201836581528184,-0.029853213406726715
1745505993753513200,5.36751318359375,-0.0008078092515468597,-0.04730447974950075,-0.013613587876036762
1745505993763483400,5.3774833984375,-0.00032382512688636776,-0.022426351341605186,-0.02574957748018205
1745505993773452300,5.387452392578125,-0.009563947159051895,0.00020896657556295392,0.001976414639502764
1745505993783422200,5.397422119140625,-0.0037631519258022306,0.0003907528832554817,-0.0024269348859786988
1745505993793391000,5.40739111328125,0.025910686326026916,0.00010375263541936874,-0.005585545047372579
1745505993803361300,5.417361328125,0.024305589216947553,0.03760170864164829,0.00946143663264811
1745505993813330200,5.427330078125,0.022557868766784665,0.03122311352044344,0.053196022006124256
1745505993823300000,5.437300048828125,-0.00813420661687851,0.0020057868644595147,0.05959741348102689
1745505993833269000,5.44726904296875,-0.009894786548614502,0.01175444294065237,0.03786700851432979
1745505993843239400,5.457239501953125,0.0018003274202346802,-0.020938450871407985,0.006354848919436335
1745505993853208300,5.467208251953125,-0.002069207489490509,-0.05082096343785524,0.004830415831133723
1745505993863178200,5.47717822265625,-0.014093991804122925,-0.023914251811802387,0.017920564354956148
1745505993873147100,5.487147216796875,-0.004788987842202186,-0.03853051392436027,-0.005156505980342626
1745505993883117000,5.497116943359375,0.010628361520171164,-0.03338146059811115,0.0029334961686283347
1745505993893086000,5.5070859375,0.015369418567419052,-0.008780103304982185,-0.012856266702711582
1745505993903056100,5.51705615234375,0.033300212055444714,-0.023172201272845267,-0.010564794764667748
1745505993913025000,5.52702490234375,0.024668577310442922,-0.026962533466517925,0.022486776291951536
1745505993922995200,5.5369951171875,-0.0062467854350805275,-0.01212473755776882,0.013183087504282593
1745505993932964000,5.546964111328125,0.00031330373287200925,-0.021498715102672577,-0.0005663286458700895
1745505993942934000,5.55693408203125,-0.0029120880544185636,0.0062134676873683925,0.013700973898544907
1745505993952903000,5.56690283203125,-0.015409750577807425,-0.0024795418560504914,-0.014060089534521102
1745505993962873000,5.576873046875,0.009892448461055754,-0.0032020109117031096,-0.04532609234862029
1745505993972842000,5.586842041015625,0.029856793603301048,-0.023117840737104413,-0.03262012083679437
1745505993982812200,5.596812255859375,0.003298457023501396,-0.016015315255522727,-0.06213175426423549
1745505993992781000,5.606781005859375,-0.007348609197139739,-0.018735095608234404,-0.07180763736516237
1745505994002751200,5.616751220703125,-0.018092706051468847,-0.03832067056596279,-0.09160283648557961
1745505994012720000,5.62672021484375,0.040325580647587775,0.022042904981970785,-0.040454979180917144
1745505994022690000,5.63668994140625,0.03690203593969345,0.046916064953804015,-0.006974222926795482
1745505994032659000,5.646658935546875,0.03391279099583626,-0.011197685840725898,-0.025602424094453454
1745505994042629000,5.656629150390625,0.05146013812422752,-0.0447989266693592,0.0026958880204707384
1745505994052598000,5.666597900390625,0.016570026528835297,-0.030381109738349912,0.00584127337411046
1745505994062568000,5.67656787109375,0.01338788936138153,-0.009615092824399471,0.00390869787633419
1745505994072536800,5.686536865234375,-0.06585398965775967,-0.005833236198127269,0.014857450457289815
1745505994082507000,5.696507080078125,-0.015976152288913727,-0.002333411383628845,0.011549641083553433
1745505994092476200,5.70647607421875,0.06110650286972522,-0.0058420040264725685,0.019254224111512303
1745505994102446000,5.716446044921875,0.05823825395703315,0.008110533480346202,0.016089768731221556
1745505994112415000,5.7264150390625,0.048910453641414636,-0.0024070611417293547,0.0052790363814681765
1745505994122385200,5.73638525390625,0.01400572899878025,-0.007703121723234653,-0.011577186677604913
1745505994132354000,5.74635400390625,0.011633154648542404,-0.029488544812798497,-0.012009002223610878
1745505994142324000,5.756323974609375,-0.009493220010399818,-0.012758943808078765,0.0030294308237731457
1745505994152292900,5.76629296875,-0.02677051802575588,-0.02429623686671257,-0.007048968663439154
1745505994162263000,5.776262939453125,-0.030032150170207023,-0.010443068081140518,0.005600011964142323
1745505994172233200,5.786233154296875,-0.02900397616624832,-0.015976152288913727,0.031120895254984498
1745505994182202000,5.7962021484375,0.010363573104143143,-0.02404518471509218,0.02848718575052917
1745505994192172000,5.806172119140625,0.026946459114551544,-0.011128712257742882,0.032910409020259976
1745505994202141000,5.816140869140625,0.026990882778167722,-0.015459142677485943,0.06440824782885611
1745505994212111000,5.826111083984375,0.04163549420237541,-0.015313304466009139,0.0194411980509758
1745505994222080000,5.836080078125,0.0503325953990221,-0.0050476387783885,-0.009897928353771566
1745505994232050200,5.84605029296875,0.03932137204110622,0.012684417267143725,0.0048416678775101895
1745505994242019000,5.85601904296875,0.056008302947878834,-0.033416239650547505,-0.013079407934099434
1745505994251989200,5.8659892578125,0.03876841433346271,-0.02966623946726322,-0.04986570853963494
1745505994261958100,5.875958251953125,0.020257190608978272,-0.008585749776661395,-0.05184365754909813
1745505994271928000,5.885927978515625,-0.013963643422722816,-0.026152970649302006,-0.049879517869278786
1745505994281897000,5.89589697265625,-0.028140052813291547,-0.024009236618876457,-0.05866400508843362
1745505994291867100,5.9058671875,-0.005180032986402511,-0.012379589101672172,-0.014194529569149017
1745505994301836000,5.9158359375,0.006467734709382057,-0.013015548917651176,-0.014978373423218725
1745505994311806000,5.925805908203125,0.028844401690363883,-0.0189051914781332,0.014047887640073895
1745505994321774800,5.93577490234375,0.03305120573043823,0.00746492905318737,0.015014394584670661
1745505994331745000,5.9457451171875,-0.008079846081137657,-0.008770458693802356,-0.009527414540946483
1745505994341714200,5.955714111328125,-0.013843816435337065,-0.01421615687906742,0.002876870610564947
1745505994351684000,5.96568408203125,-0.007855974197387695,-0.00651420419961214,-0.010048077414184809
1745505994361653000,5.975653076171875,0.024615385818481442,-0.00876636704057455,-0.00537964721173048
1745505994371623000,5.985622802734375,0.016042787784337997,-0.0014162965387105942,0.007188742460310459
1745505994381592000,5.995592041015625,0.014252397236227989,-0.01977408326715231,0.03168883133605122
1745505994391562000,6.00556201171875,0.004587912312150002,-0.03059387570619583,-0.009164718708395957
1745505994401531000,6.01553076171875,0.03830371943116188,-0.04125906210541725,-0.026194690899178384
1745505994411501000,6.0255009765625,0.010780921733379363,-0.031006255899369714,0.00364500543884933
1745505994421470200,6.03547021484375,0.008404840251803398,-0.044348844814300535,0.0024949586208909747
1745505994431440100,6.045440185546875,-0.007388941207528114,-0.013266016547381878,0.018738237413391468
1745505994441409000,6.055408935546875,-0.02593523624539375,0.002573065358400345,0.011381079583615065
1745505994451379000,6.06537890625,0.007135843229293823,-0.004235737873613834,0.015146204270794987
1745505994461348000,6.07534814453125,0.01186813244819641,-0.00251139829903841,0.03503200428411364
1745505994471318000,6.085318115234375,0.003007365122437477,-0.017070377266407012,0.036029052497446534
1745505994481288000,6.095287841796875,-0.009836334359645843,-0.01397474933862686,0.010840835227072238
1745505994491256800,6.1052568359375,-0.03572130172252655,-0.020211597901582716,-0.005708879166096448
1745505994501227300,6.115227294921875,-0.028048282876610754,-0.014397358664870262,0.00272357974499464
1745505994511196200,6.125196044921875,-0.008691255977749824,0.007011924588680267,-0.017253478748351335
1745505994521166000,6.135166015625,0.017203063735365866,-0.007225567339360714,-0.01367547413110733
1745505994531135000,6.145135009765625,0.03353986603021621,-0.013091244502365589,0.01950615304596722
1745505994541105200,6.155105224609375,0.012851882788538932,-0.013944061939418315,0.002447027825936675
1745505994551074000,6.165073974609375,0.028829788643121718,0.004117372190952301,-0.004481602393463254
1745505994561044000,6.1750439453125,0.027064532536268233,0.02486614570915699,-0.004280965254828333
1745505994571012900,6.185012939453125,0.04682195692956447,0.008358370761573313,0.013723331860825418
1745505994580983000,6.194983154296875,0.03610299451649189,-0.00412087932229042,0.0045348669506609434
1745505994590952200,6.2049521484375,0.030047347739338873,-0.007449439223110675,-0.029714608653634785
1745505994600922000,6.214922119140625,0.05624386526942253,0.0013189736440777779,-0.045409021391719574
1745505994610891000,6.22489111328125,0.056419221836328505,-0.01336655431240797,-0.036825244376435876
1745505994620861000,6.23486083984375,0.051560675889253615,-0.023104981255531308,-0.05337612781338393
1745505994630830000,6.244830078125,0.07329904496669769,-0.013234744626283644,-0.04346563223898411
1745505994640800000,6.254800048828125,0.01267769526541233,-0.03190232795625925,0.0012341449048370121
1745505994650769000,6.264768798828125,0.0027542671442031858,-0.02527648007571697,0.005403466478735209
1745505994660739000,6.274739013671875,0.018916297394037246,-0.010196399843692779,0.00016790391281247137
1745505994670708200,6.284708251953125,0.011670564049482345,-0.017670681247115134,0.016500030032545326
1745505994680678100,6.29467822265625,-0.026140403428673742,-0.003998421986401081,-0.0034184301413595674
1745505994690648000,6.30464794921875,-0.01753799477815628,-0.01502484291344881,0.014825813210010528
1745505994700617000,6.314616943359375,-0.02087678381204605,-0.03199497467577457,0.00838102098479867
1745505994710587100,6.324587158203125,-0.08028525059223175,-0.041728725443780416,0.04104081624485552
1745505994720556000,6.33455615234375,-0.10036299298107623,-0.059415188781917094,0.05063873873874545
1745505994730526000,6.34452587890625,-0.05343816019892692,-0.015012860214710235,0.022139789485186336
1745505994740494800,6.354494873046875,-0.010199322453141212,0.009366086499392986,-0.019744126520305872
1745505994750465300,6.36446533203125,-0.0016910218268632888,0.003925941272079944,-0.03960099270008504
1745505994760434200,6.37443408203125,-0.07999766582250595,-0.021507482931017875,-0.0892473594006151
1745505994770404000,6.384404052734375,-0.03725158002972603,0.05828998414427042,-0.0039586744979023935
1745505994780373000,6.394373046875,0.047937224695086475,-0.005250760135054588,-0.07207469080351293
1745505994790343200,6.40434326171875,0.20809856055676937,-0.015528116260468959,-0.04324855542220175
1745505994800312000,6.41431201171875,0.18851357012093067,0.009166180013120175,0.013342223588749766
1745505994810282000,6.424281982421875,0.16158230857551098,-0.03984861078560352,0.003237009159848094
1745505994820251000,6.4342509765625,0.13986205967664717,-0.023771920731663704,0.04972308519855141
1745505994830221000,6.444220947265625,-0.0482236404210329,-0.017409107701480388,0.07387348385378718
1745505994840190200,6.454190185546875,-0.0762047032803297,-0.008802022875845432,-0.002567220139503479
1745505994850160000,6.46416015625,-0.10571019922792911,0.0006795066967606545,0.0016973054371774196
1745505994860130000,6.474130126953125,-0.07587970910966396,0.03425590534508228,-0.014084639453887939
1745505994870099000,6.484098876953125,-0.04284077833890915,-0.0034779052436351775,-0.02252520860619843
1745505994880068900,6.49406884765625,-0.000993102690577507,-0.001925415104627609,-0.017802417868003247
1745505994890037800,6.504037841796875,0.0425204603433609,-0.005951309619843959,-0.014623349440470336
1745505994900007700,6.514007568359375,0.08232873911857605,-0.005463526102900505,0.0009928834948688746
1745505994909976800,6.523976806640625,0.09420154774188995,-0.020041794292628763,0.001557531640306115
1745505994919946800,6.53394677734375,0.04209609745144844,-0.026873686139285563,0.008923676494136452
1745505994929915600,6.54391552734375,0.021973346877098083,-0.002426642625033855,-0.00013699731789529324
1745505994939885600,6.553885498046875,0.007847206369042396,-0.01806464900076389,0.0034276363611221313
1745505994949854700,6.563854736328125,-0.0357364992916584,-0.011508943746984005,0.0007512567587196826
1745505994959825000,6.573824951171875,-0.06801145995259285,0.034225217945873736,-0.01000738007761538
1745505994969793800,6.583793701171875,-0.1254120940417051,0.07198007132261991,-0.030296280999109148
1745505994979763700,6.593763671875,-0.17492577427327632,0.09269552709311246,-0.04771101472377777
1745505994989733600,6.603733642578125,-0.11213760192692279,0.010457973389327526,0.035046325070410965
1745505994999702800,6.613702880859375,0.08949614652991295,-0.022052257332205772,0.012608721682429313
1745505995009672700,6.623672607421875,0.17890987547338008,-0.024580022244155404,0.044250499006360765
1745505995019641600,6.6336416015625,0.13677753766477108,-0.06883855842649936,0.07458506618924439
1745505995029611500,6.643611572265625,0.04824819034039974,-0.07923223440796136,0.08787826300449669
1745505995039580700,6.65358056640625,0.03019698534309864,-0.034197453156113625,0.03642280105538666
1745505995049550800,6.66355078125,0.06893208192884921,-0.01661298888772726,-0.02275258762128651
1745505995059519700,6.673519775390625,0.03712240069210529,-0.03304886764287948,-0.028481559727340934
1745505995069489700,6.68348974609375,0.005809563061594963,-0.031048633736371994,0.04572853566966951
1745505995079458800,6.693458740234375,-0.0029547581523656843,-0.0026437925070524216,-0.022692966388538478
1745505995089428700,6.7034287109375,0.012387187886238098,0.017570143482089042,-0.04927965227998793
1745505995099397600,6.713397705078125,0.055414428707957264,-0.021526187631487847,-0.03567000992670655
1745505995109367600,6.723367431640625,0.04770400046110153,-0.03075169661641121,-0.027758213888853786
1745505995119337700,6.733337646484375,0.033552140989899636,-0.028045360267162322,0.007207812486961483
1745505995129307000,6.743306884765625,-0.0030775077491998672,-0.01824994243979454,-0.003054346069321036
1745505995139276800,6.75327685546875,-0.008716974940896034,-0.039056875886023044,-0.019431041983142494
1745505995149245700,6.76324560546875,0.03277531139850616,-0.03658288698792457,0.0031949966490268707
1745505995159215600,6.773215576171875,0.043806993022561073,-0.012754852154850959,0.022794161740690468
1745505995169184800,6.783184814453125,0.031660628154873846,-0.014565700969099997,-0.0023055004633963107
1745505995179154700,6.79315478515625,0.022403554987907408,-0.02596066294759512,0.006648644234240055
1745505995189123600,6.80312353515625,0.0039139585733413695,-0.01685702677667141,-0.009677782797068357
1745505995199093500,6.813093505859375,-0.007629764226078987,-0.0115831780269742,-0.019063596910238265
1745505995209062700,6.823062744140625,0.014962591332197189,0.001432078629732132,-0.005047931039333343
1745505995219032800,6.83303271484375,-0.0017705168038606642,-0.00022679449319839477,-0.023557985720038414
1745505995229002800,6.843002685546875,-0.031386487388610836,-0.0009001637101173401,-0.021364713459461927
1745505995238971600,6.8529716796875,-0.01333645143508911,-0.008134791138768195,0.0030376871954649687
1745505995248941600,6.862941650390625,-0.004669160854816437,-0.00850713158249855,0.01389116270840168
1745505995258910700,6.87291064453125,0.0352571913421154,-0.019118541967868805,0.030915655006468295
1745505995268880600,6.882880615234375,0.01674012239873409,0.000524023874104023,0.01630772233083844
1745505995278849500,6.892849609375,0.02586860074996948,0.019287176533043383,-0.007007832935452461
1745505995288819700,6.90281982421875,0.02147884135842323,0.004171732726693153,-0.0024530922405421735
1745505995298788900,6.912788818359375,0.039167058262228965,-0.01803337707966566,0.004289148561283946
1745505995308758800,6.9227587890625,0.02910977462828159,-0.011192717404663563,-0.0023089345294982195
1745505995318727700,6.932727783203125,0.011458967125415801,-0.013798515988886356,-0.017355843144282696
1745505995328697600,6.942697509765625,-0.02601940739750862,-0.026220482927560806,-0.021949600675329566
1745505995338667500,6.95266748046875,-0.025033903491497037,-0.018682780899107455,-0.05384834843501448
1745505995348636700,6.96263671875,-0.004199205255508423,-0.026776947766542433,-0.003572670855000615
1745505995358606600,6.972606689453125,0.01254091714322567,-0.019232523736357688,-0.00029839842468500137
1745505995368575500,6.982575439453125,0.02191080303490162,-0.010010521882772445,0.0019472616102546453
1745505995378545700,6.992545654296875,0.014278700721263885,-0.006827215671539306,0.0042697132084518665
1745505995388514800,7.002514892578125,0.00630114597082138,-0.004230184915661812,-0.0012988076388835907
1745505995398484700,7.012484619140625,0.00767535693347454,-0.020745850908756254,-0.029591639861091968
1745505995408453600,7.02245361328125,-0.0037158056527376174,-0.009774667300283908,-0.008987316314876079
1745505995418423600,7.032423583984375,-0.02613222012221813,-0.011566226892173289,-0.004624152669310569
1745505995428393700,7.042393798828125,-0.030761048966646193,-0.0008615852653980255,-0.016142887157946824
1745505995438362600,7.052362548828125,0.009923428121209143,0.006485562627017497,-0.018008754095062612
1745505995448332800,7.062332763671875,0.010081833553314209,0.0110451256275177,0.01551839858405292
1745505995458301700,7.0723017578125,-0.0051209962755441665,-0.01503916369974613,0.02922477931007743
1745505995468271600,7.082271728515625,0.03660860595107078,-0.011363982318341731,0.013999883779883385
1745505995478240800,7.09224072265625,0.02122282077074051,0.0074526540935039515,0.004464066736772656
1745505995488210700,7.102210693359375,0.015908347749710082,-0.01205985562801361,0.0218256089694798
1745505995498179600,7.1121796875,0.03225041074156761,-0.005853402203321457,0.008045724615827202
1745505995508149500,7.1221494140625,0.03213642897307872,-0.0193844994276762,0.010264058252424001
1745505995518119700,7.13211962890625,0.018396072912216184,-0.026322481997311114,0.015198738175630569
1745505995528088800,7.1420888671875,0.012772387811541556,-0.027963819463551042,0.008296046115085482
1745505995538058800,7.152058837890625,0.029099837756156918,-0.029278701454401014,-0.011855272966623306
1745505995548027600,7.162027587890625,0.04179156154692173,-0.014833411994576454,0.00007459960617125034
1745505995557997800,7.171997802734375,0.02918576247394085,-0.00516483541727066,-0.006750862499698996
1745505995567966700,7.181966796875,0.013131284251809119,-0.013719313272833824,-0.005561141258478165
1745505995577936600,7.1919365234375,0.01612929702401161,-0.009373100762069224,-0.020020532308891413
1745505995587905500,7.201905517578125,0.0016027590215206145,-0.010654080483317374,-0.00033040099814534183
1745505995597875700,7.211875732421875,0.016879823130369186,-0.024952070426940916,-0.0032999183282256123
1745505995607846000,7.221845947265625,-0.028229484662413595,-0.022430735255777833,-0.004082227812334895
1745505995617814800,7.231814697265625,-0.040420273193717,-0.015086509972810745,-0.02814217170514166
1745505995627784700,7.24178466796875,-0.0017944822013378143,0.003620236323773861,0.015305851811915636
1745505995637753600,7.251753662109375,0.03327390857040882,0.009781681562960148,0.010110182864964007
1745505995647723800,7.261723876953125,0.048587797558307645,0.0013148819908499717,-0.0029083617273718116
1745505995657692700,7.271692626953125,0.029531799432635307,-0.0031201778471469876,0.0025092063419520855
1745505995667662600,7.28166259765625,0.027203064224123955,-0.015782383282482625,-0.007518485871329903
1745505995677632500,7.291632568359375,0.013820435559749603,-0.01703822856247425,-0.033102497526258226
1745505995687602000,7.301601806640625,-0.005986088672280311,-0.013511808001995087,-0.022569486139342187
1745505995697571800,7.31157177734375,0.000827098473906517,-0.002613397368788719,-0.02146006359271705
1745505995707540700,7.321540771484375,0.006260813960433006,-0.01693447592705488,-0.008560250009223818
1745505995717510700,7.3315107421875,-0.00028232407271862027,-0.028512685517966745,-0.012128902276232837
1745505995727479800,7.341479736328125,0.03850537948310375,-0.036224282808601856,-0.00046191842332482335
1745505995737449700,7.35144970703125,0.02394727729856968,-0.0048334115058183665,0.021053967009857295
1745505995747419600,7.361419677734375,-0.015110475370287894,-0.011382979279756546,0.015789251414686442
1745505995757388500,7.371388427734375,-0.020486323189735412,-0.01448503694832325,0.015957374523207543
1745505995767358700,7.381358642578125,0.0003144727766513824,-0.0022875264152884484,0.009797609784454106
1745505995777327900,7.391327880859375,0.008353402325510979,0.0013753800064325332,0.013041852402687073
1745505995787297800,7.4012978515625,0.0077209496408700935,-0.010655249527096749,-0.000042743163183331486
1745505995797266700,7.4112666015625,0.008160510101914405,-0.005179156203567982,-0.00458951974734664
1745505995807236600,7.421236572265625,0.006875146466493606,-0.026419220370054244,0.0011191402230411767
1745505995817205800,7.431205810546875,0.00609071809053421,-0.016459844152629376,-0.010512260859832166
1745505995827175700,7.44117578125,0.02829378207027912,-0.019796587359905242,0.00781637283936143
1745505995837145900,7.451145751953125,0.04010053972005844,-0.02064531314373016,0.01070595680102706
1745505995847114800,7.46111474609375,0.024251228681206702,-0.011054770238697529,-0.00019033494032919405
1745505995857084700,7.471084716796875,-0.012972878819704055,-0.013521452613174915,-0.0016812310852110386
1745505995867053800,7.4810537109375,-0.024808862563967703,-0.017030337516963482,-0.008371011047437786
1745505995877024500,7.4910244140625,-0.007591770303249359,-0.02216214744746685,-0.01665397848524153
1745505995886993400,7.500993408203125,0.010772738426923752,0.0007809212446212769,0.0038636166255921122
1745505995896963300,7.51096337890625,-0.006293547186255455,-0.0160623692676425,-0.0030805764891207216
1745505995906933200,7.520933349609375,0.030067806005477902,-0.0020867431461811066,-0.009088000210374593
1745505995916902400,7.53090234375,0.025500351959466934,-0.007930500738322735,0.010188654928654431
1745505995926872600,7.54087255859375,0.011961655950546263,-0.017921441137790678,-0.023632000804319975
1745505995936841500,7.550841552734375,0.012268529942631721,-0.0001201192483305931,-0.004994081960245967
1745505995946811400,7.560811279296875,0.008539280286431312,-0.004795125322043896,0.003869023453071713
1745505995956780500,7.570780517578125,0.009444120171666145,-0.012043489015102386,-0.0008477028705179691
1745505995966750500,7.58075048828125,0.021391747596859932,0.0018225392520427703,-0.0010308774176985024
1745505995976720400,7.590720458984375,0.014867314264178276,-0.016651567332446573,-0.006510112546384334
1745505995986689300,7.600689208984375,0.026140403428673742,-0.012523089225590228,0.001255699149519205
1745505995996659200,7.6106591796875,0.015301029506325722,-0.003997252942621708,-0.014000029910355805
1745505996006628600,7.620628662109375,-0.009554010286927223,-0.015794073720276355,-0.011335194615274668
1745505996016598500,7.6305986328125,-0.006933598655462264,-0.0014279869765043258,-0.03290054521337151
1745505996026567400,7.6405673828125,-0.0018394903868436813,-0.0039019758746027945,0.013087079783901572
1745505996036537300,7.650537353515625,0.004539396995306015,-0.014357611176371573,-0.0034959523569792505
1745505996046507300,7.66050732421875,-0.0020785598397254942,-0.002814180637896061,-0.00154021517932415
1745505996056476400,7.670476318359375,-0.005165419939160347,-0.005596504832804203,-0.011718494844436645
1745505996066446300,7.6804462890625,0.011990882045030593,-0.03402560372054576,-0.04088021885566413
1745505996076415200,7.690415283203125,0.013984101688861847,-0.025880583448708055,-0.08254501221776007
1745505996086385400,7.700385498046875,-0.1262415306031704,0.07250906363278627,-0.11727189607545732
1745505996096354600,7.7103544921875,-0.3737093939960003,0.08345657410472632,-0.10657879875600337
1745505996106324500,7.720324462890625,-0.5741629927575588,0.09539163430929183,-0.14245923656299708
1745505996116294400,7.73029443359375,-0.373271587100625,0.1219710136771202,-0.22213475775904953
1745505996126263300,7.74026318359375,-0.06776596075892448,0.1590361312240362,-0.17059212898313997
1745505996136233200,7.750233154296875,0.2585422151148319,0.16734131049364803,-0.06495820986181497
1745505996146202400,7.760202392578125,0.33923370842039585,0.16721183889508245,-0.08171791374385357
1745505996156172500,7.770172607421875,0.5251075776875018,0.06860358062684535,-0.03353497065939009
1745505996166141400,7.780141357421875,1.4700205301135778,-0.15141104317307472,0.020462869248911737
1745505996176111400,7.790111328125,1.238638124603033,-0.2674187645316124,0.2655705793816596
1745505996186081500,7.80008154296875,0.0893757350206375,-0.2801847226023674,0.4374872349668294
1745505996196050400,7.810050537109375,-0.6824754834383726,-0.2297381454348564,0.5094475056104362
1745505996206020400,7.820020263671875,-0.48453942045569415,-0.1641997975975275,0.2254601758547127
1745505996215989200,7.8299892578125,-0.023725743502378462,-0.01722907495945692,-0.21989041289836167
1745505996225959400,7.83995947265625,-0.2097176861912012,0.08447510349750519,-0.29399164109341797
1745505996235929600,7.8499296875,-0.4879407533317804,0.09509469718933104,-0.20804624584764242
1745505996245898500,7.8598984375,-0.6396154158771038,0.10140431872755289,-0.22536935576610265
1745505996255868400,7.869868408203125,-0.5151408949464559,0.11372896277159451,-0.14606811124254018
1745505996265837300,7.87983740234375,-0.3668576284050941,0.07955342918634414,0.03882131356447935
1745505996275807500,7.889807373046875,-0.22602233978211878,-0.03607347616106271,0.0022903028942644595
1745505996285776400,7.8997763671875,0.16236381434202193,-0.02078998231142759,0.0666156947452575
1745505996295746300,7.909746337890625,0.4441173936963081,-0.07257716043293476,0.12901450244784354
1745505996305716500,7.919716552734375,0.5696212576746941,-0.1669824140533805,0.07087810143008828
1745505996315685600,7.929685546875,0.654441813609004,-0.11454963150471448,0.1122861435521394
1745505996325655600,7.939655517578125,0.5568137985497713,-0.05942658695876598,0.09251293706782161
1745505996335624400,7.94962451171875,0.291834243863821,0.009376900154352188,0.011225889021903275
1745505996345594400,7.959594482421875,-0.020014029502868652,0.0063636898130178445,-0.11407660716548561
1745505996355563500,7.9695634765625,-0.2302607080042362,0.07290390816926956,-0.1419866871478036
1745505996365533400,7.979533447265625,-0.34357261440753933,0.10989040752202271,-0.12078764911144971
1745505996375503400,7.98950341796875,-0.33961306312680245,0.04298398620188236,-0.0609368819238618
1745505996385472300,7.99947216796875,-0.25415245572328565,0.01355301679521799,-0.017635025411844252
1745505996395442400,8.0094423828125,-0.1357522862702608,0.015028934566676616,0.0902162044327706
1745505996405411600,8.01941162109375,-0.03014379385113716,-0.019598726700246333,0.15048194562941788
1745505996415381500,8.029381591796875,0.04770867663621902,-0.07733487635403871,0.1219629034359008
1745505996425350400,8.039350341796874,0.08600538180470466,-0.024671207658946512,0.12977883788384498
1745505996435320300,8.0493203125,0.12163082193732261,0.002873217348754406,0.09549253740049898
1745505996445290200,8.059290283203126,0.12609013943374156,-0.048991702184081075,-0.005274506336823106
1745505996455259400,8.06925927734375,0.09401859239041804,-0.016392331874370576,-0.03260105081014335
1745505996465229600,8.0792294921875,0.075294018176198,-0.006553367166221141,-0.036424043164402245
1745505996475198500,8.089198486328126,0.05187105701267719,-0.021687515673041342,-0.00934694340750575
1745505996485168400,8.09916845703125,0.004127893584966659,-0.045126843449473375,-0.0014433306761085986
1745505996495138300,8.10913818359375,0.02067161662876606,-0.03980769425332546,-0.020843612194806335
1745505996505107500,8.119107421875,0.009240122032165527,-0.030297230847179887,0.026874782117828726
1745505996515077400,8.129077392578125,0.011025251883268356,-0.06665946082174777,0.0386454455409199
1745505996525046300,8.13904638671875,0.0020446575701236723,-0.07390431738346814,0.015589856385067104
1745505996535016200,8.14901611328125,0.0010240823507308959,-0.024999708960950374,0.003438888407498598
1745505996544985300,8.1589853515625,-0.027965280768275258,-0.014852116695046423,-0.06312829102091491
1745505996554955500,8.16895556640625,-0.047844870236516,0.011958148819208144,-0.12862988704442976
1745505996564925400,8.178925537109375,0.028909868142008778,0.0720198188111186,-0.08784611430056392
1745505996574894300,8.188894287109376,0.04420622147321701,0.07326923435032368,0.009338687035813927
1745505996584864300,8.1988642578125,-0.0005775076270103454,0.04121142357140779,0.012631152709946036
1745505996594833400,8.20883349609375,-0.061633741614222526,0.052338382263481614,0.031468904975056645
1745505996604803300,8.21880322265625,-0.08377133914232253,0.018652385760843753,0.05706073461025953
1745505996614773500,8.2287734375,-0.13543547540605066,0.024468378563225267,0.027445421612635253
1745505996624742400,8.238742431640626,-0.12297639132738113,0.006499591152369976,-0.048882688851654525
1745505996634712600,8.248712646484375,-0.09120411949157714,0.07211012744307517,-0.07120346092693507
1745505996644681500,8.258681396484375,-0.046722003686428065,0.07120645660161971,-0.10487221403382718
1745505996654651400,8.2686513671875,0.08514905723631382,0.005383738864958286,-0.09834748844020068
1745505996664620300,8.278620361328125,0.1574023925423622,-0.033363924941420556,-0.02311820606328547
1745505996674590500,8.288590576171876,0.19218670567572116,-0.06838847657144069,0.021701690328866242
1745505996684560400,8.298560302734375,0.20379238779544828,-0.08262421493381261,0.011575286981463432
1745505996694529300,8.308529296875,0.11515081226825713,-0.08089198431372642,0.007141615382954478
1745505996704499500,8.31849951171875,-0.007867664635181426,-0.06453413923084736,-0.01432348971106112
1745505996714468400,8.32846826171875,-0.09932195949554443,-0.05863368301540613,-0.00884900382272899
1745505996724438500,8.3384384765625,-0.16207622957229614,-0.03269230929017067,0.025255583418160674
1745505996734408400,8.348408447265625,-0.17643325622677802,-0.027452947331964968,0.01906776162870228
1745505996744377300,8.35837744140625,-0.11766717900335788,-0.007407353647053241,0.006529182573035359
1745505996754347300,8.36834716796875,0.0014285714983940123,-0.018852876769006252,0.06580035977438092
1745505996764316400,8.37831640625,0.4044032229453325,-0.022905659291148184,0.09650478318296372
1745505996774286600,8.38828662109375,0.7643611549645661,-0.07712854012697935,0.018459128211066125
1745505996784256500,8.398256591796875,0.5330886395692825,-0.06136661511063576,-0.008962912525981664
1745505996794225400,8.408225341796875,0.35374212624430657,-0.040997488559782504,-0.02055880390405655
1745505996804195300,8.4181953125,0.17332184620797633,-0.008637479963898659,-0.08520875153429806
1745505996814164500,8.42816455078125,-0.005469955843687057,0.02928074728101492,-0.11566084414962678
1745505996824134400,8.438134521484375,-0.19638357284367083,0.08380085749775171,-0.11733601082023233
1745505996834103300,8.448103271484374,-0.3251139976531267,0.09876286430805921,-0.08899597845543175
1745505996844073200,8.4580732421875,-0.40328094091713423,0.07112111640572548,-0.036488304039649665
1745505996854043400,8.46804345703125,-0.47911096566617484,0.014908230796456336,0.0815615176057443
1745505996864012500,8.478012451171875,-0.4335007226139307,-0.04738280568271875,0.12542725507821886
1745505996873982500,8.487982421875,-0.3307166399657726,-0.012750175979733467,0.09664780838284641
1745505996883951000,8.497951171875,-0.09470131395757198,0.027281974679231644,0.02150711760483682
1745505996893921300,8.50792138671875,0.12362637966871261,0.030643267805874345,-0.05909012154601514
1745505996903891200,8.51789111328125,0.11912439207434654,0.060517012543976303,-0.04694551024399698
1745505996913860400,8.5278603515625,0.0167266783952713,0.023763445164263246,0.021402963110618293
1745505996923830300,8.537830322265625,-0.12753624658882617,-0.04817541736513376,0.05892196190487593
1745505996933799200,8.547799072265626,-0.29866905831992624,-0.07564999200701714,0.1027836442567408
1745505996943769300,8.557769287109375,-0.36735271844565864,-0.08159487188607453,0.1175207562699914
1745505996953739300,8.5677392578125,-0.2697305486053228,-0.10684300265014171,0.11517642163354903
1745505996963708200,8.577708251953124,0.006518588113784789,-0.05764262615144253,0.07907755530290306
1745505996973678300,8.58767822265625,0.35417233435511586,-0.01133183361440897,-0.05517616297267377
1745505996983647200,8.597647216796876,0.5472586192190647,0.012201602186262607,-0.10919541099518537
1745505996993617400,8.607617431640625,0.5806383262515068,0.07019669503718615,-0.10740852757841347
1745505997003587300,8.61758740234375,0.44472529646158215,0.06292202785909176,-0.10313563603218644
1745505997013556200,8.62755615234375,0.20662322730720042,0.029115035325288773,-0.010867138712108135
1745505997023526100,8.637526123046875,-0.0028758476972579957,-0.037627719865739345,0.056189760462008416
1745505997033495300,8.647495361328126,-0.14760522114932537,-0.1009223804295063,0.08852609592135995
1745505997043465500,8.657465576171875,-0.250386381188035,-0.09709814596623181,0.062490358443558214
1745505997053435400,8.667435302734376,-0.27469606205821034,-0.07618424501419067,-0.009166362676210701
1745505997063404300,8.677404296875,-0.2066898628026247,-0.043132747022807595,-0.09935403513424097
1745505997073374200,8.687374267578125,-0.10813070437312125,-0.02227788278162479,-0.12311437502596527
1745505997083343400,8.69734326171875,-0.019839257457852363,-0.01433335351794958,-0.10447371623553335
1745505997093313300,8.707313232421875,0.1004255368232727,-0.001909340752661228,-0.0628332535970956
1745505997103283200,8.717283203125,0.18028934713304043,0.0001657119557261467,0.005696385010704397
1745505997113252000,8.727252197265624,0.13896131144464016,-0.008124562005698681,0.022639811429195106
1745505997123222300,8.73722216796875,0.04687047224640846,0.025231764151155946,-0.017928090074285863
1745505997133191400,8.74719140625,-0.05034779296815395,0.048934711299836633,-0.044494829156249756
1745505997143161300,8.757161376953125,-0.18142624220848083,0.028547172309458253,-0.0788935770381242
1745505997153131300,8.76713134765625,-0.1932961282223463,0.028048575137555598,-0.09482095828186721
1745505997163100200,8.77710009765625,-0.15654782153964042,0.061117316524684426,-0.055876310598663985
1745505997173070000,8.787070068359375,-0.06304068580269813,0.04330868811160326,-0.04009279480502009
1745505997183039200,8.797039306640626,0.02724105814695358,0.03791179750412702,-0.0056772053861990565
1745505997193009400,8.807009521484375,0.1087041203469038,-0.00014876082092523573,0.07769563595782965
1745505997202979300,8.816979248046875,0.20266309150457382,-0.041760289625823496,0.1397987851820886
1745505997212948200,8.8269482421875,0.24037936643660068,-0.05539806209504604,0.13073244881425053
1745505997222918400,8.83691845703125,0.21627719083726404,-0.05659107127189636,0.10493910525757819
1745505997232887300,8.84688720703125,0.15194588070213794,-0.054880760222673415,0.02453355275392532
1745505997242857200,8.856857177734375,0.0670160191744566,-0.018626082275807858,-0.013128946164250373
1745505997252827100,8.8668271484375,-0.00656301177740097,0.014077332930266856,-0.03035995735246688
1745505997262796300,8.87679638671875,-0.09267711465358734,-0.0005833528459072112,-0.01274217533636838
1745505997272766500,8.886766357421875,-0.13446049289405346,-0.02530307582169771,0.021696064305678008
1745505997282736400,8.896736328125,-0.11896774020791052,-0.039702188052237034,0.0849606219921261
1745505997292705300,8.906705322265625,-0.06334346814155578,-0.03712123164832592,0.08332414336409419
1745505997302675200,8.91667529296875,-0.01305588092803955,-0.028695640869438648,0.0718084776153788
1745505997312644400,8.926644287109376,0.08895487926006317,-0.006756780783832073,0.03919303295370191
1745505997322614300,8.9366142578125,0.12990414476394652,0.013841770608723164,0.004844663552194833
1745505997332584400,8.94658447265625,0.11508125416338442,0.00993015012294054,-0.02135974502339959
1745505997342553300,8.95655322265625,0.09681552963256836,-0.007450608266890048,-0.05678597278948873
1745505997352523300,8.966523193359375,0.04657645773589611,-0.05386456891745329,-0.030222813904099165
1745505997362492400,8.976492431640626,0.009205635240674019,-0.10873597678989172,0.033584472356922926
1745505997372462300,8.98646240234375,-0.03338321416378021,-0.12730711400806904,0.06457454430647194
1745505997382432300,8.996432373046876,-0.07615151178836822,-0.046271629570424556,0.03382368794027716
1745505997392401200,9.006401123046874,-0.06602876170277595,0.018769582399725912,-0.05238192914426326
1745505997402371000,9.01637109375,-0.0657522828489542,0.09513415241688489,-0.11890168923437594
1745505997412340200,9.02634033203125,-0.0372007266253233,0.14219371749460696,-0.15671188952755183
1745505997422310400,9.036310302734375,-0.005940495964884758,0.10071487515866756,-0.13624390571210532
1745505997432280300,9.0462802734375,0.017285481321811676,0.05121814606189728,-0.04162161180749535
1745505997442249200,9.056249267578124,0.02281915005147457,-0.019916706608235836,0.03167166100554168
1745505997452219100,9.06621923828125,0.021067337948083877,-0.07458294729739427,0.0906914572617039
1745505997462189300,9.076189208984376,0.0010994856745004653,-0.08629501240104437,0.09626801528502255
1745505997472158200,9.086158203125,0.2007376763999462,-0.04205693448483944,0.05247512385305017
1745505997482128400,9.09612841796875,0.26737200278043743,0.00909399155974388,-0.10915643069166689
1745505997492097300,9.10609716796875,0.2626870598345995,0.03464841179400682,-0.15695979987401515
1745505997502067200,9.116067138671875,0.13357494223117827,0.02359860999137163,-0.09518485969081521
1745505997512037400,9.126037353515626,0.021567104163765907,-0.04080225824862718,0.0052068844607099886
1745505997522006300,9.13600634765625,-0.12520517329275607,-0.05873860469460487,0.07796583120133728
1745505997531976200,9.14597607421875,-0.23799276356101035,-0.06148878018558025,0.04214391864854842
1745505997541946000,9.155946044921874,-0.2245452529668808,-0.03999503351897001,0.027267690425552427
1745505997551915300,9.165915283203125,-0.17728665818572042,-0.0024018004447221753,-0.002541391578502953
1745505997561885400,9.175885498046876,-0.08545417766273021,0.017115969973802565,0.01420811970308423
1745505997571854300,9.185854248046875,0.012257424026727675,0.04254910191595554,-0.0017756679030135273
1745505997581824300,9.19582421875,0.07733049243986606,0.050151101352274415,0.009530264085158705
1745505997591794200,9.205794189453124,0.10284195031523703,0.05900660798102617,0.003433116253837943
1745505997601763300,9.215763427734375,0.08552256672382354,0.053637482163310046,-0.030984117132797834
1745505997611733200,9.225733154296876,0.047346857586503026,0.02639320914596319,-0.01788600449822843
1745505997621703400,9.235703369140625,0.015192308434844017,-0.017031506560742853,0.056909891430102284
1745505997631672300,9.24567236328125,-0.01140109945833683,-0.10238456193655729,0.0922859964441508
1745505997641642200,9.255642333984374,-0.04265723846554756,-0.15429653548151254,0.0843301055362448
1745505997651612200,9.265612060546875,-0.07050386129021644,-0.12289806539416312,0.04115859740562737
1745505997661581300,9.275581298828126,-0.06675532241165638,-0.04655892207920551,-0.04749097876492887
1745505997671551200,9.28555126953125,-0.06467851613759994,0.036219022111594674,-0.14359781213887035
1745505997681520000,9.29552001953125,-0.02154080067873001,0.06432780300378799,-0.14223744703847915
1745505997691490000,9.305489990234374,0.0786269619911909,0.04795446809083223,-0.06605696488395332
1745505997701460500,9.31546044921875,0.14325754733383655,0.01747925032824278,-0.041002237800136204
1745505997711429400,9.325429443359376,0.10009703552126883,0.0031529110729694365,0.019646401766873895
1745505997721399300,9.3353994140625,0.045753450915217396,-0.0593909311234951,0.08439100541062652
1745505997731369200,9.345369140625,-0.07936287505030631,-0.003713467565178871,0.0028412147752940654
1745505997741338400,9.35533837890625,-0.08014145820736884,-0.0020808979272842407,0.005379829874821007
1745505997751308300,9.365308349609375,-0.15239011733829974,0.0458513583317399,-0.06309899186119437
1745505997761277200,9.375277099609375,-0.18157003459334373,0.03875584711283445,-0.049566141071170564
1745505997771247400,9.385247314453125,-0.17508476422727107,-0.014770868152379988,-0.005593691821210086
1745505997781217300,9.39521728515625,-0.05909282495975494,-0.035540099936723704,0.0397289664613083
1745505997791186400,9.4051865234375,0.1592290234476328,-0.06859656636416912,0.0920699790732935
1745505997801156400,9.41515625,0.37306583539545535,-0.08637100024670362,0.11916625845469533
1745505997811126300,9.425126220703126,0.424656321901083,-0.07903992670625448,0.08348605592753737
1745505997821095200,9.43509521484375,0.2946048776209354,-0.04933569331616163,0.04401431563030928
1745505997831065000,9.445065185546875,0.05729834275841712,-0.024682021313905716,0.0019309315299615264
1745505997841035300,9.45503515625,-0.17085224122405052,0.03217588420063257,-0.02516096393726766
1745505997851004400,9.46500439453125,-0.39170857654511926,0.058308104322850704,-0.06303999168295413
1745505997860974300,9.474974365234376,-0.33140286866426466,0.04918810153901577,-0.10638086503110826
1745505997870943200,9.484943115234374,-0.15746493638455866,0.07243716744035482,-0.08268774515669793
1745505997880912600,9.49491259765625,0.02837912226617336,0.03508855677694082,-0.07839501639883965
1745505997890882600,9.504882568359376,0.1820323914080858,-0.061974810136854644,-0.04544434843342751
1745505997900851500,9.5148515625,0.22432138108313082,-0.0891387113943696,-0.007377871824242174
1745505997910821600,9.524821533203125,0.17881050675213336,-0.07659633294641971,0.05959452740419656
1745505997920791600,9.53479150390625,0.13044891916513443,-0.09351970295757055,0.09315773777738214
1745505997930760700,9.5447607421875,0.11865852812826633,-0.0782157508417964,0.08259107984919101
1745505997940730600,9.554730712890626,0.08826865056157111,-0.046964872531592844,-0.008532558284699916
1745505997950700500,9.564700439453125,0.0800911893248558,-0.033227439080178736,-0.014324877950549125
1745505997960669400,9.57466943359375,0.11286299359202384,-0.035840836448967454,0.011224610380269586
1745505997970639400,9.584639404296874,0.013975918382406234,0.11835808387696742,-0.02135696854442358
1745505997980608500,9.5946083984375,-0.15889350788295267,0.12404343603700399,-0.03217961052767932
1745505997990578700,9.60457861328125,-0.30328210507333275,-0.017851298511028287,-0.01718983892761171
1745505998000548600,9.614548583984375,-0.3219756996273994,0.005237316131591796,0.0042156084010377525
1745505998010517500,9.624517578125,-0.14001754249930382,0.03569821310788393,-0.05220021590180695
1745505998020487400,9.6344873046875,0.01044423712491989,0.02719225056916475,0.0078084452612325545
1745505998030457600,9.64445751953125,0.14380173721313474,-0.03625906186103821,-0.04614062360189855
1745505998040426500,9.654426513671876,0.1276180796533823,-0.005735328781604767,-0.08853932072911411
1745505998050396700,9.664396728515625,0.18143793264627456,-0.08906681520193814,-0.00921915230937302
1745505998060366600,9.67436669921875,0.03362286813855171,-0.11031506267488002,0.13743947217222302
1745505998070335700,9.684335693359374,-0.20279753153920171,-0.04842150108069181,0.25506255630552765
1745505998080305700,9.6943056640625,-0.25370412743389603,-0.011809972520172596,0.2776680636063218
1745505998090275600,9.704275634765626,-0.2730740138143301,0.2311126486584544,-0.1883241850286722
1745505998100244500,9.714244384765625,-0.15510931316912174,0.19221885437965391,-0.000635886750742793
1745505998110214400,9.72421435546875,0.23561200590431688,-0.21591478726565835,0.09869067585468291
1745505998120183600,9.73418359375,0.4722422489404678,-0.2027528156146407,0.1898923841934651
1745505998130153700,9.74415380859375,0.3655921385139227,-0.05589139856994152,0.11579415167309343
1745505998140123600,9.75412353515625,0.15503975506424902,0.054555766052007675,-0.004120221735164523
1745505998150092500,9.764092529296875,-0.050151978135108945,0.08637012346386909,-0.040663872691243885
1745505998160062500,9.7740625,-0.16749825462102888,0.0863438199788332,-0.10844247373603284
1745505998170032400,9.784032470703124,-0.2003857942223549,0.11698562647998333,-0.19533143344223497
1745505998180001500,9.79400146484375,-0.11530161891579627,0.09728402392715216,-0.22623357138000427
1745505998189971500,9.803971435546876,0.0018406594306230545,0.05058920050859451,-0.20433811204470692
1745505998199941600,9.813941650390625,0.10129939704835414,-0.030401568004488944,-0.13835691581070422
1745505998209910500,9.82391064453125,0.18199205939769744,-0.14307313067764044,-0.0022911066118627785
1745505998219880700,9.833880615234374,0.19391981307864187,-0.18636983609050511,0.05989544657953083
1745505998229849600,9.843849609375,0.15778466985821724,-0.20657880364358425,-0.010497282486408948
1745505998239819500,9.853819580078126,0.039054245537519454,-0.0777101394072175,-0.07440452199056743
1745505998249789400,9.86378955078125,0.005818915411829948,0.015002046559751034,-0.16762268471829592
1745505998259758600,9.873758544921875,-0.06288169584870339,0.07591215007454157,-0.16355302412658929
1745505998269728800,9.883728759765624,-0.16843582773208618,0.13842618165463208,-0.08394961831867695
1745505998279698700,9.89369873046875,-0.07304302437901497,0.04776625204235315,-0.12557671001888812
1745505998289667600,9.90366748046875,-0.0905091229647398,-0.1810480565458536,-0.011496303461119533
1745505998299637500,9.913637451171875,-0.06499240439236163,-0.46746202892661093,-0.08883888819757849
1745505998309607400,9.923607421875,0.013398995277285575,-0.3488122686266899,0.0871668267995119
1745505998319576600,9.93357666015625,-0.1870306380867958,0.01844283466339111,0.2727043767843395
1745505998329546500,9.94354638671875,-0.561139260533452,-0.0038382629886269566,0.39442126956991846
1745505998339515400,9.953515380859375,-0.5349748917073011,-0.2127218364432454,0.5630452402852475
1745505998349485600,9.963485595703125,-0.05046586638987064,-0.09953151059299707,0.49146373982615765
1745505998359455500,9.97345556640625,0.25951661310493945,0.19941607240736484,0.12944383377581833
1745505998369424600,9.983424560546876,0.3279810775220394,0.6495894051417708,-0.29287834608927366
1745505998379394600,9.99339453125,0.3959364233732223,1.283903499740362,-0.6825283826693892
1745505998389364500,10.003364501953126,0.4047445837289095,0.6347767436742783,-0.9041569444719701
1745505998399333400,10.01333349609375,0.15468670384287833,-0.5562281076163054,0.021375307918712495
1745505998409303600,10.023303466796875,0.15347557448744772,-0.35206191807240245,0.5841404160883278
1745505998419273700,10.033273681640624,0.1174444761633873,-0.4111465597257018,0.4044658398527652
1745505998429242600,10.04324267578125,-0.07031506071984768,-0.32150662081092596,0.313793343019858
1745505998439212500,10.053212646484376,-0.07787702040672302,-0.21713702253699302,0.22157712387628853
1745505998449181400,10.063181396484374,0.02516658996045589,-0.04832271688133478,0.07685169594697654
1745505998459151600,10.073151611328125,0.15791384919583795,0.09120441175252199,-0.034951194132864474
1745505998469121500,10.08312158203125,0.26929800240695473,0.12768120801746843,-0.10173413520380854
1745505998479090400,10.09309033203125,0.2693131999760866,0.08319675412476062,-0.112371264552325
1745505998489060600,10.103060546875,0.13677110792398453,-0.06543401068001985,-0.06578092442154884
1745505998499030500,10.113030517578125,-0.1141062716513872,-0.07720686606019735,-0.01745886512733996
1745505998508999700,10.122999755859375,-0.37397476693391796,-0.07453998493850231,0.02972293809056282
1745505998518969600,10.132969482421874,-0.5971808802515268,-0.09610825814604759,-0.0800979843918234
1745505998528939500,10.142939453125,-0.6269897430598735,-0.1844309769824147,-0.1416181826289743
1745505998538908400,10.152908447265625,-0.33211656989157196,-0.11540274120271206,-0.10249445205181837
1745505998548878600,10.162878662109375,0.03964169003665447,0.11338760198801755,-0.07988587601110339
1745505998558848500,10.1728486328125,0.30790275061130523,0.20988135232031344,-0.11005224702022968
1745505998568817700,10.182817626953126,0.4589093046367168,0.1613759723484516,-0.038098113856464624
1745505998578787600,10.19278759765625,0.507259201785922,0.04254588704556227,0.1000582378808409
1745505998588756500,10.202756591796875,0.3839677531599998,-0.09386018695831298,0.09729154964648186
1745505998598726400,10.212726318359374,0.14953589695096015,-0.09837181916385888,0.02396897767372429
1745505998608696600,10.222696533203125,-0.09247954625487327,0.0005859831944108009,-0.07051460187993944
1745505998618665500,10.23266552734375,-0.22951836520433425,0.0788604784861207,-0.11796506597138941
1745505998628635600,10.2426357421875,-0.25147300738096234,0.07029957088977098,-0.024596315791830418
1745505998638605600,10.25260546875,-0.28750527474880216,0.02845715593844652,0.034781025197729465
1745505998648574500,10.262574462890624,-0.21875673269331453,0.03539484624713659,0.008162848189473151
1745505998658544600,10.272544677734375,-0.02828501424193382,0.039727322493493554,0.014957111439481377
1745505998668514600,10.2825146484375,0.1596551399052143,0.005135024800896644,0.027668270583078265
1745505998678483500,10.2924833984375,0.2226233449935913,-0.042268531408905984,-0.02240655066259205
1745505998688453600,10.30245361328125,0.18809680601358414,-0.04949439100921154,-0.08959083907604216
1745505998698422800,10.3124228515625,0.08276771505773067,-0.04457856191694736,-0.11197386273257434
1745505998708392700,10.322392822265625,-0.05291676667332649,-0.041862580956518645,-0.10308818016126751
1745505998718362600,10.332362548828126,-0.1637333491295576,-0.06601005700230599,-0.03297733677662909
1745505998728331500,10.34233154296875,-0.16354805569052694,-0.0835334387332201,0.053473523773252964
1745505998738301400,10.352301513671875,-0.09915420171320438,-0.07294277887493371,0.1013476931694895
1745505998748271400,10.362271240234374,-0.044107437273859976,-0.017639409326016903,0.10000643462836742
1745505998758240500,10.372240478515625,0.03956044149398803,0.022175299189984798,0.05469305563084781
1745505998768210700,10.382210693359376,0.13521744874119757,0.025614333727955817,0.020517448980361223
1745505998778180600,10.3921806640625,0.16081483133435248,-0.0030538346126675604,0.003673866207152605
1745505998788149500,10.4021494140625,0.12070026308894156,-0.05203326183706522,0.002102744432911277
1745505998798119400,10.412119384765624,-0.029258243188261986,-0.05502250678092241,0.11596015588976442
1745505998808088600,10.422088623046875,-0.5700882906645536,-0.04449555980861187,0.6706085930991917
1745505998818058500,10.43205859375,-0.33749592484235763,-0.3451291961997747,0.2442201136432588
1745505998828028700,10.442028564453125,-0.24772037684917447,0.038109658163785934,-0.05251008556857705
1745505998837997600,10.45199755859375,0.24545243191719054,0.20304186168909072,-0.1786919218737632
1745505998847967700,10.4619677734375,0.8247434352129698,0.024296529127657413,-0.32011195158213374
1745505998857937700,10.471937744140625,0.8893769431650638,0.11521510967612265,-0.45189248467721044
1745505998867906600,10.481906494140626,0.6358844126552343,0.18814473680853844,-0.34389790083914995
1745505998877877200,10.491877197265625,0.3588070084184408,0.027277298504114148,-0.0824979582056403
1745505998887847200,10.50184716796875,-0.0992009634643793,-0.03224690361022949,0.08475757370069623
1745505998897816000,10.511816162109374,-0.4711538691818714,0.012593524113297462,0.1522770854178816
1745505998907786200,10.5217861328125,-0.5615022486269474,0.02103051306903362,0.12416392061151564
1745505998917755100,10.531755126953126,-0.5166530530750751,0.027416122452914714,0.10804010348021983
1745505998927725000,10.54172509765625,-0.2968897736877203,-0.005400397738814354,0.04678082120157778
1745505998937695200,10.5516953125,0.04187514817714691,-0.0016635492980480193,-0.0021545476853847504
1745505998947664400,10.561664306640624,0.21013854195177553,-0.017398294046521184,-0.002326908577606082
1745505998957634300,10.57163427734375,0.13512801689207554,-0.016601590710878373,-0.034502062125876545
1745505998967604200,10.581604248046874,-0.015101707541942596,0.019970482622087,-0.05580189365558326
1745505998977573000,10.591572998046875,-0.010225041416287422,0.034167350278794764,-0.08694580445997417
1745505998987543000,10.60154296875,0.10712181959152221,0.02603022105246782,-0.14835428595095873
1745505998997513000,10.611512939453124,0.049798926913738245,0.03134820120483637,-0.16096695315614343
1745505999007482000,10.621482177734375,-0.10628010807037352,0.0029138416200876235,-0.12982815691828728
1745505999017452300,10.631452392578124,-0.3050631432712078,-0.0018234160348773,-0.018351064726710317
1745505999027421200,10.641421142578125,-0.42282443029880523,0.01777414162158966,0.02128412250392139
1745505999037391000,10.65139111328125,-0.391123470133543,0.06917348946928978,-0.032693039942532774
1745505999047361000,10.661361083984374,-0.2059440128713846,0.11125409709066152,-0.047650443642959
1745505999057330200,10.671330078125,0.061843584972620005,0.04746405422538519,0.13513167015388608
1745505999067300000,10.681300048828126,0.28525661903917787,-0.13317659056335687,0.2926804854296148
1745505999077270000,10.69127001953125,0.3510954111278057,-0.15824030467122793,0.2711642346702516
1745505999087239200,10.7012392578125,0.3825187233954668,-0.08022942875176668,0.32535788941159843
1745505999097209000,10.711208984375,-0.05481704733669757,0.14436580083668232,0.2327085395477712
1745505999107179300,10.72117919921875,-0.04714169040322304,-0.001183072304725647,0.0030241701267659663
1745505999117148200,10.731148193359376,0.07824117754399776,-0.047781449611485,-0.011234072328358888
1745505999127118000,10.7411181640625,0.12652327015399933,-0.06439853015244007,0.0799791803177446
1745505999137088000,10.751087890625,-0.05399462503790855,-0.11096475875526667,-0.029075360902026295
1745505999147057200,10.76105712890625,-0.1993126120328903,-0.017530395993590353,-0.1029631655421108
1745505999157027300,10.77102734375,-0.14153145419359206,0.008314239358901977,-0.14177717258296907
1745505999166996200,10.780996337890626,0.06472586241066455,-0.021159692406654357,-0.08527706753015518
1745505999176966100,10.790966064453125,0.22232348526418208,0.014467209030687808,-0.08596263864152133
1745505999186936000,10.80093603515625,0.3705272568285465,-0.04164455429166555,-0.016640023025125263
1745505999196905200,10.8109052734375,0.34915479845404623,-0.09771043264567851,0.0817201787661761
1745505999206875100,10.820875244140625,0.18685002082288263,-0.07060790618658065,0.1347915514793247
1745505999216845000,10.830844970703126,-0.03173193982541561,-0.04387830469310283,0.0662721420045942
1745505999226814000,10.84081396484375,-0.18381635221540926,-0.01445581085383892,-0.046866745919361706
1745505999236784000,10.8507841796875,-0.20639993994534014,0.0007587094128131866,-0.06266388837955891
1745505999246754000,10.860754150390624,-0.1497474938750267,0.00016717326045036316,-0.08540186295360326
1745505999256723200,10.87072314453125,-0.06982289328873158,0.005039455471932888,-0.1348929660271853
1745505999266693000,10.880693115234376,0.14189327324330805,0.019856208592653274,-0.13697927078194916
1745505999276663000,10.8906630859375,0.19646482138633728,0.030668986769020554,-0.11712218540646135
1745505999286632000,10.9006318359375,0.03800912039875984,0.05526508336514234,0.05990523732118308
1745505999296602400,10.910602294921874,-0.0017699322819709777,-0.03197276284396648,0.12232158068045973
1745505999306571300,10.9205712890625,-0.04886135380268097,0.06252016905993223,0.059737260343134396
1745505999316541200,10.930541259765626,-0.04705927281677723,0.06785480808615683,0.035849385081604124
1745505999326511000,10.940510986328125,-0.04806289690136909,0.04727437687218189,-0.007667758148908615
1745505999336480300,10.950480224609375,-0.06810264536738395,-0.00929009865373373,-0.06532302458621561
1745505999346450200,10.9604501953125,0.046965164792537685,-0.027662206168472765,-0.05829758292883634
1745505999356420000,10.970420166015625,0.10350362909436225,-0.05624474205225706,-0.011946385316178202
1745505999366389000,10.980388916015626,0.05562544111013412,-0.05143471142202615,0.025299860951304435
1745505999376359200,10.990359130859375,0.04403144942820072,-0.05519494073837995,0.060953358134627336
1745505999386329000,11.0003291015625,0.06018003567457199,-0.0685951050594449,0.07585406321175396
1745505999396298200,11.01029833984375,0.04114157320559025,-0.027101357415318487,0.05497757166065275
1745505999406268200,11.02026806640625,-0.05903846442401409,-0.012881401143968104,0.059238882366940374
1745505999416238000,11.030238037109376,-0.09959960739314555,-0.039784313377737995,0.07159954757243395
1745505999426207000,11.04020703125,-0.02290624381303787,-0.04798047931492328,0.01975464791432023
1745505999436177200,11.05017724609375,0.05606733965873718,0.01336304718106985,-0.05133300461322069
1745505999446146300,11.060146240234374,0.06626666211187839,0.003780395321547985,-0.04379121093153953
1745505999456116200,11.0701162109375,0.08214461472332477,-0.018056757955253123,-0.03984700335040688
1745505999466086100,11.080086181640626,0.13874796095490455,-0.030774200709164142,0.004258972618728876
1745505999476055000,11.090054931640625,0.07861936320662498,-0.0017903905481100081,0.04575513141565025
1745505999486025200,11.100025146484375,-0.05399462503790855,0.020065175168216227,0.12091675538383423
1745505999495995100,11.1099951171875,-0.13397124807238578,-0.03235533242076635,0.18002214756421744
1745505999505964000,11.119964111328125,-0.1291518650919199,-0.0006406359910964965,0.07270926238000393
1745505999515934200,11.129934326171876,-0.07203238603174686,-0.003431435753405094,-0.06827749047763645
1745505999525904100,11.139904052734375,0.03745265555977821,-0.02705985636115074,-0.19009660152867436
1745505999535873300,11.149873291015625,0.08111819428503513,-0.002834638904035091,-0.24030564361326395
1745505999545843200,11.15984326171875,0.09213935451507568,-0.01586100147664547,-0.176543803929165
1745505999555813000,11.169813232421875,0.06827157219350338,-0.024851532661914824,-0.12242336055450141
1745505999565782000,11.179781982421876,0.0013373860836029053,0.0036009471014142036,-0.052447980117797846
1745505999575752200,11.189752197265625,0.024254151290655133,-0.01967909846007824,-0.0015271365020424128
1745505999585722000,11.19972216796875,0.037165070790052414,-0.0002475450202822685,0.023189444668591023
1745505999595691300,11.209691162109374,0.005222703084349632,0.003713467565178871,0.048880862220749256
1745505999605661200,11.2196611328125,-0.0036819033831357955,-0.015566110183298587,0.05497567196451127
1745505999615630000,11.229630126953126,-0.04693535417616367,-0.015615502282977103,0.032441037942841644
1745505999625600000,11.23960009765625,-0.04119768730700016,-0.032251872046291825,-0.019369740249961614
1745505999635570200,11.249570068359375,-0.005913023436069489,-0.03906885858476162,-0.055424146384373305
1745505999645539000,11.2595390625,0.03455050437748432,-0.046316053234040734,-0.08677497793771326
1745505999655509200,11.26950927734375,0.05632628285586833,-0.01841068595945835,-0.07061747773252428
1745505999665479200,11.279479248046876,0.09633096098601818,-0.012439502595365047,-0.023221739502996205
1745505999675448000,11.289447998046874,0.08807049764096736,-0.017891045999526976,-0.004606982338801026
1745505999685418200,11.299418212890625,0.015296937853097915,0.01992956608980894,0.028180604019388555
1745505999695388200,11.30938818359375,-0.01433598386645317,0.010673661966621876,0.024343656205013393
1745505999705357000,11.319357177734375,-0.07311258248388766,0.004908814829587936,0.06021298809610307
1745505999715327200,11.3293271484375,-0.06388531993329524,0.011612111860513686,0.0708580084901303
1745505999725297200,11.339297119140625,-0.07897942869067191,-0.005838204634189605,0.042928529687598346
1745505999735266300,11.349266357421875,-0.07408639595210552,-0.006452537140250206,0.04239076954908669
1745505999745236200,11.359236328125,-0.03253974907696247,-0.011585516114532946,0.006070040628686547
1745505999755206100,11.3692060546875,-0.09641104048490523,0.028596272148191926,0.007781228460744023
1745505999765175000,11.379175048828126,-0.18283727805018424,0.022159224838018417,0.03262282425053417
1745505999775145000,11.38914501953125,-0.1020510921984911,-0.023684826970100402,-0.02216412020884454
1745505999785114000,11.399114013671875,-0.1136146887421608,0.019588205306231975,0.00785823921971023
1745505999795084300,11.409084228515624,-0.04085048130452633,0.006312836408615112,-0.06927921486608683
1745505999805054200,11.41905419921875,0.11120762760043143,0.042404432748258114,-0.12716207951419053
1745505999815023000,11.429023193359376,0.2646042916327715,-0.002418459318578243,-0.00005041501298546791
1745505999824993000,11.438992919921875,0.255481658500433,-0.0647869449481368,0.08599434895403682
1745505999834963200,11.448963134765625,0.11828268055319785,-0.009691957452893257,0.16428323809728027
1745505999844932000,11.45893212890625,-0.03469020510911942,0.0066273091852664945,0.11868716970086098
1745505999854902000,11.468902099609375,-0.09555588496029377,0.006598375351727009,0.020843831390514968
1745505999864872200,11.4788720703125,-0.04511573753356933,0.004888941085338592,-0.023733269221708177
1745505999874841000,11.488841064453124,0.0246522106975317,-0.02909106992781162,-0.04426240863986313
1745505999884811000,11.49881103515625,0.08171323756873607,-0.07106617134809494,-0.045084027221053834
1745505999894781000,11.508781005859374,0.04096972377002239,-0.04197977759540081,-0.011847820312529801
1745505999904749800,11.518749755859375,0.00640226825773716,-0.03507335920780897,-0.005235416435450315
1745505999914720000,11.528719970703126,0.03520750698149204,0.004117372190952301,0.009712196523323655
1745505999924690000,11.53868994140625,0.07042611987888812,0.03474281207919121,0.016755393033102153
1745505999934659000,11.5486591796875,0.04085281939208507,0.0014534136787056923,0.029338395752385258
1745505999944629000,11.55862890625,-0.0035591537863016126,0.0039823476344347,0.019077917696535586
1745505999954599000,11.568598876953125,0.025113398468494415,-0.0059349430069327355,-0.02173530033752322
1745505999964567800,11.57856787109375,0.00046411038041114806,-0.0112172673240304,-0.0020024989288300273
1745505999974537700,11.588537841796875,-0.05391746814846992,-0.0005523731857538223,-0.013994769213348626
1745505999984508200,11.598508056640625,-0.0839040256112814,0.0074526540935039515,-0.027278540613129735
1745505999994477000,11.60847705078125,-0.03385609237253666,0.0038882396101951595,-0.022237550771236417
1745506000004447000,11.618447021484375,0.04136836769878864,-0.009850655145943164,0.014069807210937141
1745506000014417000,11.6284169921875,0.08260463345050811,0.014182254609465598,0.007412029822170734
1745506000024386000,11.638385986328124,0.06887655234932899,-0.011279226644337177,-0.00603211977109313
1745506000034356000,11.64835595703125,0.05956745673418045,-0.011871055057644844,-0.007637070749700069
1745506000044324900,11.658324951171876,0.022630349481105802,-0.011857026532292366,-0.004154927722364664
1745506000054294800,11.668294677734375,0.03172258747518063,-0.0337017785936594,-0.023210268260911104
1745506000064265000,11.678264892578126,0.0013975918382406233,-0.030017244862020013,-0.030015418231114744
1745506000074234000,11.688234130859374,-0.018697686207294464,-0.009601648820936679,-0.0459013349533081
1745506000084204000,11.6982041015625,-0.01722644461095333,-0.005967091710865497,-0.044860885989665984
1745506000094174000,11.708174072265624,0.028486089771986006,-0.014488251818716526,-0.014366598200425506
1745506000104142800,11.718142822265625,0.07520341728329658,0.00040478140860795975,-0.01128390281945467
1745506000114112800,11.72811279296875,0.07928747172653675,-0.002977554506063461,-0.0065978638950735325
1745506000124083000,11.7380830078125,0.050693829926848406,0.0047840194061398505,0.03612462182641029
1745506000134052000,11.748052001953125,0.07112228544950484,-0.009951192910969256,0.04503711933940649
1745506000144022000,11.75802197265625,0.13603870199620724,-0.01326893915683031,-0.0018080723352730274
1745506000153992000,11.767991943359375,0.21639818686842918,-0.031070553307235238,0.04727664189450442
1745506000163960800,11.7779609375,0.27504502162635325,-0.11537906806617974,0.12527480446286499
1745506000173931000,11.787930908203125,0.23801088373959062,-0.1345931793630123,0.10831490183360874
1745506000183901000,11.79790087890625,0.08661912978887558,-0.02762012059241533,-0.009868263867869972
1745506000193869800,11.807869873046876,-0.18031272800862788,0.001722293747961521,0.04248495063856244
1745506000203840000,11.817840087890625,-0.2528168232053518,-0.03953384574800729,0.04735518702343106
1745506000213810000,11.827809814453126,-0.3478495610743761,-0.0060965633094310755,-0.06632716012746095
1745506000223779000,11.837779052734374,-0.2537456284880638,0.0395312153995037,-0.10557678210660815
1745506000233749000,11.8477490234375,-0.08913491200208663,0.03590630290061235,-0.06706723790504038
1745506000243719000,11.857718994140624,0.06477087059617043,0.04001636856794357,-0.051926805787906045
1745506000253687800,11.867687744140625,0.15093524235486983,0.041511867822706695,-0.012468071102723478
1745506000263658000,11.877657958984376,0.10398176800012587,0.029187223778665065,0.0026694384049624205
1745506000273628000,11.8876279296875,-0.026574703192710873,0.026671441565454004,-0.013549801924824714
1745506000283597000,11.89759716796875,-0.11249299123585224,0.03697247082740068,-0.005017755096778273
1745506000293567000,11.90756689453125,-0.17923194703459738,0.03395487657189369,-0.007973463097214698
1745506000303537000,11.917536865234375,-0.17976152386665342,-0.0019306758016347885,0.019173560090735554
1745506000313505800,11.927505859375,-0.06810673702061176,-0.04679156179130077,-0.018524886923655868
1745506000323475700,11.937475830078125,0.0044815293282270425,-0.048318917489051816,-0.06819624193497002
1745506000333446100,11.947446044921875,0.06785188547670841,-0.061681672409176824,-0.04546279740557074
1745506000343415000,11.9574150390625,0.09521160156726836,-0.04239566491991281,-0.034094650368764995
1745506000353385000,11.967385009765625,0.06305179171860217,-0.0019578560695052145,-0.02908142531663179
