time,seconds_elapsed,z,y,x
1745500658553192700,0.040192626953125,-0.6429600501298904,0.21027239746451376,-0.10585660369498655
1745500658563163600,0.05016357421875,-0.5291378561168909,0.12548399023413656,0.11820855587106198
1745500658573133800,0.0601337890625,-0.2632616448521614,0.046077568303048606,0.10508421281669288
1745500658583104500,0.0701044921875,-0.008963058656454085,0.08323065639436245,0.052029206716455514
1745500658593075700,0.08007568359375,0.2331552604019642,0.06796908211559057,0.05539463716209866
1745500658603046700,0.090046630859375,0.34236499218344685,0.02188888346403837,0.021692767236893996
1745500658613016600,0.1000166015625,0.34105917028188704,0.0450149075075984,0.0007981343867926625
1745500658622987800,0.10998779296875,0.21497721415460108,0.050585401116311546,0.0704401118716225
1745500658632958700,0.119958740234375,0.09018997401297092,0.05013648830503225,0.02215773613383062
1745500658642928600,0.1299287109375,-0.013573182800412177,-0.017180559642612933,-0.040726832091971296
1745500658652899800,0.13989990234375,-0.1501566591978073,-0.0024859715968370438,-0.04107043049840722
1745500658662870500,0.14987060546875,-0.34739772565364835,0.07079582997411489,0.007865857412229525
1745500658672840700,0.1598408203125,-0.43210605338513847,0.03250701585114002,-0.007397480707010254
1745500658682811600,0.169811767578125,-0.3485919038742781,-0.03385346202403307,-0.042727728152181954
1745500658692782600,0.179782470703125,-0.15573416706919668,-0.011671148571372032,-0.1097633470762521
1745500658702752500,0.18975244140625,0.0851665928930044,-0.00006254384219646453,-0.15643073449861258
1745500658712723700,0.1997236328125,0.26402503044009207,-0.019919629217684268,-0.09297492855638265
1745500658722694700,0.209694580078125,0.3567378009289503,-0.021525018587708472,-0.12885122904437593
1745500658732664600,0.21966455078125,0.3800345053642988,-0.024709786103665827,-0.16831919734878464
1745500658742635800,0.2296357421875,0.41758477607965466,-0.03717383861839771,-0.16639336211904882
1745500658752606700,0.239606689453125,0.33383331068158145,0.04483925867974758,-0.024873096039751543
1745500658762576600,0.24957666015625,0.16454875716567038,0.1277691785618663,-0.0384648465433158
1745500658772547800,0.2595478515625,0.010405658680200576,-0.004790741407871246,0.08873303493661805
1745500658782518500,0.2695185546875,-0.20590426538288592,-0.11449907036125659,0.16856851420104502
1745500658792489700,0.27948974609375,-0.5892892502188682,-0.1473477392569184,-0.03333243382461369
1745500658802459600,0.289459716796875,-0.9320429494589567,-0.056087505663931364,0.05820323744257912
1745500658812430600,0.2994306640625,-1.0909510703891514,-0.04930032974183559,0.12525412700101732
1745500658822401800,0.30940185546875,-0.4878834701865911,0.12588614129424094,0.0009418337276438251
1745500658832371700,0.319371826171875,-0.0091933602809906,-0.09341828840970992,-0.07216327783584128
1745500658842342700,0.3293427734375,0.34900574537217616,-0.10386194101274013,0.5103399244055151
1745500658852313900,0.33931396484375,1.5622972472727297,-0.3462704751893878,0.6734055303413421
1745500658862283800,0.34928369140625,1.36240537404716,-0.5255290179699659,0.2710036190147512
1745500658872254700,0.359254638671875,0.633391426795721,0.3414998997867107,0.037250897326425184
1745500658882225700,0.3692255859375,0.29440263304710385,0.6809697550505399,-0.2869403343424201
1745500658892195600,0.379195556640625,0.13883563923835754,0.402074779997766,-0.23086088412078096
1745500658902166500,0.38916650390625,-0.5306897617340087,0.2905643700584769,-0.09956034396183676
1745500658912137700,0.3991376953125,-0.8322691545426845,0.4372948541998863,-0.3678614716853946
1745500658922108700,0.409108642578125,-0.805928844627738,0.3726379653722048,-0.360650152067095
1745500658932078600,0.41907861328125,-0.5257061281025409,0.18049013040214776,-0.028006169901089742
1745500658942049800,0.4290498046875,-0.09618073886036872,0.06486176375001669,-0.1349274071529042
1745500658952020700,0.439020751953125,0.040032735180854796,0.10284282709807156,-0.2534082497598603
1745500658961990700,0.44899072265625,-0.26260990294516084,0.2931120087146759,-0.2015305986096151
1745500658971961900,0.4589619140625,-0.5306476761579513,0.17787760981619358,0.1418659742444288
1745500658981932500,0.4689326171875,-0.22985914146602152,0.06250584827363491,0.04266685567726381
1745500658991902500,0.47890234375,0.2944230913132429,0.1663087525755167,-0.12668848891938103
1745500659001873700,0.488873779296875,0.5412181700110436,0.07390168703496455,-0.3516557849569246
1745500659011844600,0.4988447265625,0.679024466201663,0.297932852999866,-0.3438945763709023
1745500659021816600,0.508816650390625,0.44487025789022444,0.20587971546351908,-0.18503610326871275
1745500659031786500,0.518786376953125,0.16090367866158484,0.1657087408557534,-0.23564426420610396
1745500659041757700,0.5287578125,-0.2561696407645941,0.15341566099375487,-0.2831057611482218
1745500659051728400,0.538728271484375,-0.540036851271987,-0.044455812320113176,-0.13784014366129413
1745500659061698600,0.548698486328125,-0.19494038829803464,-0.1363221951127052,-0.016401789255882614
1745500659071669500,0.55866943359375,0.3920896848171949,-0.055447454194724556,-0.3311819193899631
1745500659081640400,0.568640380859375,0.7781430120795965,0.10980535958707333,-0.73989452996701
1745500659091610600,0.578610595703125,0.853342922231555,0.3095736064329743,-0.9754862968008965
1745500659101581600,0.58858154296875,0.34887130533754823,0.4623123910784721,-0.9360486779689788
1745500659111552500,0.598552490234375,-0.4316577250957489,0.37794250152111053,-0.5266487427148968
1745500659121522700,0.608522705078125,-1.0491220994412898,0.09109422937631606,0.187349896636419
1745500659131493600,0.61849365234375,-1.1847481289833783,-0.13690145630538464,0.7239395665965974
1745500659141464600,0.628464599609375,-0.7441285142749547,-0.13947569070756435,0.7020650039188563
1745500659151435500,0.638435546875,-0.19138941781818866,-0.17287497922331094,0.4970972156684845
1745500659161405400,0.648405517578125,0.17137246570587159,-0.14974837065786123,0.22395839298963546
1745500659171376400,0.65837646484375,0.32533027075231075,0.05039309341460466,-0.035844416645541784
1745500659181347600,0.66834765625,0.6839297738999128,-0.10442892724573612,0.39821178442668165
1745500659191317500,0.6783173828125,0.5309200633585452,-0.3322413653150201,0.7497248729772865
1745500659201288400,0.688288330078125,0.6364712726324796,-0.2326943648919463,0.8782543683871626
1745500659211259600,0.698259765625,0.7807242607444524,-0.31612346646785733,0.9339294207926839
1745500659221229600,0.7082294921875,0.74417469150424,-0.3047708823263645,0.8398476269729435
1745500659231200500,0.718200439453125,0.5363058480501175,-0.25702216594070193,0.6671871672831475
1745500659241171700,0.728171630859375,0.22785364686250686,-0.23262714487463235,0.5534554645651951
1745500659251142400,0.738142333984375,-0.2955348519474268,-0.2874903694406152,0.33057463767919687
1745500659261112600,0.748112548828125,-0.744447078704834,-0.17756313703954218,0.15815631618220358
1745500659271083500,0.75808349609375,-0.949200420486927,-0.11164894162714481,0.015085505325812846
1745500659281054500,0.768054443359375,-0.823538151076436,-0.0305626037850976,-0.15745510911028832
1745500659291024400,0.7780244140625,-0.26718144864439963,0.19283201784193515,-0.34696211071535943
1745500659300995600,0.78799560546875,0.37546295966506005,0.35126638378053904,-0.4018419210899621
1745500659310966500,0.797966552734375,0.8543255035281181,0.3787573250353336,-0.4036303023440763
1745500659320936400,0.8079365234375,1.0153121842980384,0.22530776177197692,-0.2907764053739607
1745500659330907600,0.81790771484375,0.6820107885360718,-0.030193478211760518,-0.03812554985266178
1745500659340878600,0.827878662109375,-0.18305121306180952,-0.24702742614895104,0.2467027425055392
1745500659350849500,0.837849609375,-0.7936077077150344,-0.27807430631965396,0.3390262762147933
1745500659360819500,0.8478193359375,-1.343749773415923,-0.2758993003681302,0.25742608883278445
1745500659370790400,0.857790283203125,-1.598466877284646,-0.17594664175361394,0.21880616132561115
1745500659380761600,0.86776171875,-1.0781979717999697,-0.036462183217704294,0.13864831823902204
1745500659390731500,0.8777314453125,-0.5004115278482437,-0.03977496102750301,0.02575187446854543
1745500659400702500,0.887702392578125,0.007588847693800926,-0.09349866016954184,-0.015101954137114806
1745500659410673700,0.897673583984375,0.559210922819376,-0.14119360054135321,0.013743041208293288
1745500659420644600,0.90764453125,0.8948217645674943,-0.11691402254849671,0.022142776026716455
1745500659430614500,0.917614501953125,1.1098287893384695,-0.0475768669500947,-0.006678546182159334
1745500659440585700,0.927585693359375,1.0941063195496796,0.0040355391263961786,-0.04522920784540474
1745500659450556400,0.937556396484375,0.8176110991150141,-0.0768298494413495,-0.09922394248116762
1745500659460526600,0.947526611328125,0.9866694426596164,0.32998131142854686,-0.19106279794601722
1745500659470497500,0.95749755859375,0.17880524605512618,0.4528989583060145,-0.2876573052390478
1745500659480468500,0.967468505859375,-0.18736790721714497,0.4610641445830464,-0.39532607292253524
1745500659490438400,0.9774384765625,-0.3070072630763054,0.5072361131712794,-0.26796810551006345
1745500659500409600,0.98740966796875,-0.5465145228534937,0.19208733695447444,-0.19285936250658706
1745500659510380500,0.997380615234375,-0.6004413433521986,-0.009864683671295641,-0.00023661720089148728
1745500659520351700,1.007351806640625,-0.6646364598870277,-0.093371526658535,-0.08253659144928678
1745500659530321700,1.01732177734375,-0.7839683572322129,-0.02123918738365173,-0.19073475330173967
1745500659540292600,1.027292724609375,-0.7927414462745189,0.07168108837604523,-0.2322631886667572
1745500659550263600,1.037263671875,-0.5700929668396711,0.053612055461108685,-0.20092437634477392
1745500659560233500,1.0472333984375,-0.27087913411855696,0.0025099369943141934,-0.14213033340219408
1745500659570204400,1.057204345703125,0.005598550659418106,0.01326981593966484,-0.13637456462075934
1745500659580175600,1.067175537109375,0.26885259672701356,0.09439882387965917,-0.21750709795840084
1745500659590146600,1.077146484375,0.3637392041236162,0.20159926166534423,-0.34025567187927663
1745500659600116500,1.087116455078125,0.4001251072347164,0.26393179919868703,-0.31255780987553294
1745500659610087700,1.097087646484375,0.4712964925229549,0.22757570670396088,-0.1867394183215685
1745500659620058600,1.10705859375,0.3684510350763798,0.11829612455666065,-0.021837393022107424
1745500659630028500,1.117028564453125,0.22681144433319567,0.03180354375690222,0.11377110314657911
1745500659639999700,1.126999755859375,0.04322539374232292,-0.037462592431902884,0.15622770447349174
1745500659649970400,1.136970458984375,-0.09284662600159645,-0.0346449046626687,0.2357123062073253
1745500659659941600,1.146941650390625,-0.18723054457306862,-0.04763151974678039,0.23628312836522236
1745500659669911600,1.15691162109375,-0.3254518513053655,-0.04418079477101564,0.240877159890905
1745500659679882500,1.166882568359375,-0.2978255932331085,-0.03000526216328144,0.20174477108325808
1745500659689853700,1.176853759765625,-0.09793488905131817,-0.010466156695783138,0.0902719349416904
1745500659699823600,1.18682373046875,0.059734045472741124,0.051857905270159245,0.0073612494830042115
1745500659709794600,1.196794677734375,0.14498831664919853,0.03720627958327532,-0.043111567237460985
1745500659719765800,1.206765869140625,0.1949649382174015,0.043138007719814776,-0.11183748646918684
1745500659729735700,1.216735595703125,0.2600491125464439,0.04379559484571218,-0.1410223904266022
1745500659739706600,1.22670654296875,0.2059796687066555,0.00800911893248558,-0.13240027242861688
1745500659749677600,1.236677490234375,0.025446575945615765,-0.05912731175124645,-0.008010877064731903
1745500659759648500,1.2466484375,-0.020365327158570288,-0.04660217669904232,0.06550603473661468
1745500659769618400,1.256618408203125,0.0768891784131527,-0.023237667724490166,0.08692126367376185
1745500659779589600,1.266589599609375,0.12587795798778534,-0.054371349395811557,0.036265153675107284
1745500659789560600,1.276560546875,0.11833470300137997,-0.021387948204576967,0.0326448077534791
1745500659799531500,1.286531494140625,-0.040567572709918016,0.008014379629492759,0.11102018787008709
1745500659809501700,1.296501708984375,-0.13415478794574737,-0.02415273674279451,0.20482279028911143
1745500659819472600,1.30647265625,-0.03009235592484474,-0.01870908438414335,0.10384764762590638
1745500659829443300,1.316443359375,-0.0005418517917394638,0.10739216096550226,-0.08672691927859559
1745500659839413800,1.326413818359375,-0.09251929374337196,0.20752251423448323,-0.14758532913876696
1745500659849384400,1.336384521484375,-0.2780003643006086,0.17979045770019292,-0.10077168337982147
1745500659859355400,1.34635546875,-0.4418482797205448,0.08779489556998014,-0.10296686446969397
1745500659869326600,1.35632666015625,-0.30360593020021914,0.12150690329670906,-0.22180656698429957
1745500659879296500,1.366296630859375,-0.10146072508990764,0.1642214249074459,-0.24729060712978243
1745500659889267500,1.376267333984375,0.01760463027358055,0.11548019035309552,-0.25900756760425864
1745500659899238700,1.38623876953125,0.1827747342079878,0.1162915067359805,-0.1759652003236115
1745500659909208600,1.39620849609375,0.16180150428414344,0.16166940233707427,-0.08257313320054673
1745500659919179500,1.406179443359375,0.08894085073471068,0.10717296525686978,-0.030017244862020013
1745500659929150500,1.416150390625,0.10857903266251087,0.09753419929593801,-0.038349631798965854
1745500659939121400,1.426121337890625,0.025048516538739202,0.11954554009586572,-0.052637575272610405
1745500659949091600,1.436091552734375,-0.08718377793431281,0.10697715042382479,-0.07754083812176249
1745500659959062500,1.4460625,-0.12610066082775592,0.04771422959417104,-0.07516360586271621
1745500659969033500,1.456033447265625,-0.2207669034719467,0.021302608008682725,-0.053588163128867744
1745500659979004700,1.466004638671875,-0.21096914755702018,0.030128011760115623,-0.0744937163776718
1745500659988974600,1.475974609375,-0.08399754911363125,0.061220192377269264,-0.09689805681686847
1745500659998945500,1.485945556640625,0.0387953023403883,0.055875324217975135,-0.11463402185253799
1745500660008916700,1.495916748046875,0.08917465949058533,0.07363163792192935,-0.10397049768744036
1745500660018886700,1.50588671875,0.2224479884266853,0.09815291571617125,-0.07037596059422939
1745500660028857300,1.515857421875,0.45920857984423635,0.025766309419274328,0.019383750509005038
1745500660038828300,1.525828369140625,0.2822439932197332,-0.1278401979714632,0.10814838616028427
1745500660048799200,1.53579931640625,0.04255611617863178,-0.10790186405330895,0.15147638176055625
1745500660058769200,1.54576904296875,-0.04176818067133426,0.03480272557288408,-0.08055685234153642
1745500660068740400,1.555740234375,-0.053742111581563945,0.13377192610800265,-0.10088161002770066
1745500660078711300,1.565711181640625,-0.10267068540155887,0.0788011495143175,0.023871508648619054
1745500660088681200,1.57568115234375,-0.171405198931694,0.030275311276316642,0.06648154697157442
1745500660098652400,1.58565234375,-0.2126455563366413,0.06804974613636731,-0.021775449684821067
1745500660108623400,1.595623291015625,-0.24558336482048032,0.17902590306848287,-0.22925975080076605
1745500660118594300,1.60559423828125,-0.32642741833925243,0.2987295563355088,-0.34505602136570956
1745500660128564500,1.615564453125,-0.33002164343893525,0.29817689088881016,-0.3596165712356567
1745500660138535200,1.62553515625,-0.14743103362619875,0.2342301961570978,-0.34840752375070005
1745500660148506400,1.63550634765625,0.4490367299199104,0.11187544385939836,-0.3027955636654049
1745500660158477300,1.645477294921875,0.5920698208481073,-0.0840890267893672,0.24628764063231645
1745500660168447200,1.655447265625,-0.1334820032507181,-0.11512450878322124,0.7121649576507508
1745500660178418400,1.66541845703125,0.26092472633719443,0.11927490646094083,-0.051938350095227355
1745500660188389400,1.675389404296875,0.2592792972177267,0.12444354127049445,-0.04197396890912205
1745500660198359300,1.685359375,0.22776772214472293,0.05421995822638273,-0.1522844284741208
1745500660208330500,1.69533056640625,0.21276889045536518,-0.054336570343375204,-0.08673523044921458
1745500660218301200,1.70530126953125,0.14028057734966276,-0.04948913031220436,-0.04820225057313218
1745500660228272000,1.715272216796875,0.08079962985515594,0.04717500815093517,-0.08802990990225225
1745500660238242300,1.7252421875,0.028852584996819496,0.12911854734420775,-0.07663876558234915
1745500660248213200,1.735213134765625,0.08788403515815735,0.11091945830881594,-0.0007708017094060778
1745500660258184200,1.74518408203125,0.0577525162667036,0.02663724703490734,0.13405205822363495
1745500660268155400,1.7551552734375,-0.0709498514920473,-0.011612696382403373,0.18508326687868684
1745500660278125300,1.765125244140625,-0.2067418852508068,-0.0016857611298561096,0.13062221163911744
1745500660288096300,1.77509619140625,-0.20649521701335904,0.004348842859268188,0.046347325155138966
1745500660298067500,1.7850673828125,-0.09233516934812068,0.0030038579910993575,-0.07966364809516817
1745500660308038100,1.7950380859375,-0.002847790646553039,0.016909049224853513,-0.11112780382987111
1745500660318008300,1.80500830078125,0.013198504269123076,0.10653671317994594,-0.13334705175943673
1745500660327979300,1.814979248046875,-0.09579729250073432,0.11589870802611112,-0.14540551914796232
1745500660337950200,1.8249501953125,-0.2733551688432693,0.1367655549660325,-0.1807914879688993
1745500660347920400,1.83492041015625,-0.4044885631412267,0.15300941828042267,-0.14903656912669538
1745500660357891300,1.844891357421875,-0.4352414288014173,0.10189151772260666,-0.030328447969350962
1745500660367862300,1.8548623046875,-0.4310726186841726,0.06396481491029263,0.01570655983360484
1745500660377833500,1.86483349609375,-0.1758154165893793,0.0369280471637845,-0.10088570168092846
1745500660387803400,1.874803466796875,0.054036710613965984,0.07023585800379514,-0.062435413385927674
1745500660397774300,1.8847744140625,0.25855858172774315,0.10410860925018786,-0.06116053461190313
1745500660407745300,1.894745361328125,0.5153618442207575,0.14835896212607622,0.014945457534305751
1745500660417716200,1.90471630859375,0.5793798506230116,0.1608054789841175,-0.11318937600217759
1745500660427686100,1.91468603515625,0.6017126784622668,0.22481734790652988,-0.0974288026927039
1745500660437657300,1.9246572265625,0.5559083741426467,0.18894962345063684,-0.09865998845547437
1745500660447628300,1.934628173828125,0.24529110387563705,0.11426935325860976,-0.09409165762662887
1745500660457598200,1.94459814453125,-0.05818506246507167,0.0954082931831479,0.09675327805131673
1745500660467569400,1.9545693359375,-0.2733078225702047,-0.06257102246433496,0.225856408630684
1745500660477540400,1.964540283203125,-0.3396796986222267,-0.1682522878587246,0.2933268935743719
1745500660487511300,1.97451123046875,-0.24784254192411898,-0.14605126970559357,0.2684315948359668
1745500660497481500,1.9844814453125,-0.18145605282485483,-0.0453591909006238,0.19666582385115325
1745500660507452200,1.9944521484375,-0.1936357354402542,0.0363029010027647,0.11107990956753491
1745500660517423400,2.00442333984375,-0.16485095498263835,0.04444762901365757,0.05854162081778049
1745500660527394300,2.014394287109375,0.05784136359393596,-0.06752952165454626,0.016428572231531144
1745500660537364200,2.0243642578125,0.1975660606265068,-0.11450900723338127,-0.0038873628273606298
1745500660547335400,2.03433544921875,0.23215981962382792,-0.13394085293412208,0.007038301138952374
1745500660557306400,2.044306396484375,0.2454278819978237,-0.16788257776349783,0.007856631784513592
1745500660567277300,2.05427734375,0.2545908471405506,-0.1301098964691162,-0.062085796230658886
1745500660577247500,2.06424755859375,0.265617852589488,-0.07564239322245121,-0.07296542909815908
1745500660587218200,2.07421826171875,0.19127075987458228,-0.1022206035465002,-0.1168937104128301
1745500660597189400,2.084189453125,0.13030220417082308,-0.16847557522058487,-0.006446399660408496
1745500660607160300,2.094160400390625,0.2722422391653061,-0.22049510079324244,-0.02373093113414943
1745500660617130200,2.104130126953125,0.6519377218335867,-0.12414368154108524,-0.23990678048878908
1745500660627101400,2.114101318359375,0.9615525370597838,0.019418693958222866,-0.3252515064276755
1745500660637072400,2.124072265625,0.7896078244239091,0.2121203634187579,-0.3747572225484997
1745500660647042300,2.134042236328125,0.45287236256003377,0.2506564303010702,-0.37347156665213405
1745500660657013500,2.144013427734375,-0.18220950154066085,0.12708236534148454,-0.15882789530083535
1745500660666984200,2.153984130859375,-0.6463128676891327,0.04030570690333843,-0.03464373561888933
1745500660676955100,2.163955078125,-0.8734943143784999,0.0878729292422533,-0.09229169553257524
1745500660686925300,2.17392529296875,-1.3200199382603168,0.15944558880776166,0.031336510767042636
1745500660696896300,2.183896240234375,-1.7327485064804553,0.14242869529426097,0.4035149688687175
1745500660706867200,2.1938671875,-1.995627289494872,-0.0326101839646697,0.5682080298759042
1745500660716838400,2.20383837890625,-1.5580565409630536,-0.2626467278242111,0.49135231534093615
1745500660726808300,2.213808349609375,-0.47513913942575453,-0.22167495822757483,0.2112953107714653
1745500660736779300,2.223779296875,0.8125339419811963,-0.11986498130857944,-0.45492242695763707
1745500660746750500,2.23375048828125,1.7709902665913104,-0.03645604573786258,-0.6895739903319626
1745500660756721200,2.24372119140625,2.051720932638645,-0.0955196446031332,-0.445357383820042
1745500660766691300,2.25369140625,2.8378596196472645,-0.48689065975695844,0.1616871571894735
1745500660776662300,2.263662353515625,1.6874246791541576,-0.5412853900283575,-0.12710808430463075
1745500660786633200,2.27363330078125,0.6701549310475587,-0.4430412888973951,-0.2205104444928467
1745500660796604400,2.2836044921875,0.6153033969193696,-0.29770021328777074,-0.3906035379126668
1745500660806574300,2.29357421875,0.007540332376956939,-0.10520166518390178,-0.48430564823243766
1745500660816545300,2.303545166015625,-0.6158458332329988,0.18075053490400314,-0.2694706555601209
1745500660826516500,2.3135166015625,-1.0923036540418862,0.48349634114354845,-0.05233414447978139
1745500660836487200,2.323487060546875,-1.3164414952516554,0.5257333083704113,-0.0006197393335402011
1745500660846457300,2.333457275390625,-1.3171966975331306,0.4094894401684403,0.2724171938734129
1745500660856428300,2.34342822265625,-1.380910168030858,0.44949207247197626,0.2830461764480918
1745500660866399200,2.353399169921875,-1.3143261105328798,0.18598989686220882,0.10094440959822386
1745500660876369200,2.363369140625,-0.9212450765907764,-0.06687339583337307,0.17879837792292236
1745500660886340400,2.37334033203125,-0.45955753941237926,-0.003339373555779457,0.3286249649161473
1745500660896311300,2.383311279296875,-0.05048807822167873,0.12475246108919381,0.505674343747273
1745500660906282500,2.393282470703125,0.1326291858136654,0.19715572625994682,0.5279259961090982
1745500660916253400,2.40325341796875,0.0044458734929561615,0.4024351377427578,0.3509396360442042
1745500660926223400,2.413223388671875,-0.25329145497977734,0.7187205167740583,0.06136391169689595
1745500660936194300,2.4231943359375,-0.3400666521131992,1.0859265202254056,-0.2280005079872906
1745500660946165200,2.433165283203125,-0.3162093911856413,0.8295908752441405,-0.35779388585314154
1745500660956135200,2.44313525390625,0.11409165860414504,-0.31914544463753697,-0.6012158348560332
1745500660966106400,2.4531064453125,-0.2543810037821531,-0.46287323983162637,-0.4223936376661062
1745500660976077300,2.463077392578125,-0.6129653093606233,-0.09300999986976384,-0.186342071300745
1745500660986048300,2.47304833984375,-0.7343009477436542,0.2801037663206458,0.4863442048553377
1745500660996018400,2.483018310546875,-0.6716565677821635,0.18133681035935878,0.9350348978165537
1745500661005989400,2.4929892578125,-0.3005056260973215,0.06861994723975658,0.5201335886672139
1745500661015960300,2.502960205078125,0.21528876432180402,-0.04549889163225889,-0.20795754465088248
1745500661025931000,2.512930908203125,0.8286573937863111,-0.22529285646378994,-0.3237850871369242
1745500661035901200,2.522901123046875,1.46520465426445,-0.2994721913963556,-0.19233363986574112
1745500661045871900,2.532871826171875,1.9729390723466873,-0.3199675746753812,-0.1253701545961201
1745500661055843000,2.542843017578125,2.1086609634786844,-0.27523586802333594,-0.1434922328725457
1745500661065814000,2.55281396484375,1.7337123830765484,-0.10655161848813295,0.06532375523857772
1745500661075784000,2.562783935546875,0.8300549856245517,-0.23985183543115854,0.44476847801618274
1745500661085755100,2.572755126953125,-0.29172376922667026,-0.12057108375132083,0.7962836489260197
1745500661095726000,2.58272607421875,-0.7528513344347476,0.007125029574334621,0.49894766584075984
1745500661105697300,2.592697265625,-0.8336760987311601,0.3769096513420343,0.14399163376204668
1745500661115667200,2.602667236328125,-0.30919162137806416,0.40644145077466964,-0.1586479356240481
1745500661125638000,2.612637939453125,0.2542839731484651,0.32756168306618927,-0.23962336043752727
1745500661135609000,2.622609130859375,0.5652659850746393,0.2970011251077056,-0.28448950712420046
1745500661145580000,2.632580078125,0.8083949424803256,0.24008739775270221,-0.37823037855178115
1745500661155550000,2.642550048828125,0.6602712504148482,0.1548977162450552,-0.26984737991802393
1745500661165521200,2.652521240234375,0.17945874152779578,0.503864883172512,-0.17011384394690393
1745500661175492000,2.6624921875,0.23049510128200054,-0.1505333835557103,-0.35145481902472675
1745500661185463000,2.672463134765625,0.12337795786559581,-0.7730199699774384,-0.08570694684740156
1745500661195433200,2.68243310546875,-0.03854629601538181,-0.41101270421296354,0.33309206386022266
1745500661205404200,2.692404052734375,0.09972644864320754,-0.02265139226913452,0.4301262412121519
1745500661215374800,2.702374755859375,0.4578378760129213,0.19290069916397332,0.4331725135728717
1745500661225346000,2.712345947265625,0.7950193280786275,0.4015577703863382,0.601939728683792
1745500661235316000,2.72231591796875,1.1195751073271036,0.09552315173447132,0.6122547864710912
1745500661245287000,2.732286865234375,1.234309740009904,-0.4905582423537969,0.5501635468803345
1745500661255258000,2.742258056640625,0.6456009200274944,-0.48988604218065734,0.8872971412163227
1745500661265229000,2.75222900390625,-0.5570137050360441,0.09725830496400595,1.2419241605363784
1745500661275199200,2.76219921875,-1.7199854710191487,0.35065585066676136,0.915860241747275
1745500661285170200,2.772170166015625,-1.7328420299828051,0.14979980858415365,0.2836659523142502
1745500661295140900,2.782140869140625,-1.7045213599056004,-0.007223813773691654,-0.2903124776566401
1745500661305112000,2.792112060546875,-1.5144289961606263,-0.17005056945234537,-0.5741426806218922
1745500661315082000,2.80208203125,-1.2453753239035605,-0.1981108350276947,-0.2920666643802076
1745500661325053000,2.812052978515625,-0.9446025713026523,-0.07737959227859974,-0.13520155705232173
1745500661335024000,2.822024169921875,-0.6250783564805984,0.042243396967649456,-0.13826116381864995
1745500661344995000,2.8319951171875,-0.351613297522068,0.33718963537216184,-0.04190722381584346
1745500661354965000,2.841965087890625,0.11427402943372726,0.6346563321650028,-0.035932862113974985
1745500661364936200,2.851936279296875,0.28795886373519897,0.5922784951627255,-0.32878253009803593
1745500661374907100,2.8619072265625,0.2799433150619268,0.5497895990014076,-0.6423701944779604
1745500661384878000,2.871878173828125,0.366033452540636,0.44719607048928733,-0.5456135188931599
1745500661394848000,2.881847900390625,0.6083066698998213,0.3191740862101316,-0.40986484935209155
1745500661404819000,2.89181884765625,0.6644055737406015,-0.1386287184894085,-0.5161684113632887
1745500661414790100,2.9017900390625,0.4546095616161823,-0.5081789469793438,-0.6367008436046541
1745500661424761000,2.911760986328125,0.19905834501087663,-0.6637681526198983,-0.6768069362826645
1745500661434731000,2.92173095703125,-0.018890578430891036,-0.4191133008211851,-0.37657282060310243
1745500661444702200,2.9317021484375,-0.17885551493763924,0.20549714588671922,0.002158164414577186
1745500661454673200,2.941673095703125,-0.28455986894667146,0.4931950205981731,0.46226599465347823
1745500661464643800,2.951643798828125,-0.49880058552026746,0.12555559416562317,0.7146509292475879
1745500661474614000,2.961614013671875,-0.8410632863730192,-0.16204758799970148,0.1254964113242924
1745500661484585000,2.9715849609375,-0.987214801582694,0.06150573132038116,0.14022110224738715
1745500661494556000,2.981555908203125,-0.959070072594285,-0.12268150003403425,0.5538085888518021
1745500661504527000,2.991527099609375,-0.842564923107624,0.0677776511967182,0.5349835864704102
1745500661514497000,3.0014970703125,-0.5340133531987666,-0.26636487156450744,0.5813774907136335
1745500661524468000,3.011468017578125,-0.766409319666028,-0.6712757517710328,0.3126122800091281
1745500661534439200,3.021439208984375,-0.09773030638992786,-0.9886240838587284,-0.09702263304460793
1745500661544410000,3.03141015625,0.9004740912407636,-0.4791293781057,-0.5328389391245321
1745500661554380000,3.041380126953125,1.2858254077136515,0.7753849455431103,-0.5711352059016004
1745500661564351000,3.05135107421875,1.2452426374346017,1.032396297828853,-0.2982619022911414
1745500661574322000,3.061322021484375,0.9199375011235476,0.4130573617830872,-0.7282820527803152
1745500661584293000,3.071293212890625,0.5336515341490506,-0.006913724911212921,-0.6165245362121612
1745500661594263000,3.081262939453125,0.4586673125743866,-0.19137714285850524,-0.14226722112223505
1745500661604234000,3.09123388671875,0.5444511605829,-0.1630009432017803,0.12680924748852848
1745500661614205200,3.101205078125,0.5097971958309412,0.055180035430192946,0.06497939878031611
1745500661624176000,3.111176025390625,0.2730605698108673,0.39774288827329873,0.07387372131580486
1745500661634147000,3.12114697265625,0.16899404613673685,0.49975657107084986,0.0024622619276866314
1745500661644117000,3.131116943359375,-0.0453653283804655,0.3250464853748679,0.09177079519731923
1745500661654088000,3.141087890625,-0.30320494818389415,0.06567220335006714,0.3172556853681803
1745500661664059100,3.15105908203125,-0.48402737928032874,-0.15532587852925062,0.3626923254191875
1745500661674030000,3.161030029296875,-0.36396190696358677,-0.45173546748459337,0.22600860351771115
1745500661684000000,3.171,-0.019094576570391653,-0.46653877660185095,0.0863783433029428
1745500661693971200,3.18097119140625,0.05319032291769981,0.0028264555975794792,0.1658579400680959
1745500661703942100,3.190942138671875,0.38444647658765313,0.6072597911953925,0.17847789553059265
1745500661713913000,3.2009130859375,0.13887363316118717,0.6628636049956083,-0.22511227573249487
1745500661723883300,3.21088330078125,-0.35212533869743345,0.8176099300712346,-0.459662461091578
1745500661733854000,3.22085400390625,-0.1975654761046171,0.6437181750208139,-0.5373807107400149
1745500661743825000,3.230824951171875,-0.2815583490431309,0.1984200471073389,-0.5565243871491402
1745500661753796000,3.240796142578125,-0.19382687409818172,-0.16811346390992402,-0.23065553427441043
1745500661763766000,3.25076611328125,0.14899229159355162,-0.2911880549147725,0.1386340613848064
1745500661773737000,3.260737060546875,0.3630629122972488,-0.05448328533768654,0.2271355617210269
1745500661783708200,3.270708251953125,0.42011283325254917,0.6615335254356265,-0.39422673337850717
1745500661793679000,3.28067919921875,0.7990273946762084,0.634236353187263,-1.2792886994212864
1745500661803649000,3.29064892578125,0.5656272196024656,0.5645107827931642,-1.3028934468924998
1745500661813620000,3.300619873046875,0.6495563796550035,0.3690145141780376,-0.8378786649875343
1745500661823591000,3.3105908203125,0.763397278368473,-0.27971915091723204,-0.47830553103480483
1745500661833562000,3.32056201171875,-0.07566518957614898,-0.8381596738860011,0.2926812891472131
1745500661843532000,3.330531982421875,-0.5122831674277782,-0.8606511994183063,0.7256115183968097
1745500661853503000,3.3405029296875,-0.3433136712104082,-0.4291276220962405,0.522003364594467
1745500661863474200,3.35047412109375,-0.3697305534929037,0.10443769507408142,-0.14838110089264808
1745500661873445000,3.360445068359375,-0.654275809392333,0.37907501268237825,-0.4416505286587402
1745500661883415000,3.3704150390625,-0.6291267550885677,0.1900584614753723,-0.226698923869431
1745500661893386200,3.38038623046875,-0.11498714613914489,-0.012065993107855319,0.026894637595769016
1745500661903357000,3.39035693359375,0.0977285528242588,-0.24783932705372572,0.007358235542010516
1745500661913328000,3.400328125,-0.12766425688266753,-0.09658931966125965,-0.16719349952079354
1745500661923299000,3.410299072265625,-0.48824762732386584,-0.15972352896630762,-0.30856238356381654
1745500661933269000,3.42026904296875,-0.5705231749504804,-0.18796996476352212,-0.16065529339108614
1745500661943240200,3.430240234375,-0.3854249662309885,-0.08642740660905837,-0.29321459230631586
1745500661953211100,3.440211181640625,-0.24561668256819247,0.0261880419626832,-0.3375524042699486
1745500661963182000,3.45018212890625,0.14724924731850622,-0.09311784415841103,-0.29158472608216107
1745500661973152300,3.46015234375,0.5892097552418708,-0.048589551123976706,-0.12961441370290702
1745500661983123000,3.470123046875,0.3842120833098888,-0.020433131697773933,0.035899818360898644
1745500661993094000,3.480093994140625,0.07130231819152831,-0.08488105394989251,-0.004957832469930872
1745500662003065000,3.490065185546875,-0.12560206365585327,-0.14533815300017594,0.07449684904967434
1745500662013035000,3.500034912109375,-0.0883960763335228,-0.07085603572875261,0.16857925479076802
1745500662023006000,3.510005859375,0.11980477555394171,0.20534809280484914,0.23740230512088165
1745500662032977200,3.51997705078125,0.2619856335669756,0.3269078953325748,0.2660587099584751
1745500662042948000,3.529947998046875,0.3849637784600258,0.384741367881,0.23871864841645582
1745500662052918000,3.53991796875,0.5722820013165474,0.5692182298317551,0.355986324974522
1745500662062889200,3.54988916015625,0.5836556282460689,0.8215151208162307,0.13223647843534125
1745500662072860000,3.55985986328125,-0.014484452426433562,0.7385378546610474,-0.0034252617409452793
1745500662082831000,3.5698310546875,-0.5006967745304107,0.3891419409275055,0.12411224522320553
1745500662092801000,3.579801025390625,-0.534549944293499,0.05105740254223346,0.02547894384525716
1745500662102772000,3.58977197265625,-0.49890112328529357,0.2380991465449333,-0.02681545314602554
1745500662112743200,3.5997431640625,-0.3233317904114723,0.44464492470175027,-0.129465552417282
1745500662122714000,3.609714111328125,-0.028462124374508856,-0.12032558455765247,-0.5029479875233024
1745500662132685000,3.61968505859375,0.4785024783790111,-0.21998861257582902,-0.27581693758061154
1745500662142655200,3.6296552734375,0.38304713118374345,0.019196867901086805,0.36423780129551886
1745500662152626000,3.6396259765625,0.3865945945322513,-0.21809330034852026,0.45069834298919886
1745500662162596900,3.649596923828125,0.49555473546683787,-0.17028291690349578,0.42810467225667087
1745500662172568000,3.659568115234375,0.35600364143550395,-0.06586743366122245,0.45582145815659314
1745500662182538000,3.6695380859375,0.14209376425147055,-0.22401041543781755,0.4144301845062524
1745500662192509200,3.67950927734375,0.09894786548614501,-0.34109862550944087,0.3559826351800933
1745500662202480000,3.689480224609375,-0.005059036955237389,-0.2210767000734806,0.24433573937956243
1745500662212451000,3.699451171875,-0.11224164682328701,-0.05887012211978435,0.06789003466316498
1745500662222421200,3.709421142578125,-0.13586860612630844,-0.027725919054448604,-0.03567424771040678
1745500662232392200,3.71939208984375,-0.2048591402441263,-0.07307809569239616,-0.21610744202723725
1745500662242363000,3.72936279296875,-0.23042963483035564,-0.0008951952740550041,-0.31392814838066696
1745500662252334000,3.739333984375,-0.1686257973462343,0.031098318096995353,-0.14198383760359137
1745500662262304000,3.749303955078125,-0.07082242572009563,-0.06862988411188126,0.016171199936978516
1745500662272275000,3.75927490234375,-0.13926584734916686,-0.18444383646398782,0.10000490025840698
1745500662282246100,3.76924609375,-0.2007721631914377,-0.20467852298021316,0.17324487198162822
1745500662292217000,3.779217041015625,-0.25698504880070683,-0.21378245141208171,-0.0008701704306527971
1745500662302188000,3.78918798828125,-0.34935353589653967,-0.06859539732038974,-0.4832760494563728
1745500662312158200,3.799158203125,-0.5304471851497888,0.4725298337101936,-0.6284650032442063
1745500662322129000,3.80912890625,-0.411931280362606,0.34084055909514427,-0.1952769267760217
1745500662332100000,3.81910009765625,-0.31657296380102634,0.06768003604114055,-0.2556090842723846
1745500662342071000,3.829071044921875,-0.293977101111412,-0.02646422855556011,-0.23749928095564246
1745500662352041000,3.839041015625,-0.21687749481797217,-0.034384792421758174,-0.17533917737975716
1745500662362012200,3.84901220703125,-0.11708557972311973,0.008939677780866623,-0.05220438062027096
1745500662371983000,3.858983154296875,0.024163550397753714,0.03045096010416746,-0.03072890026271343
1745500662381954000,3.8689541015625,0.12421791582107543,0.004653671024739742,0.005194938294589519
1745500662391924200,3.87892431640625,0.04436228881776333,0.04756956042647362,0.11238898287210612
1745500662401895200,3.888895263671875,-0.03596387830674648,0.04015256216824054,0.08873966560680419
1745500662411865900,3.898865966796875,-0.10036650011241435,0.05613017576187849,0.10039967172965407
1745500662421837000,3.908837158203125,-0.1679062509000301,0.0928375659123063,0.1276344097336754
1745500662431807000,3.918806884765625,-0.15460428625643252,0.06726677906513213,0.16256551092658192
1745500662441778000,3.92877783203125,-0.09718202485740184,0.021357553066313265,0.1498649462422356
1745500662451749000,3.9387490234375,-0.004879588735103607,-0.03963789064437151,0.16484335619807242
1745500662461720000,3.948719970703125,0.07753916675448418,-0.053747956800460815,0.2313191310159862
1745500662471691000,3.95869091796875,0.15087211399078368,-0.03450257358253002,0.21543763474058358
1745500662481661200,3.9686611328125,0.21170681418180465,-0.024475100564956664,0.21039335696306077
1745500662491631900,3.9786318359375,0.2926724482536316,0.05359042815119028,0.1818034414904192
1745500662501603000,3.98860302734375,0.3700035252153873,0.17003770997077225,0.18202782483082264
1745500662511574000,3.998573974609375,0.44665012704432006,0.21765520119220017,0.1975004480443895
1745500662521544000,4.0085439453125,0.5180623353511095,0.17230331681519745,0.14443451869133858
1745500662531515100,4.01851513671875,0.5687865604162216,0.1120674593001604,0.1039258730944246
1745500662541486000,4.028486083984375,0.595875058349967,0.0097881113037467,0.10998760255249217
1745500662551457300,4.038457275390625,0.6181856743574142,-0.09167816674411296,0.09961133436355739
1745500662561428000,4.048427978515625,0.6521002189189196,-0.1518517726778984,0.08761314579490571
1745500662571398100,4.058398193359375,0.6331441740363836,-0.13367664903998375,0.09313936187047511
1745500662581369000,4.068369140625,0.6321458106487989,-0.09229308377206324,0.08232870258595794
1745500662591340000,4.078340087890625,0.5731283890128135,-0.0344248321712017,-0.005809489996358752
1745500662601311000,4.08831103515625,0.24689269385337828,0.14984803164005278,-0.11831972462795674
1745500662611281200,4.09828125,-0.6551724659711122,0.4006327644959092,-0.07590710857324302
1745500662621252000,4.108252197265625,-0.9641852236509323,0.19883330408334732,-0.1657309526875615
1745500662631223000,4.11822314453125,-0.5561836839526891,-0.08853490028232336,0.18350714013576505
1745500662641194000,4.128194091796875,-0.4235562517046928,-0.27304829485118387,0.18790270821359006
1745500662651164200,4.1381640625,-0.5928869824498891,-0.33998569583147764,-0.4882149671632796
1745500662661134800,4.148134765625,-0.6820037742733955,-0.07277355978786945,0.061094702834077176
1745500662671106000,4.15810595703125,-0.6119844816297292,-0.13845102383494376,0.027808080912567673
1745500662681077000,4.168076904296875,-0.45352702707648274,-0.2539271225348115,-0.07168583761639892
1745500662691048200,4.178048095703125,-0.32516368201375007,-0.13493863179981708,0.12081826344542204
1745500662701018000,4.18801806640625,-0.19043956974744797,-0.01693885984122753,0.16009623473621903
1745500662710989000,4.197989013671875,-0.05248597404062748,0.04234598055928945,0.13323811149224637
1745500662720960300,4.207960205078125,0.0703968937844038,0.11116671106815337,0.09781352769397199
1745500662730931000,4.217930908203125,0.15108371091485023,0.17284107695370912,0.05231993329133838
1745500662740901000,4.227901123046875,0.1852484308451414,0.20782120492011308,-0.008228022380173205
1745500662750872000,4.2378720703125,0.1788309650182724,0.21432897937893866,-0.06276866392828524
1745500662760843000,4.247843017578125,0.17160568993985653,0.1645358976840973,-0.0872296263700351
1745500662770814000,4.25781396484375,0.1158276886165142,0.10829378598034381,-0.08139423474743962
1745500662780785200,4.26778515625,0.0707411771774292,0.06007336042970419,-0.04799735738448798
1745500662790755000,4.277755126953125,-0.0052723874449729915,0.0466898549824953,0.010015782579779624
1745500662800726300,4.287726318359375,-0.040409751799702645,-0.0162649061024189,0.022384156167693434
1745500662810697000,4.297697021484375,-0.08248714455068111,-0.05004997906535864,0.03407031964510679
1745500662820668000,4.30766796875,-0.07050970650911331,-0.07928016520291567,0.09338336322680116
1745500662830638000,4.31763818359375,0.03617489070892334,-0.11252426315695047,0.20934538228008895
1745500662840609000,4.327609130859375,0.14307050032913685,-0.04722118538022041,0.3308213789818808
1745500662850580000,4.337580078125,0.16008827062547207,0.03948094651699066,0.28213441363172603
1745500662860551200,4.34755126953125,0.15104805507957936,0.1300093587040901,0.12430495478371158
1745500662870522000,4.357522216796875,0.07625847929418086,0.15343115082383155,-0.018569621114525942
1745500662880492000,4.367491943359375,-0.011968670213222503,0.09599339959472417,-0.06595456395540386
1745500662890463200,4.377463134765625,0.01900456019937992,0.05082125569880008,-0.001897175390832126
1745500662900434000,4.387433837890625,0.06081073479354381,0.09565466915965079,0.07541488634319976
1745500662910405000,4.397405029296875,0.023694763842225075,0.12528408374786376,0.006589010443404549
1745500662920375000,4.407375,-0.031443770533800125,0.10812193654477596,-0.07589550490041728
1745500662930346000,4.417345947265625,-0.06274257963895798,0.09679594814926386,-0.09099031234411523
1745500662940317200,4.427317138671875,-0.11993746202290058,-0.03845832547098398,-0.12165769167793913
1745500662950288100,4.4372880859375,-0.17509060944616794,-0.15505875202566385,-0.11364709317442029
1745500662960259000,4.447259033203125,-0.14513152451217173,-0.22221008801758288,-0.05165034520039335
1745500662970229200,4.457229248046875,-0.14993337183594702,-0.15390928972959517,0.08430134523264132
1745500662980200000,4.467199951171875,-0.1483878959596157,0.097636782887578,0.1950102021312341
1745500662990171000,4.4771708984375,-0.27759470610916614,0.38251521626412865,0.23189550613183527
1745500663000142000,4.48714208984375,-0.4386100284516811,0.11418401306271553,0.15686523519204928
1745500663010112000,4.497112060546875,-0.46142976302504535,-0.4351110804200172,0.03967072433489375
1745500663020083000,4.5070830078125,-0.23010113352835176,-0.6931643429741263,-0.11079711970393545
1745500663030054100,4.51705419921875,0.013365093007683753,-0.44650545787662266,-0.12166195686110294
1745500663040025300,4.527025390625,0.013347557350993156,-0.022199264587461947,-0.11077567505710757
1745500663049996000,4.53699609375,0.045023383074998855,0.2773965531885624,-0.15482428568266332
1745500663059966200,4.54696630859375,0.1108516537696123,0.3759603877931833,-0.24675975165609268
1745500663069937200,4.556937255859375,0.2196387762248516,0.3683987203672528,-0.2921529544241726
1745500663079908000,4.566908203125,0.39472237140834326,0.20126608418822287,-0.2119413901226595
1745500663089879300,4.57687939453125,0.500431401592493,-0.04357318426668644,0.12787342438763008
1745500663099850200,4.586850341796875,0.33969138906002044,0.010888473761081695,0.3785400655554607
1745500663109820200,4.596820068359375,0.05968669919967651,0.21693390118032693,0.41994273738265037
1745500663119791400,4.606791259765625,-0.29969606328010556,0.6369891590267419,0.4754379762418568
1745500663129762000,4.616761962890625,-0.7403764682650565,1.689337234777212,0.9292542685884981
1745500663139733000,4.62673291015625,-0.8746943378180265,1.032174764032662,0.27798235371988267
1745500663149703200,4.636703125,-0.2979483428299427,0.1833291532203555,0.02386385506512597
1745500663159674000,4.646674072265625,-0.05692132613956928,-0.33469255785942076,0.05575988114476203
1745500663169645000,4.65664501953125,-0.06334580622911452,-0.6412284040316939,0.08805336384307592
1745500663179616300,4.6666162109375,-0.10830138476490973,-0.7853755936816335,0.0499464456256479
1745500663189587200,4.676587158203125,-0.09604162265062331,-0.8288844805404544,-0.020047420315816997
1745500663199557000,4.68655712890625,0.08771101667881011,-0.737846657526493,-0.11528740772735327
1745500663209528300,4.6965283203125,0.2018874309569597,-0.5018345463886856,-0.22058234068527816
1745500663219499000,4.7064990234375,-0.03372866660058498,-0.2500055651769042,-0.35141733655855056
1745500663229470200,4.71647021484375,-0.05275836124122142,-0.08651157776117324,-0.3976097268803045
1745500663239441200,4.726441162109375,0.2660194191277027,0.1654623648792505,-0.3246908768702298
1745500663249411000,4.7364111328125,0.5997656360477209,0.3592775485396385,-0.4351087788650766
1745500663259382300,4.74638232421875,0.7648065606445074,0.4312833388254046,-0.5223882722588256
1745500663269353200,4.756353271484375,0.6509492953181266,0.3947448755010962,-0.5047429811812937
1745500663279324400,4.766324462890625,0.2921317655056715,0.29882395662069317,-0.4455195155791938
1745500663289295000,4.776295166015625,-0.10580080012083053,0.4221992841377854,-0.2089615705942735
1745500663299265000,4.78626513671875,-0.3698790220528841,0.39616204882264133,-0.12004607349652796
1745500663309236200,4.796236328125,-0.5477063629865646,0.1059942768663168,-0.02303005285579711
1745500663319207200,4.806207275390625,-0.6331114408105611,-0.2243178739517927,0.13495280645564198
1745500663329178000,4.81617822265625,-0.4856915131002664,-0.4317869044333696,0.26475272366013375
1745500663339148300,4.826148193359375,-0.28347558084130287,-0.45721360663473604,0.13735055177975444
1745500663349119200,4.836119140625,-0.21760464004874228,-0.29493367118388414,0.0012806874603033065
1745500663359090200,4.846090087890625,-0.1126993274629116,-0.15092559774369,-0.06777529484285041
1745500663369061000,4.85606103515625,-0.06589665975570679,-0.002130290026962757,-0.08592656268114224
1745500663379032000,4.866031982421875,0.04173895457684994,0.12351005981266498,0.10162479307781905
1745500663389002000,4.876001953125,0.1853571519166231,0.19526888960003852,0.32385683719888325
1745500663398973200,4.88597314453125,0.4013005807548761,0.1878150664627552,0.35266119913980365
1745500663408944000,4.895944091796875,0.5927671554625034,0.18507950401902198,0.26903829202484336
1745500663418915300,4.905915283203125,0.7077654075175523,0.219039349026978,0.1536167547901161
1745500663428886300,4.91588623046875,0.7759165682017802,0.19748188947439194,-0.06833459095973521
1745500663438856200,4.925856201171875,0.7900970692455768,0.13789397447407245,-0.23059949323823675
1745500663448827400,4.935827392578125,0.7267810736328363,0.005050853648781776,-0.38679914066102355
1745500663458798000,4.945798095703125,0.4977063605427742,-0.2981549713179469,-0.4209590382857248
1745500663468769000,4.95576904296875,0.14398118543326854,-0.6096282738924026,-0.3018404183650389
1745500663478740200,4.965740234375,-0.23010580970346925,-0.7745905802950263,-0.23286274372879415
1745500663488710100,4.975710205078125,-0.2777747388511896,-0.6765522308692336,-0.31232688719648866
1745500663498681000,4.98568115234375,-0.38995267278850076,-0.38399025725275276,-0.15839721226599066
1745500663508652300,4.99565234375,-0.39593583885133266,0.015385785180330276,-0.045262854386679825
1745500663518623200,5.005623291015625,-0.2550578801304102,0.3571902208715677,0.03818718037940561
1745500663528594200,5.01559423828125,-0.34568566103875636,0.6991083460703492,0.3589181406427175
1745500663538564000,5.025564208984375,0.09162965142726898,1.0084370378315448,0.5591717963853851
1745500663548535000,5.03553515625,-0.17818039215505121,1.0792387130245567,0.6558768879134208
1745500663558506200,5.04550634765625,-0.3600309972554445,0.6670055271059274,0.23662658977434037
1745500663568477200,5.055477294921875,-0.12783844440579414,-0.004476268631219864,-0.5620373053517193
1745500663578448400,5.065448486328125,-0.49923254719674587,-0.7118161442130804,-1.3929321758665143
1745500663588418300,5.075418212890625,0.14139701415896413,-0.7946285751953721,-0.47060222664847967
1745500663598389200,5.08538916015625,0.3134036861151457,-0.31913580002635716,0.2292281683524139
1745500663608360200,5.095360107421875,-0.10739946748912334,0.1839738808646798,-0.009058947645826265
1745500663618331100,5.1053310546875,-0.03367079893350601,0.5758236194461583,-0.4982485776606947
1745500663628302000,5.115302001953125,0.22968027776777744,0.6781731100693345,-0.5402281725930049
1745500663638272300,5.125272216796875,1.0684405478954315,0.7408747731760144,-0.3353389294715598
1745500663648243200,5.1352431640625,0.4364601569414139,0.5196136564463377,0.12728981581339613
1745500663658214100,5.145214111328125,-0.35410043816268444,0.09161533064097166,0.35799781092740596
1745500663668185300,5.155185302734375,-0.6325216582238674,-0.2389846972078085,0.4857567603562027
1745500663678156000,5.165156005859375,-0.7976298028379678,-0.35314006869792935,0.5321794888351112
1745500663688126200,5.175126220703125,-0.6832721867740154,-0.34664164658933877,0.46061143237948415
1745500663698097200,5.18509716796875,-0.48065351893305774,-0.32049276759326456,0.40547468810174614
1745500663708068000,5.195068115234375,-0.36662498869299887,-0.24204203895181417,0.31648871958367525
1745500663718039300,5.205039306640625,-0.21007366002202033,-0.11866495786905289,0.23756219012401997
1745500663728010200,5.21501025390625,-0.0961252092808485,-0.016741291442513465,0.20333333718264474
1745500663737980200,5.224980224609375,-0.05086684840619564,0.08017126882374286,0.17788904452566057
1745500663747951400,5.234951416015625,0.03628945699930191,0.09222031079679727,0.1455651118901558
1745500663757922000,5.244922119140625,0.1709182921975851,0.10776537819206713,0.07417436649650334
1745500663767893000,5.25489306640625,0.2795078462541103,0.19926643480360506,-0.0119132867641747
1745500663777864200,5.2648642578125,0.32980595486164094,0.19903730222284793,-0.04889135621530004
1745500663787834000,5.274834228515625,0.31397944017648693,0.12598755584210156,-0.006019068493274972
1745500663797805000,5.28480517578125,0.21215163533985615,0.05305617514401674,-0.027854376872861755
1745500663807776300,5.2947763671875,0.1314519587278366,-0.021965455831587315,-0.04264247928783297
1745500663817747200,5.304747314453125,0.07821955023407935,-0.04596504783928394,-0.024221938654640687
1745500663827718100,5.31471826171875,-0.0027139351338148114,-0.10963000302016734,-0.07836436553224921
1745500663837688300,5.324688232421875,-0.0758738638907671,-0.15022709408551455,-0.10050845673321745
1745500663847659000,5.334658935546875,-0.14210603921115397,-0.13923603673279283,-0.18830098681617527
1745500663857630200,5.344630126953125,-0.17474924866259098,-0.16220862378031015,-0.276398299398832
1745500663867601200,5.35460107421875,-0.1282417645096779,-0.13633710042089223,-0.2800492231218144
1745500663877572400,5.364572265625,-0.025987843215465545,-0.06258680455535649,-0.2747273705119267
1745500663887543300,5.374543212890625,0.07709259203076362,-0.0077598203465342516,-0.3153820004507899
1745500663897513200,5.38451318359375,0.14703414326310157,0.06033551849722862,-0.3047183118889108
1745500663907484400,5.394484375,0.17816577910780906,0.14115589887946844,-0.2471510342623107
1745500663917455000,5.404455078125,0.19509294851124284,0.1996291306361556,-0.1618625868216157
1745500663927426000,5.414426025390625,0.16675766538679598,0.190680100505054,-0.13144612264209427
1745500663937397200,5.424397216796875,0.12766717949211598,0.16465864728093146,-0.04732194234095514
1745500663947367200,5.4343671875,0.04481412423849106,0.09510346501767634,0.11332350550955161
1745500663957338000,5.444338134765625,-0.035087679994106294,-0.06308014103025197,0.15108689838577993
1745500663967309300,5.454309326171875,-0.14002514128386973,-0.14386808044761418,0.17159325058339162
1745500663977280300,5.4642802734375,-0.17545125945210455,-0.1305176004871726,0.2062508320645429
1745500663987251200,5.474251220703125,-0.22435586787462233,-0.1480152632549405,0.20815781646333634
1745500663997221000,5.48422119140625,-0.22403087370395658,-0.10499445217400788,0.20017408770043402
1745500664007192000,5.494192138671875,-0.2003279265552759,-0.02690525032132864,0.2199216482868418
1745500664017163300,5.504163330078125,-0.13164251286387443,0.023970073652267453,0.21748063007658347
1745500664027134200,5.51413427734375,-0.0318500132471323,-0.01497515855282545,0.15199496227456255
1745500664037105400,5.52410546875,0.07288344990313053,0.004440320535004138,0.15170530427875928
1745500664047075300,5.534075439453125,0.1501256795376539,0.018875673122704027,0.14818413528213276
1745500664057046300,5.54404638671875,0.21886603828668594,0.015527239477634429,0.14302551040994002
1745500664067017200,5.554017333984375,0.22260347124934196,0.019835750326514242,0.11850836993469856
1745500664076988200,5.56398828125,0.20722703841924667,0.031791561058163643,0.07009269580659457
1745500664086959000,5.573958984375,0.15804536662101745,0.08450286828726529,0.035221115381736307
1745500664096929300,5.58392919921875,0.08115794177353382,0.14747399598509073,-0.012581669278722256
1745500664106900200,5.593900146484375,-0.009465747481584548,0.2092842632099986,-0.03812533979010768
1745500664116871200,5.60387109375,-0.11598609404861926,0.1785422112047672,-0.1545208640229888
1745500664126842400,5.61384228515625,-0.1668178711414337,0.1749161296620965,-0.1692582500308752
1745500664136813000,5.62381298828125,-0.2087935570836067,0.17219254991710184,-0.14590326693649402
1745500664146784300,5.6337841796875,-0.2727642172127962,0.1493269303753972,-0.12156594914072193
1745500664156754200,5.643754150390625,-0.21336393373906612,0.11594839238673448,-0.07628401559423655
1745500664166725000,5.65372509765625,-0.1617605877518654,0.13115940552204847,-0.010888775155181064
1745500664176696300,5.6636962890625,-0.09377601580619811,0.1006564229696989,-0.014778804863663389
1745500664186667300,5.673667236328125,-0.04170797491669655,0.06737959178984165,-0.03359405303602107
1745500664196638200,5.68363818359375,0.013754384586215019,0.020375848552584647,-0.04444252358027734
1745500664206608400,5.6936083984375,0.0686538495093584,-0.0035240824729204177,-0.020178974273614585
1745500664216579000,5.7035791015625,0.1144289277344942,0.015829437294602393,0.024789381545362994
1745500664226550300,5.71355029296875,0.1432856043845415,-0.021892098334431648,0.0001213796236552298
1745500664236521200,5.723521240234375,0.1414163033813238,-0.05608282948881387,-0.019793217225885017
1745500664246492200,5.7334921875,0.11980652911961077,-0.027009879739582538,-0.03162331008547917
1745500664256463400,5.74346337890625,0.12893208486139773,0.026399638886749743,-0.05678990004593506
1745500664266433300,5.753433349609375,0.09873743760585785,0.02961041762679815,-0.12260859006145038
1745500664276404200,5.763404296875,0.08972411006689071,0.028880934308469292,-0.18883268254008143
1745500664286375200,5.773375244140625,0.043857846426963804,0.02126490634679794,-0.17874244648460297
1745500664296346000,5.78334619140625,-0.010657587614655495,0.023733926808834075,-0.16743724514879285
1745500664306317300,5.7933173828125,-0.07555822207033634,-0.022282558956742287,-0.17414576634410767
1745500664316287200,5.803287353515625,-0.08279577210843563,-0.06593903759270905,-0.12117793620382435
1745500664326258200,5.813258056640625,-0.06732230864465236,-0.10440554637014865,-0.054017202195897694
1745500664336229400,5.8232294921875,-0.05683949307501316,-0.1421183141708374,0.017715068378113208
1745500664346200300,5.833200439453125,-0.008459785309433936,-0.13658143057078123,0.08243551482814364
1745500664356171000,5.8431708984375,0.0477443324714899,-0.10188128858953714,0.14225792357092723
1745500664366142200,5.85314208984375,0.10993804605603218,-0.05251140074282884,0.18544815466832368
1745500664376112000,5.863112060546875,0.13162556172907353,-0.0059361120507121085,0.1533221740240231
1745500664386083000,5.8730830078125,0.13450082490444182,0.0695794399216771,0.11784567737542093
1745500664396054300,5.88305419921875,0.11114449923634528,0.13011223455667495,0.07718870021584444
1745500664406025200,5.893025146484375,0.06752864487171173,0.16330723267197608,0.04804084033318795
1745500664415996400,5.902996337890625,0.013759645283222198,0.1497732128381729,-0.02275561982858926
1745500664425966300,5.91296630859375,-0.01640460683405399,0.1305742991104722,-0.08120618309574201
1745500664435937300,5.922937255859375,-0.05091887085437774,0.09753858321011066,-0.13329756832821293
1745500664445908200,5.932908203125,-0.042839024773240086,0.08426146074682474,-0.18057251145597547
1745500664455879200,5.942879150390625,-0.06913432650268077,0.12587503537833689,-0.1475783422755543
1745500664465850000,5.95285009765625,-0.08906476937532425,0.10468085618019103,-0.16629883396970108
1745500664475821300,5.9628212890625,-0.09839666134417056,0.038329730655252935,-0.1804280066850595
1745500664485791200,5.972791259765625,-0.05805529860556125,0.03106061643511057,-0.11303066004281863
1745500664495762200,5.98276220703125,-0.04387772017121315,0.007995674929022789,-0.052116008217073975
1745500664505733400,5.9927333984375,-0.018331190982460974,-0.014303835162520408,-0.0341393936927896
1745500664515704000,6.0027041015625,-0.025000001221895215,-0.01925415104627609,0.023741881786426527
1745500664525675300,6.01267529296875,-0.0019119711011648178,-0.04347410780638456,0.07255858359662816
1745500664535646200,6.022646240234375,0.017750760746002195,-0.04653407989889383,0.10049657449917868
1745500664545616100,6.0326162109375,-0.004573299264907836,-0.031680209638178344,0.11113019671635702
1745500664555587300,6.04258740234375,0.00613689531981945,-0.027957974244654175,0.13711175632150843
1745500664565558300,6.052558349609375,0.0007581248909235,-0.011766717900335788,0.15452128414809702
1745500664575529200,6.062529296875,0.001415127494931221,-0.005178571681678294,0.12599690819233655
1745500664585500200,6.072500244140625,-0.011185995402932166,-0.022231997813284395,0.08327841365938074
1745500664595471000,6.08247119140625,0.013579028019309044,-0.004856500120460986,0.05701624701456166
1745500664605441300,6.092441162109375,0.039625323423743246,0.01680938824266195,0.02169225578024052
1745500664615412200,6.102412109375,0.052556701189279555,0.04585223511457443,-0.038902552973991256
1745500664625383200,6.112383056640625,0.02741583019196987,0.09065583795905113,-0.03134605491352267
1745500664635354400,6.122354248046875,0.008006196323037148,0.13035247305333614,-0.04715718023329973
1745500664645325000,6.132324951171875,-0.012771218767762183,0.0954042015299201,-0.07160258891289122
1745500664655296300,6.142296142578125,-0.027659575819969175,0.04890168581306934,-0.08187223665588535
1745500664665266200,6.15226611328125,-0.03753331958055496,0.022207155632972715,-0.05275422392222099
1745500664675237000,6.162237060546875,0.014608955588936805,0.011629647517204285,-0.04847870202749036
1745500664685208300,6.172208251953125,0.02214285822510719,0.022075638207793236,-0.02567326997411437
1745500664695179300,6.18217919921875,0.031241525959968566,0.053744449669122694,0.044559272694587704
1745500664705150200,6.192150146484375,0.031308745977282525,0.03038724721819162,0.001998498607147485
1745500664715121200,6.20212109375,0.016125789892673492,0.042452948065102095,0.008019896054826677
1745500664725091300,6.21209130859375,0.0013935001850128173,0.04747516014128923,-0.0033037268536631015
1745500664735062000,6.22206201171875,0.001463058289885521,0.05521335317790508,-0.01154479137849994
1745500664745033200,6.232033203125,0.018393150302767752,0.062491819748282426,-0.022088579887757077
1745500664755004200,6.242004150390625,0.005384615647792816,0.0683013828098774,-0.035003910700790584
1745500664764975400,6.251975341796875,0.00964519570171833,0.06107376964390278,-0.05975253097750246
1745500664774946300,6.2619462890625,-0.02890636101067066,0.031472412106394766,-0.06795844199056737
1745500664784916200,6.271916259765625,-0.04624854095578193,0.01395955176949501,-0.06627890053894371
1745500664794887400,6.281887451171875,-0.05265314730107784,-0.012882862448692321,-0.08242877456010318
1745500664804858000,6.291858154296875,-0.04121054678857326,-0.019668284805119035,-0.06888442512853071
1745500664814829000,6.3018291015625,-0.036702713975310323,-0.013928864370286464,-0.06285525536634959
1745500664824800300,6.31180029296875,-0.012668927437067032,-0.01637333491295576,-0.07812593540018424
1745500664834771200,6.321771240234375,0.026533786660432813,-0.01223638123869896,-0.0515349203934893
1745500664844741000,6.3317412109375,0.05092354702949524,-0.01883504885137081,-0.05244154124385677
1745500664854712300,6.34171240234375,0.07679214777946472,-0.009926350730657577,-0.0419439390970394
1745500664864683300,6.351683349609375,0.09775368726551532,0.036599545861780644,-0.043766861941572276
1745500664874654200,6.361654296875,0.08803659537136554,0.05276069932878017,-0.06682972108842805
1745500664884625200,6.371625244140625,0.06596914047002791,0.09132190065234899,-0.07225334443920292
1745500664894596400,6.381596435546875,0.03482406062185764,0.07691869676858186,-0.0909140596369747
1745500664904566300,6.391566162109375,0.023283260431885718,0.1029261214673519,-0.07418416637131013
1745500664914537200,6.401537109375,-0.025138532909750936,0.061647770139575,-0.07341478030085563
1745500664924508400,6.41150830078125,-0.06163841778934002,0.01943681413680315,-0.07031363594774157
1745500664934479400,6.421479248046875,-0.08561901283562183,0.021040742202103137,-0.0061185285460669545
1745500664944450000,6.431449951171875,-0.04764730183780193,-0.007150456276535987,0.024877105494588613
1745500664954421200,6.441421142578125,-0.034843934366106985,0.004657470417022705,0.08351156482812948
1745500664964391200,6.45139111328125,-0.005679799202084541,0.03649959261864424,0.18573466172581538
1745500664974362000,6.461362060546875,0.027276129460334777,-0.005560264475643634,0.09368626429666764
1745500664984333300,6.471333251953125,0.047964112702012056,0.013015548917651176,0.06357687503863126
1745500664994304300,6.48130419921875,0.07257891399860382,0.049342123056948184,0.021051866384316234
1745500665004275200,6.491275146484375,0.07756780832707881,0.06285276201516389,-0.002834912898670882
1745500665014246100,6.50124609375,0.07665946131050587,0.08835048362612724,-0.01037169247851707
1745500665024217000,6.511217041015625,0.03417991749942303,0.06500263352543115,-0.06498370049609803
1745500665034186800,6.521186767578125,0.008165186277031899,0.015935235756635666,-0.0975589044789318
1745500665044158000,6.531157958984375,-0.015787351718544958,-0.027184359523653983,-0.10280474184369667
1745500665054129000,6.54112890625,-0.03801847274899482,-0.03747223704308271,-0.07247169989761897
1745500665064100000,6.55110009765625,-0.049307928526401514,-0.029747195748984812,-0.04853658796087838
1745500665074071000,6.561071044921875,-0.041783378240466115,-0.006837444804608821,-0.009521496256813406
1745500665084041700,6.571041748046875,-0.04649345562756061,-0.0017211247041821478,-0.00842231197641231
1745500665094012000,6.581011962890625,-0.05473579879403114,0.004549918389320374,-0.017405226110806686
1745500665103982800,6.59098291015625,-0.05397767390310764,-0.0018324761241674422,0.0028684041763190177
1745500665113953800,6.600953857421875,-0.04292436496913433,0.010113397735357283,0.04037534720660187
1745500665123925000,6.610925048828125,0.00246259072124958,0.017508184161782264,0.052840504833031446
1745500665133896000,6.62089599609375,0.02877250549793243,0.03590776420533657,0.07408170151067897
1745500665143867100,6.6308671875,0.012692892834544181,0.043242637138068675,0.036580832028156145
1745500665153837800,6.640837890625,0.0259855051279068,0.07229980479627847,0.0028841588678769764
1745500665163807700,6.650807861328125,0.03659223933815956,0.09473258587867021,-0.004664384214999154
1745500665173779000,6.660779052734375,0.031308745977282525,0.07206921091079711,-0.017697203927859662
1745500665183750000,6.67075,0.03713233756422996,0.06264847161471844,-0.00268361306078732
1745500665193720800,6.680720947265625,0.018248773396015164,0.04716682484447956,0.00872907637064345
1745500665203692000,6.690692138671875,-0.010830606094002724,0.006888298209011554,0.028366436314536256
1745500665213663000,6.7006630859375,-0.02856558474898338,-0.0050189972057938575,0.0069014864841476075
1745500665223633200,6.710633056640625,-0.06102759241461753,-0.018240005567669866,0.007692134538339451
1745500665233603800,6.720603759765625,-0.04987900641262531,-0.019238368955254555,-0.0022148630378767847
1745500665243574800,6.73057470703125,-0.06202537128031253,0.005194938294589519,-0.025717456175712868
1745500665253546000,6.7405458984375,-0.040139118164777755,0.04344079005867243,-0.007638075396697968
1745500665263517000,6.750516845703125,-0.03715162678658962,0.04572802421301603,0.011807926693558693
1745500665273488100,6.760488037109375,-0.019769114831089972,0.012447685901820658,0.02942435700278729
1745500665283459000,6.770458984375,0.008092121040821075,0.011930091768503188,0.04376507184328511
1745500665293429000,6.780428955078125,0.018194412860274314,0.014264379934966563,0.041253865340491754
1745500665303400000,6.79039990234375,0.0206786308914423,0.025988135476410386,0.023834820766886696
1745500665313371000,6.800370849609375,0.002539163088798523,0.03241027747839689,-0.0121726957521867
1745500665323341800,6.810341796875,-0.01767009672522545,0.04189969809651375,-0.021572721053799614
1745500665333313000,6.82031298828125,-0.02375847672820091,0.04822101007252931,-0.001366036789352074
1745500665343284000,6.830283935546875,-0.01836801586151123,0.02010200004726648,-0.006014456250239163
1745500665353255000,6.8402548828125,0.0037929625421762466,0.032487142106890673,-0.0013024335012305527
1745500665363225000,6.85022509765625,0.0077162734657526015,0.03597381517887115,0.006538114798162132
1745500665373195800,6.86019580078125,0.02574409758746624,0.03201923233419657,-0.0020233590537682175
1745500665383167000,6.8701669921875,0.04376490744650364,0.05637450591176748,0.006900500103458762
1745500665393138000,6.880137939453125,0.06963233915269375,0.07160977670550346,0.014050928980531171
1745500665403108900,6.89010888671875,0.08117021673321724,0.09821136790513992,-0.02844398592961952
1745500665413080000,6.900080078125,0.05069032279551029,0.13112082707732914,-0.042702776374015955
1745500665423051000,6.910051025390625,0.01047170965373516,0.1314797235175967,-0.06728210449842736
1745500665433021000,6.92002099609375,-0.015129764592647551,0.1507891118824482,-0.10805125506189651
1745500665442991900,6.929991943359375,-0.05643441940546035,0.1800163754105568,-0.17082279593385755
1745500665452962800,6.939962890625,-0.07016893024742603,0.14680442616045475,-0.21856062559932468
1745500665462934000,6.94993408203125,-0.0513695372313261,0.10139555089920758,-0.2590261261742562
1745500665472905000,6.959905029296875,-0.03979775738120079,0.07104746664762497,-0.2632613525912165
1745500665482876000,6.9698759765625,0.012477788779139519,0.03960457289665937,-0.2129804143141955
1745500665492846800,6.979846923828125,0.06716098060309887,0.014918167668581008,-0.19076852770717814
1745500665502817000,6.989817138671875,0.10695289276540279,-0.03187748577594757,-0.17677388635799288
1745500665512787700,6.99978759765625,0.14017594793140886,-0.07950695969611406,-0.17645250891651956
1745500665522759000,7.009759033203125,0.1624742889791727,-0.08543693426698445,-0.16524656670410184
1745500665532729900,7.019729736328125,0.1277086805462837,-0.10042173743098974,-0.1172952130189631
1745500665542701000,7.029701171875,0.0693295568138361,-0.09768968211859463,-0.11820191606772132
1745500665552672000,7.039672119140625,0.03620002515017986,-0.08067600347548723,-0.07305806668451986
1745500665562643000,7.049642822265625,-0.04355623313188552,-0.1516331614911556,-0.0921354820575565
1745500665572613000,7.059613037109375,-0.08572247321009635,-0.14987521190792322,-0.06852685299566946
1745500665582583800,7.069583740234375,-0.1630319228619337,-0.12970599184334278,0.020068691432708872
1745500665592555000,7.079554931640625,-0.13911036452651024,-0.15965484764426946,0.026448519529774783
1745500665602526000,7.08952587890625,-0.12621581164002418,-0.10989625274091959,0.08849611177504993
1745500665612497000,7.099496826171875,-0.0718780722528696,-0.05311433507204055,0.15754775582980363
1745500665622468000,7.109468017578125,-0.006717325556278228,-0.0030067806005477904,0.1912960404463112
1745500665632438800,7.119438720703125,0.06389058063030242,0.1500283566430211,0.24640958651155231
1745500665642409000,7.129408935546875,0.034001638323068614,0.22116204026937483,0.4573598101723939
1745500665652380000,7.1393798828125,-0.14636545022130013,0.5123755218863487,0.4590819212572649
1745500665662350800,7.149350830078125,-0.15015081397891045,0.7968219935864209,0.16249759678952394
1745500665672322000,7.159322021484375,-0.03909691563546657,0.5632277572453022,-0.23725427495231852
1745500665682293000,7.16929296875,0.026636077991127965,0.19616583843976257,-0.2620779332266189
1745500665692264000,7.179263916015625,0.057116556450724595,-0.3282476195037365,0.056343471452686936
1745500665702235000,7.18923486328125,0.10355623606443405,-0.8405380934551357,0.4056156674750149
1745500665712205800,7.199205810546875,0.12281097163259982,-0.8902484653025865,0.6396607163235545
1745500665722175700,7.20917578125,0.13844400957226752,-0.6258873347759246,0.6918287104561924
1745500665732147000,7.21914697265625,0.09540274022519588,-0.324731135815382,0.5235208199527114
1745500665742118000,7.229117919921875,-0.012000818917155265,0.053524669438600535,0.41827728838846084
1745500665752089000,7.239089111328125,-0.2648953835338354,0.22798107263445852,0.1913922673624009
1745500665762060000,7.24906005859375,-0.47238370323777196,0.16950988670438527,-0.11999120150413363
1745500665772030700,7.25903076171875,-0.5981406651943921,0.17909136952012777,-0.16556083855135365
1745500665782002000,7.269001953125,-0.6321475642144679,0.06646773764193058,-0.21057602005358783
1745500665791971800,7.278971923828125,-0.45639001529216766,-0.17737872038334607,-0.18544978036982937
1745500665801942800,7.28894287109375,-0.21466566398739814,-0.3878662219032645,-0.09842849952084944
1745500665811914000,7.2989140625,-0.04185118277966976,-0.4647063004776835,0.05652427137969061
1745500665821885000,7.308885009765625,0.1165466505408287,-0.40677638181746,0.22160846886262298
1745500665831856000,7.318856201171875,0.24504735824763774,-0.1555357218876481,0.3289576674692333
1745500665841826800,7.328826904296875,0.3839046247959137,0.12386369555592536,0.24006737787798046
1745500665851797800,7.3387978515625,0.5451420654565096,0.41632133201509713,0.10289649351406842
1745500665861769000,7.34876904296875,0.7082306869417428,0.7176105097055435,-0.04905921446233988
1745500665871739000,7.35873876953125,0.7414636789798736,1.0364315446943044,-0.12701704502031205
1745500665881709800,7.368709716796875,0.5682680895000696,0.9598860651522875,-0.405066034235619
1745500665891681000,7.378680908203125,0.1261187810063362,0.8808283105283975,-0.11828048859611152
1745500665901652000,7.38865185546875,-0.049686114189028734,0.39358196920156474,-0.15393398577943443
1745500665911623000,7.398622802734375,-0.07151274607181549,-0.013760229805111884,-0.13439860663898287
1745500665921593900,7.40859375,-0.10360650494694709,-0.10437690479755402,-0.09117650083228945
1745500665931565000,7.41856494140625,-0.05206453375816345,-0.09187135122865438,-0.25542159887626764
1745500665941535000,7.428534912109375,0.00796294170320034,0.04111439293771982,-0.4246180722499266
1745500665951506000,7.438505859375,-0.05479191289544105,0.15428805991411207,-0.5202551692202687
1745500665961477000,7.44847705078125,-0.1415133340150118,0.14688304435461758,-0.5686582213288173
1745500665971448000,7.458447998046875,-0.22883622815907,0.10784428864717482,-0.48297385163940487
1745500665981418800,7.468418701171875,-0.22992869957089423,0.00505202269256115,-0.3530947682514787
1745500665991390000,7.478389892578125,-0.2226326973438263,-0.11304273407310247,-0.2507975923374295
1745500666001361000,7.48836083984375,-0.17814298275411128,-0.18711539376080036,-0.15853892229162156
1745500666011332000,7.49833203125,-0.10455050779879092,-0.2245581124484539,-0.05084876476023346
1745500666021302000,7.508302001953125,-0.03364157283902168,-0.2065413942426443,0.028417043123766778
1745500666031273000,7.51827294921875,0.032064532780647276,-0.20536796654909847,0.08686740546151996
1745500666041244000,7.528243896484375,0.058091538962721824,-0.2028796568647027,0.13215568655040114
1745500666051214800,7.53821484375,0.06899345672726631,-0.19001666816025972,0.15527005668878555
1745500666061185800,7.548185791015625,0.06548749443292617,-0.17876754439324138,0.12623002282846718
1745500666071156700,7.55815673828125,0.09351882617473602,-0.12929127356261014,0.09273578603826463
1745500666081128000,7.5681279296875,0.12599077071249484,-0.03580839548408985,0.09565357318110763
1745500666091099000,7.578098876953125,0.1439484522074461,0.01691664800941944,0.11301485968548804
1745500666101069800,7.58806982421875,0.14436287822723387,0.06297200448065995,0.13932572431024162
1745500666111040000,7.5980400390625,0.11367255640923976,0.10067308184355497,0.16731113455109298
1745500666121010700,7.6080107421875,0.0749193396449089,0.09541764553338289,0.1466319922029972
1745500666130982000,7.61798193359375,0.06091244160234928,0.08912643643468618,0.13393197550792246
1745500666140952800,7.627952880859375,0.0014414309799671173,0.07297463531792163,0.12843885798435659
1745500666150924000,7.637924072265625,-0.02198211470544338,0.06294014803767203,0.08798512091245501
1745500666160895000,7.64789501953125,-0.011464812344312666,0.055826224379241465,0.05898976644407958
1745500666170865700,7.65786572265625,0.056715574434399604,0.07577624873518943,0.07311846423540264
1745500666180836900,7.6678369140625,0.1514595584899187,0.09584551555663347,0.06936641822550445
1745500666190806800,7.677806884765625,0.15756430510580538,0.12784078249335287,0.08127133902013302
1745500666200777700,7.68777783203125,0.1173743335366249,0.12403934438377619,0.025010997539944946
1745500666210749000,7.6977490234375,0.10846621993780135,0.19389526315927505,0.029171953144297002
1745500666220719900,7.707719970703125,0.1370867497444153,0.17998831835985182,0.033718583597987885
1745500666230691000,7.717691162109375,0.11023673674166203,0.12108546301424503,0.02140267084967345
1745500666240661800,7.727661865234375,0.042808045113086696,0.10002104767560958,0.021893924965336917
1745500666250632700,7.7376328125,-0.06764905638098716,0.010564356373250483,-0.011269472435303032
1745500666260604000,7.74760400390625,-0.14213935695886612,-0.04896189156770706,-0.002013641377352178
1745500666270573800,7.75757373046875,-0.1811000789940357,-0.11097878728061913,-0.005868965098634362
1745500666280544800,7.767544677734375,-0.23539982445836066,-0.13655074317157267,-0.027777795372158288
1745500666290516000,7.777515869140625,-0.25332944890260695,-0.11812807451337576,-0.046886948457174
1745500666300487000,7.78748681640625,-0.23640812471807002,-0.08478490009903908,-0.08819920205455273
1745500666310457900,7.797457763671875,-0.14688567470312117,-0.049237785899639126,-0.10990239022076129
1745500666320428800,7.8074287109375,-0.07879588881731033,0.00566109450161457,-0.1440207502586767
1745500666330399700,7.817399658203125,-0.01609364118874073,0.06379471904039383,-0.13180588673204183
1745500666340371000,7.827370849609375,0.044939211922883984,0.037139059565961356,-0.1315436921318993
1745500666350340900,7.8373408203125,0.07023264313340187,0.027604338501393794,-0.09750796887613833
1745500666360311800,7.847311767578125,0.07156126138865947,0.03272475025504827,-0.06799319364354015
1745500666370283000,7.857282958984375,0.04283317955434322,0.012001111178100108,-0.06905530644971877
1745500666380253700,7.867253662109375,0.050585693377256394,0.00704056616127491,-0.03313128522932529
1745500666390225000,7.877224853515625,0.03179682175517082,0.01939589760452509,-0.04524798561111092
1745500666400195800,7.88719580078125,0.02361117721199989,0.020793781703710556,-0.050480187176167965
1745500666410166800,7.897166748046875,-0.02679448342323303,0.0012067454412579535,-0.08427790042497217
1745500666420138000,7.907137939453125,-0.03971417075097561,0.029838088902831076,-0.08724266851469874
1745500666430108700,7.917108642578125,-0.04055237514078617,0.040517303827404975,-0.10503350554276257
1745500666440078800,7.927078857421875,-0.04277063571214676,0.06679945381432771,-0.08259615788310766
1745500666450049800,7.9370498046875,-0.019183423897624015,0.09734481420367956,-0.057441660219244656
1745500666460020700,7.947020751953125,0.01801905629336834,0.08666939867138862,-0.019079780860058963
1745500666469992000,7.956991943359375,0.03808803085386753,0.0988701240748167,0.02101863996814936
1745500666479963000,7.966962890625,0.040536008527874944,0.0843321878954768,0.04529058264382183
1745500666489934000,7.97693408203125,0.03798983117640018,0.09659662618488073,0.07937580759711563
1745500666499904800,7.98690478515625,0.0477922632664442,0.10335632957816124,0.08789985378179699
1745500666509875700,7.996875732421875,0.014797756159305571,0.05560498284399509,0.08409805034603923
1745500666519847000,8.006846923828125,-0.009006313276290893,0.04274199413955211,0.09965035119969397
1745500666529816800,8.01681689453125,-0.048366848284006114,0.0032812136277556416,0.08295319115985185
1745500666539787800,8.026787841796875,-0.060488078710436814,-0.020766309174895286,0.07103325545918196
1745500666549759000,8.036759033203126,-0.04473930543661117,-0.024984511391818523,0.05133092225398868
1745500666559730000,8.04672998046875,-0.028399580532312393,-0.018413900829851625,0.027589323595352468
1745500666569700900,8.056700927734376,-0.004970189628005027,-0.015822715292870996,0.0048907311836257576
1745500666579671800,8.066671875,0.03196633310317993,0.0003638648763298988,0.011042787539958953
1745500666589642800,8.076642822265624,0.05926818152666091,0.0026607436418533323,-0.0010461480520665646
1745500666599614000,8.086614013671875,0.06640168666839599,0.006863748289644718,-0.013409808932244777
1745500666609585000,8.0965849609375,0.06839256822466849,-0.008467091833055019,-0.029342268209904432
1745500666619555800,8.106555908203125,0.0659656333386898,-0.0051209962755441665,-0.02686900996416807
1745500666629526000,8.116526123046874,0.057684711727499956,0.016959025846421717,-0.034784605394303794
1745500666639496700,8.12649658203125,0.009404957205057143,0.029456980630755424,-0.0594908478340134
1745500666649468000,8.136468017578125,-0.025032734447717666,0.007049041728675365,-0.05283292431477457
1745500666659438800,8.14643896484375,-0.026598084068298337,0.0013438158243894577,-0.05644497733209282
1745500666669409800,8.156409912109375,-0.01783376285433769,-0.008282382915914058,-0.06428067592643201
1745500666679381000,8.166381103515626,-0.04291150548756122,-0.001073182189464569,-0.040927492063492533
1745500666689351700,8.1763515625,-0.010553542718291281,-0.01341711545586586,-0.04970134829077869
1745500666699323000,8.186322998046874,0.005994271978735924,0.03996142351031303,-0.04344217829816043
1745500666709293800,8.1962939453125,0.030811902371048926,0.07065320663303136,-0.022389489929936824
1745500666719263700,8.206263671875,0.05467150138616562,0.05593494545072317,-0.04573039883319288
1745500666729235000,8.21623486328125,0.018137714236974717,0.0728211983218789,-0.040191907797940074
1745500666739206000,8.226205810546874,-0.006163198804855346,0.10192892712354659,-0.0244713011726737
1745500666749176800,8.2361767578125,-0.016411036574840544,0.08090104440301656,-0.030367081212997436
1745500666759147800,8.246147705078124,-0.018120178580284117,0.05882979010939598,-0.023979462535120545
1745500666769118700,8.25611865234375,-0.0038812253475189206,0.04725099599659443,-0.020971147564612328
1745500666779090000,8.26608984375,0.010840542966127395,0.03942161754518747,-0.003590060381218791
1745500666789060900,8.276060791015626,0.005747603741288185,0.04054594539999962,0.01770567949526012
1745500666799031800,8.28603173828125,0.025636545559763906,0.036950258995592594,0.03654566025007516
1745500666809002800,8.296002685546876,0.020243746605515478,0.042347149603068825,0.01810096242316067
1745500666818973000,8.305972900390625,0.01896364366710186,0.024712124191224573,0.0096881945932284
1745500666828944000,8.31594384765625,-0.002803366982936859,-0.007442717221379279,-0.01282715020608157
1745500666838914800,8.325914794921875,-0.010468787044286727,-0.0008761983126401901,0.010447561593167483
1745500666848885800,8.3358857421875,-0.012453823381662368,0.013636311164498328,0.005727693464420735
1745500666858857000,8.34585693359375,-0.018409516915678978,0.017354162643849848,-0.009569500117003917
1745500666868828000,8.355827880859374,-0.005485737934708595,0.019493220499157905,0.005907908869534731
1745500666878798800,8.365798828125,0.0010007014751434325,0.0200075997620821,-0.00521364299505949
1745500666888769800,8.375769775390625,-0.0011649521261453627,0.012178513571619986,0.0004578998353332281
1745500666898740700,8.38574072265625,-0.010178279665112495,0.013561492362618445,0.02028269037641585
1745500666908712000,8.3957119140625,0.01453121417760849,0.0227612823843956,0.04179459375422448
1745500666918681900,8.405681884765626,0.0010018705189228057,0.01832008506655693,0.022882095752470195
1745500666928652800,8.41565283203125,0.0028887071788311004,0.021258768866956233,0.003562624385021627
1745500666938624000,8.4256240234375,0.010435469296574592,0.015799626678228377,0.00373600819054991
1745500666948594700,8.4355947265625,0.048040685069561,-0.0016217559829354285,-0.013284611649997531
1745500666958566000,8.44556591796875,0.030372341910004614,0.003159340813755989,-0.00815594352465123
1745500666968536800,8.455536865234375,0.03140168495774269,-0.009255904123187065,-0.006415018141455948
1745500666978507800,8.4655078125,0.04563654653728008,-0.015489245554804802,-0.027909130134247243
1745500666988479000,8.47547900390625,0.007377835291624069,-0.005027765034139156,-0.06663662793543189
1745500666998450000,8.485449951171875,-0.019123218142986297,0.03296732683926821,-0.0126430623434484
1745500667008420900,8.4954208984375,0.022838439273834228,0.03554214576333761,-0.038228169976919885
1745500667018391800,8.505391845703125,-0.020755787780880927,0.028368600872159002,0.030845731575414537
1745500667028362000,8.515362060546876,0.012895721930265426,-0.0006587561696767807,0.04650697269625961
1745500667038333000,8.5253330078125,0.044593759486079215,-0.017417875529825686,-0.008939495117776095
1745500667048304000,8.53530419921875,0.03875497032999992,0.01739332561045885,0.007958813517354429
1745500667058275000,8.545275146484375,0.05003039758205414,0.04107026153504848,-0.04133691311459988
1745500667068246000,8.55524609375,0.05288812510073185,0.03267418911159038,-0.08377258125133812
1745500667078217000,8.565217041015625,0.020877368333935737,0.03331657866835594,-0.07699486727733165
1745500667088188200,8.575188232421874,-0.033932080218195916,0.05449029960036277,-0.06106481915246695
1745500667098159000,8.5851591796875,-0.05208148489296436,0.06628945846557617,-0.05862831272054463
1745500667108130000,8.595130126953125,-0.06954524539113044,0.04192132540643215,-0.0819577869143337
1745500667118101000,8.60510107421875,-0.04565700480341911,0.051176645007729525,-0.06596055530477314
1745500667128072000,8.615072021484375,-0.03966390186846256,0.028940555541217324,-0.07256210899427533
1745500667138041900,8.625041748046876,-0.016976853764057158,0.04776800560802221,-0.0658703562706709
1745500667148013000,8.635012939453125,0.0006909048736095428,0.07515665553212166,-0.03275821413323283
1745500667157984000,8.64498388671875,0.013595979154109953,0.07919716309458016,-0.029449162650480865
1745500667167955200,8.654955078125,0.032953590574860574,0.08912380608618259,-0.0005104337401688098
1745500667177926100,8.664926025390624,-0.0014472761988639832,0.04903232645541429,0.008350662379153072
1745500667187897000,8.67489697265625,-0.03735036422908306,0.02224924120903015,0.03273114346321672
1745500667197868000,8.684867919921874,-0.02713642872869968,-0.012906535585224628,0.06170930933477357
1745500667207839000,8.6948388671875,-0.049691374886035915,-0.01686345651745796,0.07796069836849347
1745500667217810200,8.70481005859375,-0.03946925607919693,-0.030602351273596284,0.08576499717757105
1745500667227781000,8.714781005859376,-0.03661094403862953,-0.03248421949744224,0.09548844574727118
1745500667237752000,8.724751953125,-0.0030097032099962234,-0.015311843161284923,0.12161239123148843
1745500667247723000,8.734722900390626,0.025846388918161392,0.007591770303249359,0.09126752185029909
1745500667257693000,8.74469287109375,0.039485622692108154,0.027527473872900006,0.08275052646091208
1745500667267664000,8.754663818359376,0.0606587591022253,0.05904226381629705,0.07030950776189565
1745500667277635000,8.764635009765625,0.032440380355715746,0.054874915003776545,0.042213476753421124
1745500667287606000,8.77460595703125,0.056397010004520416,0.04923369424641132,0.03008046455765143
1745500667297577200,8.7845771484375,0.038808746343851085,0.04406827430725097,0.01541018896922469
1745500667307548200,8.794548095703124,0.0270440742701292,0.03097118458598852,0.0008628821733407676
1745500667317518800,8.804518798828125,0.031387656432390214,0.004656593634188175,-0.013940025085117666
1745500667327490000,8.814489990234375,0.020008184283971785,-0.0041112347111105915,-0.0015701353935524821
1745500667337461000,8.8244609375,-0.0010194061756134032,-0.01355564714372158,0.0013472133578732609
1745500667347432200,8.83443212890625,-0.01397825646996498,-0.03884878609329462,-0.001019168713595718
1745500667357403100,8.844403076171876,0.01023556281030178,-0.0019268764093518255,0.01137105137994513
1745500667367373000,8.854373046875,-0.004038461735844612,-0.0028647417813539504,-0.021918219156377015
1745500667377344300,8.86434423828125,-0.011581132200360297,0.029277532410621643,-0.003376107103284448
1745500667387315000,8.87431494140625,-0.02752396674156189,0.05623071352690458,-0.0006253288241103291
1745500667397286000,8.884285888671876,-0.021148586490750312,0.06754355017989873,-0.012837050545588135
1745500667407257000,8.894257080078125,-0.016802666240930558,0.093166359475255,-0.0027912929526530206
1745500667417228000,8.90422802734375,-0.022469021439552306,0.09171557614505291,-0.05176350498497486
1745500667427199200,8.91419921875,0.001974514943361282,0.06092150169163942,-0.06828130813622847
1745500667437170000,8.924169921875,0.008377367722988128,0.05869242746531963,-0.03900759338419884
1745500667447141000,8.93414111328125,0.02228665060997009,0.05095657251626253,-0.07756461172299459
1745500667457112000,8.944112060546875,0.029758009403944012,0.027492110298573968,-0.08229880063803865
1745500667467083000,8.9540830078125,0.04045183737576007,0.015906009662151336,-0.12428277948452159
1745500667477054200,8.96405419921875,0.03601940788626671,0.0017205401822924613,-0.14228590755639597
1745500667487025000,8.97402490234375,0.004663315635919571,-0.007816226708889007,-0.11894366521257907
1745500667496995000,8.9839951171875,-0.008090951997041702,-0.02539104636609554,-0.12043472575424238
1745500667506966000,8.993966064453126,0.004830488896369934,-0.0384267612889409,-0.10620844933995977
1745500667516937000,9.00393701171875,0.005561725780367851,-0.04146948998570442,-0.06140329385921359
1745500667526908200,9.013908203125,0.016994389420747755,-0.031762919485568995,-0.029801903344597664
1745500667536879000,9.023879150390625,0.01598258202970028,-0.025771277855336665,-0.0221668784215115
1745500667546850000,9.03385009765625,0.02788286318182945,0.019539689989387987,-0.017574417798407373
1745500667556821000,9.043821044921875,0.004985971719026565,0.04441869518011808,0.005025518278125673
1745500667566792000,9.0537919921875,-0.007969371443986892,0.04946750300228595,-0.008647307238169014
1745500667576763100,9.06376318359375,0.007526303851604461,0.060004094585776324,0.0007273826927877963
1745500667586734000,9.073734130859375,-0.013292612293362616,0.050858665099740026,-0.035871816109120845
1745500667596705000,9.083705078125,-0.007270867785811424,0.05417290421426296,-0.04765919320499524
1745500667606676200,9.09367626953125,0.00997194343805313,0.06799976951479911,-0.04115888966657221
1745500667616647000,9.10364697265625,0.002467266896367073,0.06870791778415442,-0.038465759858768434
1745500667626616800,9.113616943359375,0.006047463470697402,0.0698129564166069,-0.03839620175389573
1745500667636588000,9.123588134765624,0.00452653751373291,0.04650105441212654,-0.018728556269593535
1745500667646559000,9.13355908203125,-0.0032920272827148436,0.02586655492335558,0.0024602708999998868
1745500667656530200,9.1435302734375,-0.026677579045295715,0.03602583762705326,-0.013105254761409014
1745500667666501000,9.153501220703125,-0.03305003668665886,0.02867635164707899,0.013002744235005229
1745500667676472000,9.16347216796875,-0.05731295580565929,0.035305706658959386,0.012896379517391324
1745500667686443000,9.173443115234376,-0.0667021309196949,0.013824819473922252,0.006399619642924517
1745500667696414000,9.1834140625,-0.011019406664371489,0.02594400407373905,0.04924027011767029
1745500667706385200,9.19338525390625,-0.0038712884753942488,0.05086655614525079,0.034711668022256344
1745500667716356000,9.203356201171875,0.007746668604016304,0.04031447473168373,0.0484470739133656
1745500667726327000,9.2133271484375,-0.03698796065747738,0.03068330755531788,0.053838228899799286
1745500667736298000,9.223298095703125,-0.03976502415537834,0.016480302418768404,0.05702893296619877
1745500667746269000,9.23326904296875,-0.04786708206832409,-0.01900368341654539,0.08656241289926693
1745500667756240100,9.243240234375,-0.040351884132623674,-0.005594751267135143,0.11334303219392895
1745500667766210000,9.2532099609375,0.04114332677125931,-0.017066285613179206,0.12163960803197696
1745500667776181000,9.263180908203125,0.06227788473665714,-0.021639877139031885,0.09539992721360176
1745500667786152200,9.273152099609375,0.04743453586995602,-0.015221242268383502,0.077148523469083
1745500667796123100,9.283123046875,0.03380699253380298,0.01969429602921009,0.045723475902061904
1745500667806094000,9.293093994140625,0.006930091524124145,0.04308978466391563,0.026965803135838358
1745500667816065000,9.30306494140625,0.019146014496684072,0.04885083240866661,0.00023280410887673497
1745500667826036000,9.313035888671875,0.014902970099449157,0.06447510251998902,-0.04782236614376306
1745500667836007200,9.323007080078124,-0.031095980009436607,0.084650752325356,-0.0978483250127174
1745500667845978000,9.33297802734375,-0.057038815039396285,0.08085048325955867,-0.09158665253575891
1745500667855949000,9.342948974609374,-0.04158054914474487,0.08295388527959585,-0.0837147318505682
1745500667865920000,9.352919921875,-0.034682021802663804,0.08610796539634466,-0.06511157379262149
1745500667875891000,9.362890869140625,-0.003319499811530113,0.06146919870227575,-0.041315687663480635
1745500667885862100,9.372862060546876,0.0010217442631721496,0.020042963336408138,-0.036927005984168496
1745500667895833000,9.3828330078125,0.006444353833794593,-0.024438860207796096,-0.03296992065515369
1745500667905803000,9.392802978515626,0.03507540503442287,-0.021401976729929446,-0.0024737514360807836
1745500667915774200,9.402774169921875,0.06707271779775618,-0.006902034473419189,0.014863679268676787
1745500667925745000,9.412744873046876,0.058448681837320327,-0.007566635861992835,-0.004576020944956689
1745500667935716000,9.422716064453125,0.05375438654124737,-0.005193476989865302,0.0006902838191017508
1745500667945687000,9.43268701171875,0.020436638829112053,0.012812135300040245,-0.002538596833217889
1745500667955658000,9.442657958984375,-0.010233224722743033,0.024940087728202342,-0.0011263554151169956
1745500667965629200,9.452629150390624,-0.020005261674523354,0.01787263356000185,-0.0017042649009265005
1745500667975600000,9.46260009765625,-0.016346154645085334,0.008072247296571732,-0.00861561519196257
1745500667985571000,9.472571044921875,-0.0010889642804861068,0.012920271849632263,-0.027690007490850984
1745500667995542000,9.4825419921875,0.02506780576109886,0.026023499050736427,-0.02875851350519806
1745500668005513000,9.492512939453125,0.046082536739110946,0.009726736505329608,-0.02143063656883314
1745500668015484200,9.502484130859376,0.037519291055202485,0.016800620414316653,-0.03797501719975844
1745500668025455000,9.512455078125,0.03701251057684421,0.028429098887741564,-0.03854978488041088
1745500668035426000,9.522426025390626,0.04530804523527622,0.018712299254536626,-0.05596028082137927
1745500668045397200,9.532397216796875,0.017773557099699973,0.021432079607248303,-0.04143960630409419
1745500668055368200,9.5423681640625,0.021079028385877607,0.02044979057163,-0.03375818495601415
1745500668065339100,9.552339111328125,0.039947394984960555,0.013331775259971618,-0.04591465109260753
1745500668075309300,9.562309326171874,-0.013911036452651022,0.02952244708240032,-0.050496900848951184
1745500668085280300,9.5722802734375,0.0016243863314390182,0.040869770526885986,-0.035975386081449685
1745500668095251200,9.582251220703125,-0.028589550146460533,0.024881927800178526,-0.022107585982326417
1745500668105222100,9.59222216796875,-0.027009587478637694,0.031041911734640597,0.0019963431826792656
1745500668115193000,9.602193115234375,-0.02588379831910133,0.012140519648790359,-0.02356167551446706
1745500668125164300,9.612164306640626,-0.02659925311207771,0.028741525837779044,0.0073832421191036696
1745500668135135200,9.62213525390625,-0.08113397637605667,0.040139994947612286,0.019390819570608436
1745500668145106200,9.632106201171876,-0.24469781415760516,0.04758008182048797,0.02708497253609821
1745500668155077000,9.6420771484375,-0.3652683133870363,0.02137041254788637,0.04876202161405235
1745500668165048000,9.652048095703124,-0.2886497686088085,0.013989070124924181,0.03659417556691914
1745500668175019300,9.662019287109375,-0.0971446154564619,0.017901567393541335,-0.02111658391728997
1745500668184990200,9.671990234375,0.07693769372999668,0.0766793350547552,-0.03169990071933716
1745500668194961200,9.681961181640625,0.20434417645931244,0.12185703190863131,-0.044926315908692775
1745500668204932000,9.69193212890625,0.24523732786178587,0.13288666770607233,-0.04194039543308317
1745500668214903000,9.701903076171876,0.2388800677895546,0.11691460707038641,-0.009295980405248701
1745500668224874200,9.711874267578125,0.2104232041120529,0.06954232278168201,0.012859919964522123
1745500668234844200,9.72184423828125,0.1380529644280672,0.050235564765334126,0.04021178154218942
1745500668244815000,9.731815185546875,0.07352233232855797,-0.006663549542427063,0.0589865881063044
1745500668254786300,9.741786376953126,0.04137362839579582,-0.029745734444260596,0.0527028316617012
1745500668264757200,9.75175732421875,0.0040630116552114485,-0.056495501942932604,0.0485739882286638
1745500668274728200,9.761728271484374,-0.0036819033831357955,-0.04728343696147203,0.04382924138698727
1745500668284699100,9.77169921875,-0.025395722541213035,-0.03712327747493982,0.04790668342635035
1745500668294670000,9.781670166015624,-0.03404956911802292,-0.01698328350484371,0.015641440441831946
1745500668304641300,9.791641357421875,-0.007471943315863609,-0.008923603428900242,-0.017168467346020042
1745500668314612200,9.8016123046875,0.006689853027462959,0.020621055485308168,-0.020222521154396236
1745500668324583200,9.811583251953126,0.02700315773785114,0.03252718185633421,-0.023288155802711843
1745500668334554000,9.82155419921875,0.04632686688899994,0.058823360368609426,-0.016602357895858583
1745500668344525000,9.831525146484376,0.05730068084597587,0.04506459186822176,-0.026080051543563604
1745500668354496300,9.841496337890625,0.02153203285038471,0.03138414930105209,-0.0035777306226082144
1745500668364467200,9.85146728515625,0.003062310180068016,0.03750497026890516,0.01096964923851192
1745500668374438400,9.8614384765625,0.005863923597335815,0.017440671883523464,0.005401146657485515
1745500668384409000,9.8714091796875,-0.02040273655951023,0.005893149691820144,-0.009426164389867335
1745500668394380000,9.881380126953125,-0.07098375376164913,-0.0067328153863549225,-0.027683121092338114
1745500668404351200,9.891351318359375,-0.05498889677226543,-0.007808627924323082,-0.03529385182438418
1745500668414322200,9.901322265625,-0.06247311504781246,0.012435995464026928,-0.015828030788805333
1745500668424293400,9.91129345703125,-0.03280103036165237,0.010503858357667923,-0.010042871516104787
1745500668434263300,9.92126318359375,0.01633621777296066,0.025106968727707863,-0.005356375933997333
1745500668444234200,9.931234130859375,0.043914545050263404,0.03001139964312315,0.012177709854021668
1745500668454205200,9.941205078125,0.05164367799758911,0.04570288977175951,0.013563264194596558
1745500668464176000,9.951176025390625,0.08535422441959381,0.09516483981609344,-0.006220408884808421
1745500668474147000,9.96114697265625,0.07980418907701968,0.08019231161177158,-0.0383413297615014
1745500668484118300,9.9711181640625,0.03247603619098663,0.06259264977425337,-0.08806878060791641
1745500668494089200,9.981089111328124,-0.01829553514719009,0.03360825509130955,-0.10504077553376555
1745500668504060200,9.99106005859375,-0.07764847234785556,0.031745676089823247,-0.032015158947277814
1745500668514031000,10.001031005859375,-0.09028408203721046,0.0013365093007683753,-0.024350012880563734
1745500668524002000,10.011001953125,-0.06282733531296253,0.014040215790271758,-0.04326245608339086
1745500668533973200,10.02097314453125,-0.06577157207131386,0.005041209037601947,-0.009754757023416459
1745500668543944200,10.030944091796876,-0.07954524587988852,-0.01687660825997591,-0.014791344684828072
1745500668553915100,10.0409150390625,-0.09782499893605709,-0.005980535714328289,-0.012288111425936221
1745500668563886000,10.050885986328124,-0.08191782023012638,-0.009980711266398429,-0.013280118137970566
1745500668573857000,10.06085693359375,-0.005174187767505645,-0.02161357365399599,-0.03733209792003035
1745500668583828200,10.070828125,0.04662380400896072,-0.007042027465999126,-0.03365463324999437
1745500668593799200,10.080799072265625,0.08218962290883064,0.04018208052366972,-0.025606186954118308
1745500668603770400,10.090770263671875,0.11212357340157031,0.08002455382943154,-0.010852982322592287
1745500668613741000,10.100740966796875,0.11455927611589431,0.06853314573913812,-0.04865050579728558
1745500668623712300,10.110712158203125,0.06476794798672199,0.0666001318499446,-0.05433425052212551
1745500668633683200,10.12068310546875,0.015640052202343938,0.08683218801766633,0.019018570458423346
1745500668643654100,10.130654052734375,-0.002599368843436241,0.039187516528367994,-0.0017000453835353255
1745500668653625300,10.140625244140624,0.011971008300781249,0.04004179527014494,-0.0034184849402867255
1745500668663595300,10.15059521484375,-0.02506663671731949,0.034493805754184724,0.04018134987130761
1745500668673566200,10.160566162109374,-0.012187865921854972,0.008683364932239056,-0.018776761059183626
1745500668683537200,10.170537109375,-0.02674655262827873,-0.02343903551548719,-0.005089815685991197
1745500668693508000,10.180508056640624,-0.07591361137926578,-0.012004033787548541,0.02075978810256347
1745500668703479300,10.190479248046875,-0.02656885797381401,-0.028559739530086517,0.025657935407664624
1745500668713450200,10.2004501953125,0.1032405942440033,-0.007549976988136768,0.05159819488804787
1745500668723421200,10.210421142578125,0.20779344013035297,0.034115620091557504,0.1344459894446656
1745500668733392100,10.22039208984375,0.2261824987798929,0.05124591085165739,0.17429801603006198
1745500668743363000,10.230363037109376,0.12396598688662051,0.05310439819991588,0.18529669043365865
1745500668753334300,10.240334228515625,0.05102876096963882,0.024285130950808524,0.18565460049323737
1745500668763305200,10.25030517578125,-0.017298925325274467,0.01630874524414539,0.1442257530451752
1745500668773276200,10.260276123046875,-0.0848842688202858,-0.011707388928532599,0.06658736369991675
1745500668783247400,10.270247314453124,-0.15686404788196087,0.007833762365579604,0.026598120600916444
1745500668793218000,10.280218017578125,-0.1642348689109087,0.02821311804950237,-0.03943564607053995
1745500668803189200,10.290189208984375,-0.16602759754657745,0.023946108254790304,-0.11765557989710941
1745500668813160200,10.30016015625,-0.13602408894896506,0.020255729304254053,-0.14726300184922292
1745500668823131100,10.310131103515625,-0.09787409877479075,0.015460896243155001,-0.15652922643702477
1745500668833102300,10.320102294921876,-0.02821662518084049,0.0153346395149827,-0.12154221207210793
1745500668843073000,10.330072998046875,0.035083588340878484,0.018705284991860388,-0.090586133723706
1745500668853044200,10.340044189453126,0.023403087419271468,-0.013350772221386432,-0.046554574697650966
1745500668863015200,10.35001513671875,-0.028773090019822117,-0.0601774053260684,0.03796383821861818
1745500668872986000,10.359986083984374,-0.05691840353012085,-0.06335866571068763,0.004933839672990143
1745500668882957300,10.369957275390625,-0.2081839007526636,-0.08112491628676652,-0.04381692989468574
1745500668892928000,10.379927978515624,-0.16840543259382246,0.02261047573685646,-0.07459518572445958
1745500668902899200,10.389899169921875,-0.07549217109680176,0.08965630552768707,-0.09849385637464002
1745500668912870100,10.3998701171875,0.08112403950393199,0.042481297376751895,-0.2102230236311443
1745500668922841000,10.409841064453126,0.17819091354906558,0.031177520813047883,-0.19715057516079396
1745500668932812300,10.419812255859375,0.20387188277244567,0.08086334274113177,-0.17056339607900006
1745500668942783200,10.429783203125,0.20832477052807807,0.1360872173130512,-0.11202818673569709
1745500668952754200,10.439754150390625,0.22245850982069967,0.13961743726581335,-0.0532655253120698
1745500668962724000,10.44972412109375,0.21104922705590723,0.1348766724795103,-0.025180508887954055
1745500668972695000,10.459695068359375,0.16453180603086948,0.09057137454599141,-0.0002482756726443767
1745500668982666200,10.469666259765624,0.10537293009757995,0.052721828623116015,0.034806342302076514
1745500668992637200,10.47963720703125,0.009980126744508743,0.05154430927634239,0.0581194316166453
1745500669002608400,10.4896083984375,-0.062193129062652584,0.019987433756887912,0.044401451784372326
1745500669012579300,10.499579345703125,-0.07701251253187656,0.008128361397981643,0.05591150977620855
1745500669022550000,10.509550048828125,-0.10328209529817103,-0.013282967682182787,0.04836693961555138
1745500669032521200,10.519521240234376,-0.1050134491354227,0.01404576874822378,0.05891249995678663
1745500669042492200,10.5294921875,-0.06102817693650722,0.01209726502895355,0.0345385764776729
1745500669052463400,10.53946337890625,-0.0435486343473196,0.023680735316872596,0.06718142060292884
1745500669062434300,10.549434326171875,0.00670680416226387,0.024035832364857197,0.05325178904766217
1745500669072405000,10.559405029296874,0.047963528180122374,0.00003945522755384445,0.07687058331053703
1745500669082376200,10.569376220703125,0.09248597599565982,0.04074643640816211,0.1282387871013023
1745500669092347100,10.57934716796875,0.05306231262385845,0.06282412044256926,0.13693747746683657
1745500669102318300,10.589318359375,0.034250060126185415,0.0015936989322304725,0.10409574976861476
1745500669112289300,10.599289306640625,0.03116729167997837,-0.0544391539350152,0.04246597194345668
1745500669122260000,10.609260009765626,-0.02497369773685932,-0.02534223878830671,0.03568370965849608
1745500669132231200,10.619231201171875,-0.04763444235622882,-0.010306289958953857,0.019502353653684256
1745500669142202000,10.6292021484375,-0.03293722396194935,-0.007950374482572077,-0.013912333360593766
1745500669152173300,10.63917333984375,-0.01519172391295433,0.011651859349012373,-0.030847759135719386
1745500669162144300,10.649144287109374,-0.01407236449420452,0.020151099886000154,-0.038989528004545713
1745500669172115200,10.659115234375,-0.01828033757805824,0.03929302272945642,-0.011649028071109204
1745500669182086100,10.669086181640624,0.011257891595363617,0.043536067126691336,-0.04417272106241434
1745500669192057000,10.67905712890625,0.03175122904777527,0.02717354586869478,-0.045014834442362185
1745500669202028300,10.6890283203125,0.03313829949200153,0.007666004583239555,-0.023829532670415935
1745500669211999200,10.698999267578126,0.04329027567207813,0.014487082774937153,-0.019172427579574287
1745500669221970200,10.70897021484375,0.06907353622615336,0.018370061688125133,-0.019507870079018174
1745500669231941000,10.718941162109376,0.08399754911363125,0.021484394316375253,-0.015110676299687474
1745500669241912000,10.728912109375,0.1821025340348482,0.042245735055208206,-0.04929196377228945
1745500669251883300,10.73888330078125,0.07661036147177219,0.059093409481644626,0.0008800342375412583
1745500669261854200,10.748854248046875,0.00537350973188877,0.07976794871985912,-0.07994725080952048
1745500669271825200,10.7588251953125,-0.07651976057887076,0.06605185031741857,-0.10098603851655498
1745500669281796000,10.768796142578125,-0.1456692846506834,0.016079904924333095,-0.1263818706556223
1745500669291767000,10.77876708984375,-0.17124562445580957,-0.007053425642848015,-0.08639644521521404
1745500669301738200,10.78873828125,-0.16910861242711542,-0.013797346945106983,-0.0787923451533541
1745500669311709200,10.798709228515625,-0.15011515814363954,0.017457038496434686,-0.0746695296023041
1745500669321680100,10.80868017578125,-0.07003682830035686,0.030195524038374423,-0.04852930883672088
1745500669331651300,10.8186513671875,-0.00698912823498249,0.049723815850913525,-0.031131818507798014
1745500669341622000,10.8286220703125,0.02799450686275959,0.04603197559565306,-0.027678737178165463
1745500669351593200,10.83859326171875,0.0681570059031248,0.04854717328697443,-0.017770214365143328
1745500669361564200,10.848564208984374,0.0654950932174921,0.033519700025022026,-0.011110519013926385
1745500669371535400,10.858535400390625,0.07753507510125636,0.019822014062106607,0.030106037390325215
1745500669381506300,10.86850634765625,0.08696692031323909,0.0152387779250741,0.06500794902136549
1745500669391477000,10.87847705078125,0.05192483302652835,0.0005704933643341064,0.06707660852158442
1745500669401448200,10.8884482421875,0.012183774268627165,-0.007913841864466666,0.06422386770527809
1745500669411419100,10.898419189453126,-0.032331074762344356,-0.031244740830361842,0.046873888046201316
1745500669421390300,10.908390380859375,-0.04109013527929783,-0.01357522862702608,0.05723247444797307
1745500669431361300,10.918361328125,-0.045370004555582995,0.012357085008919239,0.06456005912339315
1745500669441332200,10.928332275390625,-0.030718378868699072,0.026560382406413553,0.0391747666446492
1745500669451303200,10.93830322265625,-0.024827567264437675,0.0159314363643527,0.045706305571552364
1745500669461274000,10.948274169921875,-0.054177580389380454,0.006107376964390277,0.02841488769929856
1745500669471245300,10.958245361328125,-0.05899345623850822,0.0007908581167459487,0.01888197499932721
1745500669481216300,10.96821630859375,0.017734394133090973,0.00860562352091074,0.06017457404816523
1745500669491186200,10.978186279296875,0.04123042053282261,0.03935673561543226,0.0404266846681945
1745500669501157400,10.988157470703126,0.027127660900354383,0.05156856693476438,0.004841777475364506
1745500669511128000,10.998128173828125,0.0035772739648818968,0.04440671248137951,-0.005651011499017477
1745500669521099000,11.00809912109375,-0.00931143370270729,0.02646247498989105,-0.017940858224313704
1745500669531070200,11.0180703125,0.021529694762825964,0.058356327378749843,0.0138754354163073
1745500669541041200,11.028041259765626,0.02636193722486496,0.08014350403398275,0.001232665333803743
1745500669551012400,11.038012451171875,0.012130582776665687,0.06812807206958532,-0.012688855980243533
1745500669560983300,11.0479833984375,-0.0032610476225614546,0.0595847001299262,-0.017185747274383902
1745500669570954000,11.0579541015625,0.0012725041538476944,0.03806903389245272,-0.020840178128704426
1745500669580925200,11.06792529296875,0.011043956583738326,0.04597440018951893,0.0037857473501004277
1745500669590896000,11.077896240234375,0.01622398957014084,0.05944879879057407,-0.03408606520351022
1745500669600867300,11.087867431640625,0.00948269861638546,0.01160363629311323,-0.052896874662768094
1745500669610838300,11.09783837890625,0.01825461861491203,0.010941665253043175,-0.06333597895484418
1745500669620809000,11.10780908203125,0.001052139401435852,0.010253098466992377,-0.030403285037539897
1745500669630780200,11.1177802734375,-0.004843932899832725,0.018564707477390766,-0.03428843764150515
1745500669640751000,11.127751220703125,0.01627835010588169,0.024316402871906756,-0.014037494110222905
1745500669650722300,11.137722412109374,0.035765140864253045,0.03613543548136949,0.0008564158999361097
1745500669660693200,11.147693359375,0.04517185163497925,0.024355273577570915,-0.0303796849662438
1745500669670664200,11.157664306640624,0.02944353662729263,0.0240574596747756,-0.020361582565214482
1745500669680635100,11.16763525390625,0.038834465306997294,0.03682020287513733,-0.051436209259368475
1745500669690606000,11.177606201171875,0.02388064180314541,0.02097001505345106,-0.0526744823500514
1745500669700577300,11.187577392578126,0.01039981346130371,0.020271511395275593,-0.04713281297702342
1745500669710548200,11.19754833984375,0.016121113717556,0.011183949576318263,-0.02301080016605556
1745500669720519200,11.207519287109376,0.015011691170930862,0.0028676643908023833,-0.028344124018028376
1745500669730490000,11.217489990234375,-0.015840543210506437,-0.00040419688671827314,-0.010435615427047013
1745500669740461000,11.2274609375,-0.01460135680437088,-0.026766426372528074,-0.007207648090180009
1745500669750432300,11.237432373046875,-0.005620177969336509,-0.03280015357881784,-0.0032641528951004146
1745500669760403200,11.2474033203125,0.011767594683170318,-0.04177870206534862,0.0072090728622861205
1745500669770374400,11.25737451171875,0.03239946382343769,-0.04193506167083978,0.034906898333411665
1745500669780345000,11.267344970703125,0.04687631746530532,-0.02275602168738842,0.04448699290966615
1745500669790316000,11.27731591796875,0.07787935849428176,-0.013102350418269633,0.05899398596147075
1745500669800287200,11.287287353515625,0.10991524970233439,0.025147300738096234,0.03015816943636164
1745500669810258200,11.297258056640626,0.07142565231025219,0.02375993803292513,0.008006378986127674
1745500669820229400,11.3072294921875,0.05315642064809799,0.029059213484823702,-0.014859149224031715
1745500669830200300,11.317200439453124,0.026394670450687406,0.021368074460327624,0.0002554177994839847
1745500669840171000,11.3271708984375,-0.006432078874111175,0.01518120251893997,-0.013825824120920151
1745500669850142200,11.33714208984375,-0.02484042674601078,0.027968203377723693,0.009324293184280396
1745500669860113200,11.347113037109375,-0.04031038307845592,0.030052023914456365,-0.014611001415550709
1745500669870084400,11.35708447265625,-0.04320201286673546,0.011524725838005541,-0.03275423207785934
1745500669880055300,11.36705517578125,-0.03869301100969314,0.02710603359043598,-0.02078808261528611
1745500669890026000,11.37702587890625,-0.023753800553083418,0.040434301719069476,-0.021433084254246206
1745500669899997200,11.3869970703125,-0.039521278527379036,0.06061579674333334,-0.027684089206717905
1745500669909968100,11.396968017578125,-0.04131108455359935,0.08888619793802499,-0.03853891642652452
1745500669919939300,11.406939208984374,-0.04253039721548557,0.08760989439189433,-0.038785712528135625
1745500669929910300,11.41691015625,-0.06545417668521404,0.0754141374245286,-0.005603135502990335
1745500669939881000,11.426880859375,-0.04468026872575283,0.07560527608245611,0.00301940262010321
1745500669949852200,11.43685205078125,-0.03521393672227859,0.08216478072851896,0.01166028011748567
1745500669959823000,11.446822998046875,-0.02061141087412834,0.07166618306785821,0.02952191735943779
1745500669969794300,11.456794189453126,-0.002008417212963104,0.07065700602531433,0.03540788839180022
1745500669979765200,11.46676513671875,0.03250760037302971,0.04464139802008867,0.01961485585113987
1745500669989736200,11.476736083984376,0.03572714694142341,0.022024784803390502,-0.00042419849513098594
1745500669999707100,11.48670703125,0.032094343397021295,-0.01963409027457237,0.0002332059676758945
1745500670009678000,11.496677978515624,0.02643149532973766,-0.010599719947576523,0.025377054373361168
1745500670019649300,11.506649169921875,0.015384616136550903,-0.010493044702708721,0.046408535556774586
1745500670029620200,11.5166201171875,-0.0003086275577545166,-0.034838673669099804,0.03925539413280785
1745500670039591200,11.526591064453125,-0.010570493853092193,-0.03386164533048868,0.03581062397379428
1745500670049562000,11.53656201171875,-0.018604747226834296,-0.03674216920286417,0.044386984867602584
1745500670059533000,11.546532958984375,-0.026249124500155447,-0.029729075570404526,0.03007264657737687
1745500670069504300,11.556504150390625,-0.0026098902374505997,-0.013633973076939582,0.0294399564307183
1745500670079475200,11.56647509765625,0.014952654460072516,0.0032002573460340497,0.03783529820181429
1745500670089446100,11.576446044921875,0.035191140368580814,0.03144786218702793,0.01355329078985378
1745500670099417000,11.5864169921875,0.06302373466789722,0.05863865145146847,-0.009570230769366025
1745500670109388000,11.596387939453125,0.06419803914427757,0.07986760970205069,-0.0282949876466766
1745500670119359200,11.606359130859374,0.0934364085882902,0.06991729357391595,-0.015738836401700974
1745500670129330200,11.616330078125,0.06066460432112217,0.07354600546509027,-0.017065865488070993
1745500670139301400,11.62630126953125,-0.005975567278265953,0.07032733567953109,0.03797658810233697
1745500670149272300,11.636272216796876,-0.07531564548611641,0.056448740191757676,0.011274824463855474
1745500670159243000,11.646242919921875,-0.1386105983108282,0.011738368588685988,-0.014821027437038718
1745500670169214200,11.656214111328126,-0.13813362844884394,-0.03448240757733583,-0.03290481952968985
1745500670179185200,11.66618505859375,-0.10638824461996554,-0.00865267753303051,-0.035733211356028916
1745500670189156400,11.67615625,-0.07084346850812434,0.03706511754691601,-0.04945661628209054
1745500670199127300,11.686127197265625,-0.043300212544202805,0.0600707300812006,-0.06582229761155321
1745500670209098000,11.696097900390624,0.007202478724718094,0.0552647911041975,-0.0703510453486815
1745500670219069200,11.706069091796875,0.06760989341437816,0.06322364115417003,-0.07073237281646579
1745500670229040000,11.7160400390625,0.053312487992644306,0.046642508709430694,-0.018726455644052474
1745500670239011300,11.72601123046875,0.07080021388828754,-0.00452566073089838,-0.02894289362877607
1745500670248982300,11.735982177734375,0.08718260889053345,-0.007344517543911934,0.012959398283623158
1745500670258953200,11.745953125,0.06196750361323356,-0.012306523865461348,0.017682280353363604
1745500670268924200,11.755924072265625,0.048969490352272986,-0.01206862345635891,0.01565826371246949
1745500670278895000,11.76589501953125,0.005276479098200798,-0.016613573409616948,0.017612831846345215
1745500670288866300,11.7758662109375,0.034489714100956914,-0.03132452806830406,-0.017178659946471452
1745500670298837200,11.785837158203124,0.058229486128687856,-0.011499006874859332,-0.017363514994084835
1745500670308808200,11.79580810546875,0.05372399140298366,-0.004918751701712608,-0.021771102303266524
1745500670318779100,11.805779052734374,0.02511573655605316,0.01117021331191063,-0.03264750203406438
1745500670328750000,11.81575,-0.003217208480834961,0.01267594169974327,-0.03783664990868419
1745500670338721300,11.82572119140625,-0.03448854505717754,0.0029360534518957137,-0.012541556464042513
1745500670348692200,11.835692138671876,-0.05240998619496822,0.00656476534307003,-0.0005892345974221825
1745500670358663200,11.8456630859375,-0.04473579830527305,0.0179445297524333,-0.00444998341249302
1745500670368634000,11.855634033203126,-0.03434007649719715,0.04062807072550058,0.0004498809256590903
1745500670378605000,11.86560498046875,-0.004956745624542236,0.054414896276593204,0.01340173522364348
1745500670388576300,11.875576171875,0.02731996860206127,0.04932926357537508,0.008638393279351293
1745500670398547200,11.885547119140625,0.08752338515222072,0.07115034250020981,0.028229210667777806
1745500670408518100,11.89551806640625,0.04671966559886932,0.10475947437435387,0.08915471268109977
1745500670418489300,11.9054892578125,-0.018285598275065422,0.09009586598873139,0.0320991291699931
1745500670428460000,11.9154599609375,-0.03431552657783031,0.06324176133275032,0.036988399048894643
1745500670438431200,11.92543115234375,-0.07607260133326053,0.041627018634974956,0.05347122221831232
1745500670448402200,11.935402099609375,-0.05689677622020244,0.06214987444281578,0.02120873744646087
1745500670458373000,11.945373046875,-0.04636076915860176,0.054421910539269445,-0.0010486140037886797
1745500670468344300,11.95534423828125,-0.023308394873142242,0.06254208863079548,0.003110533235967159
1745500670478315000,11.96531494140625,0.020489245799183844,0.041459260852634905,-0.010009498969465494
1745500670488286200,11.9752861328125,0.019007482808828354,0.02270838315337896,-0.0005233297543600201
1745500670498257200,11.985257080078124,0.03955108914375305,-0.0019908815562725067,0.009709164316020905
1745500670508228000,11.99522802734375,0.041515082693099975,-0.011185703141987323,-0.005165821797959506
1745500670518199300,12.00519921875,0.034991233882308,-0.03739887954592704,-0.022812994305323808
1745500670528171300,12.015171142578126,0.03474105851352215,-0.04247603667974472,-0.01061760266413912
1745500670538141200,12.02514111328125,0.04358136757314205,-0.05175181454718113,0.005473298578243703
1745500670548113200,12.035113037109374,0.05365794042944908,-0.07667728922814131,-0.012798033709451555
1745500670558084400,12.04508447265625,0.01934650550484657,-0.08112550080865621,0.007503927623014896
1745500670568055000,12.055054931640624,0.013994038560986518,-0.06206979494392872,0.025450466669443995
1745500670578026200,12.065026123046875,0.024344167661666867,-0.03388298037946224,0.050297725015040484
1745500670587997200,12.0749970703125,0.012355039182305336,0.004470131151378154,0.03282037438293919
1745500670597968100,12.084968017578126,0.00978723452091217,0.051076984025537966,0.017348006897699088
1745500670607939300,12.094939208984375,0.011033435189723969,0.07636690810471773,0.01218353680660948
1745500670617910300,12.10491015625,-0.005202829340100288,0.09650690207481384,-0.008594682001788168
1745500670627881200,12.114881103515625,-0.0172451493114233,0.10693418806493282,-0.024626272538676858
1745500670637852200,12.12485205078125,-0.033064649733901025,0.0847074509486556,-0.027372465974278747
1745500670647823000,12.134822998046875,-0.032303602233529086,0.08858253881633281,-0.013351996064092963
1745500670657794300,12.144794189453124,-0.05108604411482811,0.08376286357492208,-0.04302992596914992
