time,seconds_elapsed,z,y,x
1746477415897861000,0.019861083984375,1.7997551733046768,-1.7029150937527417,0.6341749783888458
1746477415907840000,0.029840087890625,2.4130109900444743,-1.9071002802580594,0.6519637330576777
1746477415917819100,0.039819091796875,2.8894337395399807,-2.0774305434346196,0.6619020664870738
1746477415927798000,0.049798095703125,3.2371494451016187,-2.22237911259532,0.6360705828770995
1746477415937777200,0.059777099609375,3.503678567317128,-2.292403665935993,0.7193310498878359
1746477415947756000,0.069756103515625,3.596498305311799,-2.3439757400020955,0.831236888885498
1746477415957734100,0.079734130859375,3.5822371402472255,-2.321667754343152,0.8499880588456988
1746477415967713000,0.089713134765625,3.3978485411018133,-2.2480182885035873,0.8605173439055681
1746477415977692200,0.099692138671875,2.965055089974403,-2.1648422849059106,0.8919429942607879
1746477415987671000,0.109671142578125,2.26286777485013,-2.0544164553329347,0.8423544952273369
1746477415997650200,0.119650146484375,1.464507319650054,-1.9312869192704558,0.7058499292850494
1746477416007628800,0.12962890625,0.8863982196152209,-1.750517095144093,0.5778206384822726
1746477416017608000,0.13960791015625,0.4961585465788841,-1.6197218467593193,0.56500353474617
1746477416027586800,0.1495869140625,0.3042407209724188,-1.489444192507863,0.5894038165092468
1746477416037566000,0.15956591796875,0.26726854240596293,-1.3079916468143462,0.5961141278028488
1746477416047544800,0.169544921875,0.4189467120826244,-1.2143065241619944,0.4468339591786265
1746477416057524000,0.17952392578125,0.5827630633205175,-1.1836150333002209,0.34508594157993794
1746477416067502800,0.1895029296875,0.6095791740536689,-1.125592467920482,0.29159605119377374
1746477416077482000,0.19948193359375,0.5385024813115596,-0.9889899945616721,0.29249416907727716
1746477416087461000,0.209461181640625,0.436562448272109,-0.8346193709306419,0.29063363590240476
1746477416097440000,0.21943994140625,0.4235656040549278,-0.6816394710056484,0.3252639275178313
1746477416107419100,0.229419189453125,0.46233226482272144,-0.49892391963899135,0.3810369604051113
1746477416117398000,0.23939794921875,0.5449409899264573,-0.36009558692425486,0.3728112761124968
1746477416127377200,0.249377197265625,0.72744567502141,-0.24796134599819777,0.32662323317229747
1746477416137355000,0.25935498046875,0.8474556177586317,-0.2223437973998487,0.31292905434072016
1746477416147334100,0.269334228515625,0.8683136968702078,-0.32189006717056035,0.24734949771016834
1746477416157313000,0.27931298828125,0.6619108343154192,-0.4060490904562175,0.13408698340654374
1746477416167292200,0.289292236328125,0.24734803640544414,-0.4813037995353341,-0.09765051915198564
1746477416177271000,0.29927099609375,-0.17457973731458187,-0.556813360158354,-0.5016241185083985
1746477416187250200,0.309250244140625,-0.5112906492590904,-0.5664373669415712,-0.817350110091269
1746477416197229000,0.31922900390625,-0.9429846147119998,-0.6714091688923537,-0.8715805897116661
1746477416207208000,0.3292080078125,-1.4277356320917605,-0.8330717030972242,-0.6415332321971654
1746477416217186800,0.339186767578125,-1.931374305292964,-0.7824787031963467,-0.3569610882908106
1746477416227166000,0.349166015625,-2.2435990107566117,-0.41445641492605206,0.01097410621792078
1746477416237144800,0.359144775390625,-2.151018342214823,0.10006927073150873,0.5692749284550547
1746477416247124000,0.3691240234375,-1.68322372033298,0.541834548343718,1.039144018523395
1746477416257102800,0.379102783203125,-0.9860855052918195,0.9241454742074012,1.2830761090055107
1746477416267082000,0.38908203125,-0.38031098421812054,1.244636195974052,1.376585290569067
1746477416277060900,0.399060791015625,-0.0274058933198452,1.394688810275495,1.313874567373097
1746477416287040000,0.4090400390625,0.05297638790607452,1.4659727160274982,1.0729469194039702
1746477416297019000,0.419018798828125,-0.17946400222480297,1.5366387821421026,0.9707201783776283
1746477416306998000,0.428998046875,-0.5439595776736736,1.5415633790627121,1.0307461925342678
1746477416316976000,0.43897607421875,-0.7854185560405254,1.4766095531150698,1.1546224553108215
1746477416326955000,0.448955078125,-0.9361831180036068,1.3112135314702986,1.1911518585458398
1746477416336934100,0.45893408203125,-1.1146358973592518,1.2623995239406824,1.0601973279461263
1746477416346913000,0.4689130859375,-1.1928110239297152,1.2537234655320644,1.00370884026587
1746477416356892200,0.47889208984375,-1.1113386093795299,0.907701996667683,0.9999646853014826
1746477416366871000,0.48887109375,-1.03584293115139,0.5983958089992404,0.7803262013375759
1746477416376850200,0.49885009765625,-0.9167769912660121,0.2598983058989048,0.6614259734079241
1746477416386829000,0.5088291015625,-0.7564753701508045,-0.05948123975545168,0.6616261721551417
1746477416396808200,0.51880810546875,-0.3032435266286135,-0.26127047103494405,0.7871960871070623
1746477416406786800,0.528786865234375,0.29881226618289947,-0.5190723891764879,1.0230965545639394
1746477416416766000,0.538765869140625,0.9322872796088456,-0.6675748514264822,1.361047821958363
1746477416426744800,0.548744873046875,1.5685083768725394,-0.7097276475012302,1.784972906975448
1746477416436724000,0.558723876953125,2.264973807218671,-0.6453688648372888,2.157612333652377
1746477416446702800,0.568702880859375,2.9362217941999433,-0.5304197126209735,2.5293746852338312
1746477416456682000,0.578681884765625,3.53504401191771,-0.3464467085391283,2.8790871175706383
1746477416466660900,0.588660888671875,4.03378380716145,-0.17874840130135417,3.3741590379565953
1746477416476640000,0.598639892578125,4.300352676865458,-0.14121654302552342,3.876782396635413
1746477416486619000,0.608618896484375,4.541162251412868,0.13950564745441077,3.8364416184186934
1746477416496598000,0.618597900390625,4.867186349648237,0.4136927370771765,3.760288937586546
1746477416506576100,0.628576171875,5.196432332539558,0.5725146410286426,3.624773382681608
1746477416516555000,0.638554931640625,5.356383825042844,0.6096190676726401,3.2589754924625156
1746477416526534100,0.6485341796875,5.412443565917015,0.517573821181804,2.8413801949888464
1746477416536513000,0.658512939453125,5.339188360092043,0.4158331101067364,2.5236639063715933
1746477416546492200,0.6684921875,5.019518599319458,0.4330088474437594,2.1382138056993485
1746477416556471000,0.678470947265625,4.678785007730126,0.64850920868963,1.7746300843983887
1746477416566450200,0.6884501953125,4.368137926846742,0.9738707513630389,1.5186714560359715
1746477416576429000,0.698428955078125,4.002677890279889,1.4230389987081289,1.2484493245214223
1746477416586408200,0.708408203125,3.7309582136839627,1.9848224023640155,1.0081956302911042
1746477416596386800,0.71838671875,3.613649931120872,2.6086346844315527,0.7677788544535636
1746477416606366000,0.728365966796875,3.376962989461422,3.244264830064773,0.4482791895508766
1746477416616344800,0.7383447265625,2.9988246731072663,3.7624230270057915,0.03402209658920765
1746477416626324000,0.748323974609375,2.686684138795733,4.055487397186458,-0.5116285029113292
1746477416636302800,0.758302734375,2.4530074848681687,4.304719932164252,-1.1150187591969967
1746477416646282000,0.768281982421875,2.2502526234269142,4.432995014421642,-1.6684084285169838
1746477416656260900,0.7782607421875,1.939361796915531,4.568418507128953,-1.948905285808444
1746477416666240000,0.788239990234375,1.5883236689329145,4.597243327336013,-1.8350135336905717
1746477416676219000,0.798218994140625,1.1812857135698198,4.561163421434164,-1.6046704080998897
1746477416686198000,0.808197998046875,0.9212129278868436,4.55925817233473,-1.674652291342616
1746477416696176000,0.818176025390625,0.9730901223793625,4.755189617496729,-2.0650755042523143
1746477416706155000,0.828155029296875,1.3329311500206589,4.953575177812576,-2.418532383814454
1746477416716134100,0.838134033203125,1.6047458114236592,4.949602767050266,-2.5581980441361662
1746477416726113000,0.848113037109375,1.5635387717664242,4.838847559392452,-2.6053987712502478
1746477416736092200,0.858092041015625,1.3931447957038878,4.833000586929917,-2.7192800019741057
1746477416746071000,0.868071044921875,1.00210491220057,4.956752054283022,-2.7053473382115363
1746477416756050200,0.87805029296875,0.41802082940936086,4.7774879585444925,-2.429432548013329
1746477416766029000,0.888029052734375,-0.005530453859269618,4.601010863175988,-2.044837602865696
1746477416776008200,0.89800830078125,-0.7159303015336393,4.673119237053394,-1.687573147714138
1746477416785987000,0.907987060546875,-1.495995806108415,4.6270454681426285,-1.3808593146264552
1746477416795966000,0.917966064453125,-2.196994934361428,4.682181664431095,-1.222390169635415
1746477416805944800,0.92794482421875,-2.9063348977193235,4.614464218989014,-1.1322346824139355
1746477416815924000,0.937924072265625,-3.3693265032336113,4.217371026796102,-1.297424660092592
1746477416825902800,0.94790283203125,-3.2851457065075635,3.7299399765521284,-1.8219629134595392
1746477416835882000,0.957882080078125,-3.1600872482091185,3.257133663988113,-2.582395496803522
1746477416845860900,0.96786083984375,-2.694924143874645,2.706115984496474,-3.268014538964629
1746477416855840000,0.977840087890625,-2.4429811808943747,2.257158749553561,-3.4374756180912254
1746477416865819000,0.98781884765625,-2.244755195054412,1.8003659986793994,-3.1811639385074377
1746477416875798000,0.997798095703125,-2.2366702344067395,1.2617927902191877,-2.958213261255622
1746477416885776100,1.007776123046875,-2.483192195251584,0.663285629799962,-2.8608032728612423
1746477416895755000,1.017755126953125,-2.787354005768895,-0.038511224702000614,-2.70761586766541
1746477416905734100,1.027734130859375,-2.959657614845037,-0.8121843978911638,-2.4787843156814575
1746477416915713000,1.037713134765625,-3.083165921092033,-1.677775976321101,-2.193114439666271
1746477416925692200,1.047692138671875,-3.070762366592884,-2.3832430437684056,-1.966007227256894
1746477416935671000,1.057671142578125,-2.9544769973367453,-2.968582095056772,-1.6641390806347132
1746477416945650200,1.067650146484375,-2.7245897988200185,-3.410478305572271,-1.274696110934019
1746477416955629000,1.077629150390625,-2.4060879127830264,-3.7395296426743267,-0.871577082580328
1746477416965608200,1.087608154296875,-2.00590727596879,-3.953187590923905,-0.4179284749507904
1746477416975587000,1.097587158203125,-1.6232161186158656,-4.134668778190017,0.04979366621673107
1746477416985566200,1.107566162109375,-1.2690724258333443,-4.234782764846086,0.4857014499723911
1746477416995544800,1.117544921875,-0.9141526341117918,-4.311003250217437,0.7959761904120445
1746477417005524000,1.12752392578125,-0.6351182505883276,-4.412680248406529,1.062126542443037
1746477417015502800,1.1375029296875,-0.3729465929299593,-4.505345672622322,1.2580489275157452
1746477417025482000,1.14748193359375,-0.16460443287566304,-4.477095729693771,1.2533148847311735
1746477417035460900,1.1574609375,-0.05027173205725848,-4.3314428116559975,1.1414642830520867
1746477417045440000,1.16743994140625,-0.01772606469616294,-4.187860854673385,0.9666939916014671
1746477417055418000,1.177418212890625,-0.05400967647656798,-4.005554907020926,0.7572545378297567
1746477417065397000,1.18739697265625,-0.19611235468685626,-3.7967800546377894,0.5047860896706581
1746477417075376000,1.197376220703125,-0.4398269299607724,-3.454421492195129,0.14285539627373217
1746477417085355000,1.20735498046875,-0.6729383512210101,-3.061014295038581,-0.18066753279566763
1746477417095334100,1.217334228515625,-0.8509405372649431,-2.6455396429806948,-0.47808454522788524
1746477417105313000,1.22731298828125,-1.0702660097569228,-2.312780683532357,-0.8011001092970371
1746477417115292200,1.237292236328125,-1.311526250681281,-2.0233663602918384,-1.2491706245332956
1746477417125271000,1.24727099609375,-1.6003233188062906,-1.7732354151695966,-1.7084166137784718
1746477417135250200,1.257250244140625,-1.8559516923010348,-1.5800094295740126,-2.1967449051231145
1746477417145229000,1.26722900390625,-2.116609876656532,-1.4307406591266394,-2.749347223457694
1746477417155208200,1.277208251953125,-2.453095163151622,-1.313913438078761,-3.2631086467444894
1746477417165187000,1.28718701171875,-2.710548998507857,-1.2997913892239332,-3.7577024282246825
1746477417175166200,1.297166259765625,-2.8623820664852855,-1.1509300305336714,-4.291571989038586
1746477417185145000,1.30714501953125,-2.9307816489726304,-0.8004092044234276,-4.885142862099409
1746477417195124000,1.3171240234375,-3.0053257255643606,-0.4317874889552593,-5.324948822337388
1746477417205102800,1.327102783203125,-3.208976074540615,-0.2668336581200361,-5.452283993396163
1746477417215082000,1.33708203125,-3.451504727965593,-0.24050270055532455,-5.392340689086914
1746477417225060900,1.347060791015625,-3.6414766802012917,-0.2704980258464813,-5.325856000310182
1746477417235039000,1.3570390625,-3.6953532318174838,-0.1396387723147869,-5.463260729962587
1746477417245018000,1.36701806640625,-3.6275685663580894,0.09121697897315025,-5.64300354912877
1746477417254997000,1.3769970703125,-3.6871886300623413,0.21724106743335722,-5.536099756202101
1746477417264976100,1.38697607421875,-3.8757109680116173,0.35158114881813524,-5.230631539261341
1746477417274955000,1.396955078125,-4.076224188005924,0.5026975929588079,-4.8177325829103586
1746477417284934100,1.40693408203125,-4.165761251068115,0.5313584547758102,-4.516425869563221
1746477417294913000,1.4169130859375,-4.204916034370661,0.6231985340833663,-4.358242555776238
1746477417304892200,1.42689208984375,-4.157837472331524,0.7445435248166322,-4.353966778153181
1746477417314871000,1.43687109375,-4.088100503760576,0.7767559416353702,-4.282964904212951
1746477417324850200,1.44685009765625,-4.009495169079304,0.768227767264843,-4.242233080852031
1746477417334829000,1.4568291015625,-3.788941031575203,0.9285159443765878,-4.315048141694069
1746477417344808200,1.46680810546875,-3.4968986979186534,1.150384087088704,-4.416064045625925
1746477417354787000,1.476787109375,-3.182410139176249,1.4314906007111072,-4.328222096043825
1746477417364766200,1.48676611328125,-2.893693150550127,1.8214461961090564,-4.070381891718506
1746477417374745000,1.4967451171875,-2.746155733940005,2.2451129224509,-3.603109832406044
1746477417384724200,1.50672412109375,-2.7689555947691202,2.620798000434041,-3.0229192499220368
1746477417394702800,1.516702880859375,-2.8194921883076427,2.8487638754993676,-2.2701456568986176
1746477417404682000,1.526681884765625,-2.7290397639662025,3.031644992691278,-1.5540934825509787
1746477417414660000,1.53666015625,-2.470785718142986,3.263911195299029,-0.9689771341025829
1746477417424639000,1.546638916015625,-2.089151376366615,3.4535651676267385,-0.5245587116330862
1746477417434618000,1.5566181640625,-1.6292589059114455,3.5407764180898664,-0.05899053362905979
1746477417444597000,1.566596923828125,-1.125261847726628,3.48226519241035,0.33017771078348157
1746477417454576000,1.576576171875,-0.7000455538552254,3.1192835286557674,0.743322458589077
1746477417464555000,1.586554931640625,-0.4337525784831494,2.5458102717280386,1.1622107184827326
1746477417474534100,1.5965341796875,-0.18933774598538874,1.8374533280581236,1.5159920076936482
1746477417484513000,1.606512939453125,0.053319648385792964,1.1256553040236235,1.7224790414005517
1746477417494492200,1.6164921875,0.2775876918464899,0.5717635304003954,1.8335662574917078
1746477417504470500,1.626470458984375,0.470748941642791,0.1568272230029106,1.9483523281008004
1746477417514449700,1.63644970703125,0.7638982136279344,-0.20498247436285016,2.1741806066155434
1746477417524428500,1.646428466796875,1.1012317875154316,-0.3995832554429769,2.4397879378110168
1746477417534407700,1.65640771484375,1.4340665886789559,-0.5114034619837999,2.7611054657906293
1746477417544386600,1.666386474609375,1.7458476420283318,-0.5537579181104898,3.0487948649346825
1746477417554365700,1.67636572265625,1.996203628078103,-0.4727390925467014,3.3178041135281324
1746477417564344600,1.686344482421875,2.2285237528301773,-0.31749533934295177,3.67049936106801
1746477417574323700,1.69632373046875,2.5240128659397363,-0.14862579636871814,4.054425028651952
1746477417584302600,1.706302490234375,2.7443986611396074,0.116154436352849,4.229446079993248
1746477417594280400,1.716280517578125,2.845533515276015,0.44852293517887587,4.361400727546215
1746477417604259600,1.726259521484375,2.861680055695772,0.6787526635229587,4.544564753332734
1746477417614238500,1.736238525390625,2.7991455658495425,0.8586877903908491,4.64367803851366
1746477417624217600,1.746217529296875,2.633821148136258,0.9954863708436489,4.6944046016663314
1746477417634196500,1.756196533203125,2.4480957474291323,1.0702648407131432,4.650302425089478
1746477417644175600,1.766175537109375,2.242176868999004,1.184159515440464,4.629695690390467
1746477417654154500,1.776154541015625,2.163854150651395,1.3384434837013481,4.674409861385822
1746477417664133600,1.786133544921875,2.1581011400826275,1.6325097244009374,4.714024663415551
1746477417674112500,1.796112548828125,2.2136066080749033,2.0052742387622593,4.890020697268843
1746477417684091600,1.806091552734375,2.3095108680814502,2.3245552924782036,4.936957805010676
1746477417694070500,1.816070556640625,2.4522324088424443,2.646902163505554,4.738828265282511
1746477417704049700,1.826049560546875,2.675473885734379,2.9040988092303275,4.492765592512488
1746477417714028500,1.836028564453125,2.8560353278070685,3.128707190561294,4.266147040402889
1746477417724007700,1.846007568359375,2.96964884750545,3.3708737326756117,4.148550588548183
1746477417733986600,1.855986572265625,2.9978251406759022,3.666894614574313,4.028621309831738
1746477417743965700,1.865965576171875,2.909685084930062,4.004675201576948,3.9153865603178737
1746477417753944600,1.875944580078125,2.66968156606853,4.329531132815778,3.803097567221522
1746477417763922400,1.88592236328125,2.3391513885855675,4.565113035842776,3.8241508766442536
1746477417773901600,1.895901611328125,1.9330263102836907,4.6753547410205005,3.8763574492216106
1746477417783880400,1.90588037109375,1.5316814519956707,4.809526480101049,3.7599890778571363
1746477417793859600,1.915859619140625,1.2164198630541563,5.191231256765127,3.285706262999773
1746477417803838500,1.92583837890625,1.1782935460165143,5.590899852403998,2.5553145976543425
1746477417813817600,1.935817626953125,1.2921236310750246,5.616804108989238,1.9932991388082504
1746477417823796500,1.94579638671875,1.5285897695906459,5.165923212507367,1.6906033091902732
1746477417833775600,1.955775634765625,1.8168956931978464,4.556961878091097,1.3388386204987763
1746477417843754500,1.96575439453125,2.083541719791293,4.215818536657094,0.7957762839257717
1746477417853733600,1.975733642578125,2.2592688735753295,4.0098201632499695,0.3495107722848654
1746477417863712500,1.98571240234375,2.254345591828972,3.8374949268639087,0.1085252566486597
1746477417873691600,1.995691650390625,1.9994782658345995,3.6508489041805263,0.06458616167902946
1746477417883670500,2.00567041015625,1.5838370250381528,3.5336996115714308,0.09913958866596222
1746477417893649700,2.015649658203125,1.0844254680126906,3.6655168964803218,0.15515315231084822
1746477417903628500,2.025628662109375,0.44461657539010047,3.8707325950771567,0.341771702465415
1746477417913607700,2.035607666015625,-0.24122926126420496,3.9582589028388258,0.589634702655673
1746477417923586600,2.045586669921875,-0.8018903828918933,4.000741369259357,0.6159452019542455
1746477417933564700,2.055564697265625,-1.0986814454454927,3.9054029264420267,0.3710241004347801
1746477417943543600,2.06554345703125,-1.1485994686942547,3.706191436696052,-0.07942658793628216
1746477417953522700,2.075522705078125,-1.0227676879357546,3.3834739787906405,-0.5977069499522447
1746477417963501600,2.08550146484375,-0.77217555504255,2.8613936399698257,-1.0020762706279753
1746477417973480400,2.09548046875,-0.4786433481544256,2.3107786960601806,-1.2865601517289875
1746477417983459600,2.10545947265625,-0.1405143861055374,1.691976351109147,-1.4251064526319503
1746477417993438500,2.1154384765625,0.07411386848092079,1.1261463024109601,-1.6229203505396843
1746477418003417600,2.12541748046875,0.2619651753008366,0.5232388612061739,-1.7102631184279917
1746477418013396500,2.135396484375,-0.0032891046732664107,0.13497779476642607,-1.7111954308420418
1746477418023375600,2.145375732421875,-0.3553262536305934,-0.6339870546013117,-1.279714815878868
1746477418033354500,2.1553544921875,-0.573568022539094,-1.775398146161437,-1.3017086210221052
1746477418043333600,2.165333740234375,-0.5763211206395179,-2.191827322465181,-1.310414490047097
1746477418053312500,2.1753125,-0.2791870168019086,-2.465805007120967,-1.374925248402357
1746477418063291600,2.185291748046875,-0.18677454443387687,-3.137791829770803,-1.4462164606779813
1746477418073270500,2.1952705078125,-0.006019369887374341,-3.593739361992478,-1.5199194102704525
1746477418083249700,2.205249755859375,0.2243482690900564,-3.914375337448716,-1.6092074670076368
1746477418093228500,2.215228515625,0.39946646066289393,-4.0474791550368066,-1.5123451756238937
1746477418103206700,2.22520654296875,0.5339578601518645,-3.8954198770880697,-1.0184253478825092
1746477418113185500,2.235185546875,0.35237894813232123,-4.0354058554053305,-0.24043781862556932
1746477418123164700,2.24516455078125,0.2917962499409914,-3.773810097938776,-0.23416180709600448
1746477418133143600,2.2551435546875,0.2924754643768072,-3.5993823363155126,-0.07568681688606739
1746477418143122700,2.265122802734375,0.08563238377384841,-3.486260984048247,0.0045019875943660735
1746477418153101600,2.2751015625,-0.0776783560294658,-3.307804697561264,0.012771218767762183
1746477418163080400,2.28508056640625,-0.17293248156420885,-3.105191874939203,0.097519293987751
1746477418173059600,2.2950595703125,-0.47643612043373285,-3.0059575937271115,0.22571780387759208
1746477418183038500,2.30503857421875,-0.6978840649724006,-2.8770342766940593,0.2466916183233261
1746477418193017600,2.315017578125,-0.7336714176684618,-2.723926950997114,0.25572189699709413
1746477418202996500,2.32499658203125,-0.70960906262286,-2.6988766808927056,0.1917752022653818
1746477418212975600,2.3349755859375,-0.6867267111420631,-2.7392092758029696,-0.05018821849226951
1746477418222954500,2.34495458984375,-0.6104342565130442,-2.6959365357875824,-0.5238789126753807
1746477418232933600,2.35493359375,-0.43631585309989745,-2.5459388665437697,-1.1490221510857344
1746477418242912500,2.36491259765625,-0.2066191356539726,-2.3254455193161965,-1.7351397855311632
1746477418252891600,2.3748916015625,-0.048972486026957626,-1.999730048638582,-2.3060639424979685
1746477418262870500,2.38487060546875,0.0584890138477087,-1.6234399904996155,-2.720051570868492
1746477418272848600,2.3948486328125,0.03839209183435887,-1.26663730764091,-3.043370501798391
1746477418282827500,2.40482763671875,-0.07711421934068202,-0.9733978731542825,-3.2834839107751845
1746477418292806700,2.414806640625,-0.23229013147260993,-0.7611755106657743,-3.513533021855354
1746477418302785500,2.42478564453125,-0.3886982888132334,-0.5619353793472052,-3.795732591411471
1746477418312764700,2.4347646484375,-0.5257388613283633,-0.46629240062534805,-4.079541934251785
1746477418322743600,2.44474365234375,-0.7196078210026026,-0.4888526074796915,-4.355629742929339
1746477418332722700,2.45472265625,-0.912899857571721,-0.6131745681971311,-4.658576916959881
1746477418342701600,2.46470166015625,-0.9620628246694802,-0.5963607960402966,-5.139015331837535
1746477418352680700,2.4746806640625,-0.9216285229504108,-0.42708325678706166,-5.635131208318471
1746477418362659300,2.484659423828125,-0.9115373370468616,-0.21816110488772392,-5.970659632480144
1746477418372638500,2.494638427734375,-0.9167284759491682,-0.09111118051111698,-6.246984757044911
1746477418382617600,2.50461767578125,-0.9415805931329727,0.07890051823556422,-6.51935149937272
1746477418392596500,2.514596435546875,-0.9338245721787214,0.38980069709718224,-6.804952401804924
1746477418402575600,2.52457568359375,-0.9537298806101083,0.7192541852593421,-7.044607545620202
1746477418412554500,2.534554443359375,-1.0109235939502716,0.9700292735040187,-7.135799974673986
1746477418422533600,2.54453369140625,-1.201190729740262,0.7646434790372848,-7.0508841416716574
1746477418432511500,2.554511474609375,-1.370734810975194,0.2873790180206299,-7.074456740438937
1746477418442490600,2.56449072265625,-1.4981927316308021,-0.18161621182262896,-7.342078334066271
1746477418452469500,2.574469482421875,-1.4839046785593033,-0.4924550158858299,-7.537766910383104
1746477418462448600,2.58444873046875,-1.4589754044860601,-0.5874667109668255,-7.493397022780775
1746477418472427500,2.594427490234375,-1.4637006794422864,-0.5715045872032642,-7.037788513255119
1746477418482406700,2.60440673828125,-1.4477280342847108,-0.45568332832753655,-6.216333013671636
1746477418492385500,2.614385498046875,-1.4181407052725552,-0.2284796698063612,-5.377024462011456
1746477418502365000,2.624364990234375,-1.3752286152631044,0.17875497717261313,-4.629202938437461
1746477418512343800,2.63434375,-1.3300146780520676,0.6627794338434935,-3.92192151504457
1746477418522323000,2.644322998046875,-1.33346043459177,1.014145478606224,-3.199596251776814
1746477418532301800,2.6543017578125,-1.4629782103866338,1.2471347347915172,-2.440015316826105
1746477418542281000,2.664281005859375,-1.600517964595556,1.2756798612743616,-1.687369734096527
1746477418552259800,2.674259765625,-1.7664122911512852,1.030290557721257,-0.9536211595386266
1746477418562239000,2.684239013671875,-1.9496604880899189,0.624204496255517,-0.4253595017343759
1746477418572217900,2.6942177734375,-2.0831845769166946,0.10596446624994277,-0.03777764973044395
1746477418582197000,2.704197021484375,-2.074410903352499,-0.37629122718274594,0.2619856335669756
1746477418592175900,2.71417578125,-1.979410898709297,-0.6996101581126452,0.4984697461307048
1746477418602154000,2.724154052734375,-1.8215479029178618,-0.8767126919031143,0.8070248231709003
1746477418612133000,2.734133056640625,-1.677561456787586,-0.9553379003286361,1.1477098994433879
1746477418622112000,2.744112060546875,-1.540218686455488,-0.8173504023522138,1.4776023635447024
1746477418632091100,2.754091064453125,-1.3042968839496374,-0.67056292732656,1.8854677096426486
1746477418642070000,2.764070068359375,-1.1308569643199444,-0.4048264167934656,2.22961432454586
1746477418652049000,2.774048828125,-1.0601929440319537,-0.09739128369390963,2.5170740065872668
1746477418662027800,2.78402783203125,-0.9853308875322341,0.22375030319690703,2.716347455653548
1746477418672007000,2.7940068359375,-0.9429436981797218,0.5657751036405563,2.8964053321182726
1746477418681985800,2.80398583984375,-0.9605769700258969,0.9799433492749929,3.0669775873571634
1746477418691965000,2.81396484375,-1.0048901590049266,1.382887021061778,3.2953906216681004
1746477418701943800,2.82394384765625,-1.0615274075061083,1.6380325794756412,3.625057460319996
1746477418711923000,2.8339228515625,-1.109476907160878,1.853769087564945,3.9196488939374685
1746477418721901800,2.84390185546875,-1.1003396609812974,2.0507003574192524,4.080507564413547
1746477418731881000,2.853880859375,-1.0597703347057104,2.207795875969529,4.23151236487329
1746477418741859800,2.86385986328125,-1.0091367105334996,2.360847964347899,4.302798316451907
1746477418751839000,2.8738388671875,-0.8712474122345447,2.4200536020323633,4.314852326861024
1746477418761817000,2.883817138671875,-0.7191255904436111,2.442219841133058,4.274961045977473
1746477418771796000,2.8937958984375,-0.5334025278240442,2.5805706194639204,4.195366115736961
1746477418781775000,2.903775146484375,-0.31283085466325283,2.7451313593283295,4.1403742963552475
1746477418791754000,2.91375390625,-0.10953004977703094,3.0058462423071264,4.0777866150170565
1746477418801733000,2.923733154296875,0.04659983861148357,3.4081764583706855,4.014053855296969
1746477418811712000,2.9337119140625,0.1400000068426132,3.8033568026795983,4.037900010308623
1746477418821691100,2.943691162109375,0.2436158641397953,4.180647562293708,4.14092900762856
1746477418831670000,2.953669921875,0.3349520855784416,4.472846840077638,4.21631187313199
1746477418841649200,2.963649169921875,0.3917068229794502,4.788203413826227,4.1250358574479815
1746477418851627800,2.973627685546875,0.4233920010536909,5.070128258094191,4.125067421630025
1746477418861607000,2.98360693359375,0.4927957921475172,5.184781642234325,4.094761130693555
1746477418871585800,2.993585693359375,0.5506096832126379,5.255695837891102,4.149243246987462
1746477418881565000,3.00356494140625,0.48187809229195117,5.341121373981237,4.120418719041347
1746477418891543800,3.013543701171875,0.4497738485554233,5.50836945323348,4.013925845003127
1746477418901523000,3.02352294921875,0.39239239409081633,5.678319192659854,3.8636721551716326
1746477418911501800,3.033501708984375,0.31213520054928956,5.628873316967487,3.8114071304053065
1746477418921481000,3.04348095703125,0.2808118415247649,5.358531942987442,3.7797447486847635
1746477418931459000,3.053458984375,0.2964705984275788,5.170817414289712,3.490690490928292
1746477418941438000,3.06343798828125,0.3565466622710228,5.006014974623918,3.11137085583508
1746477418951417000,3.0734169921875,0.3468787432808429,4.684768758314847,2.8133880262136457
1746477418961396000,3.08339599609375,0.28273616065084933,4.305607236392796,2.483147187066078
1746477418971375000,3.093375,0.19529519308507443,4.104233600176871,2.084210997354984
1746477418981354000,3.10335400390625,0.11125015156790613,4.067281587615609,1.6778274142473935
1746477418991333000,3.1133330078125,0.1359095226585865,4.220751609145105,1.4248042548149824
1746477419001312000,3.12331201171875,0.23735958022400735,4.423356832982599,1.4784452441096305
1746477419011291100,3.133291015625,0.23841420384347436,4.395780843792855,1.5207921014517545
1746477419021270000,3.14327001953125,0.3375659213386476,4.333730630332231,1.3033657405793666
1746477419031249200,3.153249267578125,0.4233857174433768,4.1658325627386565,0.8244587730526923
1746477419041228000,3.16322802734375,0.4218003479480743,3.5068963603198524,0.09199673117399215
1746477419051207000,3.17320703125,0.8697082199685275,3.150724376580119,-0.8303606905728578
1746477419061185800,3.183185791015625,0.7024154247917235,2.440334465777874,-1.3014900098353623
1746477419071165000,3.1931650390625,0.3179285431284457,1.975572927981615,-1.3899305098325014
1746477419081143800,3.203143798828125,0.3353145622152835,1.5486574289768933,-1.5538310322225093
1746477419091122000,3.213121826171875,0.4576036288656294,0.7924579531580209,-1.6303531308889387
1746477419101100800,3.223100830078125,0.5300159541256726,0.09438567213714122,-1.8518652997702358
1746477419111080000,3.233079833984375,0.5625764537297189,-0.541545502269268,-1.6615718604952097
1746477419121058800,3.243058837890625,0.3621662557184696,-1.0230793111681937,-1.2799322580218315
1746477419131038000,3.253037841796875,0.37610228048190475,-1.4309382275253533,-0.9521142621070146
1746477419141017000,3.26301708984375,0.3624310441344976,-1.9997896698713302,-0.6218348445147276
1746477419150996000,3.272995849609375,0.2340250289738178,-2.494508539035916,-0.6625386108249426
1746477419160975000,3.28297509765625,0.3829280348487198,-3.053152475622296,-0.9077385292857885
1746477419170954000,3.2929541015625,0.6310353651888668,-3.634975627744198,-1.0913275024861098
1746477419180933000,3.30293310546875,0.886390620830655,-3.9319688618063924,-1.3081471296370029
1746477419190912000,3.312912109375,0.963706500223279,-4.274977997112274,-1.4313783725082874
1746477419200891100,3.32289111328125,0.9317670551270246,-4.021297835075855,-1.341935417470336
1746477419210870000,3.3328701171875,0.9395618006564677,-4.186389613077044,-1.005176574730873
1746477419220849200,3.34284912109375,0.996376451551169,-4.138170064309239,-0.7529547948092222
1746477419230828000,3.352828125,1.086069143566489,-3.97954952814877,-0.6058890873640775
1746477419240806000,3.362805908203125,0.9698276134520769,-3.76585767762959,-0.4479600405991077
1746477419250784800,3.37278466796875,0.9083663057953119,-3.5602789909392594,-0.19107260695397854
1746477419260764000,3.382763916015625,0.6914991862408817,-3.216402425149083,-0.36617724492549897
1746477419270742800,3.39274267578125,0.36616248574778437,-3.109484019175172,-0.4174444908261299
1746477419280722000,3.402721923828125,0.03459653547629714,-2.9562814164102074,-0.6376029070109128
1746477419290700800,3.41270068359375,-0.19109730300381778,-2.6933313217252492,-0.902675985199213
1746477419300680000,3.422679931640625,-0.20389482525661587,-2.438938627505302,-1.2896914354920386
1746477419310658800,3.432658935546875,-0.12759294521212577,-2.1898627443939445,-1.7030927884072065
1746477419320638000,3.442637939453125,-0.16142039601206778,-1.9022154308259487,-2.1203549084037543
1746477419330616800,3.452616943359375,-0.22967852420210838,-1.5743927587360143,-2.4746307031333443
1746477419340596000,3.462595947265625,-0.266866902802512,-1.1728858417540788,-2.7514251987755296
1746477419350574800,3.472574951171875,-0.3971539824694395,-0.9191367061346769,-2.909491023662686
1746477419360554000,3.482553955078125,-0.5149637848138809,-0.6430015511840581,-3.1633307601749894
1746477419370532900,3.492532958984375,-0.6184972245246172,-0.22555355322659015,-3.4950334885686636
1746477419380512000,3.502511962890625,-0.6313694925140589,0.11728782429695128,-3.95605116366148
1746477419390491100,3.5124912109375,-0.7409989840775728,0.4561614672333002,-4.387140148958563
1746477419400468700,3.52246875,-0.8792647875387221,0.6497860967576503,-4.638389284455776
1746477419410448000,3.53244775390625,-1.0516869084279983,0.47560266528427597,-4.748489827597141
1746477419420426800,3.5424267578125,-1.15686986891143,0.2923796027868986,-5.013241418746113
1746477419430406000,3.552406005859375,-1.1854197446346282,0.32186580951213833,-5.415031244322657
1746477419440384800,3.562384765625,-1.2624737582206724,0.29196751485466954,-5.640305396085977
1746477419450364000,3.572364013671875,-1.4429618427962063,0.21956220385730266,-5.635055220472812
1746477419460342800,3.5823427734375,-1.6430378404170274,0.20460896487534044,-5.555768917790055
1746477419470322000,3.592322021484375,-1.7807909451156854,0.34641222174763675,-5.4844502329856155
1746477419480300800,3.60230078125,-1.9918103615552185,0.4840519291996956,-5.329651300939918
1746477419490280000,3.612280029296875,-2.2810504972726107,0.5064525615781545,-5.067644040063024
1746477419500258600,3.622258544921875,-2.5615900246620176,0.39794893223941324,-4.874798578217625
1746477419510237700,3.63223779296875,-2.7144670487344262,0.32557460090219975,-4.9614621316701175
1746477419520216600,3.642216552734375,-2.6316847206294534,0.3895113587617874,-5.241554499813914
1746477419530195700,3.65219580078125,-2.5056699845194816,0.38512159937024115,-5.291791818144917
1746477419540174800,3.6621748046875,-2.436540918713808,0.2965402295976877,-5.024676420474052
1746477419550153700,3.67215380859375,-2.374422608453035,0.2676999195605516,-4.568679203891754
1746477419560132900,3.6821328125,-2.386385433447361,0.1989519620269537,-3.9060523302614687
1746477419570110700,3.69211083984375,-2.481144615072012,0.14009469938874244,-3.217873082223534
1746477419580089900,3.70208984375,-2.6196926695406435,0.06051087506413459,-2.6942273937821386
1746477419590068700,3.71206884765625,-2.6987352265954017,0.10853636256456374,-2.3397218819499015
1746477419600047900,3.7220478515625,-2.7797815246880053,0.18688801474571226,-2.1071891373604537
1746477419610026800,3.73202685546875,-2.8223569300889966,0.189296244931221,-1.9593647205024955
1746477419620006000,3.742005859375,-2.843288658958673,0.21253391265571117,-1.734951569482684
1746477419629984800,3.75198486328125,-2.779946359860897,0.06196224291622638,-1.4212410093754528
1746477419639964000,3.7619638671875,-2.5528467462360855,-0.3906652049720287,-1.077598836863041
1746477419649942800,3.77194287109375,-2.2614140689104794,-0.9416782082885503,-0.8827437887609004
1746477419659922000,3.781921875,-1.9893097769111394,-1.494611950534582,-0.7948913177847862
1746477419669900800,3.79190087890625,-1.7231980033248662,-1.9955419492989777,-0.6960720471143722
1746477419679879700,3.801879638671875,-1.4135843571424482,-2.325407525393367,-0.5740192003726959
1746477419689858600,3.811858642578125,-1.1218196713835,-2.4819623611956834,-0.38046412895321846
1746477419699837700,3.821837646484375,-0.7905044810026883,-2.488734047287702,-0.07478197700083256
1746477419709816600,3.831816650390625,-0.48804308119509365,-2.418817630496621,0.3215980984866619
1746477419719794700,3.841794677734375,-0.32238077329695225,-2.2367788093477485,0.6997533659756183
1746477419729773800,3.85177392578125,-0.1478209097266197,-1.977659671127796,1.0423895763158797
1746477419739752700,3.861752685546875,0.000526690755225718,-1.6902146021336315,1.3319897775173186
1746477419749731800,3.87173193359375,0.17317871141023933,-1.327799924612045,1.6301842040628194
1746477419759710700,3.881710693359375,0.4381529323339462,-0.8715332434386014,1.9315543380349873
1746477419769689900,3.89168994140625,0.44128180494420227,-0.4629050962746143,2.2334446964889763
1746477419779668700,3.901668701171875,0.2369049683243036,-0.1011053357809782,2.4999013379901647
1746477419789648000,3.91164794921875,0.06258585470728575,0.2438771454244852,2.747561509084701
1746477419799626800,3.921626708984375,0.038030163186788556,0.6044026481986046,2.9581279210597273
1746477419809606000,3.93160595703125,0.06744498517625033,0.981903251171112,3.1547967405855655
1746477419819584800,3.941584716796875,0.10878836456425488,1.3217892860203981,3.464330891790986
1746477419829564000,3.95156396484375,0.1433640033829957,1.5941297248631714,3.659001815497875
1746477419839542800,3.961542724609375,0.17784370754659176,1.8019009531617163,3.681771865710616
1746477419849522000,3.97152197265625,0.27745734346508977,2.0246593227118255,3.5722727955937383
1746477419859500800,3.981500732421875,0.4051970036715269,2.3222265572696923,3.3656852241218087
1746477419869480000,3.99147998046875,0.49336460501141843,2.6896973491370675,3.1713825492054224
1746477419879457800,4.001457763671875,0.4965501762449741,3.0629397101432083,3.0297154859334228
1746477419889436700,4.011436767578125,0.45476329087316986,3.4306489869415757,2.834978511252999
1746477419899415800,4.021415771484375,0.35641806745529175,3.7952246418893334,2.677659705340862
1746477419909394700,4.031394775390625,0.2738970206350088,4.0440222925812,2.568510763835907
1746477419919373800,4.041373779296875,0.23180150770545005,4.397615950265527,2.5315362471818923
1746477419929352700,4.051352783203125,0.12157478090114891,4.782575052550435,2.6003806508272884
1746477419939331800,4.061331787109375,-0.010249518270418046,4.985658415293694,2.8233669839143753
1746477419949310700,4.071310791015625,-0.2642225988388061,5.078564078006148,3.1419910350263116
1746477419959289900,4.081289794921875,-0.47730070137381553,5.198298126411438,3.3541315644502636
1746477419969268700,4.091268798828125,-0.4913992962878197,5.507714788717031,3.3883529830038546
1746477419979247900,4.101247802734375,-0.4692792344164103,5.750853682994842,3.4637633210361
1746477419989226800,4.111226806640625,-0.4880967476110905,5.573175979664922,3.7212329384833573
1746477419999206000,4.121205810546875,-0.37589382536299526,5.1778807768046855,3.829424433133006
1746477420009184800,4.131184814453125,-0.1786965980488807,4.838495969475805,3.6185412102937695
1746477420019164000,4.141163818359375,0.007782397504523396,4.408756645222008,3.36680166093111
1746477420029142800,4.151142822265625,0.16382219645678997,4.087409598886967,3.0629817957192658
1746477420039120600,4.16112060546875,0.40716399289555844,3.9477223112553355,2.7406740876585243
1746477420049099800,4.171099853515625,0.7584206589996815,3.960966408231854,2.472035425943136
1746477420059078700,4.18107861328125,1.0653345447041094,4.273611384934187,2.3932962357491254
1746477420069057800,4.191057861328125,1.2321224590986966,4.741360414108634,2.5128356383651496
1746477420079036700,4.20103662109375,1.159845158395171,5.047607214206457,2.7992519488334655
1746477420089015800,4.211015869140625,0.8798959981143474,5.091930340057611,3.1140766076624393
1746477420098994700,4.22099462890625,0.5706640447258949,5.084353182801604,3.1070027237534523
1746477420108973800,4.230973876953125,0.2104460735309869,4.793352467152476,2.648604291248321
1746477420118952700,4.24095263671875,-0.14985329233705996,4.106499499282241,1.966689948824048
1746477420128931800,4.250931884765625,-0.264101602807641,3.3566216277003287,1.2816747177749872
1746477420138910700,4.26091064453125,-0.16656185055375097,2.627666717159748,0.8143599883645772
1746477420148889900,4.270889892578125,-0.0927829131156206,1.8148907831162213,0.46086160774827
1746477420158868700,4.28086865234375,-0.009508563710004091,1.065481698089838,0.2304962703257799
1746477420168848000,4.290847900390625,0.2512308691881597,0.42381227229237556,0.08970598988831043
1746477420178826800,4.30082666015625,0.44890755058228965,-0.15261165113449096,0.11276245582699775
1746477420188806000,4.310805908203125,0.5899630578272045,-0.6374930168956517,0.2650122879117727
1746477420198784000,4.320783935546875,0.7093805145639925,-1.0407295341491698,0.40885435713529583
1746477420208763000,4.330762939453125,0.8313567158728837,-1.435209913495183,0.37450375924408436
1746477420218742000,4.340741943359375,0.9169171303890645,-1.7764859413981438,0.24012451489269732
1746477420228720600,4.350720703125,0.9772428581446408,-2.1707091311126945,0.15754793849289417
1746477420238699800,4.36069970703125,1.0451682472489774,-2.3879501985460516,0.1862590691924095
1746477420248678700,4.3706787109375,1.1677543240845203,-2.441932548624277,0.4834446109563112
1746477420258657800,4.38065771484375,1.270429101139307,-2.7049159610569475,0.3938888431936502
1746477420268636700,4.39063671875,1.3565633700206876,-2.860982721081376,0.12305296369493007
1746477420278615800,4.40061572265625,1.189718172480911,-3.0908418625473972,-0.05410509967505932
1746477420288594700,4.4105947265625,1.2668956663161515,-3.1788048081606624,-0.20371230829656123
1746477420298573800,4.42057373046875,1.5539952828735113,-3.0220290230840443,-0.42587212743163105
1746477420308552700,4.430552734375,1.6772506372727454,-2.9272856235504148,-0.554887798923254
1746477420318531800,4.44053173828125,1.48989719697237,-2.777280940043926,-0.5182265860021114
1746477420328510700,4.4505107421875,1.2675503308326006,-2.4972610526144505,-0.351456645655632
1746477420338489900,4.46048974609375,0.9861170694738626,-2.209182946413755,-0.19909984606504438
1746477420348467700,4.4704677734375,0.7087146710664034,-1.877956603360176,-0.17491525287926196
1746477420358446800,4.48044677734375,0.345845673906058,-1.6672417228251695,-0.2810299412548542
1746477420368425700,4.49042578125,-0.0010388415284454822,-1.5109277100414036,-0.6800941412597894
1746477420378404900,4.50040478515625,-0.29083003525733947,-1.4639602071613071,-1.1380138503372668
1746477420388383700,4.5103837890625,-0.6213221457522362,-1.4778350032567977,-1.605093017426133
1746477420398363000,4.52036279296875,-0.7777448065422475,-1.3542670757770539,-2.0874773056745526
1746477420408341800,4.530341796875,-0.7957627668570727,-1.1113631592988966,-2.557210202142596
1746477420418321000,4.54032080078125,-0.764972418730706,-0.6941770271480083,-2.9606016176968812
1746477420428299800,4.5502998046875,-0.7209726796150208,-0.255640063932538,-3.302642200231552
1746477420438278700,4.560278564453125,-0.7701298014938831,0.1264677405744791,-3.5754166465774175
1746477420448257800,4.5702578125,-0.9285556187998503,0.3528232578337192,-3.8563346518903967
1746477420458236700,4.580236572265625,-1.0942406865190715,0.5336018497884273,-4.308651718655228
1746477420468215800,4.5902158203125,-1.245574061346054,0.5583937612175941,-4.831324762672185
1746477420478194700,4.600194580078125,-1.4129992507308722,0.39762159998118873,-5.299923102152348
1746477420488173800,4.610173828125,-1.5258961465924978,0.08343523905575274,-5.733650034737587
1746477420498152700,4.620152587890625,-1.4408657472997903,-0.242325824329257,-6.30448475985527
1746477420508130300,4.63013037109375,-1.1873042432069778,-0.3735580028265714,-7.073137474533915
1746477420518109400,4.640109375,-0.9259048850953578,-0.35909634675383567,-7.68533472213149
1746477420528088300,4.65008837890625,-0.7994898245561868,-0.3754828334093094,-7.941299195712804
1746477420538067500,4.6600673828125,-0.8897264872550964,-0.48545069008171554,-7.913043407565355
1746477420548046300,4.67004638671875,-0.9780991827130318,-0.6521370437979698,-7.698731379321217
1746477420558025500,4.680025390625,-0.9767548554319888,-0.854256529945135,-7.505603593403101
1746477420568004400,4.69000439453125,-0.9679331780076026,-0.9860895969450473,-7.513702728706598
1746477420577983500,4.6999833984375,-0.8928134204197674,-1.0452437967032193,-7.554959452724456
1746477420587962400,4.70996240234375,-0.7145948882114141,-1.0434358704984188,-7.636358217516541
1746477420597941200,4.719941162109375,-0.369878985520266,-0.9514934998601674,-7.67035927131772
1746477420607920000,4.729920166015625,-0.06743336780369281,-0.7783750672698021,-7.643741313505172
1746477420617899300,4.739899169921875,0.013602408894896506,-0.5243412694901227,-7.364892223420739
1746477420627878100,4.749878173828125,-0.06440912461169064,-0.372184376385808,-6.773466545695066
1746477420637857300,4.759857177734375,-0.22090141657181084,-0.3120779904693365,-6.056517130246758
1746477420647836200,4.769836181640625,-0.37639819468855856,-0.28209552465975285,-5.402130261695385
1746477420657814300,4.779814208984375,-0.5224807363152504,-0.14970248568952083,-4.780627133353054
1746477420667793200,4.789793212890625,-0.721278457628563,0.04471534003913402,-4.202018851624429
1746477420677772300,4.799772216796875,-0.9703858318567276,0.21960078230202196,-3.6042543262660502
1746477420687751200,4.809751220703125,-1.1555711343377828,0.41701428271532054,-3.0377561690479515
1746477420697730300,4.819730224609375,-1.3531938935875891,0.5232587349504232,-2.5093325986802575
1746477420707709400,4.82970947265625,-1.5807535259395837,0.5086170461356639,-1.9553344420731067
1746477420717688300,4.839688232421875,-1.782447480151057,0.35709260571599005,-1.4258049562901258
1746477420727667500,4.84966748046875,-1.944247815391421,0.10055705424845218,-0.9582248539417981
1746477420737646300,4.859646240234375,-2.013713565805554,-0.20280571484565735,-0.5431541065096854
1746477420747625500,4.86962548828125,-1.971191936418414,-0.43651276391148564,-0.19938976892232893
1746477420757604400,4.879604248046875,-1.82841428155601,-0.5947253037929534,0.13828618866205214
1746477420767583500,4.88958349609375,-1.5985194842547177,-0.7459808641433715,0.4654267237067222
1746477420777562400,4.899562255859375,-1.4656401230722664,-0.8468845398724079,0.7882856359094381
1746477420787541500,4.90954150390625,-1.3215017012506722,-0.8829904569983482,1.0874375093102455
1746477420797520100,4.91952001953125,-1.1647680017501114,-0.7879951285302639,1.3275327981084584
1746477420807498200,4.929498291015625,-1.0021545965611933,-0.5462140786021947,1.6361919200450181
1746477420817477000,4.93947705078125,-0.8562117556661367,-0.26135961062312124,1.9778484716981648
1746477420827456300,4.949456298828125,-0.8051257115513086,0.03619885610640049,2.405318681976199
1746477420837435100,4.95943505859375,-0.8083990341335534,0.3599830664604902,2.7680998547226188
1746477420847414300,4.969414306640625,-0.9768705177009105,0.7491594941794872,3.0482156037420034
1746477420857393200,4.97939306640625,-1.1865770979762076,1.0479922186285258,3.335840705478191
1746477420867372300,4.989372314453125,-1.3279828799635172,1.3250018183261156,3.6492806319504973
1746477420877351200,4.99935107421875,-1.3495418008208273,1.526460794737935,3.902325418692827
1746477420887330300,5.009330322265625,-1.3025047398358582,1.6218898384481668,4.127299126204848
1746477420897309200,5.01930908203125,-1.1757026527404784,1.6679332122206687,4.1238083614796395
1746477420907288300,5.029288330078125,-1.0654027876347303,1.6627379816651344,3.990980438223481
1746477420917267200,5.03926708984375,-0.9638865329653024,1.6974340319931507,3.91671751666069
1746477420927246300,5.049246337890625,-0.8024246358990669,1.8916577964544294,3.8520045137315986
1746477420937225200,5.05922509765625,-0.5723918914318085,2.1735066528767346,3.7862873021960257
1746477420947204400,5.069204345703125,-0.42179976342618464,2.5560177774876354,3.69590092882812
1746477420957182200,5.07918212890625,-0.32398294779658315,3.0933442007571457,3.6246424497783183
1746477420967161000,5.0891611328125,-0.2668050165474415,3.6594857996225354,3.6024218501418828
1746477420977140200,5.09914013671875,-0.2543243051588535,4.1859456687018275,3.634656478792429
1746477420987119000,5.109119140625,-0.29359423927366735,4.63340155917108,3.6775744140207767
1746477420997098200,5.11909814453125,-0.30003683954179283,5.127000484395027,3.847742180112004
1746477421007077000,5.1290771484375,-0.3600274901241064,5.39037026579678,4.150173805835843
1746477421017056300,5.13905615234375,-0.5542746354609728,5.443911886370182,4.563544763612747
1746477421027035100,5.14903515625,-0.8298463113099336,5.433091217148304,4.843405661088228
1746477421037014300,5.15901416015625,-0.964179962953925,5.48050587927401,4.701392560857534
1746477421046993200,5.1689931640625,-1.0470488002985716,5.679470700782537,4.52756218060553
1746477421056972300,5.17897216796875,-1.0585025067269802,5.716845030409098,4.464477071139216
1746477421066951200,5.188951171875,-0.9372609763681888,5.5074470776915545,4.558331997400522
1746477421076930300,5.198930419921875,-0.831511029651761,5.2241760795116425,4.505335151228309
1746477421086909200,5.2089091796875,-0.6311901173591613,5.041762579831481,4.112717058622837
1746477421096888300,5.218888427734375,-0.32603750570621337,4.926137135788798,3.7581016566753385
1746477421106866400,5.228866455078125,-0.006173099144361913,4.828560266394913,3.569292903000116
1746477421116845300,5.23884521484375,0.2837187419474125,4.7783641568571324,3.4077024111181498
1746477421126824400,5.248824462890625,0.52511108481884,4.827842181253433,3.1723189532727
1746477421136803300,5.25880322265625,0.6361129607141017,4.894812315459549,3.0102690271854398
1746477421146782200,5.2687822265625,0.6716087100524455,5.009342073220014,2.8981437002182004
1746477421156761000,5.278760986328125,0.6376023224890232,5.078417947533726,2.8672996491432188
1746477421166740200,5.288740234375,0.6534884584069252,4.986098560276627,2.8592186340183017
1746477421176719000,5.298718994140625,0.7798147446841001,4.813938743585348,2.6591204245656725
1746477421186698200,5.3086982421875,0.9716245068062096,4.630992744463682,2.3562767109096048
1746477421196677000,5.318677001953125,0.9969763902056962,4.215042291587591,1.8743845900923013
1746477421206656300,5.32865625,0.796878180753067,3.6820752325713633,1.2841671191126107
1746477421216635100,5.33863525390625,0.4623001161187887,3.0806285115689036,0.7910743898451328
1746477421226614300,5.3486142578125,0.15401048508174717,2.552155841362476,0.4761100302845239
1746477421236593200,5.35859326171875,-0.10421199655942619,2.0282395192861555,0.17765899862945078
1746477421246572300,5.368572265625,-0.36729192816913125,1.4490888012439012,0.008232406294345854
1746477421256551200,5.37855126953125,-0.6160808110326528,0.8741419646322727,-0.06291910524964332
1746477421266529300,5.388529296875,-0.795307497370243,0.3063718877822161,-0.045241994261741636
1746477421276508400,5.39850830078125,-0.8537433197259903,-0.29701661493778225,0.05169511592388153
1746477421286487300,5.4084873046875,-0.674807725289464,-0.8298650160104036,-0.05310556724369526
1746477421296466400,5.418466552734375,-0.31381760067827996,-1.2797066325724125,-0.18692893127799032
1746477421306445300,5.4284453125,0.14596556418351828,-1.82990656594038,-0.34935002876520155
1746477421316424400,5.438424560546875,0.5822709689546376,-2.2108383124053477,-0.5231085128247738
1746477421326403300,5.4484033203125,0.9693079004269093,-2.601401810568571,-0.4452373376369476
1746477421336382500,5.458382568359375,1.0191823037296532,-3.0611808837771415,-0.43808980396986
1746477421346361000,5.468361083984375,1.2309808878481387,-3.262237124606967,-0.6096066465824842
1746477421356340200,5.47834033203125,1.4290017065048217,-3.3096400962948795,-0.6990916871964931
1746477421366319000,5.488319091796875,1.5513750173725187,-3.337880686873197,-0.7875228348433971
1746477421376298200,5.49829833984375,1.6230238109141588,-3.184538967898488,-0.8589221836686134
1746477421386277000,5.508277099609375,1.5421429325163363,-2.924023406884074,-0.8133382441014051
1746477421396256300,5.51825634765625,1.1768922278512268,-2.82201498478353,-0.7509118908047676
1746477421406234400,5.528234375,0.7105301960557698,-2.6181296580076214,-0.684990681129694
1746477421416213200,5.538213134765625,0.36513277737386524,-2.3417267920315266,-0.7163754149526357
1746477421426192400,5.5481923828125,0.06600662293620407,-2.0825310814440248,-0.6972855145573615
1746477421436171300,5.558171142578125,-0.1896791067689657,-1.9385808756709098,-0.7144447391510009
1746477421446150400,5.568150390625,-0.31870171945802866,-1.7169295905798672,-0.9941723656356334
1746477421456129300,5.57812939453125,-0.36158458337299526,-1.5870844825267791,-1.5922802976042032
1746477421466108400,5.5881083984375,-0.5003794522095472,-1.4509195238023995,-2.126826150244474
1746477421476087300,5.59808740234375,-0.5055014713983983,-1.28025199149549,-2.5651573617547747
1746477421486066400,5.60806640625,-0.4757306755781173,-0.9969283863455056,-2.985549596470594
1746477421496045300,5.61804541015625,-0.49110126318931574,-0.6921423064500093,-3.386569898979366
1746477421506025000,5.62802490234375,-0.49412850205600256,-0.382152812692523,-3.788207456603646
1746477421516004000,5.638004150390625,-0.4624877476453781,-0.10013502944409847,-4.271356884005666
1746477421525983000,5.64798291015625,-0.30311723336782304,0.25902035402059553,-4.869456340406835
1746477421535962000,5.657962158203125,-0.24292970850653944,0.6037964989989996,-5.348942276865244
1746477421545941000,5.66794091796875,-0.3504325633049011,0.7008803241789341,-5.6361330788373945
1746477421555918800,5.6779189453125,-0.5420224721312522,0.4836363341361284,-5.837291610997915
1746477421565898000,5.68789794921875,-0.6254191327422857,0.04763385783433914,-6.158176592779159
1746477421575876900,5.697876953125,-0.7065133616298437,-0.36229485053420063,-6.629245121765137
1746477421585856000,5.70785595703125,-0.7092495085954665,-0.5088964475989342,-7.072041495990753
1746477421595835000,5.7178349609375,-0.817719235664606,-0.5759446154773235,-7.397828278338909
1746477421605814000,5.72781396484375,-1.1041366421114653,-0.6793547210693359,-7.452586288964748
1746477421615793000,5.73779296875,-1.4707032516807317,-0.957626303526759,-7.235555649411678
1746477421625772000,5.74777197265625,-1.7773668158859013,-1.333272218543291,-6.954695219504833
1746477421635751000,5.7577509765625,-1.9277789111495016,-1.580059113934636,-6.712209236177801
1746477421645730000,5.76772998046875,-1.7676725203454493,-1.5473492689877748,-6.661531188341975
1746477421655709000,5.777708984375,-1.3739841681599616,-1.2168021403700113,-6.773945853644609
1746477421665688000,5.78768798828125,-0.8404653204798698,-0.7120242340058088,-6.898530849212408
1746477421675667000,5.7976669921875,-0.3646685939282179,-0.14457330610752106,-7.031476261368393
1746477421685646000,5.80764599609375,-0.12590722061488777,0.35443829181492326,-6.927600876352191
1746477421695625000,5.817625,-0.14567575092408805,0.6628805561304092,-6.601473902264237
1746477421705603000,5.82760302734375,-0.2322446118304506,0.7072036819815636,-6.157188750785589
1746477421715582200,5.837582275390625,-0.3287012450227514,0.5051812264680862,-5.665404181507229
1746477421725561000,5.84756103515625,-0.5505319418013096,0.23536533766686915,-5.17766625727117
1746477421735540000,5.8575400390625,-0.8504922089755534,-0.00407645565867424,-4.777738133913278
1746477421745518800,5.867518798828125,-1.0762871697425842,-0.10364800600111485,-4.443037392747402
1746477421755498000,5.877498046875,-1.2899340120762586,-0.08228665354251861,-4.113636219294369
1746477421765476900,5.887476806640625,-1.3981494721233845,0.0006003039807081222,-3.7374037365615367
1746477421775456000,5.8974560546875,-1.5177759685009717,0.14227730412483214,-3.3173733208954332
1746477421785435000,5.907434814453125,-1.6634113508820534,0.24819676218926906,-2.8478292249977586
1746477421795414000,5.9174140625,-1.8198381763905285,0.2739239086419344,-2.3353975890100003
1746477421805393000,5.927392822265625,-1.931838415673375,0.13758008621931075,-1.8562188188046216
1746477421815372000,5.9373720703125,-1.8968518579661846,-0.0529208583265543,-1.363537592947483
1746477421825351000,5.947350830078125,-1.8783570008546113,-0.28466040671169757,-0.8136983095854521
1746477421835330000,5.957330078125,-1.8066811731755732,-0.5317652820110321,-0.36556291241943834
1746477421845309000,5.967308837890625,-1.682444552654028,-0.7550555664807558,-0.04914543144106864
1746477421855287000,5.977287109375,-1.5559329729378222,-0.8698439751774072,0.1989507929831743
1746477421865266200,5.98726611328125,-1.4530021752953528,-0.89022333086133,0.423346992868185
1746477421875245000,5.9972451171875,-1.4275380636930466,-0.7860919252574443,0.7982067259430885
1746477421885224200,6.00722412109375,-1.3818027329564093,-0.6056798285275697,1.1944149519950151
1746477421895203000,6.017203125,-1.3294108669400215,-0.3439788571208715,1.6123504412084817
1746477421905182200,6.02718212890625,-1.295309859895706,-0.03636427580118179,2.0250462762027976
1746477421915161000,6.0371611328125,-1.2547639144957066,0.28288755182027814,2.46764566655159
1746477421925140200,6.04714013671875,-1.2260136208295822,0.6752385179221629,2.9123890831917523
1746477421935118800,6.057118896484375,-1.2260966229379175,1.0070768553942442,3.3760072961717844
1746477421945098000,6.067097900390625,-1.258606561398506,1.2412012530893086,3.8368104517310857
1746477421955076900,6.077076904296875,-1.249542964977026,1.455258429789543,4.236537499558925
1746477421965056000,6.087055908203125,-1.274405019032955,1.6075667140632868,4.541740343561768
1746477421975035000,6.097034912109375,-1.2159902394652367,1.6574620870888233,4.745947157377004
1746477421985014000,6.107013916015625,-1.0805074177861214,1.680391127255559,4.8472015462398526
1746477421994992000,6.1169921875,-0.9229401900708675,1.6641718138605355,4.804366028597951
1746477422004971000,6.126970947265625,-0.8307692713737488,1.7651134835124014,4.691144138565659
1746477422014950100,6.1369501953125,-0.7353565942764282,1.9397692086726426,4.567116776880622
1746477422024929000,6.146928955078125,-0.5684942994713783,2.213662722176313,4.446598884621262
1746477422034908200,6.156908203125,-0.41032735229730605,2.679937002623081,4.329011200594902
1746477422044887000,6.166886962890625,-0.2988637223755009,3.2375556878149507,4.246963031983375
1746477422054866200,6.1768662109375,-0.34921909586191174,3.7635201745927334,4.206343436825275
1746477422064845000,6.186844970703125,-0.47081835361719127,4.256565265326202,4.191021364530921
1746477422074824200,6.19682421875,-0.6002887831389904,4.735172957645356,4.197834551677108
1746477422084803000,6.206802978515625,-0.8003250332713127,5.082455240225792,4.280600513169169
1746477422094782200,6.2167822265625,-1.0743325285434722,5.14866637275815,4.398160724666714
1746477422104761000,6.226760986328125,-1.3657377333402634,5.128457112944126,4.423053758382797
1746477422114740200,6.236740234375,-1.5408277582645415,5.184718513870239,4.167966067636013
1746477422124719000,6.246718994140625,-1.523655674189329,5.399678776890039,3.8053912311166522
1746477422134698000,6.256697998046875,-1.4501041157662868,5.618693283736706,3.411705801540613
1746477422144676000,6.266676025390625,-1.3443454012215137,5.6349207804381845,3.26187647460103
1746477422154655000,6.276655029296875,-1.2663251729518175,5.4440813977181906,3.1801135526716706
1746477422164634000,6.286634033203125,-1.0837415774017571,5.332931053262949,2.9125077411353586
1746477422174613000,6.296613037109375,-0.8481441845446824,5.330822098284959,2.6737515919864174
1746477422184592100,6.306592041015625,-0.5769891560941934,5.250248093879223,2.5567899309039115
1746477422194571000,6.316571044921875,-0.3263292186617851,4.943364164921641,2.584883806487918
1746477422204550100,6.326550048828125,-0.16452241714801638,4.428482213172316,2.6205443179339167
1746477422214529000,6.336529052734375,-0.05524900901317596,4.1226545152693985,2.3642554347038267
1746477422224508200,6.346508056640625,-0.0447381363928318,4.045556662541627,2.0307272444486615
1746477422234487000,6.356487060546875,-0.0861433289706707,4.059842962047457,1.902479634720087
1746477422244466200,6.366466064453125,-0.06948854676783084,4.129637213763594,1.899605540588498
1746477422254445000,6.376445068359375,0.051711519069410856,4.102824610161781,1.873478581163287
1746477422264424200,6.386424072265625,0.18572890783846377,3.9649142690747974,1.7278601499170063
1746477422274403000,6.396403076171875,0.2721189050465822,3.5025679757267234,1.3909095839977264
1746477422284381000,6.406380859375,0.5059264918774367,3.064097063484788,0.7485270414948463
1746477422294359800,6.41635986328125,0.6208785667032003,2.5849007576227185,0.526011833050847
1746477422304339000,6.4263388671875,0.7078378151666372,1.948244776073098,0.16005378383398056
1746477422314317800,6.43631787109375,0.9091244306862354,1.5851315948933362,-0.2023497877717018
1746477422324297000,6.446296875,0.9717262136150151,1.2015414428740738,0.0213321263641119
1746477422334275800,6.45627587890625,0.9663250852238386,0.72858315461874,0.2885235118806362
1746477422344255000,6.4662548828125,0.9019359804868697,0.25865327427387236,0.500069582542777
1746477422354233900,6.47623388671875,0.8227285151939838,-0.28398586845099927,0.7882628395557403
1746477422364213000,6.486212890625,0.8614601777136325,-0.8079711641103029,0.9711807816267013
1746477422374191900,6.49619189453125,1.0501298151791094,-1.2894266470760107,1.047547397470474
1746477422384171000,6.5061708984375,1.3213620005190372,-1.7479688719660043,1.0543950714081525
1746477422394150100,6.516150146484375,1.5009107584178447,-2.136622152593732,1.013196215057373
1746477422404129000,6.52612890625,1.7109429173856974,-2.484022216334939,0.9051707246243953
1746477422414108200,6.536108154296875,1.867722063463181,-2.564156075757742,0.7715478515982628
1746477422424087000,6.546087158203125,1.9062790270030496,-2.657732185077667,0.7090349890619516
1746477422434065200,6.556065185546875,1.902211339172721,-2.601308871588111,0.6461281587719917
1746477422444044000,6.5660439453125,1.7156430579006672,-2.569551797321439,0.57598845461905
1746477422454023200,6.576023193359375,1.551007791495323,-2.421163901361823,0.3623363515883684
1746477422464002000,6.586001953125,1.266160337778926,-2.1754916892141103,0.043944940188527105
1746477422473981200,6.595981201171875,0.8689302213333546,-2.0430892978936432,-0.24241993235349654
1746477422483959800,6.605959716796875,0.7477624868631363,-1.8075421739190816,-0.44909518210887905
1746477422493939000,6.61593896484375,0.5591057088792324,-1.69402217772305,-0.6098468850791454
1746477422503917800,6.625917724609375,0.10040741664469241,-1.538827524358034,-0.6559422812998295
1746477422513897000,6.63589697265625,-0.4038228657741099,-1.49715228266716,-0.6343553033918142
1746477422523875800,6.645875732421875,-0.5970861877053976,-1.4367992285132407,-0.6783861682981253
1746477422533855000,6.65585498046875,-0.716568891698122,-1.473830443790555,-0.8043740164011717
1746477422543833900,6.665833740234375,-0.9572230564881116,-1.5949398722022772,-0.8696084128558635
1746477422553813000,6.67581298828125,-1.0899755764205008,-1.6085370204001663,-1.0944576172053813
1746477422563791000,6.685791015625,-1.0227736062198878,-1.6139175443947313,-1.492355111518502
1746477422573770000,6.69577001953125,-0.9836328514426946,-1.5856155790179967,-2.0072037455201146
1746477422583749000,6.7057490234375,-0.9918874695688485,-1.4590753577291964,-2.668291573014855
1746477422593728000,6.71572802734375,-0.9853846635460853,-1.128725797510147,-3.270957898940146
1746477422603707100,6.72570703125,-1.0201982027739285,-0.6964923183530569,-3.7932553876429793
1746477422613686000,6.73568603515625,-1.0341641842842102,-0.2013607767343521,-4.171913343957066
1746477422623665200,6.7456650390625,-1.0000818088751287,0.38723873765468597,-4.553954512968659
1746477422633644000,6.75564404296875,-0.9231213918566703,0.8003186035305261,-4.85009843672514
1746477422643623200,6.765623046875,-0.9219266291141509,0.9305629400342702,-5.115041166532039
1746477422653602000,6.77560205078125,-0.9769763161629438,0.8020978881627321,-5.397427783092856
1746477422663581200,6.785581298828125,-1.0451099411904812,0.5248439583152532,-5.8051598581999535
1746477422673560000,6.79556005859375,-1.0718220070272684,0.32257015838921066,-6.3743222661912435
1746477422683539000,6.8055390625,-1.0599959601551294,0.2481903324484825,-6.784273186391592
1746477422693517800,6.815517822265625,-1.1016174258321523,0.13396481833159923,-7.018214044213295
1746477422703496000,6.825495849609375,-1.2090467039376496,-0.0850011731982231,-7.247257193121314
1746477422713475000,6.83547509765625,-1.2808897048771382,-0.12745733613371849,-7.5064277692675585
1746477422723454000,6.845453857421875,-1.3085562949597835,0.016303484547138213,-7.682360674756765
1746477422733433000,6.85543310546875,-1.282562606525421,0.0929009865373373,-7.656190460711717
1746477422743412000,6.865411865234375,-1.1541565913647414,0.01823942104578018,-7.3901920843720434
1746477422753391000,6.87539111328125,-0.962248118108511,-0.2555190679013729,-7.1377148683846
1746477422763370000,6.885369873046875,-0.5955161253770813,-0.5901151796489954,-7.117039160102605
1746477422773349000,6.89534912109375,-0.14124383289124814,-0.8498989192575216,-7.257883216553926
1746477422783328000,6.905327880859375,0.10132632158789782,-0.9926099386245012,-7.2365575199306
1746477422793307100,6.91530712890625,0.1383534452119842,-1.0692471881031989,-7.113862283632159
1746477422803286000,6.9252861328125,-0.03864796629156917,-1.0367787506967783,-6.740874774169922
1746477422813265200,6.93526513671875,-0.25192250471413136,-0.9704980600595474,-6.089705114099383
1746477422823244000,6.945244140625,-0.35780506483428176,-0.8608516904264688,-5.3278305152535435
1746477422833223200,6.95522314453125,-0.3055693026950583,-0.7110948442012072,-4.733016364133357
1746477422843201000,6.965200927734375,-0.1910299368560314,-0.4655757767885923,-4.23775973483026
1746477422853180000,6.975179931640625,-0.14095332551207393,-0.15628011051416396,-3.742031396362185
1746477422863159000,6.985158935546875,-0.15933018226716666,0.19120996959805486,-3.284479351553321
1746477422873138000,6.995137939453125,-0.2556249028960243,0.4339320997685194,-2.792693028709292
1746477422883117000,7.005116943359375,-0.41452250243220473,0.5171820453852415,-2.163930430757999
1746477422893096000,7.015095947265625,-0.6439853015244007,0.47202071514427657,-1.4450935941278933
1746477422903075000,7.025074951171875,-0.9862731368184089,0.2234241399824619,-0.8506851011991501
1746477422913054000,7.035053955078125,-1.1805647058188915,-0.14543606041669846,-0.3507850300043821
1746477422923033000,7.045033203125,-1.0874901162803172,-0.4969342071264982,-0.04408639448583126
1746477422933012000,7.055011962890625,-0.9358546167016029,-0.8225444638639688,0.1636246280580759
1746477422942991000,7.0649912109375,-1.0103484244108198,-1.0323848996520042,0.3140945909887552
1746477422952970000,7.074969970703125,-1.2253618789225815,-1.158842118832469,0.615931173428893
1746477422962949000,7.08494921875,-1.2682996878951787,-1.1691080767810345,0.9824521172255277
1746477422972928000,7.094927978515625,-1.1189560986459255,-1.0034311923682688,1.420159059357643
1746477422982906000,7.104906005859375,-1.0139619387328624,-0.8345493744343518,2.1400129640758037
1746477422992885000,7.114885009765625,-0.8417080140173435,-0.68911974375844,2.6619962722629307
1746477423002864000,7.124864013671875,-0.5665092631340026,-0.453964833971858,2.9427848059773445
1746477423012843000,7.134843017578125,-0.664085840266943,-0.2726069808244705,3.1056366960972546
1746477423022822100,7.144822265625,-1.0674737486898898,-0.0643143590003252,3.368922306346893
1746477423032801000,7.154801025390625,-1.327843179231882,0.19937515587508678,3.7059523672431705
1746477423042780000,7.16477978515625,-1.4240730179309844,0.445738272896409,4.039232720217108
1746477423052759000,7.174759033203125,-1.3411796306669712,0.6669049893409014,4.359800891134142
1746477423062738000,7.184738037109375,-1.2218763748943804,0.8740893576622009,4.5828766560703516
1746477423072717000,7.194717041015625,-1.1146645389318466,0.9866904854476451,4.677186924883723
1746477423082696000,7.204696044921875,-1.0160089343905447,1.0986457165449857,4.643984912505745
1746477423092675000,7.214675048828125,-0.9313397696256637,1.3304133219808338,4.493879106712341
1746477423102654000,7.224654052734375,-0.8119453284382819,1.684042635500431,4.293125648221373
1746477423112633000,7.234633056640625,-0.6836918734908104,2.1340017409622667,4.067105062004924
1746477423122611000,7.24461083984375,-0.5481284243235365,2.61923323533535,3.8725790997266767
1746477423132590000,7.254590087890625,-0.5105670111596584,3.128450000929832,3.651262745678425
1746477423142569000,7.26456884765625,-0.5829786788325756,3.7076246843695637,3.362280968636274
1746477423152548000,7.274548095703125,-0.6899661314547062,4.119606233614683,3.198874951764941
1746477423162527000,7.28452685546875,-0.8031869255084544,4.422609521746635,2.977308422347903
1746477423172506000,7.294506103515625,-0.9062321433108299,4.6544385019809,2.616657247367501
1746477423182485000,7.304485107421875,-1.0627088723756373,4.823494507437944,2.4123294375211
1746477423192464100,7.314464111328125,-1.350098265659809,4.989493463411927,2.5155653555899855
1746477423202443000,7.324443115234375,-1.7034569455444812,5.108476985710859,2.797652696943283
1746477423212422100,7.334422119140625,-2.0826433096468446,5.387623597437143,2.935424506342411
1746477423222401000,7.344401123046875,-2.422256372773647,5.7775125573396675,3.0104578277558085
1746477423232380000,7.3543798828125,-2.716981661903858,6.045619888657331,3.2438784610956906
1746477423242359000,7.364359130859375,-2.92117736980319,6.031455754226446,3.595716215023398
1746477423252338000,7.374337890625,-2.9507834035158154,5.990107844793796,3.7187270931422707
1746477423262316000,7.38431591796875,-2.7785610429823397,5.975865968951583,3.667058865225315
1746477423272295000,7.394294921875,-2.4464509028315544,5.776816976290941,3.638024493920803
1746477423282274000,7.404274169921875,-2.0313842470526695,5.3539393545001746,3.6479146042943
1746477423292253000,7.4142529296875,-1.7199451390087603,4.9135827746421095,3.5272640255659815
1746477423302232000,7.424232177734375,-1.4709551806151866,4.665260924768448,3.246643249633908
1746477423312211000,7.4342109375,-1.2966869934678078,4.5601562902182335,2.982996989378333
1746477423322190000,7.444190185546875,-1.2323054144501686,4.508918270412087,2.9285762478828428
1746477423332169000,7.4541689453125,-1.3375696234762668,4.481514130657911,3.031723903146386
1746477423342148000,7.464148193359375,-1.4192133029401302,4.5138697553396225,2.948637623658776
1746477423352127000,7.474126953125,-1.4485849433749913,4.5837949399590485,2.743986573207378
1746477423362106000,7.484106201171875,-1.4267583114922047,4.467072932851314,2.5613667373001574
1746477423372085000,7.4940849609375,-1.2612217123329639,4.2003678695470095,2.202514136174321
1746477423382064000,7.504064208984375,-1.0188830285221337,3.744768127849698,1.6828326751887797
1746477423392043000,7.51404296875,-0.7357908940404653,3.1086405540883537,1.1838596557110548
1746477423402020900,7.524020751953125,-0.3538719266364351,2.470512161898613,0.7337596804738045
1746477423412000000,7.534,0.03163311909344047,1.7752870870023965,0.46483343398869037
1746477423421979000,7.543978759765625,0.4072404921978712,1.0653075105667114,0.36837329366505145
1746477423431958000,7.5539580078125,0.6964116543322801,0.3775514563769102,0.3604243804872036
1746477423441937000,7.56393701171875,0.9194541015207767,-0.3028407910466194,0.3668593819707632
1746477423451916000,7.573916015625,1.049433065086603,-0.9024415919214487,0.32103228129744527
1746477423461895000,7.58389501953125,1.1464479897487907,-1.454783213493228,0.3528670969754457
1746477423471874000,7.5938740234375,1.2057629330266266,-1.8889853623747825,0.37981881678700447
1746477423481853000,7.60385302734375,1.339050217422843,-2.282858423477411,0.4682908809661865
1746477423491832000,7.61383203125,1.5471674826800823,-2.602289114797115,0.5261977110117674
1746477423501811000,7.62381103515625,1.757625319714099,-2.7882231898188587,0.46309097423553464
1746477423511790000,7.6337900390625,1.9453677593320606,-2.994749971014261,0.2864776852667332
1746477423521769000,7.64376904296875,1.9687829755805433,-3.1435932095259425,0.0011614449948072433
1746477423531747000,7.6537470703125,1.8695289667546748,-3.069117521995306,-0.03180734314918518
1746477423541726200,7.663726318359375,2.0371026246994735,-3.3206752850502728,-0.471572386854887
1746477423551705000,7.673705078125,2.184754461469501,-2.9980396602094173,-1.0204483781427145
1746477423561684200,7.683684326171875,1.7617413767307997,-2.8337784878134724,-1.0625696100354194
1746477423571663000,7.6936630859375,1.28112395202443,-2.884937012642622,-0.8369172726094722
1746477423581642200,7.703642333984375,1.1664202990017831,-2.5928724671542644,-0.779704854568839
1746477423591621000,7.71362109375,1.1837551724232733,-2.2910528358489275,-0.7092664597302675
1746477423601600300,7.723600341796875,1.2069887484945356,-2.0038509279608725,-0.7470476165920495
1746477423611579100,7.7335791015625,1.1340583907097577,-1.834210985136032,-0.9262678731888532
1746477423621558300,7.743558349609375,1.0785299802333115,-1.6689105328202247,-1.412289056634903
1746477423631537200,7.753537109375,0.9258867649167776,-1.5399433766454458,-1.8550182108432054
1746477423641516300,7.763516357421875,0.6233734522588551,-1.467687118729949,-2.311587382094562
1746477423651495200,7.7734951171875,0.3740349726885557,-1.3091560144186019,-2.891520190425217
1746477423661473000,7.78347314453125,0.27158801304027436,-1.0099410126537085,-3.457769633579254
1746477423671452200,7.7934521484375,0.18934709833562374,-0.74637541641891,-3.9847631711438294
1746477423681431000,7.80343115234375,0.14419278235733507,-0.48390521420538424,-4.463460879833996
1746477423691410200,7.81341015625,0.07366203306019306,-0.16582067679762838,-4.893316523943841
1746477423701389000,7.82338916015625,0.042327568119764326,0.19651275218129158,-5.38328410692811
1746477423711368200,7.8333681640625,0.04684592232704162,0.5645101982712746,-5.8240217950582505
1746477423721347000,7.84334716796875,-0.01305230073146522,0.6672405049055814,-6.209530347919464
1746477423731326200,7.853326171875,-0.10621522614061832,0.4067570925951004,-6.488835365077853
1746477423741305000,7.86330517578125,-0.10351122787892818,-0.06460545090138912,-6.8176002864539615
1746477423751284200,7.8732841796875,0.038648587346076964,-0.33209201997220517,-7.345687756735086
1746477423761263000,7.88326318359375,0.12490889375992119,-0.41078386389315125,-7.995064103648066
1746477423771242200,7.8932421875,0.021781039175391197,-0.46722471303939817,-8.352452477440238
1746477423781221000,7.90322119140625,-0.2509359048295766,-0.4883978494495153,-8.400761458057165
1746477423791200300,7.9132001953125,-0.5939309385448693,-0.36983284482359885,-8.269796990585327
1746477423801178000,7.92317822265625,-0.8811925407309085,-0.17378771015405653,-7.967453043144941
1746477423811157200,7.9331572265625,-1.049535940939188,0.029058921223878858,-7.575829222273826
1746477423821136100,7.94313623046875,-1.0735977845281361,0.09237199422717093,-7.133316341164708
1746477423831115300,7.953115234375,-1.0201357319969684,-0.015157821643352507,-6.7390949050158255
1746477423841094100,7.96309423828125,-0.8128514104325324,-0.21165362268984317,-6.578189472788572
1746477423851073300,7.9730732421875,-0.48174482130110263,-0.36684827605485915,-6.638343204978108
1746477423861052200,7.98305224609375,-0.1913531774610281,-0.43428573551177974,-6.598694500678778
1746477423871031000,7.993031005859375,-0.0631950726468116,-0.3878688522517681,-6.460719277662038
1746477423881010200,8.00301025390625,-0.05902144022397696,-0.20844810464680194,-6.104787532418966
1746477423890989000,8.012989013671875,-0.23538754949867724,-0.06172784963846206,-5.599346778231859
1746477423900968200,8.02296826171875,-0.4850316609520465,0.05308277088999748,-5.0158922255158425
1746477423910947000,8.032947021484375,-0.6991584688223897,0.1864209817558527,-4.438138514789939
1746477423920926200,8.04292626953125,-0.8739380395580083,0.3275479468017816,-3.9244396353453395
1746477423930904000,8.052904052734375,-1.0280980161130429,0.5093114581406116,-3.4913071615219113
1746477423940883200,8.06288330078125,-1.143959022477269,0.6769312933146954,-3.058523647266626
1746477423950862000,8.072862060546875,-1.2899579774737358,0.7778636106163263,-2.635637842169404
1746477423960841200,8.08284130859375,-1.489887844622135,0.7530430576145648,-2.147410673111677
1746477423970820000,8.092820068359375,-1.7495038264483211,0.508374469551444,-1.6364187145382165
1746477423980799200,8.10279931640625,-1.9293512750327586,0.19017478133141993,-1.1348843201398848
1746477423990778000,8.112778076171875,-1.996774121442437,-0.12803425923883915,-0.7050994031786918
1746477424000757200,8.12275732421875,-1.952480221685767,-0.47457039962708947,-0.31159692895412444
1746477424010736000,8.132736083984375,-1.7691157048910855,-0.7646499087780714,0.04358195209503173
1746477424020715300,8.14271533203125,-1.51693951767683,-0.9986971495836973,0.2877344073295593
1746477424030694100,8.152694091796874,-1.3563602486640214,-1.1505196961671114,0.6100678343534469
1746477424040673300,8.16267333984375,-1.257918579134345,-1.1445441288888454,0.9091524877369404
1746477424050652200,8.172652099609374,-1.1574924577891825,-1.0270447076678275,1.2461457237541675
1746477424060630000,8.182630126953125,-1.0664882447838782,-0.8167723102033138,1.58712013836205
1746477424070609200,8.192609130859376,-0.9824801742762327,-0.5184744232833385,1.971699301418662
1746477424080588000,8.202588134765625,-0.9890881942391395,-0.14228431838750838,2.3672160380750893
1746477424090567200,8.212567138671876,-1.0684884786903857,0.30526947949826716,2.750522112455964
1746477424100546000,8.222546142578125,-1.154940435218811,0.6989204222828149,3.172563283422589
1746477424110525200,8.232525146484376,-1.22489835306406,1.0119476763010025,3.5994554015517233
1746477424120504000,8.242504150390625,-1.3506827875494956,1.2744172939926386,3.917640476724505
1746477424130483200,8.252483154296876,-1.4240402847051619,1.4659832374215125,4.150278435254097
1746477424140462000,8.262462158203125,-1.3953671479284762,1.596547891920805,4.321821581351757
1746477424150441200,8.272441162109375,-1.3405565303325653,1.7037532981425523,4.4248663607627154
1746477424160420000,8.282420166015624,-1.3411059809088706,1.7798767528802155,4.384520906370878
1746477424170399200,8.292399169921875,-1.363572664260864,1.9216811787962913,4.290349753767252
1746477424180378000,8.302378173828124,-1.291406422716379,2.1315292133688923,4.187236000773311
1746477424190356200,8.312356201171875,-1.125392853695154,2.4870874491244552,4.0996845585703845
1746477424200335400,8.32233544921875,-0.9635317281782626,2.988474544006586,4.000816188061237
1746477424210314000,8.33231396484375,-0.8700561566233634,3.4370445331975814,3.955657780429721
1746477424220293000,8.342293212890626,-0.8180757940173149,3.84706004306674,3.962891238814592
1746477424230272000,8.35227197265625,-0.829513718354702,4.296447486120462,4.002666784363985
1746477424240251100,8.362251220703126,-0.9535071777701377,4.792744272126257,3.9814346112430092
1746477424250230000,8.37222998046875,-1.0266133305132388,5.170608155453205,4.02501948594749
1746477424260209200,8.382209228515626,-1.1528420016348362,5.542516637507081,4.086118974554538
1746477424270188000,8.39218798828125,-1.3164227905511856,5.7831052627801895,4.298469347336888
1746477424280167200,8.402167236328125,-1.572877093476057,5.815287868982553,4.536183878478408
1746477424290146000,8.41214599609375,-1.747408315473795,5.908741813227534,4.542683177369833
1746477424300125200,8.422125244140625,-1.8047171796262262,6.185999834728241,4.310091396069526
1746477424310104000,8.43210400390625,-1.860532005828619,6.304342136514187,4.151545678710937
1746477424320082200,8.442082275390625,-1.913600748193264,6.017448271661997,4.278737641906738
1746477424330061300,8.452061279296874,-1.9225193831861018,5.524981565338373,4.406835614031553
1746477424340040200,8.462040283203125,-1.6631015542805194,5.103219211313128,4.214735417595506
1746477424350019300,8.472019287109376,-1.284780282574892,4.679286819772422,3.8093420145690438
1746477424359998200,8.481998291015625,-0.8519500065684318,4.250427785484493,3.4324382084459066
1746477424369977300,8.491977294921876,-0.39936698234379286,3.801508836725354,3.1586195137441155
1746477424379956200,8.501956298828125,0.04303776221573353,3.487689847807586,2.8852304426312445
1746477424389935400,8.511935302734376,0.5408615751257166,3.473183475810289,2.608497906309366
1746477424399914200,8.521914306640625,0.9121282886773348,3.689642452955246,2.507558574745059
1746477424409893000,8.53189306640625,1.0610212115496396,4.002042514985799,2.6267963640660046
1746477424419872000,8.5418720703125,1.0003431632250548,4.2667999513536685,2.7157570885449647
1746477424429851100,8.55185107421875,0.8609154033124446,4.402091049852967,2.545686353087425
1746477424439829000,8.5618291015625,0.7116986553132534,4.4726019254058595,2.192652082851529
1746477424449808100,8.57180810546875,0.6600251666992902,4.33112132461667,1.7344272533476353
1746477424459787000,8.581787109375,0.6973468893557786,3.824427940019965,0.9421826506793498
1746477424469766100,8.59176611328125,0.9978110874641686,3.4698762509584427,0.39081542709767814
1746477424479745000,8.6017451171875,1.0833534548670052,2.74788065803647,0.10202829584479331
1746477424489724200,8.61172412109375,1.2211346166163681,2.063980110231042,-0.31865503077208995
1746477424499703300,8.621703369140626,1.341605162602663,1.3750935907065867,-0.5265104302227497
1746477424509682200,8.63168212890625,1.2570073095083236,0.6258382349371909,-0.5118441914886236
1746477424519661300,8.641661376953126,1.1356179681766778,-0.07539046428799628,-0.4817103345096111
1746477424529640000,8.651639892578125,0.9551444235831499,-0.6631593730717897,-0.46815877901911734
1746477424539619000,8.661619140625,0.8459604838300496,-1.2236012989908456,-0.48580841747820375
1746477424549598000,8.671597900390625,0.7982272572744638,-1.7556255241990089,-0.42939620990455146
1746477424559577000,8.6815771484375,0.9396353042840957,-2.088743380087614,-0.38267654430568215
1746477424569555000,8.691554931640624,1.126187145878002,-2.3794851525396106,-0.41187750434875486
1746477424579534000,8.7015341796875,1.2246317380171268,-2.6916893997371196,-0.3738508482933044
1746477424589513000,8.711512939453126,1.216614508843422,-2.853653401106596,-0.3227916921854019
1746477424599492000,8.7214921875,1.228298516896367,-2.9074112947791813,-0.2839917136698961
1746477424609471000,8.731470947265626,1.1466378862977027,-2.9880951893001795,-0.2325613861620426
1746477424619450000,8.7414501953125,1.206071487519145,-2.839189991468191,-0.1480383518695831
1746477424629429000,8.751428955078126,0.9066215810198336,-2.809844069996476,-0.09837912568747997
1746477424639408000,8.761408203125,0.7560673738718032,-2.6661756037741897,-0.24180443080365657
1746477424649387000,8.771386962890626,0.5693267317075282,-2.5340023450344797,-0.26767303155362604
1746477424659366100,8.7813662109375,0.07862937314398587,-2.437797640776634,-0.2071773540586233
1746477424669345000,8.791344970703125,-0.35075697295367714,-2.344433712902665,-0.2355810262441635
1746477424679324200,8.80132421875,-0.4586170436918735,-2.250187156975269,-0.2814595648437738
1746477424689303000,8.811302978515625,-0.5745019423883408,-2.0401830550581215,-0.2971586537569761
1746477424699281000,8.821281005859374,-0.6408340709518641,-1.84993637753427,-0.3797784847766161
1746477424709260000,8.831260009765625,-0.6161357560902834,-1.6224369509369134,-0.5090022460609674
1746477424719239000,8.841239013671874,-0.5683960267286747,-1.4045716141253708,-0.7738274869680404
1746477424729218000,8.851218017578125,-0.5113279855947941,-1.083892968571186,-1.2184212660044431
1746477424739197000,8.861197021484376,-0.4469278480071574,-0.7222171267181634,-1.7990572541683911
1746477424749176000,8.871176025390625,-0.4424672884017229,-0.29308570522964,-2.3187568353325125
1746477424759155000,8.881155029296876,-0.5409844343204051,0.08958265576958656,-2.7198554637745023
1746477424769134000,8.891134033203125,-0.755892601826787,0.2825982134848833,-3.0496941518619654
1746477424779113000,8.901113037109376,-0.9183161104667932,0.36011750649511814,-3.4299683112010357
1746477424789092000,8.911092041015625,-1.0164677110087126,0.3818821790575981,-3.8744866869136687
1746477424799071000,8.921071044921876,-1.1102110666543246,0.30961773783564567,-4.281277681778371
1746477424809050000,8.931050048828125,-1.1411533174067734,0.14386837270855904,-4.70979330945611
1746477424819028200,8.9410283203125,-1.0704191544920205,0.0834112736582756,-5.196199692827463
1746477424829007000,8.951007080078124,-0.9802870481461285,0.12139525961577892,-5.772296283996105
1746477424838986200,8.960986328125,-0.9555903407197445,0.169467508867383,-6.267202784687281
1746477424848965000,8.970965087890624,-1.0018968224078417,0.24597265639901159,-6.741600750356913
1746477424858944300,8.9809443359375,-0.9610159459650516,0.6029460196495056,-7.381846865352988
1746477424868923100,8.990923095703126,-0.7746271129131317,1.2281243293732405,-8.051521319407223
1746477424878902000,9.000902099609375,-0.8716343657255172,1.7352058365046976,-8.409806349778174
1746477424888881000,9.010880859375,-1.2381184846431017,1.813378624987602,-8.462267773899436
1746477424898860000,9.020860107421875,-1.6657798335790632,1.3061696920841932,-8.286367017114163
1746477424908839000,9.0308388671875,-1.9016636421620845,0.5937094047486782,-8.143645476353168
1746477424918818000,9.040818115234375,-1.9573451973736284,-0.08193067971169948,-8.186060138234495
1746477424928797000,9.050796875,-1.8911843337237835,-0.6264601662278175,-8.446718322589993
1746477424938776000,9.060776123046875,-1.8107985453665256,-1.0626923596322535,-8.565477388483286
1746477424948754200,9.070754150390625,-1.7324761192798614,-1.3883745125621556,-8.539516433274745
1746477424958733000,9.080733154296874,-1.7594775234520434,-1.6424112329512834,-8.228528576129674
1746477424968712200,9.090712158203125,-1.768693095564842,-1.6544453696161507,-7.5713494465112685
1746477424978691000,9.100691162109374,-1.5755834298253057,-1.3705489330142735,-6.662575728958845
1746477424988670200,9.110670166015625,-1.216768822622299,-0.9022668198764323,-5.865119529122114
1746477424998649000,9.120649169921874,-1.0010767381966112,-0.42687516699433325,-5.216008555147051
1746477425008628200,9.130628173828125,-0.9906722485601901,-0.05929857666492462,-4.399491096487641
1746477425018607000,9.140607177734376,-1.0467021788179873,0.2444996612370014,-3.6549946256831287
1746477425028586200,9.150586181640625,-1.2564052519619464,0.32978082042038437,-2.8924571790143845
1746477425038565000,9.160565185546876,-1.5618237845420837,0.08725918125808238,-2.1979387910827994
1746477425048544300,9.170544189453125,-1.83824301713109,-0.23596681069135664,-1.6906810506016015
1746477425058523100,9.180523193359376,-2.1848422858834264,-0.6800088010638952,-1.3868512485176323
1746477425068501000,9.1905009765625,-2.4537036504387855,-0.97979955689013,-1.129192245978117
1746477425078480100,9.200480224609375,-2.4646844786584374,-1.0776958674967287,-0.8131354150056839
1746477425088459000,9.210458984375,-2.4138895264446734,-0.9984785383969544,-0.5135322907060385
1746477425098438100,9.220438232421875,-2.247398987561464,-0.8757587521791458,-0.019027941074967383
1746477425108417000,9.2304169921875,-2.07127552793622,-0.6502145513027906,0.5240542692422866
1746477425118396200,9.240396240234375,-1.935878046452999,-0.32052433177530765,1.178700665512681
1746477425128375000,9.250375,-1.7608967426002025,0.025243746849894524,1.8236206175386904
1746477425138354200,9.260354248046875,-1.5873241365015507,0.3269809605687857,2.3354957886874677
1746477425148333000,9.2703330078125,-1.4802175144791603,0.6707669254660606,2.894148493102193
1746477425158312200,9.280312255859375,-1.3754045563519,0.9815905319601297,3.3814427652239796
1746477425168291000,9.290291015625,-1.3560533746719359,1.2345879724293947,3.817597801738977
1746477425178270200,9.300270263671875,-1.382967100560665,1.4486708680927753,4.17352896246016
1746477425188249000,9.3102490234375,-1.3811165042579174,1.6105395923942327,4.544585211598873
1746477425198227200,9.320227294921875,-1.2156664143383502,1.7324030540436506,4.8687493611812585
1746477425208206000,9.3302060546875,-1.0782874036490917,1.7919307632893322,5.060076819679141
1746477425218185200,9.340185302734374,-1.1038801100671292,1.7067308526486158,5.162357044458389
1746477425228163800,9.350163818359375,-0.9921242009341716,1.6322078188449143,5.100886384451389
1746477425238143000,9.36014306640625,-0.8910708876013755,1.5415917283743619,4.894394090047478
1746477425248121900,9.370121826171875,-0.857561416709423,1.5523597906261681,4.59365874684751
1746477425258101000,9.38010107421875,-0.7453378900647163,1.6933628370314835,4.32584426099658
1746477425268079900,9.390079833984375,-0.5249333901643752,2.0258394724071023,4.130197185733914
1746477425278059000,9.40005908203125,-0.22582305435035377,2.587289114063978,3.9985307074725625
1746477425288038000,9.410037841796875,0.003183287944924086,3.224425572606921,3.940479500520229
1746477425298017000,9.42001708984375,0.0464940401494503,3.8257916295886036,3.8890234540492292
1746477425307996200,9.42999609375,-0.2084101107239723,4.311978817251324,3.841177999290824
1746477425317974000,9.43997412109375,-0.46327338159773496,4.832770577566325,3.9431320608556266
1746477425327953200,9.449953125,-0.8149275591194629,5.2621512976408,4.068611959436535
1746477425337932000,9.45993212890625,-1.3179577450335025,5.398339052718877,4.282013887098431
1746477425347911200,9.4699111328125,-1.7856114971399306,5.393741788056492,4.391387285009026
1746477425357890000,9.47989013671875,-2.0992273647010324,5.369896217566728,4.23389896774888
1746477425367869200,9.489869140625,-2.243951477456093,5.543015234678983,3.796681854960322
1746477425377848000,9.49984814453125,-2.21312730012536,5.715387232816219,3.368513725546002
1746477425387827200,9.5098271484375,-2.0918027676582334,5.595165108633041,3.135793349429965
1746477425397806000,9.51980615234375,-1.9800924512326716,5.261317769426107,3.0559768853932616
1746477425407785200,9.52978515625,-1.8151251763939857,4.996017312222719,2.906486581149697
1746477425417764000,9.53976416015625,-1.6283096423625945,4.8232796956434845,2.787069343608618
1746477425427743000,9.549742919921876,-1.4393711248278618,4.609871630501747,2.6833979567319153
1746477425437721000,9.55972119140625,-1.251515726354718,4.350882256141305,2.6798428945988415
1746477425447700000,9.569699951171875,-0.994499697893858,4.2183167832136155,2.704568170532584
1746477425457679000,9.57967919921875,-0.7299339847058057,4.333331401881575,2.7096418205350634
1746477425467658000,9.589657958984375,-0.5182622418373822,4.679350824919343,2.7023820586651564
1746477425477637000,9.59963720703125,-0.5041887082993984,4.9608331861168145,2.8237258803546426
1746477425487616000,9.609615966796875,-0.563405488432385,5.131477337548136,2.96472541962862
1746477425497595100,9.61959521484375,-0.49153435737695544,5.215399483337998,2.9242484478116033
1746477425507574000,9.629573974609375,-0.2868114472657442,5.144943552842736,2.6014994257241484
1746477425517553200,9.63955322265625,-0.05212470298018306,4.889699794751405,2.132443990126252
1746477425527532000,9.649531982421875,0.14699666079692542,4.411638045877218,1.6738047346025704
1746477425537511200,9.65951123046875,0.42086160579323767,3.711059334993362,1.1946686344951392
1746477425547490000,9.669489990234375,0.7237737085103988,2.8979344413816928,0.5884592291355133
1746477425557468200,9.67946826171875,0.9784675045687705,2.262486666578054,0.14203414301872253
1746477425567447300,9.689447265625,1.0315578011780977,1.5099305156975984,-0.10144318943321705
1746477425577426200,9.69942626953125,1.0306547879237682,0.785572285297513,-0.2666121243238449
1746477425587405300,9.7094052734375,0.9849544554352759,0.12535305733084678,-0.2172685399621725
1746477425597384200,9.71938427734375,0.8734550783466547,-0.5358779780268669,0.01554419061243534
1746477425607363300,9.72936328125,0.8008318137496709,-1.169739360421896,0.1640688646942377
1746477425617342200,9.73934228515625,0.8750186744015663,-1.6693196981430052,0.28029110558629033
1746477425627321300,9.7493212890625,1.0574690720260143,-2.0444705231189726,0.38108196859061716
1746477425637300200,9.75930029296875,1.3669161294698715,-2.396523381102085,0.388296137753129
1746477425647279400,9.769279296875,1.5223253023684025,-2.6914316255837676,0.3451332878530025
1746477425657258200,9.77925830078125,1.6607668277226388,-2.9365906275123357,0.3362146528601646
1746477425667237000,9.789237060546874,1.8373977984786032,-3.11896145709455,0.4485708659738302
1746477425677215000,9.799215087890625,1.7686305517226457,-3.317373905417323,0.33826983182430265
1746477425687194000,9.809194091796876,1.9361668002665042,-3.2887259030818936,0.09474106144607067
1746477425697173000,9.819173095703125,2.103393690600246,-3.2895050707608458,0.07148819615244865
1746477425707152100,9.829152099609376,2.161450888901949,-3.296968246248364,-0.04598258349597454
1746477425717131300,9.83913134765625,2.134378173059225,-3.0708301711320876,-0.3168921127527952
1746477425727110100,9.849110107421875,1.735494005796313,-2.762668477323651,-0.3274877410471439
1746477425737089300,9.85908935546875,1.1154998207122087,-2.4696570063740015,-0.2700795081734657
1746477425747068200,9.869068115234375,0.6140547120325267,-2.011134655228257,-0.335218043038249
1746477425757047300,9.87904736328125,0.33490656593628226,-1.563719973552227,-0.3708808925718069
1746477425767026200,9.889026123046875,0.07613572969734668,-1.133757361936569,-0.44480069978535175
1746477425777005300,9.89900537109375,-0.25295535489320753,-0.8919435787826776,-0.6352712491929531
1746477425786984200,9.908984130859375,-0.5424304684102534,-0.7510130130916833,-1.0104185670375823
1746477425796962300,9.91896240234375,-0.7420681476790457,-0.6300234116673469,-1.6046142939984798
1746477425806941200,9.928941162109375,-0.967896937650442,-0.5762579192101955,-2.2277710347667337
1746477425816920000,9.938920166015626,-1.1150474007695912,-0.5422767391532659,-2.717990838946402
1746477425826899000,9.94889892578125,-1.201968801440671,-0.4797124386906624,-3.1461896557599305
1746477425836878000,9.958878173828126,-1.2318617623358965,-0.35111353130638595,-3.564671380679309
1746477425846857000,9.96885693359375,-1.1876216385930776,-0.10979425367116928,-4.038609327621757
1746477425856836000,9.978836181640625,-1.11702659188807,0.17826690139472484,-4.5105774357959625
1746477425866815000,9.98881494140625,-1.1199245783518998,0.36346798596680163,-4.863841423134505
1746477425876794000,9.998794189453125,-1.1644622237365692,0.36953649222552776,-5.117393282616138
1746477425886773000,10.00877294921875,-1.21557347535789,0.13504033860862255,-5.338997221434116
1746477425896752000,10.018752197265625,-1.2496587003111839,-0.2165536696910858,-5.666109699428081
1746477425906731000,10.02873095703125,-1.1350064852148294,-0.40432022083699704,-6.187835233461857
1746477425916709000,10.038709228515625,-0.9220715905427932,-0.40533378179371354,-6.75352207429707
1746477425926688300,10.048688232421876,-0.8882195898234844,-0.4015186074197292,-7.126200371679663
1746477425936667100,10.058667236328125,-1.1074152984559535,-0.46746202892661093,-7.368445531988144
1746477425946646300,10.068646240234376,-1.4071516937464474,-0.5423690936118364,-7.49603555459082
1746477425956625200,10.078625244140625,-1.629537722852826,-0.47478959533572196,-7.580799411901832
1746477425966604300,10.088604248046876,-1.7754735494852065,-0.344834012645483,-7.566696067747473
1746477425976583200,10.098583251953125,-1.9108903201907872,-0.27223054872751234,-7.458619723910092
1746477425986562300,10.108562255859376,-1.825924802827835,-0.2388093406409025,-7.364148711577057
1746477425996541200,10.118541259765625,-1.4912117867022752,-0.11050210967957973,-7.467141468539833
1746477426006520300,10.128520263671875,-1.113104450008273,-0.05389058014154434,-7.666665092974901
1746477426016499000,10.1384990234375,-0.9060726419001817,-0.09958382530212402,-7.6634665891945355
1746477426026478000,10.14847802734375,-0.9273474851191044,-0.16832418405115604,-7.415648597189784
1746477426036456200,10.158456298828124,-1.0505039091885089,-0.23590134423971174,-7.016017410951853
1746477426046435000,10.16843505859375,-1.1696505130946635,-0.29467794285714627,-6.446620609682798
1746477426056414200,10.178414306640626,-1.2269435951560734,-0.2738011590451002,-5.858384083387255
1746477426066393000,10.18839306640625,-1.199642915776372,-0.08021393892168999,-5.286109680855274
1746477426076372200,10.198372314453126,-1.1852192536264656,0.14734510890841485,-4.697808564890921
1746477426086351000,10.20835107421875,-1.2673352267771958,0.39444881516396996,-4.15955041372925
1746477426096330200,10.218330322265626,-1.2788994078427551,0.6405231783717871,-3.6569288086161014
1746477426106309000,10.22830908203125,-1.2816916689097881,0.8164291958540677,-3.1227778005123135
1746477426116288300,10.238288330078126,-1.3726958819150923,0.8502192372530698,-2.501158060052991
1746477426126267100,10.24826708984375,-1.4981214199602604,0.6831529443085194,-1.7647458192437886
1746477426136246300,10.258246337890625,-1.6536451591491699,0.4262725249260664,-1.15160398427248
1746477426146225200,10.26822509765625,-1.729669829687476,0.07318564772009849,-0.7370218971401452
1746477426156203300,10.278203369140625,-1.7629653655678033,-0.23781097725331782,-0.42128830677270884
1746477426166182100,10.28818212890625,-1.7531722858279943,-0.48625090054869646,-0.07131459315121173
1746477426176161000,10.2981611328125,-1.6188748745411634,-0.6989636769026517,0.3839700912475586
1746477426186140200,10.30814013671875,-1.4712369201660156,-0.8048661838322877,0.827706376671791
1746477426196119000,10.318119140625,-1.4393717093497513,-0.905288798046112,1.1920488073855637
1746477426206098200,10.32809814453125,-1.2963947325229643,-0.9133797500431537,1.5929460680365561
1746477426216077000,10.3380771484375,-1.011051604244113,-0.7312041507720947,1.9478589916259048
1746477426226056200,10.34805615234375,-0.7569348043560982,-0.5208312155425548,2.3167338050723076
1746477426236035000,10.35803515625,-0.7711199815750122,-0.3095166155487299,2.69347862124145
1746477426246014200,10.36801416015625,-0.4635100764304399,0.022720950374007225,3.062911068570614
1746477426255993000,10.3779931640625,-0.2806505865484476,0.35959435940384865,3.34501886819005
1746477426265971200,10.38797119140625,-0.522554422605969,0.5585007287234067,3.584610883641243
1746477426275950000,10.3979501953125,-0.7362462365925312,0.7442074247300624,3.8212656765967603
1746477426285929200,10.40792919921875,-0.8066174114137887,0.9249252264082432,4.127263470369577
1746477426295908000,10.417908203125,-0.7598959922492504,1.0568757823079824,4.385017749977112
1746477426305887200,10.42788720703125,-0.5949725200196728,1.254926996102929,4.539380628693103
1746477426315866000,10.4378662109375,-0.43828444975912567,1.4556190797954798,4.729436752080917
1746477426325845200,10.44784521484375,-0.2655155612587929,1.6799427989661693,4.73679763623774
1746477426335824100,10.45782421875,-0.05071078106164932,2.0045967778921128,4.623844626274705
1746477426345803300,10.46780322265625,0.13637651911582796,2.467984689247608,4.453638281738757
1746477426355782100,10.4777822265625,0.25016952356696126,3.023912937134504,4.2817537748575205
1746477426365761000,10.487760986328125,0.3660597560256719,3.580589957562089,4.142851500123739
1746477426375740200,10.497740234375,0.530036887315847,4.098278783425688,4.062670878949761
1746477426385718000,10.507718017578124,0.5318804693559185,4.499335618552565,4.060325777128338
1746477426395697200,10.517697265625,0.31852932203318923,4.871930037043988,4.058787315514683
1746477426405676000,10.527676025390624,0.01744268117751926,5.194276615810394,4.041123648530244
1746477426415655200,10.5376552734375,-0.32833003709018227,5.227370491638779,4.272642247641087
1746477426425634000,10.547634033203124,-0.7567845822304486,5.038006442168355,4.48317592639029
1746477426435613200,10.55761328125,-1.1792892790555953,4.886006493191421,4.474598067659139
1746477426445592000,10.567592041015626,-1.3280711427688598,5.056289702355861,4.208807196590304
1746477426455571200,10.5775712890625,-1.329070675200224,5.377905921021104,3.922937414088845
1746477426465550000,10.587550048828126,-1.416958802011609,5.515375532603263,3.90345822211504
1746477426475529200,10.597529296875,-1.562805781316757,5.352949758940935,4.094891479074954
1746477426485508000,10.607508056640626,-1.559570452657342,5.225190809512138,4.0405911490887405
1746477426495487200,10.6174873046875,-1.3981851279586552,5.24454666736722,3.8212224219769237
1746477426505464800,10.62746484375,-1.1501087772786616,5.233162519043684,3.669693305382132
1746477426515443700,10.637443603515624,-0.8331441838115453,5.134702144813537,3.673958561611175
1746477426525422800,10.6474228515625,-0.57579022863321,4.819198856070638,3.7863773185670375
1746477426535401500,10.6574013671875,-0.410913043230772,4.4351288115799425,3.7027047636240717
1746477426545380600,10.667380615234375,-0.22599771679751574,4.209786270755529,3.3258979881346225
1746477426555359500,10.677359375,-0.07683766742162405,4.15422571157515,2.967388501358032
1746477426565338600,10.687338623046875,0.02927760547585785,4.205843086087704,2.763018021413684
1746477426575317500,10.6973173828125,0.185454840137437,4.31912985804975,2.4585715487360953
1746477426585296600,10.707296630859375,0.41011692441701886,4.461301363712549,2.1131875009924173
1746477426595275500,10.717275634765626,0.7612146736323833,4.5454456278204916,1.65094057636559
1746477426605254700,10.727254638671875,1.118171670269966,4.4320203241705896,1.120715509533882
1746477426615232800,10.737232666015625,1.3842331749737262,3.9881899307221174,0.6673387045830488
1746477426625211600,10.747211669921874,1.612692240383476,3.321419381415844,0.13370353704690932
1746477426635190800,10.757190673828125,1.7152946828544138,2.6620377733170986,-0.4403057264536619
1746477426645169700,10.767169677734374,1.6755565467059612,2.0070739816606045,-0.7893120563477277
1746477426655148800,10.777148681640625,1.4471920277118682,1.3639151940882206,-0.852580121165514
1746477426665127700,10.787127685546874,1.1196703113298863,0.7143254966855048,-0.7125584870129823
1746477426675106800,10.79710693359375,0.769017967794463,0.042382513177394866,-0.48599078830778597
1746477426685085700,10.807085693359374,0.48945108482949434,-0.6309060397207736,-0.32176176461577416
1746477426695064800,10.81706494140625,0.39001338999979196,-1.2955185342103241,-0.25554303329885003
1746477426705043700,10.827043701171876,0.39308220298588276,-1.897099110725522,-0.22383739695847032
1746477426715022800,10.83702294921875,0.463159363296628,-2.3293407731890676,-0.1129611932694912
1746477426725001700,10.847001708984376,0.6579987023729831,-2.6756664856970307,0.09404255778789519
1746477426734979600,10.8569794921875,0.8701333135128021,-2.9255718053698536,0.3230757698237896
1746477426744958700,10.866958740234375,1.0148815377958118,-2.987750905907154,0.4799532617092132
1746477426754937600,10.8769375,1.0378852506339549,-3.0275398954600092,0.6762018099963665
1746477426764916700,10.886916748046875,1.1034393805623053,-3.0573090107798575,0.7600766095131635
1746477426774895600,10.8968955078125,1.263829702874273,-2.748071796694398,0.7990233030229806
1746477426784874800,10.906874755859375,1.109813445638865,-2.571811558946967,0.7583826650768518
1746477426794853600,10.916853515625,0.9314397959340364,-2.2592934234946966,0.5620435158967971
1746477426804832800,10.926832763671875,0.6659114482589066,-1.9256734633028507,0.3811100256413221
1746477426814811600,10.936811767578124,0.19819500617980956,-1.5882307299524545,0.3068219696372747
1746477426824790800,10.946790771484375,-0.28403438376784323,-1.409815944519639,0.36650808431506154
1746477426834769700,10.956769775390624,-0.5910047488998621,-1.1354910538613796,0.57535424836874
1746477426844747800,10.966747802734375,-0.8968997398853301,-0.8838818528801202,0.6089519820660352
1746477426854727000,10.976726806640626,-1.1198387266993521,-0.8527414492070674,0.43139001407027244
1746477426864705800,10.986705810546875,-1.1578582954268901,-0.9181792592793703,-0.002932546320557594
1746477426874685000,10.996684814453126,-1.1042699131023137,-1.034960887619853,-0.5633551830172538
1746477426884663600,11.00666357421875,-1.0694190375387669,-1.0592828434497117,-1.0890063660621643
1746477426894642700,11.016642578125,-1.0554261680215598,-0.9898077406853437,-1.6311568484872578
1746477426904621600,11.02662158203125,-1.1127310135859996,-0.8335995263636111,-2.276907406118512
1746477426914600700,11.0366005859375,-1.225358956313133,-0.706242143473029,-2.937783344428241
1746477426924579600,11.04657958984375,-1.299234339863062,-0.5793903720170259,-3.5670220354586837
1746477426934558700,11.056558837890625,-1.337943717485666,-0.36338323029279707,-4.173075957995653
1746477426944537600,11.06653759765625,-1.299558749511838,-0.07255670216679573,-4.753502687323093
1746477426954516700,11.076516845703125,-1.2219126152515412,0.2787766093701124,-5.241309585142135
1746477426964494600,11.08649462890625,-1.2419716529399156,0.452176196989417,-5.606228354439139
1746477426974473700,11.0964736328125,-1.4152572587907313,0.3469914829403162,-5.8137605132848025
1746477426984452600,11.10645263671875,-1.6265788730472326,0.1354436587125063,-6.1373506623715155
1746477426994431700,11.116431640625,-1.6601994030982254,0.08022387579381465,-6.595762538880109
1746477427004410600,11.12641064453125,-1.6253092915028333,0.07758417493999004,-6.969492975664139
1746477427014389800,11.1363896484375,-1.7767676809489725,-0.04193944558501243,-7.269710432469845
1746477427024368600,11.14636865234375,-2.067654999351501,-0.23658581937253473,-7.495652692753076
1746477427034347800,11.15634765625,-2.3185282872736455,-0.3737847973197698,-7.65877872363925
1746477427044326700,11.16632666015625,-2.4896868179678915,-0.4102671465426683,-7.82383075415194
1746477427054305800,11.176305908203124,-2.60035902351737,-0.35678514720201493,-7.9264950098127125
1746477427064285000,11.186284912109375,-2.6578268776237963,-0.3763800745099783,-7.856364658010006
1746477427074262500,11.196262451171876,-2.540601012647152,-0.459932802465558,-7.739966476029157
1746477427084241700,11.20624169921875,-2.075576440000534,-0.3758709559440613,-7.766322568035125
1746477427094220500,11.216220458984376,-1.5173486829996108,-0.2665302912592888,-7.883935386502742
1746477427104199700,11.22619970703125,-1.272077452868223,-0.2697305486053228,-7.860766107839345
1746477427114178600,11.236178466796876,-1.2686059773653744,-0.35265257744193074,-7.564473715522885
1746477427124157700,11.24615771484375,-1.3968331288278102,-0.4825947161287069,-7.054514022606611
1746477427134136600,11.256136474609375,-1.5204975024193523,-0.6301303791731596,-6.41511663339436
1746477427144115700,11.26611572265625,-1.54554894156754,-0.6985586032330989,-5.846526472333073
1746477427154094600,11.276094482421875,-1.5400702178955077,-0.6044938336133957,-5.401240034857392
1746477427164073700,11.28607373046875,-1.499088219165802,-0.35436639562249184,-4.927014503145218
1746477427174052600,11.296052490234375,-1.5287906989902258,-0.052364978009462354,-4.355587657353282
1746477427184031700,11.30603173828125,-1.642038892507553,0.16809505147039888,-3.747294431456923
1746477427194009900,11.316009765625,-1.7638146758735178,0.24376491722166538,-3.105133715011179
1746477427203988700,11.32598876953125,-1.9024305348813533,0.18624737875461578,-2.464664604914188
1746477427213968000,11.3359677734375,-2.0621435424536467,-0.01237315936088562,-1.867396630901098
1746477427223946800,11.34594677734375,-2.0810323673188686,-0.2887818705558777,-1.2938637527406216
1746477427233925600,11.355925537109375,-2.101076791960001,-0.582612841194868,-0.9261346021980047
1746477427243904500,11.365904541015626,-2.041718594062328,-0.8266998299777507,-0.5927952125132083
1746477427253883600,11.375883544921875,-1.8322890771627425,-0.8912667024344205,-0.2357762565553188
1746477427263862500,11.385862548828126,-1.5484855795413255,-0.887651434546709,0.26037118410766125
1746477427273841700,11.395841552734375,-1.3449293385893106,-0.8095680779129266,0.7427016963422298
1746477427283820500,11.405820556640625,-1.2174883690685032,-0.6759925511598587,1.095897879141569
1746477427293799700,11.415799560546875,-1.0867530341774225,-0.4559779273599386,1.461664789700508
1746477427303777800,11.42577783203125,-0.8725988268435001,-0.1120060845017433,1.8346312563747167
1746477427313756700,11.435756591796874,-0.43789402566943314,0.3219190010040998,2.310399341353774
1746477427323735800,11.44573583984375,-0.6400012003242969,0.7630085713118314,2.8101971212178465
1746477427333714700,11.455714599609376,-0.6642290481299161,1.2088228320538996,3.040231619250774
1746477427343693800,11.46569384765625,-0.7249135261952877,1.6398650555998087,3.2181320254206653
1746477427353672700,11.475672607421876,-0.8567886787712573,1.9183704468131064,3.4967473067492243
1746477427363651800,11.48565185546875,-0.8407891456067562,2.1267618528366086,3.7752129504740237
1746477427373630700,11.495630615234376,-0.7382581609368324,2.2966122235417363,3.967484996345639
1746477427383609900,11.50560986328125,-0.6111521224588156,2.397519406402111,4.206591274106502
1746477427393588700,11.515588623046876,-0.4940899236112833,2.463396776935458,4.377205030399561
1746477427403567900,11.52556787109375,-0.38819676903188227,2.4635125122696158,4.45057480251491
1746477427413545700,11.535545654296875,-0.27034488111138344,2.46106161198616,4.462223739254474
1746477427423524600,11.545524658203124,-0.13279285194277762,2.5240292325526474,4.41456240889132
1746477427433503700,11.555503662109375,0.009721777202421799,2.6743314377009866,4.360978118219972
1746477427443482600,11.565482666015624,0.1322895785957575,2.886256863069534,4.349218122321367
1746477427453461800,11.575461669921875,0.24577041182518003,3.1427246099978685,4.348679193139076
1746477427463440600,11.585440673828124,0.30138650058507915,3.4317852974951264,4.371040078029036
1746477427473419800,11.595419677734375,0.35721360174715516,3.7800299953669305,4.3271576816827055
1746477427483398700,11.605398681640626,0.35206454842090606,4.112804444645345,4.30059174631834
1746477427493377800,11.615377685546875,0.26027181538641453,4.412424812340736,4.247193333607912
1746477427503356700,11.625356689453126,0.02424304765803972,4.730964400039613,4.258942223590612
1746477427513335800,11.635335693359375,-0.27964053272306916,4.9113095690131185,4.437696616241336
1746477427523313700,11.645313720703125,-0.590522591406107,5.141505979609489,4.602707145699858
1746477427533292800,11.655292724609374,-0.855418559461832,5.455089113944768,4.723640633022785
1746477427543271400,11.665271484375,-1.024399161595106,5.8755941613852976,4.6944694835960865
1746477427553250600,11.67525048828125,-1.1910948676615953,6.205783562606573,4.723489826375245
1746477427563229400,11.6852294921875,-1.3581640832155941,6.392675669005513,4.7794314938277
1746477427573208600,11.69520849609375,-1.3003186279684305,6.552602027067541,4.572463398605585
1746477427583187500,11.7051875,-1.0167121142238378,6.741038440299033,4.204764058679342
1746477427593166600,11.71516650390625,-0.7213800913721322,6.6428060296058655,4.118229684564471
1746477427603145500,11.7251455078125,-0.5702455635854974,6.169449681943655,4.265932520869374
1746477427613124600,11.73512451171875,-0.5627420560875908,5.3872103404611345,4.333763948079944
1746477427623103700,11.745103759765625,-0.5721112843921408,4.585883436670899,3.8793051931113003
1746477427633082600,11.75508251953125,-0.4745160390913486,3.9584260760992764,3.065581164562702
1746477427643060700,11.765060791015625,-0.22710491085443643,3.498329022982716,2.3466408675581216
1746477427653039600,11.77503955078125,0.10520341874957084,3.2666789064466952,1.8017314418137071
1746477427663018800,11.785018798828125,0.46679742753803727,3.116436322531104,1.4539017544835806
1746477427672997600,11.79499755859375,0.7793383593440055,3.035119975325465,1.1216267791599035
1746477427682976800,11.804976806640624,0.919649331831932,3.1025954287052153,0.8355237724244594
1746477427692955600,11.81495556640625,0.9737889182984828,3.031682402092218,0.5469213500887156
1746477427702934800,11.824934814453124,0.8268804472416639,2.7698031515091657,0.13797697658240796
1746477427712913700,11.83491357421875,0.7323024674028158,2.4175398656457663,-0.3314981457322836
1746477427722892800,11.844892822265624,0.6602747575461864,1.9580840330421923,-0.7700263411194086
1746477427732871700,11.85487158203125,0.4284779260158539,1.3993483265191315,-1.0423194336891173
1746477427742850600,11.8648505859375,0.21631047205235807,0.8468564828217029,-1.1620599118351935
1746477427752828700,11.87482861328125,0.021428572475910186,0.31162673957049847,-1.1196429118663072
1746477427762807600,11.8848076171875,-0.13139818271398543,-0.2852741546958685,-1.0087883354872464
1746477427772786700,11.89478662109375,-0.31485505396723745,-0.9529793545037507,-0.8390361644595861
1746477427782765600,11.904765625,-0.3079197017461061,-1.5186305395036934,-0.7407365337491035
1746477427792744700,11.91474462890625,-0.14003564441157504,-1.9825252313375472,-0.7400906370609999
1746477427802723600,11.9247236328125,0.025703235854115335,-2.4229613061726094,-0.6630792935729026
1746477427812702700,11.93470263671875,0.1381528811385855,-2.7659616736501453,-0.4941489603221416
1746477427822681600,11.944681640625,0.34853173465225845,-3.0065251644819972,-0.27262743909060955
1746477427832660700,11.95466064453125,0.5262643830398097,-3.0979607546418904,-0.07924713971614837
1746477427842639600,11.9646396484375,0.5984113353619351,-3.012442864093184,0.08557283560633659
1746477427852618800,11.97461865234375,0.5804769982099532,-2.909720740765333,0.24920213983953
1746477427862596900,11.984596923828125,0.6356751538187265,-2.773454075232148,0.2882499556362629
1746477427872575700,11.99457568359375,0.5761375077009201,-2.512093880087137,0.2411059271454811
1746477427882555000,12.004554931640625,0.3386386286040768,-2.3250831157445906,0.24444530070126055
1746477427892533500,12.014533447265626,0.04226264965739101,-2.0355086335062977,0.30589316435456276
1746477427902512600,12.0245126953125,-0.2686766556382179,-1.7917472234159706,0.4280670071274042
1746477427912491500,12.034491455078125,-0.5558967202374712,-1.4954133300453423,0.8069745542883873
1746477427922470700,12.044470703125,-0.8504647364467381,-1.3045184177458287,1.1103121889412402
1746477427932449500,12.054449462890625,-1.0342939481437206,-1.3547592432081699,1.1783645654261112
1746477427942428700,12.0644287109375,-1.1008008487522603,-1.47439918358922,0.9845879602104425
1746477427952407600,12.074407470703125,-1.0802969899058341,-1.663773754453659,0.5533171886056661
1746477427962386700,12.08438671875,-1.0791694471806288,-1.8214514568060636,0.07558744816482067
1746477427972364500,12.094364501953125,-1.0108271478384732,-1.806254472196102,-0.43004912085533137
1746477427982343700,12.10434375,-0.9473761276692152,-1.7388105829983949,-1.0869973643273114
1746477427992322600,12.114322509765625,-0.8734598275870085,-1.5014052639365196,-1.764741143068671
1746477428002301700,12.1243017578125,-0.8142875076502561,-1.16273795722723,-2.4135066646069285
1746477428012280600,12.134280517578125,-0.7436328397125005,-0.7646475706905126,-2.9894898585289713
1746477428022259700,12.144259765625,-0.7266285134196281,-0.31795769615769387,-3.4141175388574596
1746477428032238800,12.15423876953125,-0.8113210590600967,0.26021394771933554,-3.7466762995585796
1746477428042217700,12.1642177734375,-0.9810182850301266,0.7415484346538782,-3.9121903946250676
1746477428052196900,12.17419677734375,-1.2060299864649773,0.9093068015158176,-4.1619849473997945
1746477428062175700,12.18417578125,-1.5615502282977103,0.7952040369957685,-4.499908742265403
1746477428072155000,12.19415478515625,-1.785553044950962,0.4316337596982717,-4.904152682995796
1746477428082132500,12.204132568359375,-1.7912977260828018,0.17383096477389334,-5.4633776343405245
1746477428092111600,12.214111572265624,-1.6129928307652472,0.10606091236174106,-6.106102122148871
1746477428102090500,12.224090576171875,-1.5856664324223995,0.09739186821579933,-6.6204854767262935
1746477428112069600,12.234069580078126,-1.819744068366289,0.11227379552721976,-6.924167979294062
1746477428122048500,12.244048583984375,-2.0985189241707323,0.23482874657213687,-7.077151386350393
1746477428132027600,12.254027587890626,-2.3789468078792093,0.4484925400406122,-7.086101585525274
1746477428142006500,12.264006591796875,-2.6174305698275564,0.7516402050793171,-6.898300547587871
1746477428151985700,12.273985595703126,-2.739336117053032,0.9562731353521347,-6.545826249322295
1746477428161964500,12.283964599609375,-2.5946505827426907,0.9236164818972349,-6.207325531351566
1746477428171943700,12.293943603515626,-2.0772224536418915,0.7755050647914409,-6.214398830738664
1746477428181922600,12.303922607421875,-1.4678618907749652,0.5370031826645135,-6.554717411786317
1746477428191900700,12.313900634765625,-1.0167629676282406,0.12073182727098464,-6.970594799426197
1746477428201879800,12.3238798828125,-0.7836392714083195,-0.3549281211584806,-7.173840659254789
1746477428211858700,12.333858642578125,-0.6062362933665514,-0.7635059994399547,-7.071287462753057
1746477428221837800,12.343837890625,-0.5447679714471101,-1.2071405780553817,-6.813272486382722
1746477428231816700,12.353816650390625,-0.5619090758621692,-1.3956389506071805,-6.322117447179555
1746477428241795600,12.363795654296876,-0.5052086989969015,-1.2986679381519555,-5.732176455053687
1746477428251774500,12.3737744140625,-0.3748012808859348,-1.0107295326828956,-5.157831675988436
1746477428261753600,12.383753662109376,-0.30485096182525157,-0.6290788242936134,-4.6568072769388555
1746477428271732500,12.393732421875,-0.39818858621418474,-0.2138753903925419,-4.168663694511354
1746477428281711600,12.403711669921876,-0.6522025102496147,0.1181716213941574,-3.415761506672203
1746477428291690500,12.4136904296875,-0.9757032274872064,0.28742811785936356,-2.7752561562180516
1746477428301668600,12.423668701171875,-1.423155903086066,0.26184476379156113,-2.21702606112957
1746477428311647700,12.433647705078124,-1.8244120601773262,-0.02847206124663353,-1.6116911005169152
1746477428321626600,12.443626708984375,-2.0556348912119864,-0.34689854395985603,-1.0754238309115172
1746477428331605800,12.453605712890624,-2.173315514218807,-0.7209750177025794,-0.6113695646017789
1746477428341584600,12.463584716796875,-2.136144013687968,-1.0438222394675016,-0.20044483093321322
1746477428351563800,12.473563720703124,-1.9627689759880302,-1.1718570832282305,0.1987380270153284
1746477428361542700,12.483542724609375,-1.6728987256735561,-1.1755816567093134,0.5818769281357526
1746477428371521800,12.493521728515624,-1.3571680579155683,-1.14994394210577,0.9972761768698691
1746477428381500700,12.503500732421875,-1.1665753434330224,-1.0583552072107791,1.378586108997464
1746477428391479800,12.513479736328126,-1.0679483804643153,-0.8365367488592863,1.7806974216133356
1746477428401458700,12.523458740234375,-0.935261326983571,-0.5939852990806103,2.1536147884488104
1746477428411436500,12.5334365234375,-0.8277133909344673,-0.18914485376179216,2.5791917323261497
1746477428421415700,12.543415771484375,-0.7947299897432327,0.23326631956100463,3.031335780611634
1746477428431394600,12.55339453125,-0.7379471952915191,0.6270043561071157,3.4218834966838356
1746477428441373700,12.563373779296874,-0.7870973029077053,0.9276654650270938,3.7181992698758837
1746477428451352600,12.5733525390625,-0.8049182062804698,1.1206903750926256,4.022563909488916
1746477428461331700,12.583331787109374,-0.7131780802160501,1.3733470393002032,4.206573153927922
1746477428471310600,12.593310546875,-0.6646294456243514,1.4446581253200768,4.361818076175451
