time,seconds_elapsed,z,y,x
1746477326050671400,0.02067138671875,-1.9951830528587102,1.9052403316050768,-0.6698179541781545
1746477326060650200,0.030650146484375,-2.3988193830847737,1.6253759269982575,-0.7637494528070091
1746477326070629400,0.04062939453125,-2.563286891707778,1.3093524137735366,-0.9239230636283755
1746477326080608300,0.050608154296875,-2.557434074026346,1.1140350088566542,-1.0918795834109187
1746477326090587400,0.06058740234375,-2.3985621934533117,0.8523989193797111,-1.1974749240875244
1746477326100566300,0.070566162109375,-2.2635738772928713,0.41204526213109494,-1.2725000621944664
1746477326110546400,0.08054638671875,-2.2017758850276468,0.00653729281425476,-1.3782061697691679
1746477326120525300,0.090525390625,-2.33265618134737,-0.3396627474874258,-1.3762480214387178
1746477326130504400,0.10050439453125,-2.590331550499797,-0.7494722133904695,-1.3047820371180772
1746477326140483300,0.1104833984375,-2.7785312323659657,-1.114122687140107,-1.1329448765099048
1746477326150462500,0.12046240234375,-2.905931285354495,-1.5217325971722602,-0.8897562978714704
1746477326160441300,0.13044140625,-2.9968302844196555,-1.8891905295580624,-0.6720967127650975
1746477326170420500,0.14042041015625,-2.9106150592565534,-2.0525334180653094,-0.46107525049895043
1746477326180399400,0.1503994140625,-2.6143442942500115,-2.254707849270105,-0.23093933791816232
1746477326190378500,0.16037841796875,-2.0888363190680743,-2.405363105639815,0.054880760222673415
1746477326200357400,0.170357421875,-1.3810013534456491,-2.533605454671383,0.4353513189166784
1746477326210336300,0.180336181640625,-0.6828519155353308,-2.6748183444350957,0.7846776745453476
1746477326220316400,0.19031640625,-0.013224223232269286,-2.714026319229603,1.0136723081365226
1746477326230295300,0.20029541015625,0.6894120047032832,-2.742120194813609,1.1841530856996774
1746477326240274400,0.2102744140625,1.2664496761143207,-2.6793036731556055,1.4065481748953461
1746477326250253300,0.22025341796875,1.7610761908203363,-2.6138985963091255,1.6280919079586862
1746477326260232200,0.230232177734375,2.1227672302424905,-2.5547578405544162,1.8352230847880244
1746477326270211300,0.24021142578125,2.318506659963727,-2.5136449089214206,2.0793816775023934
1746477326280190200,0.250190185546875,2.388329553252458,-2.522849375118315,2.2457439138308164
1746477326290169300,0.26016943359375,2.3155437185049057,-2.54575181953907,2.3427798082157967
1746477326300148200,0.270148193359375,2.051937205737829,-2.510255266483128,2.367897006076574
1746477326310127400,0.28012744140625,1.686550818929076,-2.4843083397999406,2.3278493655875323
1746477326320107300,0.290107177734375,1.1688882965505123,-2.4805054403856395,2.2989891818061468
1746477326330086100,0.300086181640625,0.5724830768465995,-2.4606559537947175,2.2742843641385435
1746477326340065300,0.310065185546875,0.04768178862929344,-2.3702909154757856,2.267942009374499
1746477326350044200,0.320044189453125,-0.27946634519994257,-2.2872885148793456,2.1979256393402813
1746477326360023300,0.330023193359375,-0.5386445201307535,-2.176941011239588,2.054624837386608
1746477326370002200,0.340002197265625,-0.6674234602570533,-2.0018185453504325,1.901436847668886
1746477326379981300,0.349981201171875,-0.5376882423192262,-1.791192804403603,1.7413386401712894
1746477326389960200,0.359960205078125,-0.3798644094944,-1.6483832930982112,1.7247902409523725
1746477326399939300,0.369939208984375,-0.36411154456734657,-1.4279349540561437,1.824952742925286
1746477326409918200,0.379918212890625,-0.3638438335418701,-1.0710141977757215,1.8893992038726806
1746477326419898400,0.3898984375,-0.0579530072748661,-0.8513985101655125,1.8100304836034773
1746477326429877200,0.399877197265625,-0.1593675551354885,-0.6678387630596756,1.7364508681297302
1746477326439856400,0.4098564453125,-1.148413079276681,-0.613739800864458,1.5049457130223511
1746477326449835300,0.419835205078125,-1.8507342499136923,-0.22245237234085796,1.1064046601086854
1746477326459814400,0.429814453125,-2.5756653117656705,0.1922013187229633,0.5813245549499988
1746477326469793300,0.439793212890625,-3.500159161019325,0.5227876103073358,0.135787357583642
1746477326479772400,0.4497724609375,-4.59194317510128,0.6840455092340707,-0.16929799751937388
1746477326489751300,0.459751220703125,-5.627116244167089,0.717301882147789,-0.7071662725806236
1746477326499730400,0.46973046875,-5.97903992281258,0.8903250376701355,-1.061996194061637
1746477326509710300,0.47971044921875,-5.617812993770838,1.1060410874933004,-1.376969321450591
1746477326519689200,0.489689208984375,-4.806034838593006,1.1172066246300936,-1.2659154231071472
1746477326529668400,0.49966845703125,-3.795633807212114,1.3222329381346702,-1.1675409735947846
1746477326539647200,0.509647216796875,-2.863574491140246,1.7207687303513288,-1.1577180832386016
1746477326549626400,0.51962646484375,-2.0185089833885432,2.1090672061920164,-1.0552169091850518
1746477326559605200,0.529605224609375,-1.0358025991410016,2.3856144490748643,-0.9779717569410801
1746477326569584400,0.53958447265625,-0.13537410060763358,2.713091668727994,-0.810908386605978
1746477326579563300,0.549563232421875,0.29049042803943154,3.0234611017137762,-0.42959260925948617
1746477326589542400,0.55954248046875,0.35358605889976025,3.212578775207698,0.04163432515859604
1746477326599521300,0.569521240234375,0.21875147199630737,3.287069368046522,0.3921341084808111
1746477326609501400,0.57950146484375,0.24402853659391402,3.159500972753763,0.4434475316107273
1746477326619480300,0.589480224609375,0.11219663863778113,3.322718773576617,0.3378670962423086
1746477326629459500,0.59945947265625,0.25779928779304023,3.3523137013733386,0.35150633001625536
1746477326639438300,0.609438232421875,0.644771775726974,3.2773385398879644,0.5821083988040685
1746477326649417500,0.61941748046875,1.0748360941514372,3.144177439154684,0.8706716581732035
1746477326659396400,0.629396240234375,1.3969538325980304,2.9314138093963265,1.1704197439014912
1746477326669375500,0.63937548828125,1.5864847630679606,2.4706325734078884,1.3849837010800838
1746477326679354400,0.649354248046875,1.5914888549655675,1.909098468337953,1.4984300475180148
1746477326689333500,0.65933349609375,1.5551377309069037,1.3401800982356071,1.55078976483047
1746477326699313400,0.6693134765625,1.53781834731549,0.8472226857855916,1.6229624361157415
1746477326709292300,0.679292236328125,1.5098026515342293,0.3410077323555946,1.6982962017804384
1746477326719271400,0.689271484375,1.3658005694434046,-0.06915420024693011,1.8261381533175707
1746477326729250300,0.699250244140625,1.3453282747790216,-0.40691140637397766,1.9949422298401593
1746477326739229400,0.7092294921875,1.4357745616406201,-0.7191358195766806,2.188717081490159
1746477326749208600,0.71920849609375,1.4683476284652948,-0.9625152446120977,2.3903473228156566
1746477326759187500,0.7291875,1.700126339817047,-1.1087135215729473,2.7205279562085867
1746477326769166600,0.73916650390625,2.149230582015216,-1.1102630891025065,3.2409225338995453
1746477326779145500,0.7491455078125,2.6906360912919043,-1.0497960531800985,3.3862405208945274
1746477326789124400,0.759124267578125,2.887860791134834,-1.0952835466355084,3.163004012438655
1746477326799104500,0.7691044921875,2.6952888855338095,-1.2031962243437766,2.8794202950477596
1746477326809083400,0.77908349609375,2.3798060550570486,-1.1526748283743857,2.7319699721992015
1746477326819062500,0.7890625,2.209852808499336,-0.9262538446635007,2.887899954101443
1746477326829041400,0.79904150390625,2.126201150213927,-0.6078419749975205,3.2172102344006297
1746477326839020300,0.809020263671875,2.0908977816425263,-0.23827567215561865,3.5981712069600817
1746477326848999200,0.818999267578125,1.9259680623352526,0.15415829605460166,3.81136329126358
1746477326858978300,0.828978271484375,1.566571271330118,0.5207821157038212,3.727731068331003
1746477326868957200,0.838957275390625,1.1787667164862154,0.8296084109008312,3.5398978816896673
1746477326878936300,0.848936279296875,0.9274316562712192,1.3252876495301722,3.5182506980270145
1746477326888916200,0.858916259765625,0.7871190032828599,1.956939539182186,3.52732306227684
1746477326898895400,0.868895263671875,0.6387140831232071,2.4525726005822417,3.277112037655711
1746477326908874200,0.878874267578125,0.5127437706768513,2.858626513344049,2.8000182570308447
1746477326918853400,0.888853271484375,0.41203415621519085,3.1312288179934025,2.4646155050754546
1746477326928832300,0.898832275390625,0.34835049633383747,3.3511218612402676,2.0210253501236437
1746477326938811400,0.908811279296875,0.4708101703107357,3.422169912409782,1.5994184789210557
1746477326948790300,0.918790283203125,0.649452919280529,3.3051445384413003,1.15975397298038
1746477326958769400,0.928769287109375,0.6513917053233832,3.4143864189267155,0.501643699991703
1746477326968748300,0.938748291015625,0.47436114079058167,3.4677363163203,0.0262076234459877
1746477326978727400,0.9487275390625,0.2725613150518387,3.583237257200479,-0.40067572685480113
1746477326988707300,0.958707275390625,0.08201536232046783,3.972067063438892,-0.9953490081995725
1746477326998686200,0.968686279296875,-0.07429799287617206,4.370728527861833,-1.5556810440033673
1746477327008665300,0.978665283203125,-0.25908172881901265,4.350402363669872,-2.0386387482255697
1746477327018644200,0.988644287109375,-0.3821943868119269,3.938082960772514,-2.500999070098996
1746477327028623400,0.998623291015625,-0.3335738560277968,3.301312412932515,-2.8839024088978764
1746477327038602200,1.008602294921875,-0.1318535252660513,2.7785785786390305,-3.0041502520442007
1746477327048581400,1.018581298828125,-0.09791041219718753,2.4226807356655597,-2.7365526238143443
1746477327058560300,1.028560302734375,-0.3140028210520744,1.9765555092781781,-2.2137194207996127
1746477327068539400,1.038539306640625,-0.7176268032532185,1.6187345892876386,-1.7017203310102222
1746477327078519300,1.048519287109375,-1.1367167962640523,1.4614368261635302,-1.3883768506497143
1746477327088498400,1.05849853515625,-1.376967567884922,1.5628817691624164,-1.0743670153349638
1746477327098477300,1.068477294921875,-1.6209318070709704,1.7597937497943639,-0.8675362827569246
1746477327108456400,1.07845654296875,-1.8271803558468818,1.856665978050232,-0.9579238251686095
1746477327118435300,1.088435302734375,-1.9120628711014984,1.7601976544201372,-1.3486170871913432
1746477327128414500,1.09841455078125,-1.7891332415252923,1.5482774897485971,-1.8066046008080243
1746477327138393300,1.108393310546875,-1.451729671141505,1.368181619361043,-2.306907407584786
1746477327148372500,1.11837255859375,-1.1501392454821615,1.1126719038099049,-2.5833470984399316
1746477327158351400,1.128351318359375,-0.883501913651824,0.8101338951021433,-2.528456401345134
1746477327168331300,1.138331298828125,-0.767427556797862,0.35762802776694297,-2.336574816095829
1746477327178310400,1.148310302734375,-0.7026133585166185,0.07252046180963516,-2.2139795330405234
1746477327188289300,1.158289306640625,-0.6872386792521923,-0.19724048193395136,-2.105024652802944
1746477327198268400,1.168268310546875,-0.8383720745276659,-0.628051819333434,-1.9444915610194204
1746477327208247300,1.178247314453125,-0.9768816236168145,-1.101364327853918,-1.8944705157876014
1746477327218226400,1.188226318359375,-1.0591986722975968,-1.6525561948686838,-1.8536410772711038
1746477327228205600,1.19820556640625,-1.0444038387477397,-2.254969130554795,-1.7369184856414794
1746477327238184400,1.208184326171875,-0.8271604332268238,-2.912306081083417,-1.6410557266891002
1746477327248163600,1.21816357421875,-0.5492360933044925,-3.4773750822812315,-1.5880618031263352
1746477327258143500,1.2281435546875,-0.2501771223515272,-4.044620842996239,-1.4413415481179952
1746477327268122400,1.238122314453125,0.1522919176608324,-4.524803821808099,-1.1858365087419747
1746477327278101500,1.2481015625,0.5915957005303353,-4.809095395207405,-0.9034843789726495
1746477327288080400,1.258080322265625,1.020320294783637,-4.913348965886235,-0.4891998134821653
1746477327298059500,1.2680595703125,1.476053380537033,-4.920158061379194,-0.10954875447750091
1746477327308038400,1.278038330078125,1.8505133006393908,-5.006315418875217,0.1983054808169603
1746477327318017500,1.288017578125,2.103937442088127,-5.012341839557886,0.3712175771802664
1746477327327996200,1.29799609375,2.1764660872042176,-4.848779755342006,0.4145920240044594
1746477327337975300,1.307975341796875,2.1972475939482448,-4.571861341059208,0.47197512243688106
1746477327347955500,1.31795556640625,2.1038696375489234,-4.275461981236934,0.4370183753460645
1746477327357934600,1.3279345703125,1.9775509500563144,-3.947368675512075,0.3847042507410049
1746477327367913500,1.33791357421875,1.7591197960555551,-3.58980085349977,0.26715982133448124
1746477327377892400,1.347892333984375,1.4721113649129867,-3.1727678660839795,0.06222469324469566
1746477327387871200,1.357871337890625,1.0960252318482846,-2.7399159627676006,-0.2352846736460924
1746477327397850400,1.367850341796875,0.6630266866028308,-2.2910487441956997,-0.5184814375460147
1746477327407829200,1.377829345703125,0.31515608274042606,-1.756473665460944,-0.8532640117764473
1746477327417808400,1.387808349609375,-0.10382562759034335,-1.3276689917087554,-1.148386775791645
1746477327427787300,1.397787353515625,-0.44639344886951143,-0.928579072740674,-1.4255489357024431
1746477327437766400,1.407766357421875,-0.7300438017558306,-0.17888591007590293,-2.3795991343080996
1746477327447746300,1.417746337890625,-0.9291793036561459,-0.22076631895005702,-2.5182640931546687
1746477327457725200,1.42772509765625,-1.0521014075130224,-0.6094798053324222,-2.1173744312882423
1746477327467704300,1.437704345703125,-1.1344973666489124,-0.314891294324398,-2.3444109165489673
1746477327477683200,1.44768310546875,-1.239396834015846,0.1561561918735504,-2.7761931448072192
1746477327487662300,1.457662353515625,-1.332332307344675,0.6153448979735374,-3.1169071549132465
1746477327497641200,1.46764111328125,-1.4113129050791262,0.7908774059683084,-3.134345488709211
1746477327507620400,1.477620361328125,-1.4645827229738235,0.8630132523745297,-3.164593619717657
1746477327517599200,1.48759912109375,-1.552134165176749,1.0080886627852916,-3.368612802006304
1746477327527578400,1.497578369140625,-1.5396698204010724,1.3291267893016339,-3.8861750788807865
1746477327537558300,1.507558349609375,-1.3942238231122492,1.7631980052798986,-4.470734962490201
1746477327547537400,1.517537353515625,-1.1796698758710176,1.9991566326647996,-4.735401505704224
1746477327557516300,1.527516357421875,-1.0137100097984075,2.2626322125285863,-4.933639474242925
1746477327567495400,1.537495361328125,-0.919490926399827,2.5714614303350447,-5.067153626197576
1746477327577474300,1.547474365234375,-0.9575788841884583,2.776391297727823,-4.976530521464348
1746477327587453200,1.557453125,-1.177989886894822,2.877814613416791,-4.823731823325157
1746477327597432000,1.56743212890625,-1.4809575191915034,2.7438153082937,-4.648097900782525
1746477327607411200,1.5774111328125,-1.7820827384918927,2.232663775244355,-4.444542536613345
1746477327617390000,1.58739013671875,-1.8855501272290944,1.361021810734272,-4.35388465282768
1746477327627370200,1.597370361328125,-1.8485627510935068,0.49394320861697194,-4.283668084046244
1746477327637349000,1.60734912109375,-1.6882056003987789,-0.18973697443604468,-4.1890930268168445
1746477327647328300,1.617328369140625,-1.4807406615704297,-0.4512625892758369,-4.016231199336052
1746477327657307100,1.62730712890625,-1.3453478562623262,-0.47333822748363014,-3.6421056257545947
1746477327667286300,1.637286376953125,-1.3130670503824948,-0.3594868073761463,-3.130921067218482
1746477327677265200,1.64726513671875,-1.2602765404373406,-0.11385317367315291,-2.7157366302788257
1746477327687244300,1.657244384765625,-1.1682178499430418,0.2544102298766374,-2.4725641259923576
1746477327697223200,1.66722314453125,-1.1231260778069496,0.6783768159478902,-2.2222300595134494
1746477327707202300,1.677202392578125,-1.0885153676748276,1.018897641569376,-1.8751818779498337
1746477327717182200,1.68718212890625,-1.0772843640863894,1.260913669297099,-1.52868957670331
1746477327727161000,1.6971611328125,-1.1690945597123354,1.3226637307673692,-1.0519295580774546
1746477327737140200,1.70714013671875,-1.373196232652664,1.0156044452428816,-0.5196908133357763
1746477327747119000,1.717119140625,-1.5888099911451339,0.4678156646698713,-0.09573591770231724
1746477327757098200,1.72709814453125,-1.7295102552115915,-0.17146832729578018,0.2603290985316038
1746477327767077000,1.7370771484375,-1.8771867880314588,-0.4771750291675329,0.2421697569847107
1746477327777056300,1.74705615234375,-1.8996417809456585,-1.2302163332164286,0.778744485104084
1746477327787035100,1.75703515625,-1.540384690672159,-1.8949241047739982,1.6484855844289064
1746477327797014300,1.76701416015625,-1.3362164553016422,-1.6243255411624908,1.816730273503065
1746477327806994200,1.776994140625,-1.1432475862722844,-1.7773855205863713,2.3007436242580415
1746477327816973300,1.786973388671875,-0.8068745279800147,-1.939884359484911,2.8903187056809663
1746477327826952200,1.7969521484375,-0.4924946903090924,-1.8607868573725221,3.2320933307558297
1746477327836931300,1.806931396484375,-0.25460129546932875,-1.725471793475747,3.497542256519198
1746477327846910200,1.81691015625,-0.011922492983937263,-1.5992507211387157,3.7843887750983236
1746477327856889300,1.826889404296875,0.11142923446185886,-1.3115081305027008,3.935999724757671
1746477327866868200,1.8368681640625,0.14980601912923155,-1.0264484953403472,4.174136280703545
1746477327876847400,1.846847412109375,0.33753749896176155,-0.8713537952184677,4.520100758683681
1746477327886826200,1.856826171875,0.5738555342435836,-0.6069073244959116,4.738120409274101
1746477327896805400,1.866805419921875,0.7183563596367836,-0.22626783897578714,4.896116091534495
1746477327906785300,1.876785400390625,0.8789555754590779,0.029186346995830535,5.057399124902487
1746477327916764200,1.88676416015625,0.9489484915524721,0.12142740831971167,5.020815653392672
1746477327926743300,1.896743408203125,1.1639590234547852,-0.03864157308340072,4.522430078414082
1746477327936722200,1.90672216796875,1.1570990745574234,0.41759763556122775,4.230664223611354
1746477327946701300,1.916701416015625,0.34037659484520555,1.1333405978292226,5.387532996544242
1746477327956680200,1.92668017578125,0.5686090118922292,0.6931599590599536,4.610449138128757
1746477327966659300,1.936659423828125,0.7377415166515856,1.3481518077671526,4.065151589849591
1746477327976638200,1.94663818359375,0.8303321220654993,1.862144701722264,3.779202896893024
1746477327986617300,1.956617431640625,0.6941431979436427,2.2689041324049235,3.545374851796031
1746477327996597200,1.96659716796875,0.5203939931690693,2.7963538893043993,3.4314988817691803
1746477328006576400,1.976576416015625,0.4471108033586293,3.1707594488710162,3.173043175894022
1746477328016555300,1.98655517578125,0.3101403734702617,3.521515252780914,2.906788778966665
1746477328026534400,1.996534423828125,0.051979230094887315,3.898689108017087,2.6934739450663328
1746477328036513300,2.00651318359375,-0.3477624673128128,4.15495285680592,2.576314131063223
1746477328046492400,2.016492431640625,-0.8134861281394958,4.299655926772952,2.6633856807947156
1746477328056471300,2.02647119140625,-1.2457348048657177,4.465632670915126,2.7217385010421276
1746477328066450400,2.036450439453125,-1.5239724850535392,4.932784903240203,2.662359260356426
1746477328076429000,2.046428955078125,-1.725755286592245,5.359553687250614,2.603742236214876
1746477328086409200,2.0564091796875,-1.845212271621823,5.434074382966757,2.6277146479547024
1746477328096388400,2.066388427734375,-1.8801883079349992,5.018491009837389,2.622631061080098
1746477328106367200,2.0763671875,-1.675737748491764,4.567462229317426,2.2544594274669882
1746477328116346400,2.086346435546875,-1.2508552166193723,4.254350804147124,1.6887123808771372
1746477328126325200,2.0963251953125,-0.8031587953925132,3.755635558822751,1.4058645765453577
1746477328136304000,2.10630419921875,-0.40301147632598877,3.072591920107603,1.3741560175955294
1746477328146283300,2.116283203125,-0.109753958193399,2.483055417129397,1.299390991729498
1746477328156262100,2.12626220703125,0.07313479431569576,2.1787264333516356,1.1286036324352025
1746477328166241300,2.1362412109375,0.13671148669123648,2.2187632601857183,1.070931195667386
1746477328176221200,2.14622119140625,0.09232457488887011,2.4394249497175213,1.1575070708364248
1746477328186200000,2.156199951171875,-0.06441138963401317,2.609363583227992,1.295088326099515
1746477328196179200,2.16617919921875,-0.1418300718139857,2.6799177134007213,1.219531273072958
1746477328206158000,2.176157958984375,-0.028746713469550014,2.671134102964401,0.8992255524843931
1746477328216137200,2.18613720703125,0.19763861440606414,2.5781366703152657,0.4609487015098333
1746477328226116000,2.1961162109375,0.4001677773326635,2.4757161602824924,0.030257775619626042
1746477328236095200,2.20609521484375,0.43004027996174987,2.064483383578062,-0.29554069716632364
1746477328246074000,2.21607421875,0.4451590117037296,1.4652882408946752,-0.4750023613035679
1746477328256053200,2.22605322265625,0.45307694522142405,1.0353519327640532,-0.7239303603768348
1746477328266033200,2.236033203125,0.3507470360815525,0.6052209788441658,-0.8355950840950012
1746477328276012300,2.24601220703125,0.23915658317599445,0.11908464458584785,-0.7081488538771867
1746477328285991200,2.2559912109375,0.0891184723239392,-0.3204559427142143,-0.47626551310718057
1746477328295970300,2.26597021484375,-0.1608359471876174,-0.865584564167261,-0.20940613602399824
1746477328305949200,2.27594921875,-0.3969711001832038,-1.4941805733799933,-0.006666472151875495
1746477328315928300,2.28592822265625,-0.43262920047640796,-2.0324451542824504,-0.03875672389566898
1746477328325907200,2.2959072265625,-0.2498246556520462,-2.4785931770235297,-0.11286650072336196
1746477328335886300,2.30588623046875,0.10872114454694091,-2.879919476741552,-0.10491174232661724
1746477328345865200,2.315865234375,0.5256991138398647,-3.225850636973977,-0.0626718524903059
1746477328355845000,2.32584521484375,0.8657780409127473,-3.4611446629703044,-0.0861211171388626
1746477328365824300,2.33582421875,1.177076279181242,-3.6124165899336336,-0.1974479872047901
1746477328375803100,2.34580322265625,1.4398527708649635,-3.8091923769652842,-0.17215046434104442
1746477328385782300,2.3557822265625,1.6529764661073685,-4.008585068497061,-0.25122867723107334
1746477328395761200,2.36576123046875,1.989402569761127,-4.015114762526751,-0.25963001035153865
1746477328405740300,2.375740234375,2.2756851708471775,-3.9568174718588587,-0.19002514372766016
1746477328415719000,2.385718994140625,2.3302327535927296,-3.797219030576944,-0.005879121166467666
1746477328425697800,2.39569775390625,2.266389373105019,-3.5500369983881708,0.09624883566051722
1746477328435677000,2.405677001953125,2.1382208199620245,-3.378413188269734,0.15592559798806904
1746477328445656800,2.41565673828125,2.1207325095444918,-3.282513019916415,0.09404635718017816
1746477328455635700,2.4256357421875,2.167954279446602,-3.118444155222177,-0.2096095496416092
1746477328465614800,2.43561474609375,2.000557731634378,-3.071448595291376,-0.5802572179794311
1746477328475593700,2.44559375,1.821720190744847,-2.9154414564996958,-1.0774196809038519
1746477328485572900,2.45557275390625,1.701230501666665,-2.4946558385521174,-1.6509323930591344
1746477328495551500,2.465551513671875,1.4573356744550168,-1.941504654163122,-2.1895929875418543
1746477328505530600,2.475530517578125,1.1133756681650877,-1.3027332878947258,-2.663336873216927
1746477328515509500,2.485509521484375,0.7432073808420449,-0.752998049429059,-2.986604073959589
1746477328525488600,2.495488525390625,0.3858388807941228,-0.21595804188549517,-3.2417350193262098
1746477328535468800,2.50546875,0.04717983045652509,0.2114899565607309,-3.470876952433586
1746477328545447700,2.51544775390625,-0.3028377953719347,0.4736538693040609,-3.731459733465314
1746477328555426600,2.525426513671875,-0.6282932268738747,0.7794774755537509,-4.074980909946561
1746477328565405700,2.53540576171875,-0.97700203512609,1.139027995815873,-4.435303583624958
1746477328575384600,2.545384521484375,-1.4110720820605753,1.3396353238344192,-4.729793018172681
1746477328585363700,2.55536376953125,-1.8710773652404546,1.2856529737561941,-4.949468327015638
1746477328595342600,2.565342529296875,-2.208482104668021,1.0801064357697963,-5.252664507371187
1746477328605321700,2.57532177734375,-2.2312574155777694,1.0267243896722793,-5.761733388927579
1746477328615300600,2.585300537109375,-2.121298911255598,1.1312059238880872,-6.138367730459571
1746477328625280500,2.595280517578125,-2.0353549042493104,1.2254425429433584,-6.220038882452249
1746477328635259600,2.605259765625,-2.003600168070197,1.2585568770378828,-6.155469087386131
1746477328645238500,2.615238525390625,-1.902664343637228,1.262528703278303,-6.01783288706541
1746477328655217700,2.6252177734375,-1.7676929786115885,1.2962281437844037,-5.920665475255251
1746477328665196500,2.635196533203125,-1.6447814692139624,1.238970133036375,-5.829774074974655
1746477328675175700,2.64517578125,-1.546544966867566,1.0397492909401655,-5.7943140545368195
1746477328685154600,2.655154541015625,-1.3295786247223615,0.9263941299170255,-5.92394931923151
1746477328695133700,2.6651337890625,-1.0329419490128755,1.0499076968610286,-6.113814888483286
1746477328705112600,2.675112548828125,-0.8521703713208436,1.0697200663119555,-6.081019118818641
1746477328715092700,2.6850927734375,-0.9187047444581985,0.9725760353773831,-5.755094389304518
1746477328725071600,2.695071533203125,-1.1329606586009264,0.867235253983736,-5.193699108183384
1746477328735050800,2.70505078125,-1.3527572557359933,0.6752221513092518,-4.471529912260174
1746477328745029600,2.715029541015625,-1.5402794767320156,0.5128314489603042,-3.7927515297740695
1746477328755008800,2.7250087890625,-1.68499540618062,0.57339610003829,-3.2822511541098356
1746477328764987600,2.734987548828125,-1.80931678237617,0.7049895130634307,-2.8015289538547394
1746477328774966800,2.744966796875,-1.9324860659271477,0.7701257098406553,-2.339847846417129
1746477328784945700,2.754945556640625,-1.9434166252642868,0.7923381261706351,-1.9430027837663888
1746477328794924800,2.7649248046875,-1.9080863686859606,0.7146347087651491,-1.5472767882734537
1746477328804904700,2.77490478515625,-1.8308751187115906,0.4799935937196016,-1.11430388892591
1746477328814883600,2.784883544921875,-1.70638715377748,0.193522338193655,-0.7410124280810356
1746477328824862700,2.79486279296875,-1.6257430067449807,-0.19618834253251552,-0.3788151927024126
1746477328834841900,2.804841796875,-1.5447387942284345,-0.680835315015912,-0.044489714589715
1746477328844820700,2.81482080078125,-1.4553431854635477,-1.0640537111133337,0.19143851765692232
1746477328854800000,2.8247998046875,-1.3128157059699297,-1.3458715878754854,0.4820920273035764
1746477328864778800,2.83477880859375,-1.1719289794206618,-1.5345260277718304,0.8256471060544252
1746477328874758000,2.8447578125,-1.0567360815763474,-1.577660820621252,1.2761533240050076
1746477328884736800,2.85473681640625,-0.9459761977434158,-1.5819868671268225,1.7451561526328325
1746477328894716700,2.864716552734375,-0.8023445564001798,-1.5133447080552578,2.1970950337350366
1746477328904695800,2.87469580078125,-0.6670838530391454,-1.4058067088782786,2.5862387282282113
1746477328914674700,2.8846748046875,-0.5237935724794864,-1.2055933486133814,2.914605005675554
1746477328924653800,2.89465380859375,-0.37007246226575224,-0.9259066386610268,3.2227403959989545
1746477328934632700,2.9046328125,-0.25602296230290084,-0.5295446833521127,3.516463230088353
1746477328944611800,2.91461181640625,-0.1979670791754499,-0.09457914888262749,3.8633138432532546
1746477328954590700,2.9245908203125,-0.18148818326247854,0.14249123913645745,4.233666912558674
1746477328964569900,2.93456982421875,-0.1897492493957281,0.36144495570659635,4.429336199653148
1746477328974549800,2.9445498046875,-0.16220484265433624,0.5874369003504515,4.5620460494875905
1746477328984529000,2.95452880859375,-0.13933714075339956,0.7445207284629345,4.654938852718472
1746477328994507800,2.9645078125,-0.15261106661260126,0.8775257618516683,4.736572010788321
1746477329004487000,2.97448681640625,-0.19373099424196405,1.1036866333216429,4.757428336334228
1746477329014465800,2.9844658203125,-0.28190962843252343,1.3107125962108372,4.774678161820769
1746477329024445000,2.99444482421875,-0.29709726069224995,1.5359434933543203,4.618192884123325
1746477329034423600,3.004423583984375,-0.2068137997095473,1.8379583549708127,4.3836201581388705
1746477329044402700,3.014402587890625,-0.06421206766963004,2.113805340629816,4.1749096031635995
1746477329054381600,3.024381591796875,0.11917408556812442,2.436221185240149,3.976376743331551
1746477329064361700,3.03436181640625,0.24896891560554502,2.814618444791436,3.822652747040987
1746477329074340600,3.044340576171875,0.3133423113167286,3.249110516530275,3.7301977507054804
1746477329084319500,3.054319580078125,0.26757833900749683,3.6377193734943867,3.629661154723167
1746477329094298600,3.064298583984375,0.15645897421240806,3.982942093196511,3.486522849854827
1746477329104277500,3.074277587890625,0.017375502259400672,4.328542998561263,3.4345857418686148
1746477329114256600,3.084256591796875,-0.2031950064241886,4.522086379542946,3.487540502464771
1746477329124235500,3.094235595703125,-0.45116614316403864,4.6881496329247945,3.5231963377356528
1746477329134214700,3.104214599609375,-0.6272311506003141,4.943429631373286,3.4314369224488734
1746477329144193500,3.114193603515625,-0.7687509143561124,5.205126511126756,3.3103543820440766
1746477329154173700,3.124173583984375,-0.9850269361495971,5.313873886093497,3.130051006385684
1746477329164152600,3.134152587890625,-1.206739011517167,5.098357742756605,3.074696783432364
1746477329174131700,3.144131591796875,-1.2952420553565025,4.621924471867084,3.015500498098135
1746477329184110600,3.154110595703125,-1.2133464469581843,4.365014826390147,2.7020237467467783
1746477329194089700,3.16408984375,-1.0578525183856486,4.273387513050436,2.3744699547261
1746477329204068600,3.174068603515625,-0.8977584025412797,4.164160830134153,2.320852930828929
1746477329214047700,3.1840478515625,-0.7000520566612481,3.9664533152103423,2.4180665198683737
1746477329224026600,3.194026611328125,-0.4902893622845411,3.8765760604083535,2.383158872616291
1746477329234005800,3.204005859375,-0.3860246856898069,3.9998026271045206,2.3069670288175343
1746477329243985700,3.213985595703125,-0.41872280366625636,4.114957531026006,2.3099463368892668
1746477329253964500,3.223964599609375,-0.5453525298694148,4.163956247472763,2.2899580263495443
1746477329263943700,3.233943603515625,-0.6659662471860647,4.132091036656498,2.2068290767639875
1746477329273922600,3.243922607421875,-0.7158072596758603,4.002804147008061,1.87977680452466
1746477329283901700,3.253901611328125,-0.6157891346096992,3.664309274256229,1.3694921174377201
1746477329293880600,3.263880615234375,-0.3956026613742113,3.132321873927116,0.7857610858678817
1746477329303859700,3.273859619140625,-0.07556519980039447,2.535610364753008,0.14518413148224352
1746477329313838800,3.2838388671875,0.28353571353070434,1.8204542624622582,-0.4005675903052091
1746477329323817700,3.293817626953125,0.6517127539712936,1.089243681949377,-0.886582928532362
1746477329333797600,3.303797607421875,0.9187514331441372,0.46420215034782886,-1.2563918079584837
1746477329343776800,3.31377685546875,1.1376116992771625,-0.07863046912252902,-1.3974591517716646
1746477329353755600,3.323755615234375,1.1964748071342706,-0.6251227801442146,-1.2143220139920712
1746477329363734800,3.33373486328125,1.173516029416397,-1.2165426126509904,-0.9591273557394743
1746477329373713700,3.343713623046875,1.1774012733519077,-1.6926175716221332,-0.7914093208879232
1746477329383692800,3.35369287109375,1.1785258934676646,-2.0754835010200736,-0.6262953310549259
1746477329393671700,3.363671630859375,1.1743722078543155,-2.505874567180872,-0.46416824807822704
1746477329403650800,3.37365087890625,1.1998312048900872,-2.753970207083225,-0.2723983065098524
1746477329413630500,3.38363037109375,1.3058312539100647,-2.880969862577319,-0.006744798085093498
1746477329423609600,3.393609619140625,1.276591130900383,-3.2733564845144745,0.05396247633397579
1746477329433588500,3.40358837890625,1.376138277453929,-3.3875264690518376,-0.21499241172373293
1746477329443567600,3.413567626953125,1.7457038496434687,-3.2590789528369903,-0.41845454465150833
1746477329453546500,3.42354638671875,1.6218693801820276,-3.4913270352661607,-0.17089081966876982
1746477329463525600,3.433525634765625,1.4534469964534042,-3.5321371845602987,0.007125906357169151
1746477329473504500,3.44350439453125,1.5481120700538158,-3.378451182192564,-0.009966098219156264
1746477329483483600,3.453483642578125,1.6289974784962833,-3.30003464808166,-0.0037941315859556196
1746477329493462500,3.463462646484375,1.5870190160751343,-3.2059950129032133,0.14747487276792526
1746477329503442400,3.4734423828125,1.4738330741390584,-3.066936670824885,0.10435469296574593
1746477329513421600,3.483421630859375,1.402357445207238,-2.801058121472597,-0.04098375229537487
1746477329523400400,3.493400390625,1.3518173445373773,-2.6202900509119034,-0.06491232489347458
1746477329533379600,3.503379638671875,1.2533616464823483,-2.3910031563758847,-0.3908966756403446
1746477329543358500,3.5133583984375,0.9793910491544753,-2.256051665094495,-0.8303449084818363
1746477329553337300,3.52333740234375,0.754434219712019,-2.115498700544238,-1.3857587771058082
1746477329563316200,3.533316162109375,0.6140285546779632,-1.8743039260715244,-1.9519515216365455
1746477329573295400,3.54329541015625,0.3420860291115939,-1.7085931393891571,-2.384075695200264
1746477329583274200,3.553274169921875,0.04614858771264553,-1.5664473526895046,-2.834583082194626
1746477329593254700,3.563254638671875,-0.1188514203518629,-1.3154337795138358,-3.303134952184558
1746477329603233300,3.5732333984375,-0.18208733646571634,-0.9583213000535964,-3.6772345145419236
1746477329613212400,3.58321240234375,-0.3393489322979003,-0.5649275469005107,-3.9742327170401808
1746477329623191300,3.59319140625,-0.5832166523069143,-0.174652218028903,-4.165376343403756
1746477329633170400,3.60317041015625,-0.7868694124359638,0.20797639548182487,-4.392386232918501
1746477329643149300,3.6131494140625,-1.037657214031741,0.6510480795174837,-4.63959281502664
1746477329653128400,3.62312841796875,-1.2864911781460047,0.7991822929769754,-4.893100543105602
1746477329663107300,3.633107421875,-1.4958762713819742,0.7197106968551874,-5.011971252679825
1746477329673086500,3.64308642578125,-1.6302905870467423,0.5284773463815451,-5.231429411640763
1746477329683066400,3.65306640625,-1.5471218899726866,0.5024205295830965,-5.608828892326355
1746477329693045500,3.66304541015625,-1.3306424545615911,0.9274287336617708,-6.110124217271805
1746477329703024400,3.6730244140625,-1.2853075213193892,1.5544254909843205,-6.226357564079761
1746477329713003500,3.68300341796875,-1.4763006332963704,1.8758476483821869,-5.747595557981729
1746477329722982400,3.692982421875,-1.7592273480832576,1.8819003725498913,-5.011407773578167
1746477329732961500,3.70296142578125,-1.930389385908842,1.7141320688158272,-4.313879097914696
1746477329742940400,3.7129404296875,-1.9339853645741938,1.4229805465191603,-3.8250963408008216
1746477329752919600,3.72291943359375,-1.738267562162876,1.1040993057757615,-3.664940557897091
1746477329762898400,3.7328984375,-1.4501362644702196,0.8734639192402363,-3.7091754209429024
1746477329772878300,3.74287841796875,-1.091619763430953,0.673996408906579,-3.78540233605504
1746477329782857500,3.752857421875,-0.7952736681658774,0.5896487311810255,-3.825158884643018
1746477329792836400,3.76283642578125,-0.498419550313428,0.4385258572995662,-3.8592388488993046
1746477329802815500,3.7728154296875,-0.23564948837049304,0.16545885774791239,-3.921958047662675
1746477329812794400,3.78279443359375,-0.034357612153887745,-0.18214520413279534,-4.020621250988543
1746477329822773500,3.7927734375,0.14257183009199798,-0.6288058525711298,-4.11964042814523
1746477329832752400,3.80275244140625,0.1486760652512312,-0.9629588967263698,-4.308105482949316
1746477329842731500,3.8127314453125,0.05108370602726936,-1.120152030432224,-4.420347422033548
1746477329852711400,3.82271142578125,-0.10624562127888203,-1.1682716259568928,-4.371829474841058
1746477329862690600,3.832690673828125,-0.2728384514927864,-1.096140455725789,-4.168209228742122
1746477329872669400,3.84266943359375,-0.4056283808261156,-0.9453016594827175,-3.908449746792018
1746477329882648600,3.852648681640625,-0.591383519084379,-0.8461416125506163,-3.56438058103919
1746477329892627500,3.86262744140625,-0.8494359779208898,-0.8437889119446277,-3.0605504769191145
1746477329902606600,3.872606689453125,-1.1199591382086276,-0.9446119236528873,-2.5670783929452297
1746477329912585500,3.88258544921875,-1.3503484410285949,-1.1080565189689398,-2.1089801124304532
1746477329922564600,3.892564697265625,-1.5353186394542455,-1.3415122236222028,-1.6598679791867732
1746477329932543500,3.90254345703125,-1.6990777075469492,-1.5248855082452297,-1.2159195123165845
1746477329942523400,3.9125234375,-1.8784610457509754,-1.564113356783986,-0.7701660418510436
1746477329952502500,3.92250244140625,-1.9614836123526096,-1.562649129450321,-0.21506547695994377
1746477329962481400,3.9324814453125,-1.9090122513592243,-1.5266273834764956,0.37670331511497496
1746477329972460500,3.94246044921875,-1.7807494440615177,-1.4099381095945833,0.9135065912932157
1746477329982439400,3.952439453125,-1.6709616201311348,-1.2480337294578552,1.4604460615605115
1746477329992418600,3.96241845703125,-1.5480559559524059,-1.080362456357479,2.022089764484763
1746477330002397400,3.9723974609375,-1.4670990897089242,-0.8672504515528678,2.5485242068618534
1746477330012376600,3.98237646484375,-1.4033435336351394,-0.6824573632597923,3.042335898053646
1746477330022355500,3.99235546875,-1.307383744049072,-0.536595770907402,3.4519290908575058
1746477330032335600,4.002335693359375,-1.2489338931679725,-0.40295536222457884,3.7305244984418153
1746477330042314500,4.012314453125,-1.191039338082075,-0.22371756997108458,3.973353596118092
1746477330052293600,4.022293701171875,-1.138863745164871,-0.004786065232753754,4.249819005936384
1746477330062272500,4.0322724609375,-1.013722284758091,0.19876725310981272,4.444947610282898
1746477330072251600,4.042251708984375,-0.9045897098660468,0.40429274830818174,4.516152313318848
1746477330082230500,4.05223046875,-0.8656710734069347,0.6087970837652683,4.502392083513737
1746477330092209400,4.06220947265625,-0.8686287541687489,0.8237848193138837,4.473324978983402
1746477330102188300,4.072188232421875,-0.8140472691535949,1.0919897657871245,4.374131614303589
1746477330112168400,4.08216845703125,-0.717333446329832,1.4156518110662697,4.273037968960404
1746477330122147600,4.092147705078125,-0.5946715277791023,1.7829373094946146,4.102504876688123
1746477330132126200,4.102126220703125,-0.496240306578204,2.1825924611300227,3.895542626684904
1746477330142105300,4.112105224609375,-0.41396534347347913,2.6051199543088672,3.6085640061587094
1746477330152084200,4.122084228515625,-0.4001274453222751,2.9952988370686766,3.3787072027802467
1746477330162063400,4.1320634765625,-0.4746469719946384,3.330698666414618,3.211954213568568
1746477330172042500,4.14204248046875,-0.5946680206477641,3.70123469107151,3.015300591611862
1746477330182021400,4.152021484375,-0.7751170153219252,3.96543098642528,2.9018980843156577
1746477330192000500,4.16200048828125,-1.0132033023852853,4.139999617823958,2.9253742369711397
1746477330201980400,4.17198046875,-1.3156642272688448,4.290310590800643,3.034008799213171
1746477330211959300,4.181959228515625,-1.6136077477931976,4.517624723958969,3.0730905172795056
1746477330221938400,4.1919384765625,-1.7783786232769487,4.9284220318555825,2.950349688273668
1746477330231917300,4.201917236328125,-1.9590368037223815,5.25864416630268,2.8521207847118375
1746477330241896400,4.211896484375,-2.147928559505939,5.170618676847219,2.91877206222713
1746477330251875300,4.221875244140625,-2.1847464242935177,4.984861127436161,2.896865350845456
1746477330261854500,4.2318544921875,-2.0856652878165245,5.0772839750677345,2.6300194177657366
1746477330271833300,4.241833251953125,-1.9976047270476818,5.058293443393707,2.5155168402731416
1746477330281812500,4.2518125,-2.028592716637999,4.698222114127874,2.6365286535292864
1746477330291792400,4.26179248046875,-2.000250273120403,4.3126662149935955,2.6649621363312006
1746477330301771500,4.271771484375,-1.9449556713998317,4.087529425874353,2.519136199814081
1746477330311750400,4.28175048828125,-1.8854104264974594,4.044588694292306,2.329211593851447
1746477330321729500,4.2917294921875,-1.8327894279003143,4.113825312125683,2.224226786288619
1746477330331708400,4.30170849609375,-1.694876164203882,4.088265923455357,2.284963871324062
1746477330341687600,4.3116875,-1.4292039510786532,3.995116515114903,2.2233266225785018
1746477330351666400,4.32166650390625,-1.0432944162011146,3.9245892729490994,1.8819219998598098
1746477330361645600,4.3316455078125,-0.589545270806551,3.745557232400775,1.4927362197905778
1746477330371625500,4.34162548828125,-0.13830430884063244,3.4355081174105404,1.0491519100576638
1746477330381604400,4.351604248046875,0.2769821271687746,3.0721207954645156,0.6348194137722254
1746477330391583500,4.36158349609375,0.6438678126245737,2.5267612878650425,0.3036708121299743
1746477330401562400,4.371562255859375,0.9641378773778676,1.8884534474551677,0.019054829081892967
1746477330411541500,4.38154150390625,1.2014105099707841,1.3071774078220129,-0.22129823386967182
1746477330421520400,4.391520263671875,1.3688684325814247,0.7122790855497121,-0.27374679850935935
1746477330431499500,4.40149951171875,1.4229671025156974,0.06349602835476398,-0.15161036513745785
1746477330441478400,4.411478515625,1.43991531470716,-0.5553606771320104,0.0923299086511135
1746477330451457500,4.42145751953125,1.4584955120146275,-1.1080068346083163,0.39204876828491686
1746477330461437400,4.4314375,1.5138468123584985,-1.6878122171670198,0.6156950265854597
1746477330471416600,4.44141650390625,1.633361080533266,-2.222018462589383,0.7200994039118289
1746477330481395500,4.4513955078125,1.8069325175881386,-2.6779478746324776,0.766108875414729
1746477330491374600,4.46137451171875,2.0212778635799884,-3.0141771405398843,0.8357949905812739
1746477330501353500,4.471353515625,2.1729238845527172,-3.292073459944129,0.9387076680451631
1746477330511332600,4.48133251953125,2.3661446094512937,-3.483051374351978,1.0400321995347737
1746477330521311500,4.4913115234375,2.559908355185389,-3.560694001480937,1.1646838305979967
1746477330531290600,4.50129052734375,2.6467116093695164,-3.636084465768933,1.1779495548844336
1746477330541270500,4.5112705078125,2.8019354888290167,-3.5181145044267175,1.1488275052964687
1746477330551249400,4.52124951171875,2.799529012209177,-3.454229769015312,1.0994821673691273
1746477330561228500,4.531228515625,2.7980186076462266,-3.170787505921721,0.9934762000650167
1746477330571207400,4.54120751953125,2.6220167285740374,-2.9514602798640728,0.9120563924849033
1746477330581186600,4.5511865234375,2.227584280022979,-2.68549697483778,0.7594996864080429
1746477330591165400,4.56116552734375,1.7620365602850914,-2.3882377833157777,0.4838239656627178
1746477330601144600,4.57114453125,1.3783154753625393,-2.2418033595114943,0.14252192653566598
1746477330611123500,4.58112353515625,1.112808097410202,-2.007467949414253,-0.21478198384344577
1746477330621102300,4.591102294921875,0.8141606664001941,-1.786226414167881,-0.3958160118639469
1746477330631082500,4.60108251953125,0.5628572434324771,-1.6735007832199333,-0.5867331359952688
1746477330641061600,4.6110615234375,0.4095855940192938,-1.4979472324371337,-0.9823314134553074
1746477330651040500,4.62104052734375,0.4553612567663192,-1.2384165908068419,-1.4282134787365794
1746477330661019600,4.63101953125,0.5447866761475801,-0.8729220674484968,-1.8114719145834446
1746477330670998300,4.640998291015625,0.5241525419849902,-0.3821767780900001,-2.15146170206815
1746477330680977400,4.650977294921875,0.3954186100441962,0.20708499960005283,-2.460596040301025
1746477330690956300,4.660956298828125,0.19974099351279437,0.675648852288723,-2.749620779702067
1746477330700935400,4.670935302734375,-0.0915852277636528,0.9376999523073434,-3.023962913756072
1746477330710915600,4.68091552734375,-0.3582622340172529,1.066195983839035,-3.362296458466351
1746477330720894500,4.69089453125,-0.5717780703824014,1.1473469113498926,-3.7730379445224997
1746477330730873300,4.700873291015625,-0.7740711595308035,1.2223469150155781,-4.138283753816784
1746477330740852500,4.7108525390625,-0.9516454755514859,1.19043318888247,-4.457726427835226
1746477330750831400,4.720831298828125,-0.9941653513729571,1.1775725382655857,-4.875093761771917
1746477330760810500,4.730810546875,-0.8844505926787852,1.3778876053392886,-5.400524580064416
1746477330770789400,4.740789306640625,-0.7029781732410192,1.560192968469858,-5.7323570723176
1746477330780768500,4.7507685546875,-0.5959739156145603,1.5528203938752412,-5.7995338350117205
1746477330790747400,4.760747314453125,-0.5594774282684549,1.4731699340552091,-5.87752892884016
1746477330800727300,4.770727294921875,-0.4527852687984705,1.4638625920057295,-6.069039342689514
1746477330810706400,4.78070654296875,-0.27521270634345707,1.5335305869936942,-6.253859318989515
1746477330820685300,4.790685302734375,-0.25589422135669737,1.405634274920821,-6.231952607607841
1746477330830664400,4.80066455078125,-0.34388116890005765,1.0268418785721063,-6.183982065165043
1746477330840643300,4.810643310546875,-0.2679179096927866,0.5927466971963644,-6.339065074849128
1746477330850622500,4.82062255859375,0.037787002080678936,0.3460188385158777,-6.7035776014328
1746477330860601300,4.830601318359375,0.25070381310675294,0.1661994469821453,-7.031991225153208
1746477330870580500,4.84058056640625,0.25795714523587376,0.0566284806728363,-7.159695229524374
1746477330880559400,4.850559326171875,0.09852057998478413,-0.04155833731293678,-6.928605669480562
1746477330890539500,4.86053955078125,-0.15439736550748348,-0.146000124040246,-6.335713426333665
1746477330900518400,4.870518310546875,-0.42076866681277747,-0.18132102826833724,-5.635290198272466
1746477330910497500,4.88049755859375,-0.5854425481954589,-0.19023849421739578,-5.064343244951963
1746477330920476400,4.890476318359375,-0.7327677468270063,-0.14188392089307308,-4.569800901398063
1746477330930455600,4.90045556640625,-0.8536293379575014,-0.07833236295878887,-4.0874341488063335
1746477330940434400,4.910434326171875,-0.9670639939576386,0.0030775077491998672,-3.5843782439291476
1746477330950413600,4.92041357421875,-1.167881749856472,-0.008190320718288421,-2.964014641010761
1746477330960392400,4.930392333984375,-1.4341595276594161,-0.24723989985585212,-2.314224744860828
1746477330970372400,4.940372314453125,-1.6425100171506404,-0.7119377247661351,-1.7752490930795668
1746477330980351500,4.9503515625,-1.7611778976291417,-1.2445564087361096,-1.4219757533907889
1746477330990330400,4.960330322265625,-1.7956793021678923,-1.757419421878457,-1.1851549562186001
1746477331000309500,4.9703095703125,-1.7197937478393315,-2.163231342577934,-0.9086530137822031
1746477331010288400,4.980288330078125,-1.5715496442645787,-2.4458090977966784,-0.5248156090036035
1746477331020267500,4.990267578125,-1.3246920217245817,-2.6154940488070246,-0.07374620421230793
1746477331030246400,5.000246337890625,-1.068521796438098,-2.6345237434476614,0.41329847706258294
1746477331040225500,5.0102255859375,-0.8270423598051071,-2.578262342521548,0.8847259024888277
1746477331050204400,5.020204345703125,-0.6145633922070265,-2.4735171889334917,1.3534300404310227
1746477331060184600,5.0301845703125,-0.44336920567750926,-2.288283955657482,1.8277520182549953
1746477331070163500,5.04016357421875,-0.31979484845697875,-2.010916628563404,2.3026474120527505
1746477331080142600,5.050142578125,-0.2514683312058449,-1.7721908745527266,2.7176836726933717
1746477331090121500,5.06012158203125,-0.1617722781896591,-1.4898311459988354,2.9895249298423527
1746477331100100600,5.0701005859375,-0.09767945298552512,-1.1393792934715747,3.2210271623402833
1746477331110079500,5.08007958984375,-0.10113282657610252,-0.7828636108607053,3.425161495441198
1746477331120058600,5.09005859375,-0.21222937675118445,-0.3853945710927248,3.6156174318015575
1746477331130037500,5.10003759765625,-0.4109340860188007,-0.05271978279650211,3.806258661600947
1746477331140017400,5.110017333984375,-0.6090075116455554,0.20013971050679683,3.9363124439686534
1746477331149996500,5.11999658203125,-0.747746120250225,0.4707996489167213,3.9399271273344754
1746477331159975400,5.129975341796875,-0.8161457027375698,0.7984995714098214,3.9093221457123755
1746477331169954600,5.13995458984375,-0.8100046426992863,1.145578148111701,3.8719863945305346
1746477331179933400,5.149933349609375,-0.7854349226534366,1.6058359447479247,3.8192128357201813
1746477331189912600,5.15991259765625,-0.8124656259853392,2.1800959681391716,3.6959769166737795
1746477331199891500,5.169891357421875,-0.9123521605610847,2.6569886732339856,3.584418575939536
1746477331209870300,5.179870361328125,-1.015701548941806,3.0692911249965427,3.340176688855886
1746477331219849500,5.189849365234375,-1.104853923535347,3.3285756829112767,3.041233489769697
1746477331229829600,5.19982958984375,-1.200390519273281,3.431782374885678,2.7194518514096737
1746477331239808500,5.20980859375,-1.2999519866131246,3.5773791788220404,2.3861434413850304
1746477331249787400,5.219787353515625,-1.4695757089555264,3.7523090447485443,2.2048837879151106
1746477331259766300,5.229766357421875,-1.7955239654757083,3.8948143124103543,2.2087223431646823
1746477331269745400,5.239745361328125,-2.163958487808704,4.048899543228745,2.290188327974081
1746477331279724300,5.249724365234375,-2.507241179358959,4.283205727231502,2.2731349018424747
1746477331289703400,5.259703369140625,-2.7961750256061553,4.681356904044747,2.219821244806051
1746477331299682300,5.269682373046875,-3.1224422849476334,4.992946234214306,2.2792045771449803
1746477331309662500,5.279662353515625,-3.446840243285894,4.944769940066338,2.5009119763374326
1746477331319641300,5.289641357421875,-3.5629134310960766,4.699219892993569,2.602677237331867
1746477331329620500,5.299620361328125,-3.4798961251914498,4.5536745269834995,2.4422844308018683
1746477331339599400,5.309599365234375,-3.269055572450161,4.282591979247331,2.319485734128952
1746477331349578500,5.31957861328125,-3.008094605755806,3.851391934791207,2.3045143749684094
1746477331359557400,5.329557373046875,-2.673612475776672,3.5518379103302955,2.2917589382916685
1746477331369536500,5.33953662109375,-2.2858418232023716,3.485369588166475,2.2179905222475527
1746477331379515400,5.349515380859375,-1.946174984061718,3.6484675620019433,2.207939668354392
1746477331389494500,5.35949462890625,-1.7822458200991154,3.906715178084373,2.437221886715293
1746477331399474400,5.369474365234375,-1.7503659962356088,4.058623649385571,2.70612358328104
1746477331409453300,5.379453369140625,-1.7030664849221706,4.129717293262481,2.882566191858053
1746477331419433200,5.38943310546875,-1.5658300975739956,4.162532352149486,2.8521242918431757
1746477331429412000,5.399412109375,-1.312990478014946,3.985204192909598,2.647105577123165
1746477331439391200,5.40939111328125,-0.9539537524938583,3.5729666230767965,2.3133283805429934
1746477331449370000,5.4193701171875,-0.5479822207858785,3.041259208732843,1.8746692522525785
1746477331459349200,5.429349365234375,-0.18506777704861013,2.4207038826346396,1.4513175832092762
1746477331469328100,5.439328125,0.08532618563519791,1.737147033700347,1.100040385773778
1746477331479307300,5.449307373046875,0.27863106341958044,1.115948733523488,0.8451689681261777
1746477331489287200,5.459287109375,0.4185854775547981,0.4931611183285713,0.7909317665040493
1746477331499266000,5.46926611328125,0.5204541989237069,-0.1625742422223091,0.9070154757082461
1746477331509245200,5.4792451171875,0.5756219593942165,-0.7586866164594889,1.0553139398187399
1746477331519224000,5.48922412109375,0.675465896937251,-1.2335492770314216,1.2209703659653663
1746477331529203200,5.499203125,0.8658072670072317,-1.6141034223556519,1.3826105422079562
1746477331539182000,5.50918212890625,1.0391466488718986,-1.9019541495412586,1.5666466746538876
1746477331549161000,5.519160888671875,1.1616425632059573,-2.0911685614079234,1.7224702735722064
1746477331559139800,5.529139892578125,1.328098615297675,-2.3119798885434864,1.8488129264622926
1746477331569120300,5.539120361328125,1.5428677396595478,-2.487186233323812,1.891485362496972
1746477331579099100,5.54909912109375,1.7080939576953649,-2.6052994025290013,1.8059855921268462
1746477331589078300,5.559078369140625,1.913749801275134,-2.8069156153291464,1.5066086777985095
1746477331599057000,5.569056884765625,2.0998837827831505,-2.8522885424941777,1.1433628101497888
1746477331609036000,5.5790361328125,2.4445599745184183,-2.8502351170957088,0.7341694303184747
1746477331619015000,5.589014892578125,2.2757927228748795,-2.803827586185932,0.5492506698191165
1746477331628994000,5.598994140625,2.144018108063936,-2.7370950601279733,0.4085732021063566
1746477331638973000,5.608972900390625,2.124684462040663,-2.4488369211852548,0.14564590377509593
1746477331648953000,5.618953125,1.982904001522064,-2.1914199107080696,0.16322656865119933
1746477331658932000,5.628931884765625,1.7694095732711255,-2.03470257782042,0.04873334350883961
1746477331668911000,5.6389111328125,1.5421633907824754,-1.7287825254589317,-0.2141632674232125
1746477331678890000,5.648889892578125,1.3301497026085853,-1.462086229982972,-0.4888040921628475
1746477331688869000,5.658869140625,1.1206401792753486,-1.216446751061082,-0.913082520662248
1746477331698848000,5.668847900390625,0.9191606715321541,-1.0939373927235603,-1.2927727426335214
1746477331708827100,5.6788271484375,0.7701165036208927,-1.0088643233329058,-1.7908754090175032
1746477331718806000,5.688805908203125,0.6927245633173733,-0.9385404947847127,-2.296775012888014
1746477331728785200,5.69878515625,0.5999305442858487,-0.9108423405200242,-2.7254753494828936
1746477331738765000,5.70876513671875,0.6304776582408697,-0.7433505156397819,-3.180234256441891
1746477331748744000,5.718743896484375,0.661319882684946,-0.41861937982439995,-3.509896126657724
1746477331758723000,5.72872314453125,0.659278586115688,-0.021243863558769224,-3.6172748436197635
1746477331768702000,5.738701904296875,0.625286519338563,0.3365338018119335,-3.6323718749865885
1746477331778681000,5.74868115234375,0.5971351414136589,0.732514648848772,-3.722745388872921
1746477331788660000,5.758659912109375,0.5260561105839908,1.1158411814957856,-3.8403655138641595
1746477331798639000,5.76863916015625,0.44288003392107783,1.3447165726214647,-3.907192732468247
1746477331808618000,5.778617919921875,0.3205990044467151,1.445855226150155,-4.012964891016483
1746477331818597000,5.78859716796875,0.180123196785897,1.3693342965275048,-4.230305911692977
1746477331828577000,5.798576904296875,0.12626023530364036,1.284593820092082,-4.698728310084343
1746477331838556200,5.80855615234375,0.11133921809084713,1.2950053239911794,-5.1773102834403515
1746477331848535000,5.81853515625,0.0721527975410223,1.300651220923662,-5.421719343784451
1746477331858514200,5.82851416015625,-0.05536993197910487,1.207716332116723,-5.415663697007298
1746477331868493000,5.8384931640625,-0.20790749496407807,0.9985480965018272,-5.2864288298070425
1746477331878472200,5.84847216796875,-0.37009295706450934,0.8261597317516803,-5.135097866132855
1746477331888451000,5.858451171875,-0.448065839061141,0.6862684459805488,-5.050444483458995
1746477331898430200,5.86843017578125,-0.4281260438382625,0.5985217734664678,-5.026598328447341
1746477331908410000,5.87841015625,-0.2724368118893355,0.6373673446893692,-5.117151290553808
1746477331918389000,5.888388916015625,0.06712590928971766,0.7056722346305847,-5.329046320784092
1746477331928368000,5.8983681640625,0.42117607856988903,0.7060784773439168,-5.489917850741744
1746477331938347000,5.908346923828125,0.7220224078636616,0.5892974335253238,-5.493325028836727
1746477331948326100,5.918326171875,0.8648503316085785,0.32730303213000295,-5.39950809649825
1746477331958305000,5.928304931640625,0.8737866483885794,-0.08181319081187248,-5.180830274260043
1746477331968284200,5.9382841796875,0.8345686636567116,-0.5084773454040289,-4.987058929741382
1746477331978263000,5.948262939453125,0.7438082693446427,-0.841205325192213,-4.822807986478507
1746477331988242200,5.9582421875,0.7133680498301982,-1.0674632272958755,-4.602683472563326
1746477331998222000,5.96822216796875,0.6794780551880598,-1.2194769125372171,-4.403451524551213
1746477332008201200,5.978201171875,0.6155312873911112,-1.2712795804888009,-4.149133649133145
1746477332018180000,5.98818017578125,0.5159248118657619,-1.313294429397583,-3.848452374207973
1746477332028159200,5.9981591796875,0.35227797197587785,-1.3993594324350356,-3.4653356849193573
1746477332038138000,6.00813818359375,0.2165671867597848,-1.527296076518297,-3.033624768331647
1746477332048117200,6.0181171875,0.128023810910061,-1.6254805564165113,-2.5929218592539427
1746477332058096000,6.02809619140625,0.14429456223137677,-1.8148434368431567,-2.3538512373283504
1746477332068075300,6.0380751953125,0.2121744316935539,-1.9761060119450091,-1.9948487063378095
1746477332078055200,6.04805517578125,0.22385840321388095,-1.9453800342917442,-1.6997952081665395
1746477332088034000,6.058033935546875,0.1785171498287469,-1.9592285269021987,-1.5117667912140487
1746477332098013200,6.06801318359375,-0.114481534704566,-1.9452473478227852,-1.2338865461617707
1746477332107992000,6.077991943359375,-0.39655835466384887,-1.800879793420434,-0.9139011435687542
1746477332117971200,6.08797119140625,-0.5456032532274723,-1.5258055456995963,-0.5575929662287235
1746477332127950000,6.0979501953125,-0.5715881738334894,-1.2335182973712682,-0.103906949198246
1746477332137929000,6.107928955078125,-0.6426888319730758,-0.8321382216393947,0.33694647426605223
1746477332147908000,6.117908203125,-0.7788181348621844,-0.4027683152198791,0.7628232778728008
1746477332157887000,6.127886962890625,-0.992654946810007,0.029783143845200536,1.23321668407619
1746477332167867100,6.1378671875,-1.1483657330036163,0.39637832192182537,1.7244488801687954
1746477332177846300,6.14784619140625,-1.2492962967395782,0.674563395139575,2.2345710701704022
1746477332187825000,6.157824951171875,-1.3510802624344824,0.9271247822791338,2.7170623259246347
1746477332197804000,6.167803955078125,-1.5448504379093646,1.1556979755878447,3.211943107652664
1746477332207783000,6.177782958984375,-1.7317805382311342,1.2464613655745982,3.6676562465965747
1746477332217762000,6.187761962890625,-1.80269590293169,1.2416753003418446,3.9916654978781936
1746477332227741000,6.197740966796875,-1.782690056735277,1.3141267885684966,4.224691578942537
1746477332237720000,6.207719970703125,-1.7207435959100723,1.4772440516263246,4.339997289511561
1746477332247700000,6.217699951171875,-1.6325918497264384,1.7038427299916743,4.349394647932052
1746477332257679000,6.22767919921875,-1.5660370183229446,2.017850811740756,4.364664113256335
1746477332267658000,6.237657958984375,-1.4828665676832198,2.3335282880067822,4.351906923013925
1746477332277637000,6.24763720703125,-1.3530442559838294,2.7220477131217717,4.3584260956496
1746477332287616000,6.257615966796875,-1.2977894017517566,3.128478057980537,4.314435562753677
1746477332297595100,6.26759521484375,-1.3573802393615244,3.5185698469787834,4.259201166787744
1746477332307574000,6.277573974609375,-1.5165572403609753,3.8684821858018634,4.170962326842546
1746477332317553200,6.28755322265625,-1.7577368172645569,4.081220681118965,4.179695668396353
1746477332327532000,6.297531982421875,-2.0435947631977496,4.128416147536039,4.283718937450647
1746477332337512000,6.307511962890625,-2.271138759589195,4.133272939917445,4.303257166135311
1746477332347491000,6.317490966796875,-2.387201426005363,4.2513200581490995,4.201500672969222
1746477332357470000,6.327469970703125,-2.4466426260113714,4.631683064815402,3.9546120707690715
1746477332367449000,6.337448974609375,-2.4658745652258394,5.124879254457354,3.7616502890676258
1746477332377428000,6.347427978515625,-2.5759049657404423,5.408764000621438,3.748424896791577
1746477332387407000,6.357406982421875,-2.602362764555216,5.529775813877582,3.706618722197413
1746477332397386000,6.367385986328125,-2.5642835015296934,5.755970587617159,3.3021938719421624
1746477332407365000,6.377365234375,-2.56501766102314,5.883074872529506,3.082233608677983
1746477332417345000,6.387344970703125,-2.7087001557707784,5.404300006949901,3.4443986953526733
1746477332427324200,6.39732421875,-2.9279169071912765,4.494199424707889,3.8073862043261526
1746477332437303000,6.407302978515625,-3.038986587625742,3.593508475846052,3.6426784572064874
1746477332447282000,6.417281982421875,-2.9914848317384717,2.8933167184531685,3.127104431539774
1746477332457260800,6.4272607421875,-2.772185078209638,2.448064767768979,2.5121757131516933
1746477332467240000,6.437239990234375,-2.2855250123381614,2.3314316079884767,1.9604887560963629
1746477332477218800,6.44721875,-1.6030419301152228,2.46150994027555,1.6531442238897085
1746477332487198000,6.457197998046875,-0.8189443204801529,2.7828374051272866,1.5070505763471125
1746477332497176800,6.4671767578125,-0.08608374427054077,3.127255238187313,1.4868091678291557
1746477332507156700,6.47715673828125,0.6326409006893634,3.302282134747505,1.4087567908555267
1746477332517136000,6.487135986328125,1.1871008295893668,3.2112732455670834,1.3143401390582323
1746477332527114800,6.49711474609375,1.5888813028156756,2.885119383472204,1.1480927612811327
1746477332537094000,6.507093994140625,1.8356763815134762,2.382663198053837,0.8289198441147804
1746477332547072800,6.51707275390625,1.9800573799192904,1.704333728379011,0.2733312034457922
1746477332557052000,6.527052001953125,2.081764188724756,0.9439847316652535,-0.16336100868582726
1746477332567030800,6.53703076171875,1.9924404761523007,0.10185761545300483,-0.37753625880777836
1746477332577010000,6.547010009765625,1.7455775929152963,-0.6434487104296683,-0.44847734247148036
1746477332586989800,6.55698974609375,1.4770108273923397,-1.2801795107811689,-0.42043081316053865
1746477332596969000,6.566968994140625,1.3403396727114916,-1.8000538639903068,-0.4291419428825378
1746477332606947800,6.57694775390625,1.2801204740703105,-2.2469249403089284,-0.4338257167845964
1746477332616927000,6.586927001953125,1.2809604320257901,-2.611407656276226,-0.3876408887147903
1746477332626905900,6.59690576171875,1.332791157028079,-2.874548889619112,-0.32752456592619417
1746477332636885000,6.606885009765625,1.4450906715184448,-3.0869413479775187,-0.3507347611218691
1746477332646864000,6.61686376953125,1.5934662925183771,-3.199822461748123,-0.4093354186505079
1746477332656843000,6.626843017578125,1.656958813741803,-3.2972961630284785,-0.49016193651258944
1746477332666822000,6.63682177734375,1.7178572268188,-3.2643712140262124,-0.5266700046986341
1746477332676801800,6.6468017578125,1.731193678253889,-3.174651780134439,-0.4669616781890392
1746477332686781000,6.656781005859375,1.6855775899827479,-3.1142572249263525,-0.37083354629874227
1746477332696760000,6.666760009765625,1.602797015443444,-3.0701778447031973,-0.1932996353536844
1746477332706739000,6.676739013671875,1.4438883099913595,-2.9631255832165477,0.13611235175430775
1746477332716718000,6.686718017578125,1.2074503746569156,-2.782143577644229,0.388933851134777
1746477332726697000,6.696697021484375,0.9533177926778793,-2.6307985854446887,0.4440788152515888
1746477332736676000,6.706676025390625,0.6965091964226215,-2.580391171243787,0.3024605595573783
1746477332746655000,6.716655029296875,0.5651719135830179,-2.4748732797175643,0.02227583695501089
1746477332756635000,6.726634765625,0.3493856846004724,-2.3166847052335737,-0.379868208886683
1746477332766614000,6.736614013671875,0.131818417420052,-2.0603642578214405,-0.7362047355383634
1746477332776593000,6.746593017578125,0.000519676492549479,-1.6521119582325219,-1.1345271772652863
1746477332786572000,6.756572021484375,-0.078857811604999,-1.196983341178298,-1.5628499127194284
1746477332796551000,6.766551025390625,-0.11057221577372402,-0.6516168193161487,-2.0998563102543355
1746477332806530000,6.776530029296875,-0.07340075177550315,0.01828384470939636,-2.5880484079986807
1746477332816509000,6.786509033203125,-0.10970887694265692,0.6096802963405847,-2.8929198280900716
1746477332826488000,6.796488037109375,-0.24699790779352188,1.067896942538023,-3.065318129712343
1746477332836467000,6.806467041015625,-0.43984103155136106,1.3663900597691536,-3.259856951472163
1746477332846447000,6.816447021484375,-0.5612351221233606,1.5777677881270646,-3.629930034792423
1746477332856426000,6.826426025390625,-0.6811416044861078,1.6769319267123937,-4.034882123792171
1746477332866405000,6.836405029296875,-0.7581207992702722,1.5529899052232503,-4.494240341240167
1746477332876384000,6.846384033203125,-0.7536831090837717,1.3387059340298175,-4.994346748661995
1746477332886363100,6.856363037109375,-0.6364315251439809,1.163899986743927,-5.473265991148352
1746477332896342000,6.866342041015625,-0.4663911848247051,1.0879191553473473,-5.934956450936198
1746477332906321200,6.876321044921875,-0.3484013497382402,1.0251292294353247,-6.227884919777512
1746477332916300000,6.886300048828125,-0.29885201367139813,0.9126058430612086,-6.356702438348531
1746477332926279200,6.896279052734375,-0.3223036164075136,0.7840496057748794,-6.349488853707909
1746477332936259000,6.906259033203125,-0.30428804897917433,0.6062544135451317,-6.288233882278203
1746477332946238000,6.916238037109375,-0.2739958048343658,0.48793432359099387,-6.225443371844292
1746477332956217000,6.926217041015625,-0.20999648486627265,0.4162807077437639,-6.195940213984251
1746477332966196000,6.936196044921875,-0.10921440795660019,0.2940390604317188,-6.193354289144277
1746477332976174800,6.9461748046875,0.06237491537034511,0.1387076289445162,-6.300264511811733
1746477332986153700,6.95615380859375,0.39018593355510384,-0.0037701661884784695,-6.521782525911926
1746477332996132900,6.9661328125,0.7753355534434319,-0.1301227559506893,-6.726452281063795
1746477333006111700,6.97611181640625,1.0774152969896793,-0.1971083799868822,-6.808990279018879
1746477333016092200,6.986092041015625,1.2171546070694923,-0.23286066136956213,-6.698406336274743
1746477333026070800,6.99607080078125,1.1730541840583086,-0.3370136942833662,-6.260631005081534
1746477333036050000,7.0060498046875,1.0835025079488754,-0.45991059063374995,-5.6212780395329
1746477333046028800,7.01602880859375,1.03347444845438,-0.40458091759979725,-5.040601134836673
1746477333056008000,7.026008056640625,0.9939391414016485,-0.210562904843688,-4.601391094665229
1746477333065986800,7.03598681640625,0.903380918598175,0.030119243931770324,-4.2266093952625985
1746477333075966000,7.045966064453125,0.682381375414133,0.3009370032519102,-3.774152920027077
1746477333085944800,7.05594482421875,0.324525968632102,0.4875625676691532,-3.257297914639115
1746477333095924000,7.065924072265625,-0.15993454136848448,0.42673429721891876,-2.665404911662638
1746477333105903900,7.07590380859375,-0.664947425532341,0.14676467867195606,-2.043345026220381
1746477333115882800,7.0858828125,-1.1422738458693027,-0.2801625107705593,-1.5630866440847515
1746477333125862000,7.09586181640625,-1.4681331089317797,-0.7932254303991794,-1.264399465586245
1746477333135840800,7.1058408203125,-1.6975111888825893,-1.2700550071299075,-0.9642314008802175
1746477333145820000,7.11581982421875,-1.8147078277647495,-1.7009218741089105,-0.6799576553985476
1746477333155799000,7.125799072265625,-1.7714637293219566,-2.0170272203981874,-0.4173562280207872
1746477333165778000,7.13577783203125,-1.6347136641860007,-2.161539736229181,-0.0807400086224079
1746477333175757000,7.145757080078125,-1.4170833051741123,-2.2458353915065525,0.2744844651341438
1746477333185737000,7.155737060546875,-1.2041980948626994,-2.256888700440526,0.6533908432513476
1746477333195715800,7.1657158203125,-1.0594902756553142,-2.14714354660809,0.9589572598695755
1746477333205695000,7.175695068359375,-0.9898456615429371,-1.9427181216061113,1.2277929054617882
1746477333215673900,7.185673828125,-1.0404361041605472,-1.6929232765704392,1.5525152734488248
1746477333225653000,7.195653076171875,-1.0596213546890765,-1.3666197768718003,1.8952368239849804
1746477333235631900,7.2056318359375,-1.1024305688459426,-0.9732505736380815,2.3008792333364485
1746477333245611000,7.215611083984375,-1.1911901447296143,-0.513618799945712,2.721718627297878
1746477333255590000,7.22558984375,-1.3184312077641487,-0.05438800826966762,3.0774136411756277
1746477333265570000,7.235570068359375,-1.4161317035377026,0.2523568044781685,3.35669293937087
1746477333275549000,7.245548828125,-1.4853215596199034,0.553097408375144,3.5698587201893326
1746477333285528000,7.255528076171875,-1.5008007221721111,0.8860030828177928,3.6867175054192542
1746477333295507000,7.2655068359375,-1.573539795168489,1.2137035898327826,3.752496676275134
1746477333305486000,7.275486083984375,-1.5974118152737617,1.4996820934057236,3.806652044832706
1746477333315465000,7.28546484375,-1.6203728580139576,1.8202268834471702,3.7544308592081066
1746477333325444000,7.295444091796875,-1.5789561211287975,2.187408336979151,3.695011871033907
1746477333335423000,7.305423095703125,-1.5220248581171034,2.6837545150846243,3.6182530410021543
1746477333345402000,7.315402099609375,-1.5504526418305933,3.184764008826017,3.4964784266799684
1746477333355382000,7.325382080078125,-1.6304257577337324,3.5644109761774536,3.3722038122355937
1746477333365361000,7.33536083984375,-1.7265096120908856,3.8234687395989893,3.2446231419831513
1746477333375340000,7.345340087890625,-1.7917571602880953,4.058223836413026,3.105564799904823
1746477333385319000,7.35531884765625,-1.921110685431957,4.417568604969978,2.956789950454235
1746477333395298000,7.365298095703125,-2.1658105454161762,4.7079538190692665,2.99805251969099
1746477333405277000,7.37527685546875,-2.54160200638324,4.819120530137419,3.265646640789509
1746477333415256000,7.385256103515625,-2.9364450815618035,4.843554714170098,3.667476213854551
1746477333425234400,7.395234375,-3.273327550680935,5.063638311553001,3.8880899725913998
1746477333435214600,7.405214599609375,-3.5701369526088236,5.541876001515984,3.9971600036412474
1746477333445193500,7.415193359375,-3.895607508614659,5.848306341487169,4.2512475774347775
1746477333455172600,7.425172607421875,-4.195963497108221,5.835356843543052,4.558811889871954
1746477333465151500,7.4351513671875,-4.268925857466459,5.787362335702777,4.543687385976314
1746477333475130600,7.445130615234375,-4.163566663633286,5.753017583030462,4.311477881991863
1746477333485109500,7.455109619140625,-4.097951743428409,5.431926265022159,4.191299012428522
1746477333495088600,7.465088623046875,-4.0857214996695514,4.669921317794919,4.172087531480193
1746477333505067500,7.475067626953125,-3.984253468056023,3.878825885161757,3.919952260798216
1746477333515046700,7.485046630859375,-3.782482064694166,3.3925007503330704,3.3637960493743417
1746477333525026600,7.495026611328125,-3.457192125952244,3.244593331366777,2.7507056523293256
1746477333535005700,7.505005615234375,-3.1234888713911175,3.3329455685585736,2.345556579452753
1746477333544984600,7.514984619140625,-2.7150293587923047,3.5377123543441296,2.190410441404581
1746477333554963700,7.524963623046875,-2.218973541935533,3.8100323349207637,2.137041254788637
1746477333564942600,7.534942626953125,-1.6438263604462147,4.136593024250865,1.9943676448225973
1746477333574921700,7.544921630859375,-1.0582558384895324,4.375767106550931,1.754202213397622
1746477333584900600,7.554900634765625,-0.5282792665261775,4.372912886163592,1.3844506171166897
1746477333594879700,7.564879638671875,-0.009650602529197931,3.9757390299499034,0.976297101727128
1746477333604859600,7.574859619140625,0.5523029700618237,3.3583506434500214,0.50532326528728
1746477333614838500,7.584838623046875,1.0898610101301223,2.5590298187851905,-0.05340191984176636
1746477333624817700,7.594817626953125,1.499699629062414,1.6281068132668732,-0.5241664974451065
1746477333634796500,7.604796630859375,1.697362720322609,0.6042793140798807,-0.7856196315705776
1746477333644775700,7.614775634765625,1.6015210041582584,-0.3899865750581026,-0.8860925146669149
1746477333654754600,7.624754638671875,1.4600737211167811,-1.235083646991849,-0.9261550604641438
1746477333664733700,7.634733642578125,1.3508020300149917,-1.8500889377474783,-0.9092886813372373
1746477333674712600,7.644712646484375,1.266204761442542,-2.3218396037787197,-0.758484956407547
1746477333684691700,7.654691650390625,1.2696446727633475,-2.6815087819844483,-0.5252344189375638
1746477333694671600,7.664671630859375,1.3698141889989375,-2.926713961142301,-0.29165421112179757
1746477333704650800,7.674650634765625,1.5559411562442778,-3.067483783313632,0.0034592005431652068
1746477333714629600,7.684629638671875,1.7400836716741321,-3.124019325006008,0.14869418542981147
1746477333724608800,7.69460888671875,1.9494342781186103,-3.2040795346707105,0.03544540739059448
1746477333734587600,7.704587646484375,2.2427806801110504,-3.3575615388989446,-0.36254794851243494
1746477333744566800,7.71456689453125,2.5581641418665644,-3.0742689134091137,-0.8865034335553645
1746477333754545700,7.724545654296875,2.4909388638556003,-3.078274057397246,-0.9196388104379176
1746477333764524500,7.734524658203125,2.0223972229987384,-3.1739468467354772,-0.7177694996595382
1746477333774504700,7.744504638671875,1.8688788322828709,-2.9644132849395275,-0.40487142497897144
1746477333784483600,7.754483642578125,2.1555320202469823,-2.6202795295178887,-0.3021785277456045
1746477333794462700,7.764462646484375,2.2416911313086745,-2.198213808631897,-0.06953092460483312
1746477333804441600,7.774441650390625,2.416450755234808,-1.8821774359256027,0.06595569646656513
1746477333814420500,7.78442041015625,2.6460411627620455,-1.6581886477977037,0.019232815997302533
1746477333824399400,7.7943994140625,2.702459215554595,-1.5004168374210596,-0.19658874002695081
1746477333834378500,7.80437841796875,2.622438753378391,-1.4555805013507603,-0.606781652289629
1746477333844357400,7.814357421875,2.419731822732091,-1.4010720815718174,-1.1435007573157547
1746477333854337800,7.824337890625,2.22366082296893,-1.2843208483695983,-1.7355378449380396
1746477333864316400,7.83431640625,2.045486422163248,-1.0928846688002347,-2.2862588795706626
1746477333874295600,7.844295654296875,1.9202641516052186,-0.8628940099090338,-2.821890481621027
1746477333884274400,7.8542744140625,1.7749714451819658,-0.6132745214402675,-3.250776696176827
1746477333894253600,7.864253662109375,1.609863154437393,-0.3599064940929413,-3.54647667555809
1746477333904232400,7.874232421875,1.4466712187081574,-0.11485562871396542,-3.854358967903256
1746477333914211600,7.884211669921875,1.336727911955118,0.23818039508759975,-4.235066842484474
1746477333924190500,7.8941904296875,1.2416624408602714,0.6812462339043617,-4.617263786579668
1746477333934169600,7.904169677734375,0.9841261879175901,1.065804354172945,-4.8960909570932385
1746477333944149500,7.9141494140625,0.6943577174771577,1.1462409959346056,-5.117769714713097
1746477333954128400,7.92412841796875,0.47022455244250594,0.9565086976736783,-5.455635057389736
1746477333964107500,7.934107421875,0.41697621572725474,0.724025052922964,-6.011377427315711
1746477333974086400,7.94408642578125,0.38459085349440575,0.6165490130662917,-6.5006052978485815
1746477333984065500,7.9540654296875,0.23936295593567192,0.4842553428173065,-6.748031660187244
1746477333994044400,7.96404443359375,-0.029613632497191428,0.24254209742844104,-6.787901898282766
1746477334004023600,7.9740234375,-0.14449154610820114,0.005768062007427215,-6.827415578025579
1746477334014002700,7.984002685546875,0.013511808001995087,-0.043992286461591715,-6.943434405300021
1746477334023982600,7.993982666015625,0.3251215964376926,0.10388356832265853,-6.980551545295119
1746477334033961500,8.00396142578125,0.5872732342213391,0.42852761037647724,-6.926431248050927
1746477334043940600,8.013940673828126,0.8167986136883497,0.8241121515721083,-6.673347298341989
1746477334053919500,8.02391943359375,1.1015835235625504,1.2406021181523799,-6.420654393777251
1746477334063898600,8.033898681640625,1.357384915536642,1.5423901852756738,-6.189477155449986
1746477334073877500,8.04387744140625,1.4600053320556878,1.7348457710206509,-5.808652376490831
1746477334083856600,8.053856689453125,1.293577337014675,1.7668810777068138,-5.354662408077717
1746477334093835500,8.06383544921875,0.9313216494470834,1.5746359198421238,-4.855408818092942
1746477334103814700,8.073814697265625,0.46006607345640654,1.2495160769701004,-4.407268160229921
1746477334113794600,8.083794677734375,0.0027601123631000517,0.9706021049559116,-4.000091673178971
1746477334123773700,8.093773681640625,-0.3390782255977392,0.7675052982091903,-3.628270284886658
1746477334133752600,8.103752685546874,-0.6334849502980708,0.6545213085860013,-3.1688813800394535
1746477334143731700,8.113731689453125,-0.8968786970973014,0.6043178925246,-2.673109494690597
1746477334153710600,8.123710693359374,-1.1056441971302031,0.5933189441263675,-2.1351164242058993
1746477334163689700,8.133689697265625,-1.2832722160995005,0.6384685839295386,-1.587498616285622
1746477334173668600,8.143668701171874,-1.4833599041581154,0.5708662892997265,-1.001370168185234
1746477334183647700,8.153647705078125,-1.6812006900727747,0.36361879261434077,-0.39517479135096073
1746477334193627600,8.163627685546874,-1.8507155452132225,0.012943068203330039,0.16533493910729885
1746477334203606500,8.1736064453125,-1.7744050434708594,-0.4394248519659042,0.6286024389535189
1746477334213585700,8.183585693359374,-1.7181822209894657,-0.8475655078738927,0.8995043694257736
1746477334223564500,8.193564453125,-1.595999610388279,-1.288277477040887,1.0918307758331298
1746477334233543700,8.203543701171874,-1.3912111972928047,-1.6300532711595297,1.25574591127038
1746477334243522600,8.2135224609375,-1.1783236488938331,-1.838700113248825,1.5219336727023123
1746477334253501700,8.223501708984376,-0.985280618649721,-2.004877348399162,1.8151017955183981
1746477334263480600,8.23348046875,-0.8088355989199131,-2.073231922701001,2.087592456486821
1746477334273459700,8.243459716796876,-0.6259317584395409,-2.010746532693505,2.2828917412251233
1746477334283439600,8.253439697265625,-0.4056102606475353,-1.8982745842456816,2.429651159200072
1746477334293418800,8.263418701171876,-0.2849299078354612,-1.6664339135736226,2.641467863497138
1746477334303397600,8.273397705078125,-0.20878895397372543,-1.4120979179769753,2.886119500425458
1746477334313376800,8.283376708984376,-0.15283384251780807,-1.1108669002145528,3.0764515181452032
1746477334323355600,8.293355712890625,-0.12634908263087272,-0.8391355331808328,3.2120553358554838
1746477334333334800,8.303334716796876,-0.2689561301667243,-0.5917991872131824,3.3059535167366265
1746477334343313400,8.3133134765625,-0.5319792170226574,-0.349226110124588,3.3386265368044374
1746477334353292500,8.32329248046875,-0.8430008303068578,-0.1457639771968126,3.3024411247014998
1746477334363272700,8.333272705078125,-1.1123428179860115,0.12625263651907442,3.1771541183441876
1746477334373251600,8.34325146484375,-1.3351628545954823,0.5113444252729415,3.0391771417617797
1746477334383230700,8.353230712890625,-1.5844471197605132,0.8146195160835981,3.0072412037968634
1746477334393209300,8.363209228515625,-1.741392562315613,1.163795357325673,2.994423223277926
1746477334403188500,8.3731884765625,-1.8406420410968363,1.6278993079960344,2.9843191778928038
1746477334413167400,8.38316748046875,-1.9717665214359759,2.1689432904839516,2.958261192050576
1746477334423147000,8.39314697265625,-2.1772586988866327,2.72910113876462,2.9837141977369783
1746477334433126000,8.4031259765625,-2.4463407204553484,3.2452415661424396,3.0606998222619293
1746477334443105000,8.41310498046875,-2.740478857347369,3.7303579097032546,3.1164988663733
1746477334453085000,8.4230849609375,-2.958311753194034,4.114682805737853,3.1373306419998404
1746477334463064000,8.43306396484375,-3.1544588869333263,4.380522192123532,3.208979581671953
1746477334473043000,8.44304296875,-3.3829803500548,4.474283010360598,3.424201125976443
1746477334483022000,8.45302197265625,-3.562657410508394,4.416027805268764,3.74368267070055
1746477334493001000,8.4630009765625,-3.602553659828007,4.364202340963483,3.872598973470926
1746477334502980000,8.47297998046875,-3.3370132563889023,4.721394899922609,3.605909107735753
1746477334512959000,8.482958984375,-2.9497914698690173,5.2350347426563495,3.319778043949604
1746477334522938000,8.492938232421874,-2.6751731492221356,5.2607069440513845,3.568438916519284
1746477334532918000,8.50291796875,-2.467830375468731,4.906677817559242,3.944194721651077
1746477334542897000,8.51289697265625,-2.1509001226626334,4.561335270869732,3.8685798009574413
1746477334552876000,8.5228759765625,-1.744567539089918,4.380556678915023,3.5156659422308203
1746477334562855000,8.53285498046875,-1.386069596620649,4.187264057824016,3.3427702124804255
1746477334572834000,8.542833984375,-1.0450715088762341,3.9775042860567567,3.1942806097120044
1746477334582813000,8.55281298828125,-0.8133833984173834,3.7943332460075614,3.1742104661077257
1746477334592792000,8.5627919921875,-0.6999636477254331,3.6155998961448668,3.222278623706102
1746477334602771000,8.57277099609375,-0.7758033170856535,3.591577800044417,3.2360002750664947
1746477334612750000,8.58275,-1.056942856194824,3.6955940548360346,3.2958728522270917
1746477334622730000,8.59272998046875,-1.4310218141555786,3.80677596347332,3.3824808761000633
1746477334632709000,8.602709228515625,-1.662772906848043,4.00358857538402,3.2604151698768136
1746477334642688000,8.61268798828125,-1.7230745230756699,4.200591156908869,3.0127585059136153
1746477334652667100,8.622667236328125,-1.5986732135117052,4.33535501666367,2.7206623962432146
1746477334662646000,8.63264599609375,-1.3450035728693008,4.331128923401236,2.414412089014053
1746477334672625200,8.642625244140625,-1.008836996934563,4.050916143748164,2.0331459960281846
1746477334682604000,8.65260400390625,-0.6953927596133201,3.5603999869704244,1.5423925233632325
1746477334692583200,8.662583251953125,-0.45949959868006407,3.0510873597860333,1.0436597423821687
1746477334702563000,8.67256298828125,-0.33980836650319396,2.5212673666238783,0.651594022962451
1746477334712542000,8.6825419921875,-0.3120786115238443,1.8328490491330622,0.4608090007781982
1746477334722521000,8.69252099609375,-0.360284168298915,1.0677671786785126,0.3797831609517336
1746477334732500000,8.7025,-0.4537386970657855,0.3289443695962429,0.32823300645649434
1746477334742479000,8.71247900390625,-0.5140647901475429,-0.2993032645702362,0.2769780355155468
1746477334752458000,8.7224580078125,-0.5095534136703238,-0.8714327056735753,0.30659342157840724
1746477334762437000,8.73243701171875,-0.35596798560023307,-1.3712714020699261,0.4148340160667896
1746477334772416000,8.742416015625,-0.11048867480927146,-1.7868740644216536,0.5017851542890072
1746477334782395000,8.752394775390625,0.1042681837260723,-2.1644185065358874,0.5068798470795154
1746477334792375000,8.762375,0.3054618054662831,-2.4647850164234635,0.46791386434733867
1746477334802354200,8.772354248046875,0.5383481675326824,-2.6786867103010414,0.2727022578924894
1746477334812333000,8.7823330078125,0.8586533035993575,-2.8158874418139455,-0.12723930946886539
1746477334822312000,8.79231201171875,1.1932692890912293,-2.8665730884343383,-0.5778711996257305
1746477334832290800,8.802290771484374,1.4950088408976792,-3.0071178696781393,-0.9328706324547529
1746477334842270000,8.81227001953125,1.8037334292858838,-3.1057015780270096,-1.05474490775913
1746477334852248800,8.822248779296874,1.83136144092381,-3.0732290489673613,-1.0289897042557596
1746477334862228000,8.83222802734375,1.8391297368377446,-2.9294477700203654,-1.0887667120873927
1746477334872208000,8.842207763671874,1.9636060113340614,-2.5986761849969624,-1.184946281903982
1746477334882187000,8.85218701171875,2.1910995927125216,-2.399136193948984,-1.3319298640236257
1746477334892166000,8.862165771484374,2.360694527351856,-2.3118156378924843,-1.5202537567913532
1746477334902145000,8.87214501953125,2.307324171692133,-2.299630694580078,-1.76665515999645
1746477334912124000,8.8821240234375,2.2299831578582525,-2.321817976468801,-2.207892906603217
1746477334922103000,8.89210302734375,2.0897399899095297,-2.273313181018829,-2.768740490713715
1746477334932082000,8.90208203125,1.84126441077888,-2.1552298224300146,-3.2850036676883696
1746477334942061000,8.91206103515625,1.5724194128364324,-1.8523773409456012,-3.7995512729167937
1746477334952040000,8.9220400390625,1.3070850533634424,-1.4665204130381344,-4.155405569009482
1746477334962019800,8.932019775390625,1.0713252364862709,-1.0941215171188114,-4.416083042587339
1746477334971999000,8.9419990234375,0.8380260375689714,-0.7645189758747816,-4.627445281115174
1746477334981977900,8.951977783203125,0.5134720118861645,-0.35304186902046203,-4.888088560162484
1746477334991957000,8.96195703125,0.1727227843362838,0.16551847898066044,-5.312476294255256
1746477335001936000,8.971935791015625,-0.09589256956875324,0.7455524095982313,-5.745516413620114
1746477335011915000,8.9819150390625,-0.38464294900782403,1.1741589304298161,-6.052697279697656
1746477335021894000,8.991893798828125,-0.6883592807799578,1.3202110769182442,-6.253664088678359
1746477335031873000,9.001873046875,-0.9814560919255018,1.1666928323328494,-6.476928069663048
1746477335041853000,9.01185302734375,-1.1692138752430676,0.9134241737067699,-6.888784531223774
1746477335051832000,9.02183203125,-1.270733052521944,0.7641168248146772,-7.414842541503906
1746477335061811000,9.03181103515625,-1.4521335757672786,0.5516489631325007,-7.755738630178571
1746477335071790000,9.0417900390625,-1.6922247729122637,0.2818167077183723,-7.891292179006338
1746477335081769000,9.05176904296875,-1.93623051315248,0.0826227536290884,-7.917116940614581
1746477335091748000,9.061748046875,-1.990276576116681,0.09104162240624428,-7.911589117103815
1746477335101727000,9.07172705078125,-1.8524480680942534,0.3391992216289043,-7.856108637422323
1746477335111706000,9.0817060546875,-1.5879641879707573,0.5856687216341495,-7.623931282141804
1746477335121686000,9.09168603515625,-1.2078127782285213,0.7114408811599016,-7.24329121209979
1746477335131665000,9.101664794921875,-0.6609463731974363,0.8465279815196991,-7.107001750212907
1746477335141644000,9.11164404296875,-0.05697627119719982,1.0608739120334387,-7.111004556113481
1746477335151623000,9.121622802734375,0.37642858982682226,1.2025935822755098,-7.018200600209831
1746477335161602000,9.13160205078125,0.5620411778092383,1.2065268300712109,-6.805324742248654
1746477335171581000,9.141580810546875,0.5103396321445703,0.9488210657805204,-6.345294324627519
1746477335181560000,9.15156005859375,0.26035310046169907,0.572338699939847,-5.808987892055511
1746477335191539000,9.1615390625,-0.038317145168315615,0.35010406200289723,-5.28359857481718
1746477335201518000,9.17151806640625,-0.244243056127429,0.3882388546079397,-4.774668224948645
1746477335211498000,9.181498046875,-0.358754401448369,0.610576952919364,-4.264928020001948
1746477335221477000,9.19147705078125,-0.46207565971314907,0.9271247822791338,-3.6337975238755345
1746477335231456000,9.2014560546875,-0.6484627391993999,1.2955395769983529,-2.8645211243405937
1746477335241435100,9.21143505859375,-0.8751853362053632,1.571951795324683,-2.0231690841540693
1746477335251414000,9.2214140625,-1.0611059672236443,1.6000006627231835,-1.0143015459507703
1746477335261393200,9.23139306640625,-1.2672083855271339,1.3515274216800928,-0.01740501604825258
1746477335271372000,9.2413720703125,-1.4027473213076591,0.8722031055241822,0.8199602925896644
1746477335281351200,9.25135107421875,-1.536104821395874,0.2939356000572443,1.3628928653031587
1746477335291331000,9.2613310546875,-1.6537258231699465,-0.3373047861844301,1.6058108103066682
1746477335301310000,9.27131005859375,-1.709984886008501,-0.9103875824898481,1.5945102486133576
1746477335311289000,9.2812890625,-1.667626922750473,-1.3199614860713482,1.5607242988675831
1746477335321268000,9.29126806640625,-1.5150363144040107,-1.5018547612696884,1.6011112543135881
1746477335331247000,9.3012470703125,-1.3358955527842045,-1.57993987146914,1.6791583705902098
1746477335341226000,9.31122607421875,-1.1438824501097202,-1.5791057587325572,1.847223026922345
1746477335351204900,9.321204833984375,-1.0324760850667953,-1.4675310513854025,2.0723563089102504
1746477335361184000,9.33118408203125,-0.9203180248737335,-1.2007862405925989,2.3751094216734168
1746477335371163000,9.341162841796875,-0.8430115708965807,-0.9233668910503386,2.719443668103218
1746477335381143000,9.35114306640625,-0.8572364956039935,-0.6138531981110572,2.991430471202731
1746477335391122200,9.3611220703125,-0.9472854537110775,-0.2876058125138283,3.1558933036506174
1746477335401100800,9.371100830078126,-1.1446013389687983,-0.026450784552097317,3.307175752007961
1746477335411080000,9.381079833984375,-1.349669226592779,0.05500526338517665,3.4362031139373777
1746477335421059000,9.39105908203125,-1.5017127224504947,0.13833938015401362,3.5365561700463295
1746477335431038200,9.4010380859375,-1.6499907282948494,0.2205278340190649,3.6057302440375087
1746477335441017000,9.41101708984375,-1.7234698060035705,0.33226913010478015,3.688935765990615
1746477335450996200,9.420996337890625,-1.688308622381836,0.4873872111022472,3.6494291005104778
1746477335460975000,9.43097509765625,-1.706109505879879,0.7853139266222715,3.651165130522847
1746477335470955000,9.440955078125,-1.7821628179907798,1.1402829643130301,3.627756782406568
1746477335480934100,9.45093408203125,-1.7711175462327897,1.5954086587578058,3.594711421895027
1746477335490913300,9.460913330078125,-1.7665465850554405,2.1788877613931894,3.527084577345848
1746477335500892200,9.47089208984375,-1.787161795321852,2.762366864028573,3.5440064860522744
1746477335510871300,9.480871337890624,-1.830005057878792,3.2933249213099476,3.6811738998174666
1746477335520850200,9.49085009765625,-1.9318563897214829,3.7221816175103184,3.760228731831908
1746477335530829300,9.500829345703124,-2.082233852063119,4.041334660932422,3.7369934021949764
1746477335540808000,9.510807861328125,-2.3350573972702025,4.274599811449646,3.6296044560998677
1746477335550788000,9.5207880859375,-2.70935978872329,4.425898041898012,3.6110593301057814
1746477335560767200,9.530767333984375,-3.1785061174750324,4.431006178691983,3.692240068233013
1746477335570746000,9.54074609375,-3.6107016027092933,4.4418449680924414,3.791255153736472
1746477335580725200,9.550725341796875,-3.8494434310719368,4.698765134963393,3.6604368167370556
1746477335590703900,9.560703857421874,-4.025956766797602,5.05183389199078,3.5205291643530128
1746477335600683000,9.57068310546875,-4.155797490936518,5.28878386850059,3.6788708835721016
1746477335610662000,9.580661865234376,-4.249366293732821,5.306010897633433,4.021830334517359
1746477335620641000,9.59064111328125,-4.27691597943753,5.213142059800028,4.27351318525672
1746477335630620000,9.600619873046876,-4.213409137427806,5.124665319445729,4.250746642175317
1746477335640600000,9.61060009765625,-4.065746340872347,5.058930572253465,4.000216468602419
1746477335650579000,9.620578857421876,-3.824408650797605,4.889836572873592,3.659168988758325
1746477335660558000,9.63055810546875,-3.5142519837796686,4.625409975895285,3.3514111995756624
1746477335670537000,9.640536865234376,-3.1314088507354256,4.448316209933162,3.0103011758893725
1746477335680516000,9.65051611328125,-2.842147672230005,4.430623316854239,2.7477070550352334
1746477335690495000,9.660494873046876,-2.6592998727858066,4.4343367844194175,2.674475814607739
1746477335700474000,9.67047412109375,-2.5836066261589528,4.45490377162993,2.6883301524370906
1746477335710453000,9.680452880859375,-2.51009364618063,4.475978708362579,2.5872008512586353
1746477335720433000,9.690432861328125,-2.407857260543108,4.436688315981626,2.4187229379504918
1746477335730412000,9.700412109375,-2.233980703061819,4.280246292904019,2.181616894096136
1746477335740391000,9.710390869140625,-2.0503718561172484,3.9972950281977653,1.8945441655457018
1746477335750370000,9.7203701171875,-1.7511913411438464,3.6094419580370185,1.5363029743164778
1746477335760349000,9.730348876953125,-1.387584823489189,3.144151427930593,1.0912865859538317
1746477335770328000,9.740328125,-0.9875134922683239,2.624956289157271,0.6464823790371418
1746477335780307000,9.750306884765624,-0.5217278355887159,2.0680840384185313,0.2116904475688934
1746477335790286000,9.7602861328125,0.05046173820402473,1.4609797300457954,-0.18574761253893374
1746477335800265000,9.770264892578124,0.5423252544701099,0.7258312255620956,-0.4499012377947569
1746477335810245000,9.7802451171875,0.8991407968103885,-0.00988309611082077,-0.5721235958844423
1746477335820224000,9.79022412109375,1.1490139677792788,-0.6676368107467889,-0.6683101799637079
1746477335830203100,9.800203125,1.3717647385448217,-1.2384265276789665,-0.7099936049610376
1746477335840182000,9.81018212890625,1.6110399431318043,-1.7757324926823377,-0.6981792485266923
1746477335850161200,9.8201611328125,1.8781921656817198,-2.213525359532237,-0.6741103906750678
1746477335860140000,9.83014013671875,2.1394646825432777,-2.5257506495177746,-0.7032230879127979
1746477335870119200,9.840119140625,2.4796178438961505,-2.720639015367627,-0.7797089462220669
1746477335880098000,9.85009814453125,2.8649767591536044,-2.88231134031415,-1.032832643419504
1746477335890078000,9.860077880859375,3.343444750741124,-2.841950688353181,-1.5108061294883488
1746477335900057000,9.87005712890625,3.6672149325698613,-2.749770417305827,-1.8222385155305265
1746477335910036000,9.880035888671875,3.7429765682578084,-2.95814194958508,-1.6287684920459984
1746477335920015000,9.89001513671875,3.3516590368568897,-2.9812060143083334,-1.5257207900255918
1746477335929994000,9.899993896484375,3.1163831310391426,-2.5536492947906253,-1.5030018854781984
1746477335939973000,9.90997314453125,3.121716308760643,-2.3739041375368832,-1.3948597829282283
1746477335949952000,9.919951904296875,3.079337302714586,-2.110267229631543,-1.299495328886807
1746477335959931100,9.92993115234375,2.868604886522889,-1.8994412899374962,-1.251294192558527
1746477335969910300,9.93991015625,2.595805013474822,-1.7106185077369211,-1.2485010547086597
1746477335979890200,9.94989013671875,2.364841856289655,-1.5026865359187125,-1.3586042281985282
1746477335989869000,9.959869140625,2.0981800476051866,-1.388952020189166,-1.5875693434342741
1746477335999848200,9.96984814453125,1.8177568400718271,-1.4057511792987585,-1.8402654628694057
1746477336009827000,9.9798271484375,1.5789825707443057,-1.4935177255570888,-2.1640140173882245
1746477336019806200,9.98980615234375,1.3996908563464878,-1.5181792886048555,-2.5453926308378576
1746477336029785000,9.99978515625,1.3498925139546394,-1.486644917178154,-2.8797675010502335
1746477336039764200,10.00976416015625,1.4022991391487418,-1.351489427757263,-3.220606014318764
1746477336049743000,10.0197431640625,1.4502994922079144,-1.1155933442145585,-3.5093250487715
1746477336059723300,10.02972314453125,1.4616829098790882,-0.7675795324891805,-3.7035333234027026
1746477336069702100,10.0397021484375,1.398611682807654,-0.40009412757456303,-3.874482302999496
1746477336079681300,10.049681396484376,1.3082603807531297,-0.03764204065203666,-4.021202265746891
1746477336089660200,10.05966015625,1.2601327480524778,0.3583563420414924,-4.22570250955075
1746477336099639300,10.069639404296876,1.2611613604478538,0.7548562445163727,-4.525919089573621
1746477336109618200,10.0796181640625,1.2495372658886015,0.962857774439454,-4.79089309130162
1746477336119597000,10.08959716796875,1.218523118943721,1.0031927074372768,-5.09090801127255
1746477336129576000,10.099575927734374,1.2069693131417036,0.8486591483294963,-5.499066202837229
1746477336139555000,10.10955517578125,1.2477527205593884,0.6863508635669946,-5.994768822342157
1746477336149535200,10.11953515625,1.1863048569060861,0.6624567777603865,-6.472993068301677
1746477336159514000,10.12951416015625,0.9466077005799859,0.6032686757326126,-6.7207613759458065
1746477336169493000,10.139492919921874,0.6625719285726547,0.5147065951824188,-6.828334446436166
1746477336179472000,10.149471923828125,0.47873694472201167,0.47963878893256184,-6.8996636526346204
1746477336189451000,10.159450927734374,0.3546409747801721,0.5015665431022643,-6.884101341843604
1746477336199430000,10.169429931640625,0.2513127022527158,0.5221171636998653,-6.733837715139985
1746477336209409000,10.179408935546874,0.22827508714497088,0.539404398587346,-6.565979395034909
1746477336219388000,10.189387939453125,0.3432556574128568,0.5276759668707848,-6.358811393326521
1746477336229368000,10.1993681640625,0.7041891564659774,0.5233844071567059,-6.1983858535706995
1746477336239347000,10.209346923828125,1.054089950981736,0.6455857224583625,-6.0791907343477005
1746477336249326000,10.219326171875,1.2274755100756882,0.7700228339880705,-5.896926872271299
1746477336259305000,10.229304931640625,1.1784347080528736,0.9518477201253175,-5.685243438965082
1746477336269284000,10.2392841796875,0.9420347666412592,1.0752198327720164,-5.298012884616852
1746477336279263000,10.249262939453125,0.6147007548511028,1.0650047282278536,-4.900799280914664
1746477336289242000,10.2592421875,0.2750192295979708,1.0378121853977442,-4.446963334019482
1746477336299221000,10.269220947265625,0.03397540790326893,1.0709522384554147,-3.9959526736781
1746477336309200100,10.2792001953125,-0.22240707189440725,1.1609352917194367,-3.6244033803254365
1746477336319180000,10.289179931640625,-0.5162087433736771,1.2920973275899887,-3.2319653204619883
1746477336329159000,10.299158935546876,-0.7461831087172031,1.3749042056143284,-2.8092671468913553
1746477336339138000,10.309137939453125,-0.9748130006492137,1.3904261843949555,-2.3006816649377346
1746477336349117000,10.319116943359376,-1.2445476409077643,1.1994827567785977,-1.5780632639423011
1746477336359096000,10.329095947265625,-1.5286626886963843,0.9051467592269181,-0.9806845230311155
1746477336369075000,10.339074951171876,-1.8264578867912291,0.6790303114205598,-0.5592419024795293
1746477336379054000,10.34905419921875,-1.9349638542175291,0.2629495101630688,-0.19660978281497954
1746477336389033000,10.359032958984375,-1.7963281214654445,-0.09954057068228721,0.059097501134872436
1746477336399013000,10.36901318359375,-1.9550234764277934,-0.33885435371398925,0.2253893025755882
1746477336408992000,10.378991943359376,-2.168651029539108,-0.5261322445601224,0.393706472364068
1746477336418971400,10.388971435546875,-2.2349100928664205,-0.5797030912280082,0.7410767254889011
1746477336428950300,10.3989501953125,-2.217256362754106,-0.572652003672719,1.1892197214394806
1746477336438929200,10.40892919921875,-2.1096844613075256,-0.5188625458180904,1.6798422612011432
1746477336448908000,10.418907958984375,-1.8978993211925028,-0.4047837466955185,2.141519276985526
1746477336458887200,10.42888720703125,-1.8398948759913443,-0.17147475703656673,2.45766787789464
1746477336468866000,10.438865966796875,-1.9283552497327328,0.05326105006635189,2.8956688345372674
1746477336478845200,10.44884521484375,-1.91495099375844,0.28546353978812694,3.411332876574993
1746477336488825000,10.4588251953125,-1.7992939855337142,0.5520201345324516,3.877437061151862
1746477336498804000,10.468803955078124,-1.6302654526054858,0.7148644258677959,4.2509991556316615
1746477336508783000,10.478783203125,-1.5144097069382667,0.8456243106782436,4.582931016606092
1746477336518762000,10.488761962890624,-1.51746208024621,0.904238996732235,4.76537081977129
1746477336528741000,10.4987412109375,-1.6019979740202426,0.8988812690913677,4.883683310940861
1746477336538720300,10.50872021484375,-1.657044738459587,0.873123142978549,4.919522686085105
1746477336548699100,10.51869921875,-1.615056193035841,0.8872855238437652,4.885192546460032
1746477336558678300,10.52867822265625,-1.5784651227414608,0.9349205507218837,4.83832850395441
1746477336568658200,10.538658203125,-1.4800189231671392,1.0283318248689175,4.794043956547975
1746477336578637000,10.548636962890624,-1.3309667180798948,1.253537587571144,4.698000580331683
1746477336588616200,10.5586162109375,-1.2662287268400192,1.6580179674059152,4.603783250498771
1746477336598595000,10.568594970703124,-1.2584068010427056,2.1122768158882854,4.478248406860232
1746477336608574200,10.57857421875,-1.3848553985252976,2.5748686084300276,4.384643071445822
1746477336618553000,10.588552978515626,-1.5645315821960568,3.039021658939123,4.38707292894125
1746477336628532200,10.5985322265625,-1.7505460289776325,3.5257553745687007,4.3405923327952625
1746477336638511000,10.608510986328126,-1.9407880303263663,4.032749787938594,4.253324968230724
1746477336648490200,10.618490234375,-2.1673022452786563,4.439144476962089,4.219513884043693
1746477336658470100,10.62847021484375,-2.4767291367173194,4.676291437348723,4.320779378822445
1746477336668449300,10.63844921875,-2.784940514886379,4.845259764522313,4.355283121448755
1746477336678428200,10.64842822265625,-2.993925795149803,5.005290752002597,4.1651258757740255
1746477336688407300,10.6584072265625,-2.9993910748183725,5.324802691864967,3.6670629568785427
1746477336698386200,10.66838623046875,-2.8683611408948897,5.588950471901893,3.2113954106420275
1746477336708365300,10.678365234375,-2.737651524966955,5.450483081454038,3.209211052340269
1746477336718344200,10.68834423828125,-2.5204385145843027,5.145678881379962,3.2777246165961027
1746477336728323300,10.6983232421875,-2.145163770967722,4.956361593660712,3.1048551903307438
1746477336738303200,10.70830322265625,-1.7333318593263625,4.858457684269547,2.932273933357
1746477336748282000,10.7182822265625,-1.485846460276842,4.626138290169835,2.9380624536305664
1746477336758261200,10.72826123046875,-1.4036521611928938,4.248059595048427,3.0482559357523917
1746477336768240000,10.738240234375,-1.313016196978092,3.9645015966206785,3.0729899795144795
1746477336778219300,10.74821923828125,-1.2871569485783576,3.8907296734452244,2.9642192236721514
1746477336788198100,10.7581982421875,-1.3703706538379192,3.9314258409708738,2.827246455696225
1746477336798177300,10.76817724609375,-1.6017442915201185,4.01461148917973,2.7668402100503444
1746477336808156200,10.77815625,-1.795133358722925,4.149199407845735,2.715311098343134
1746477336818135300,10.78813525390625,-1.8241010945320129,4.3356718275278805,2.466270871067047
1746477336828115200,10.798115234375,-1.642484298187494,4.495320537692308,2.152406581702828
1746477336838094300,10.80809423828125,-1.2761235133886337,4.431147048467397,1.8974054001957177
1746477336848073200,10.8180732421875,-0.7879355072975158,4.039160239502787,1.4986036505192517
1746477336858052400,10.82805224609375,-0.228121942409873,3.4953052912473677,1.0639198556005953
1746477336868031200,10.83803125,0.5103583368450403,2.987114946091175,0.5367974309593438
1746477336878010400,10.84801025390625,1.016793947288394,2.3302584725558755,-0.12391162635087966
1746477336887989200,10.8579892578125,1.1814204458653925,1.5567460428863762,-0.7341448803991079
1746477336897968400,10.867968505859375,1.189250701099634,0.7818284225940704,-1.132138820824027
1746477336907948300,10.8779482421875,1.1447563103348015,-0.013930910196900367,-1.339482763621211
1746477336917927200,10.88792724609375,1.1043868905454874,-0.7981324916630983,-1.4480460141927003
1746477336927906300,10.89790625,1.0641752916663885,-1.4347142389327288,-1.4680372473418712
1746477336937885200,10.90788525390625,1.14743758530803,-1.9699176786988972,-1.4216495901763437
1746477336947864300,10.9178642578125,1.3282231184601783,-2.4456354947954413,-1.346174370214343
1746477336957843200,10.92784326171875,1.517881766963005,-2.7733061911940573,-1.3079326101034878
1746477336967822300,10.937822265625,1.6848703184962273,-3.147436440950632,-1.3614876746803521
1746477336977801000,10.947801025390625,1.923535282230377,-3.346543885800242,-1.4831132359206676
1746477336987780000,10.957780029296876,2.318479333565384,-3.3101404470324516,-1.6831927406728266
1746477336997760300,10.96776025390625,2.5405928293406963,-3.5481361332029104,-1.9947364781349897
1746477337007739400,10.977739501953126,2.7115128751039506,-3.3455694878101347,-2.073450241626799
1746477337017718300,10.98771826171875,2.4229589680850503,-3.3369407756745812,-1.9463921339437364
1746477337027697200,10.997697265625,1.9438450798094271,-3.104392248994112,-1.634750489065051
1746477337037676000,11.007676025390625,1.6827834292195736,-2.905864649859071,-1.4094021030217407
1746477337047655200,11.0176552734375,1.540711438408494,-2.582123109602928,-1.1336986174866557
1746477337057634000,11.027634033203125,1.398713535746932,-2.2839538174986838,-0.8299658460363745
1746477337067613200,11.03761328125,1.1632312937021254,-2.010612677180767,-0.6003016426205635
1746477337077592000,11.047592041015625,0.928827567609027,-1.8254110080868005,-0.4637199197888374
1746477337087572200,11.057572265625,0.7105221588797866,-1.6829449033915995,-0.5470429306417703
1746477337097551000,11.067551025390625,0.3490419857293367,-1.6625298918724059,-0.7567170699521899
1746477337107530200,11.0775302734375,0.027330489996075628,-1.6730413490146399,-1.2006468321219086
1746477337117509000,11.087509033203125,-0.0524814439959824,-1.6128613133400678,-1.7409543170288204
1746477337127488300,11.09748828125,0.007298997901752591,-1.3636620961099861,-2.289035066285729
1746477337137467100,11.107467041015624,0.07331818805858492,-0.9366109880268573,-2.7429116374522446
1746477337147446300,11.1174462890625,0.10829736617691814,-0.443664389231801,-2.9421324795484542
1746477337157425200,11.127425048828124,0.129399702373147,0.11215104593038558,-3.0315023693501946
1746477337167404300,11.137404296875,0.13281389473080635,0.7070534598559141,-3.2878210631966587
1746477337177384200,11.14738427734375,0.18962182362377641,1.2993968369483948,-3.6239684960395095
1746477337187363000,11.157363037109375,0.1380422969035804,1.7478654115915297,-3.9523756900191307
1746477337197342200,11.16734228515625,0.053608256068825716,1.8672423171222208,-4.315279612362384
1746477337207321000,11.177321044921875,0.013189590310305355,1.6233061349868774,-4.828488954724371
1746477337217300200,11.18730029296875,0.14188801254630087,1.2703782477349042,-5.603737706667184
1746477337227279000,11.197279052734375,0.3282593099415302,1.0027022935718297,-6.358906670394539
1746477337237258200,11.20725830078125,0.3525204754948616,0.7759908024817704,-6.978785120144486
1746477337247237000,11.217237060546875,0.1064689086407423,0.4973381117522716,-7.267118662410974
1746477337257217300,11.22721728515625,-0.21139584853649138,0.20751053153574464,-7.276632340687513
1746477337267196200,11.237196044921875,-0.49199974639900024,-0.017057517784833907,-7.19944564063251
1746477337277175300,11.24717529296875,-0.6311170521229506,-0.06550444556772708,-7.112877364248037
1746477337287154200,11.257154296875,-0.5818477751065045,-0.07325345225930213,-7.017815400284528
1746477337297133300,11.26713330078125,-0.3325724239002913,-0.13675357226729393,-6.867479877388477
1746477337307112200,11.2771123046875,0.042188451910018916,-0.23824527701735496,-6.778707953479886
1746477337317091300,11.28709130859375,0.5032353530973196,-0.3392003906726837,-6.737796681898832
1746477337327070200,11.2970703125,0.8609265822935849,-0.3321434578984976,-6.619461394375563
1746477337337049300,11.30704931640625,1.0019849390827118,-0.28752339492738244,-6.334796896010637
1746477337347029200,11.317029296875,0.9414847315430641,-0.26142624611854554,-5.83323619812727
1746477337357008100,11.327008056640626,0.8177771763969213,-0.31612288194596766,-5.189467169702053
1746477337366987300,11.3369873046875,0.6651778002221137,-0.37155309274494647,-4.645972579191625
1746477337376966100,11.346966064453126,0.4847236179161817,-0.3982598978847265,-4.243468760126829
1746477337386945300,11.3569453125,0.29943894671387966,-0.3343845148235559,-3.9502261107698082
1746477337396924200,11.366924072265626,0.1449760416895151,-0.1840507454931736,-3.7162843761652704
1746477337406903300,11.3769033203125,-0.07022570193596184,0.046099487873911854,-3.482257593625784
1746477337416882200,11.386882080078125,-0.3715022393405437,0.2763146031707525,-3.2100995256125926
1746477337426861300,11.396861328125,-0.747002023884654,0.3451309497654438,-2.7883117448851467
1746477337436840200,11.406840087890625,-1.1010685597777365,0.22652152147591112,-2.258070311440527
1746477337446819300,11.4168193359375,-1.3698825780600308,-0.043188568863272665,-1.7383692689716814
1746477337456798200,11.426798095703125,-1.5893512584149836,-0.41743338491022586,-1.2781582340866326
1746477337466777300,11.43677734375,-1.6875258014410732,-0.7912170131862163,-0.8567214587539433
1746477337476756200,11.446756103515625,-1.7552075910478828,-1.0562754783272743,-0.534383940076828
1746477337486735400,11.4567353515625,-1.7609645471394062,-1.1442238108932972,-0.2388011573344469
1746477337496714200,11.46671435546875,-1.7177946829766033,-1.1591910784006119,0.036567104896903034
1746477337506693400,11.476693359375,-1.5735288353830574,-1.1906319263249634,0.394782577162981
1746477337516673300,11.48667333984375,-1.4399071314007044,-0.9994856696128844,0.6741144823282956
1746477337526652400,11.49665234375,-1.3369243113100528,-0.7690075194656848,1.0300859750598668
1746477337536631300,11.50663134765625,-1.2216747148424387,-0.5708616131246089,1.3784025691241024
1746477337546610400,11.5166103515625,-1.1153303093641995,-0.3081464962393045,1.7183610846877098
1746477337556589300,11.52658935546875,-1.0791162556886673,-0.04649111754000187,2.0607973885416984
1746477337566568400,11.536568359375,-1.1155541812479495,0.25545944666862486,2.4285481663942337
1746477337576547300,11.54654736328125,-1.2447580687880515,0.5365758971631527,2.8810820907801387
1746477337586526500,11.5565263671875,-1.3526900357186793,0.735038029846549,3.378911200919747
1746477337596505300,11.56650537109375,-1.368919870507717,0.8867161995232105,3.8219934063494203
1746477337606485200,11.5764853515625,-1.376074418437481,0.9827584066957235,4.2053596864849325
1746477337616464400,11.58646435546875,-1.2939736428558826,1.0133154575228691,4.4471933433830735
1746477337626443300,11.596443359375,-1.1309352902531624,1.0160790770173072,4.533628933298588
1746477337636422400,11.60642236328125,-1.0191513240694998,1.0500362916767596,4.480950651556253
1746477337646401300,11.6164013671875,-0.935779797899723,1.1975550035864113,4.28423682384491
1746477337656380400,11.62638037109375,-0.9025310237705707,1.506437997406721,4.036845532819629
1746477337666359600,11.636359619140626,-0.8537129245877265,1.962141199478507,3.8387463882297275
1746477337676338400,11.64633837890625,-0.7758429184436798,2.556186119791865,3.61814899610579
1746477337686318300,11.656318359375,-0.7477706701695919,3.210103032743931,3.346594739204645
1746477337696297500,11.66629736328125,-0.8564484870314597,3.738748136907816,3.2481904790759084
1746477337706276400,11.6762763671875,-1.0263993955016135,4.152438243636489,3.2190088082551953
1746477337716255500,11.68625537109375,-1.2535258971333503,4.479207022759318,3.2152883264273404
1746477337726234400,11.696234375,-1.541809755039215,4.672190431770682,3.2925223727554083
1746477337736213200,11.706213134765624,-1.8924001392543315,4.749689851036668,3.431842580640316
1746477337746192100,11.716192138671875,-2.1844974179685113,4.936354578420519,3.4282226365774866
1746477337756171300,11.726171142578124,-2.284777993363142,5.324167316570878,3.206142312419414
1746477337766151400,11.7361513671875,-2.3132710973978043,5.743182417714595,3.023307372456789
1746477337776130600,11.746130615234375,-2.370619562908262,5.786987072649598,3.1869045279860493
1746477337786109200,11.756109130859375,-2.3994600190758706,5.465715137377381,3.496948382279277
1746477337796088300,11.76608837890625,-2.3199451683342454,5.223168948295712,3.503574522420764
1746477337806067200,11.776067138671875,-2.185128701609373,5.074873406794667,3.3507822540223597
1746477337816046300,11.78604638671875,-2.024486888754368,4.869848846855759,3.2598475991219282
1746477337826025200,11.796025146484375,-1.8056886550068854,4.624040441107749,3.2418630296200512
1746477337836004400,11.80600439453125,-1.5228770910322664,4.409640734580159,3.2564386674612757
1746477337845983200,11.815983154296875,-1.263643971043825,4.330784640008211,3.2400229547113177
1746477337855963100,11.825963134765624,-1.1641700358569622,4.319800889179111,3.3388702824324366
1746477337865942300,11.8359423828125,-1.2803215496003626,4.324022306266427,3.5103947238296267
1746477337875921200,11.845921142578124,-1.4543068281531333,4.313060182747245,3.5522868231415745
1746477337885900300,11.855900390625,-1.5606635085910558,4.254785688433051,3.453101641768217
1746477337895879200,11.865879150390626,-1.5182178670495747,4.117352901729941,3.1524282578885554
1746477337905858300,11.8758583984375,-1.352209558725357,3.842673790806532,2.7453309735536573
1746477337915837200,11.885837158203126,-1.0806558863461018,3.4862528007417914,2.3091923036515714
1746477337925816300,11.89581640625,-0.6503834781289101,3.026240503299236,1.876854195076227
1746477337935795200,11.905795166015626,-0.13339779556598513,2.5589333726733923,1.3777549188703297
1746477337945775400,11.915775390625,0.2980542143572122,2.037950181439519,0.901228709000349
1746477337955754200,11.925754150390626,0.6333347281724214,1.409648186737299,0.5884457851320505
1746477337965733400,11.9357333984375,0.959963222041726,0.7544307125806808,0.36892917398214337
1746477337975712300,11.945712158203126,1.167594165086746,0.010699673190712928,0.3187175746142864
1746477337985691400,11.95569140625,1.3116069147020577,-0.6732996588140726,0.2782189754873514
1746477337995670300,11.965670166015625,1.4525661219656467,-1.2498995233297348,0.23879122046232223
1746477338005649400,11.9756494140625,1.5856582491159439,-1.7572949187159537,0.2001847186923027
1746477338015628300,11.985628173828125,1.7557506118834019,-2.2092314617305995,0.15722060623466969
1746477338025607400,11.995607421875,2.005745363405347,-2.5649299827396868,0.14529343707561493
1746477338035587300,12.00558740234375,2.2291185038529333,-2.8196470866084096,0.1538338864058256
1746477338045566200,12.015566162109375,2.388026770913601,-3.0056723470449445,0.19392098212242126
1746477338055545300,12.02554541015625,2.6632050635308024,-2.9701743326842784,0.2358639348387718
1746477338065524200,12.035524169921874,2.761901584604382,-3.0683892077207564,0.23543138864040372
1746477338075503400,12.04550341796875,2.828179352632165,-3.001339286276698,0.15022037208378314
1746477338085482200,12.055482177734374,2.8992215585827825,-2.7502234217703343,-0.14331658404469488
1746477338095461400,12.06546142578125,2.806694081532955,-2.595004803007841,-0.21367548390626906
1746477338105440300,12.075440185546874,2.4776205325990914,-2.4822528685748577,-0.23693419441878794
1746477338115420400,12.08542041015625,2.0280700079381466,-2.1597820789068938,-0.37993162951171394
1746477338125399300,12.0953994140625,1.6458784706704317,-1.8990145889580248,-0.5036947873026132
1746477338135378400,12.10537841796875,1.3995628460526466,-1.6788269466787575,-0.42761984788179397
1746477338145357300,12.115357421875,1.149364827043563,-1.4270178392112254,-0.377350380846858
1746477338155336400,12.12533642578125,0.9139104959189891,-1.1993985856264828,-0.423591323018074
1746477338165315300,12.1353154296875,0.6925479646414517,-1.0629349362164735,-0.5674295928493142
1746477338175294500,12.14529443359375,0.3740887487024069,-0.988878350880742,-0.8672735401675105
1746477338185273300,12.1552734375,0.02640928349792957,-0.9472282436311245,-1.2447972317546605
1746477338195252500,12.16525244140625,-0.20677637204229832,-0.8466840488642454,-1.6802236617341637
1746477338205232400,12.175232421875,-0.28391455678045746,-0.5539549019873142,-2.216667456950247
1746477338215211300,12.185211181640625,-0.2573293321937323,-0.18124211781322955,-2.649701731096208
1746477338225190400,12.1951904296875,-0.25327874162867664,0.22724399053156374,-2.9114938879176973
1746477338235169500,12.20516943359375,-0.37064825285971165,0.6784206550896167,-3.1502348394975064
1746477338245148400,12.2151484375,-0.5173223306387662,1.1458423520058392,-3.447605674700439
1746477338255127600,12.22512744140625,-0.6285083309292793,1.5663789636284111,-3.787810858501494
1746477338265106400,12.2351064453125,-0.735109779908508,1.7957289865285158,-4.16508992767781
1746477338275085300,12.245085205078125,-0.7794113515149802,1.7765771268129347,-4.569228654468059
1746477338285064200,12.255064208984376,-0.6355616104416549,1.5577116730481386,-5.14751077298224
1746477338295044400,12.26504443359375,-0.4240039224069565,1.340254917037487,-5.733038624840974
1746477338305023500,12.2750234375,-0.2591279791135341,1.0713549740374089,-6.192276430779695
1746477338315002400,12.28500244140625,-0.19488310515284538,0.7132891393750905,-6.512645279732346
1746477338324981200,12.294981201171876,-0.18729243082813918,0.34439269861876964,-6.7643035805523395
1746477338334960000,12.304960205078125,-0.21983342201411724,0.023543957194685935,-6.8683169127345085
1746477338344939300,12.314939208984375,-0.23383498629443347,-0.1666612192749977,-6.969000223711133
1746477338354918100,12.324918212890625,-0.24485848461203275,-0.2883627683609724,-6.995486664098501
1746477338364897300,12.334897216796875,-0.1962579006373882,-0.3094751144945621,-6.9523758366465565
1746477338374877200,12.344877197265625,0.03776888190209866,-0.21724457456469534,-6.97057141855061
1746477338384856300,12.354856201171875,0.3911019158888608,-0.062113049563765524,-6.934692880439758
1746477338394835200,12.364835205078125,0.6969517525583505,0.03414952236115932,-6.768929486787319
1746477338404814300,12.374814453125,0.7608061658967286,0.11515139679014683,-6.447747567886114
1746477338414793200,12.384793212890624,0.6063474986560642,0.042460839110612866,-5.9854942135185
1746477338424772900,12.39477294921875,0.3800911309223622,-0.17390987522900103,-5.502071814393997
1746477338434752000,12.404751953125,0.05647307091541588,-0.4083247803032398,-5.05858745790422
1746477338444731000,12.41473095703125,-0.1953226656138897,-0.6019745442688464,-4.690064526635408
1746477338454710000,12.4247099609375,-0.41584816154539583,-0.6076262864202261,-4.467374253885447
1746477338464690000,12.43468994140625,-0.5690343246322125,-0.5290197826951741,-4.24539739010185
1746477338474669000,12.4446689453125,-0.7404846778798848,-0.4129851733297109,-3.958538888823986
1746477338484648000,12.45464794921875,-0.9295632614724337,-0.2895277204871177,-3.606321487928927
1746477338494627000,12.464626953125,-1.1679571531802415,-0.30579788728654383,-3.0787939896181222
1746477338504606000,12.47460595703125,-1.3935498693734407,-0.5361193855673074,-2.5273820501118895
1746477338514585000,12.484585205078124,-1.5473714808195829,-0.8483078506737947,-2.0340400222584605
1746477338524564000,12.49456396484375,-1.6664438504457473,-1.2027613400578498,-1.6670006075456738
1746477338534543000,12.504543212890624,-1.6706009701251983,-1.570351958912611,-1.2265043269559741
1746477338544522000,12.51452197265625,-1.5831833834350109,-1.8631956720799208,-0.795699127036333
1746477338554502000,12.524501953125,-1.5269266586840151,-1.930256699439883,-0.44378889239430425
1746477338564481000,12.53448095703125,-1.4106599941283464,-1.8927444226473569,-0.015299860462546347
1746477338574460000,12.5444599609375,-1.152239944088459,-1.8951479766577481,0.20509820969700812
1746477338584439000,12.55443896484375,-1.0297171417474746,-1.7865093227624893,0.4603647641420364
1746477338594418200,12.564418212890626,-0.996448493874073,-1.5772230137258767,0.7681061867117881
1746477338604397000,12.57439697265625,-0.9198305336177348,-1.3115659981697796,1.1089069983184336
1746477338614376200,12.584376220703126,-0.8104185572624206,-0.9722358436375855,1.474333717137575
1746477338624354800,12.594354736328125,-0.7736457006603479,-0.623814620155096,1.799594429785013
1746477338634335000,12.6043349609375,-0.7890478524535894,-0.28010405858159065,2.138686099386215
1746477338644314000,12.614314208984375,-0.8763497038096189,0.08242635427415371,2.5997125423073766
1746477338654293000,12.62429296875,-0.9909715237677097,0.4745692305833101,3.1005566163539884
