time,seconds_elapsed,z,y,x
1746477235679683800,0.023683837890625,3.228122673559189,-1.3156126432120798,0.49189650522023437
1746477235689663000,0.0336630859375,3.3014322399199005,-1.422138981128484,0.1533484409764409
1746477235699641900,0.043641845703125,3.2911604367524383,-1.5108125592291355,-0.06654547905325889
1746477235709621000,0.05362109375,2.8560972871273753,-1.4115961059346793,0.02055705033838749
1746477235719599900,0.063599853515625,2.25253576592803,-1.2173457457274197,0.30129619195312257
1746477235729579000,0.0735791015625,1.5205945330530404,-1.0785782032892108,0.7421317874997854
1746477235739558000,0.083557861328125,0.9389765481144189,-0.9831865689799189,0.8012021083667874
1746477235749537000,0.093537109375,1.0191115765810013,-1.3992648860193788,-0.15331103157550097
1746477235759517000,0.103516845703125,-0.03300093684792518,-0.6330586877100169,1.249881987673044
1746477235769496000,0.11349609375,0.032877602729201316,-0.5239170527286827,1.7043606163859366
1746477235779475000,0.123474853515625,0.273482594615221,-0.9311630978845059,1.2527426378011703
1746477235789454000,0.1334541015625,0.524018028885126,-0.8375739829525352,1.3597130662232637
1746477235799433000,0.143432861328125,0.6549971094042062,-0.7648262882582842,1.3411498200505971
1746477235809412000,0.153412109375,0.5691057093679904,-0.7100739767208695,1.0743541558533907
1746477235819391000,0.163390869140625,0.21587679334282875,-0.6663149144932627,0.6551116756945848
1746477235829369900,0.173369873046875,-0.5545873546719551,-0.5043602654740214,0.2985083148002624
1746477235839348700,0.1833486328125,-1.6994927180886268,-0.3163523067876696,-0.20315876606702804
1746477235849327900,0.193327880859375,-3.0135423497676848,-0.12636954089701175,-1.0040057773858309
1746477235859306800,0.203306640625,-4.153658140820265,0.17069588161855936,-1.9937439599663018
1746477235869286000,0.213285888671875,-4.910753688696026,0.29707886651903387,-2.7403473399221894
1746477235879264800,0.2232646484375,-5.770885832676291,0.25783026745319365,-2.8371055864095687
1746477235889244000,0.233243896484375,-6.4212523596704,0.24599779084026813,-2.703504925215244
1746477235899222800,0.243222900390625,-6.755755532437562,0.37578386218249793,-2.4814567497611044
1746477235909202000,0.253201904296875,-6.28158319221735,0.5599366067454219,-2.0528513979732987
1746477235919180800,0.263180908203125,-5.291192098686099,0.547927604521811,-1.448887725713849
1746477235929160000,0.273159912109375,-5.223085361665487,0.6001084581360221,-1.3503069399744272
1746477235939138800,0.283138916015625,-5.148191740983724,0.8264137065127491,-1.5900713893830776
1746477235949118000,0.293117919921875,-5.503768681439757,1.1465735888898372,-1.746126458969712
1746477235959096800,0.303096923828125,-5.644409324273466,1.4575930102169512,-1.8301105640798807
1746477235969077000,0.313076904296875,-5.325754878023266,1.571589976274967,-1.960526165497303
1746477235979055900,0.323055908203125,-4.921075760746002,1.4602788883000613,-2.013128459393978
1746477235989035000,0.333034912109375,-4.513344270160794,1.3098995262622832,-1.9305816936105489
1746477235999014000,0.343013916015625,-4.214270138171315,1.0420201584815978,-1.9640438182294369
1746477236008993000,0.352992919921875,-4.031141183698177,0.8880454023003578,-2.246278459098935
1746477236018972000,0.362971923828125,-3.516069554595649,0.846253840753436,-2.2439579071968794
1746477236028951000,0.372950927734375,-2.7719524384975434,0.8320715861439705,-1.9955589004337786
1746477236038930000,0.382929931640625,-2.2144401362895962,0.8514309511303901,-1.646356171184778
1746477236048909000,0.392908935546875,-1.9745576134592293,0.5466454557567835,-1.456989199104905
1746477236058888000,0.402887939453125,-1.989150202435255,0.1371504626303911,-1.5067045393884182
1746477236068867000,0.4128671875,-2.1155331873357293,-0.353746802419424,-1.539224999243021
1746477236078846000,0.422845947265625,-2.218709484171867,-0.8092138576477765,-1.4740648370683191
1746477236088825000,0.4328251953125,-2.2525997710749506,-1.0613982281684875,-1.3336276078522205
1746477236098804000,0.442803955078125,-2.0370979485243557,-1.299175887674093,-0.9684358668327331
1746477236108783000,0.452783203125,-1.6859733113020658,-1.4517226568788288,-0.5099480024784803
1746477236118761700,0.46276171875,-1.400737150529027,-1.3838357000887394,0.16535247476398943
1746477236128740900,0.472740966796875,-1.1535241386801003,-1.324111591488123,0.8145195628404617
1746477236138719700,0.4827197265625,-1.2983777230337261,-1.0936550686508417,1.2052046415567397
1746477236148699000,0.492698974609375,-1.5147650962471961,-0.6923135713636874,1.7067893048375844
1746477236158677800,0.502677734375,-1.3037082704067229,-0.1882701167538762,2.384288753429055
1746477236168657000,0.512656982421875,-0.5923024605602025,0.39041473734229803,3.290788096308708
1746477236178635800,0.5226357421875,0.3137774878636002,0.6250748493492603,4.421128343278169
1746477236188615700,0.53261572265625,1.1824433591723442,0.724950058813393,5.070595875605941
1746477236198594800,0.5425947265625,2.159602338425815,0.8244695867076516,5.468143241307139
1746477236208573700,0.55257373046875,3.135285107646882,0.38569267725646494,5.016792973747849
1746477236218552800,0.562552734375,3.3790003405079245,0.08393149814009666,4.390572461494803
1746477236228531700,0.57253173828125,3.539117544966936,-0.2891135867282748,3.7484950394183394
1746477236238510800,0.5825107421875,3.7059058977529404,-0.45303544416725633,3.3387229829162357
1746477236248490000,0.592489990234375,3.6319463430508967,-0.32235242398530245,3.4177772304087877
1746477236258468900,0.60246875,3.7531390658318995,0.07777589811980724,3.5546366011381147
1746477236268448000,0.612447998046875,4.004605643472075,0.6336451092958449,3.661109016910195
1746477236278427000,0.622427001953125,4.180259439758956,1.1914680848881603,3.606366203853488
1746477236288406000,0.632406005859375,4.171476413844526,1.6942992410987614,3.190072052106261
1746477236298385000,0.642385009765625,4.021228861492872,1.9897344320639967,2.4664006349265573
1746477236308364000,0.652364013671875,3.341939606875181,2.475443188560009,1.9534400066286324
1746477236318343000,0.662343017578125,2.607019650450349,2.955076132273674,1.604007560276985
1746477236328322000,0.672322021484375,1.6913190562441944,3.4787253278464076,1.3513468044161796
1746477236338301000,0.682301025390625,0.8325064704298972,4.200902999337018,1.4428274027615784
1746477236348280000,0.692280029296875,0.2091135828182101,4.829140696631372,1.9133780453532934
1746477236358259000,0.702259033203125,-0.028620822067558765,5.108820684581994,2.432685996851325
1746477236368238000,0.712238037109375,0.10703034191578625,5.13609681404233,2.540602181690931
1746477236378217000,0.722217041015625,0.4978624278873205,5.392373422312736,1.9584791698396204
1746477236388196000,0.732196044921875,0.6221504863351583,5.194503410303592,1.2009849780350923
1746477236398175000,0.742175048828125,0.514152176170051,4.620797513663769,1.2819184634029865
1746477236408155000,0.75215478515625,0.2229603218629956,3.3093712162256237,0.5498498047560453
1746477236418134000,0.762134033203125,0.32458237499445675,2.7934622595161196,-0.5877034423321486
1746477236428113000,0.77211279296875,0.4534492856651544,3.803535958638787,0.04655541494786739
1746477236438092000,0.782092041015625,0.11062573605924844,3.9988557016432282,0.13336802148222923
1746477236448071000,0.79207080078125,0.0882955385684967,4.282105657035112,0.6364782868951558
1746477236458050000,0.802050048828125,0.10877484749555587,4.347807086479664,1.184722410020232
1746477236468028700,0.812028564453125,0.3083537092491984,4.577416637098789,1.2124971366524695
1746477236478007800,0.8220078125,0.3521443356588483,4.749744211572408,0.8864835598111153
1746477236487986700,0.831986572265625,0.010767769990861415,4.522328956127167,0.6737257752716541
1746477236497965800,0.8419658203125,-0.4364887985140085,4.137392650195956,0.6259054549545049
1746477236507944700,0.85194482421875,-0.6692340168103575,3.979129841431975,0.34534313121140003
1746477236517923800,0.861923828125,-0.7951724728137254,3.7168385029166933,-0.20083879868686197
1746477236527902700,0.87190283203125,-1.0721689207687974,3.355305868926644,-0.8514058166891336
1746477236537881900,0.8818818359375,-1.43017528032884,3.0279946534901856,-1.3055536060124635
1746477236547860700,0.89186083984375,-1.859612260635197,2.6391332830697296,-1.6053198119193315
1746477236557840000,0.90183984375,-2.3038886442854998,2.213188090401888,-1.7431003891468047
1746477236567819000,0.911819091796875,-2.5226284258440135,1.6272767921835183,-1.7572376355707644
1746477236577798000,0.9217978515625,-2.4860481692045924,0.9959610026180744,-1.7553858702242373
1746477236587777000,0.931777099609375,-2.2453934929579495,0.40331601223051544,-1.577858389019966
1746477236597756000,0.941755859375,-2.0535084005773068,-0.3634983811050653,-1.3939233788609504
1746477236607735000,0.951735107421875,-1.8449765631698072,-1.1203975296258926,-1.2412731492817402
1746477236617715000,0.96171484375,-1.5348177041947841,-1.8561475071340798,-1.177123040932417
1746477236627693800,0.97169384765625,-1.336661276459694,-2.579119836133718,-1.1558201406627893
1746477236637673000,0.9816728515625,-1.1928126313649117,-3.2897429711699484,-1.120450721117854
1746477236647651800,0.99165185546875,-0.9093822048395872,-3.626787060591578,-1.1882570138871669
1746477236657631000,1.001630859375,-0.5317078527353704,-3.72027724519372,-1.0559043069273233
1746477236667609900,1.01160986328125,-0.059569210299849504,-4.0734646601647135,-0.9288076207995414
1746477236677589000,1.021589111328125,0.38044381681755185,-4.341289667409658,-0.8295721705436706
1746477236687568000,1.03156787109375,0.7766935439236462,-4.311157563996315,-0.9198205967456102
1746477236697547000,1.041547119140625,1.1189352019883692,-4.314731915351748,-0.9811632464587687
1746477236707526000,1.05152587890625,1.3719056083202361,-4.564133377155661,-0.819554634398222
1746477236717505000,1.061505126953125,1.5711656133830547,-4.930551445099711,-0.28326807557046413
1746477236727484000,1.07148388671875,1.510840177888423,-5.0164627188801765,0.08271627713143825
1746477236737463000,1.081463134765625,1.2758109403081237,-4.6670998306334015,0.17281915738284587
1746477236747442000,1.09144189453125,0.9773018948554992,-4.254106473997235,0.13238368661999703
1746477236757420800,1.1014208984375,0.5540123312629759,-3.937314314487576,-0.19493629664480686
1746477236767399700,1.111399658203125,0.014778028545528649,-3.5482319947928187,-0.8010451642394065
1746477236777378800,1.12137890625,-0.5628939952462911,-3.3284155239135025,-1.2140583946198225
1746477236787357700,1.131357666015625,-1.0517600467294455,-3.172824564707279,-1.559288713106513
1746477236797336800,1.1413369140625,-1.3478513635158538,-2.9819033489227293,-1.8462746401563286
1746477236807315700,1.151315673828125,-1.4360983867675066,-2.7767034324169155,-2.0351757482901216
1746477236817294800,1.161294921875,-1.5947667075924574,-2.4392688823729753,-2.2445284005612134
1746477236827273700,1.171273681640625,-1.7035738499224184,-1.9731161824792622,-2.6966204263985154
1746477236837254000,1.18125390625,-1.6932418410003185,-1.3511305313169955,-3.2656673913165926
1746477236847232800,1.191232666015625,-1.665129260715842,-0.8654144682973622,-3.604038053166866
1746477236857212000,1.2012119140625,-1.6764210545808076,-0.6040823302030564,-3.679414781190455
1746477236867190800,1.211190673828125,-1.7435574852645397,-0.16004443148374556,-3.9064813693284988
1746477236877170000,1.221169921875,-1.9601035561710596,0.31635259904861446,-4.234037207175791
1746477236887148800,1.231148681640625,-2.1555057167619465,0.6078221012532711,-4.445877584609389
1746477236897128000,1.2411279296875,-2.471218848863244,0.645265988984704,-4.55609737021625
1746477236907106800,1.25110693359375,-2.777844419145584,0.49049686755537986,-4.504765242385864
1746477236917086000,1.2610859375,-2.919360675770044,0.4889198274970054,-4.512482684895396
1746477236927064800,1.27106494140625,-2.852366283905506,0.9071703740090131,-4.752786940269172
1746477236937044000,1.2810439453125,-2.726865927058458,1.2035825933128594,-4.690048744544387
1746477236947022800,1.29102294921875,-2.7180191882580518,1.1798989353865383,-4.416982914036512
1746477236957002000,1.301001953125,-2.8377082284778354,1.1101800869941711,-4.196275631797313
1746477236966980900,1.31098095703125,-2.888847464084625,0.984534768718481,-4.075396797271073
1746477236976960000,1.3209599609375,-2.7921482543081044,0.9943921458661555,-4.127270192371308
1746477236986939000,1.33093896484375,-2.6373119128614664,1.027829136043787,-4.219769027848542
1746477236996918000,1.34091796875,-2.4858815804660317,1.0306067840635775,-4.2894706328451635
1746477237006897000,1.35089697265625,-2.2118775923252105,1.162952476760745,-4.611409507593512
1746477237016876000,1.3608759765625,-1.8431810580551624,1.4493401456564663,-5.030296598443389
1746477237026855000,1.37085498046875,-1.4964292290896177,1.7305208935588596,-5.281226000466942
1746477237036834000,1.380833984375,-1.387304837504029,1.8623270725518464,-5.168386972272396
1746477237046814000,1.39081396484375,-1.4036129982262848,1.794603781890869,-4.81842962526381
1746477237056793000,1.40079296875,-1.6404349644422531,1.658777261340618,-4.279688659021258
1746477237066772000,1.41077197265625,-2.022000332635641,1.5930699866771698,-3.5931437341868877
1746477237076751000,1.420751220703125,-2.303825223660469,1.581868209183216,-2.818835185703635
1746477237086730000,1.43072998046875,-2.416161563029885,1.570066712230444,-2.1013725600361823
1746477237096709000,1.440709228515625,-2.3079133697569367,1.524334304103255,-1.5039379972845315
1746477237106687700,1.450687744140625,-1.996705147859454,1.3366741359412668,-0.9396884957760572
1746477237116667000,1.4606669921875,-1.6300129391491411,1.0335697255223988,-0.39660920806825156
1746477237126645800,1.470645751953125,-1.2174503751456738,0.5316524692863226,0.17405425213575362
1746477237136625000,1.480625,-0.8177198201864957,-0.05114157369434833,0.6808925981611013
1746477237146603800,1.490603759765625,-0.4546563964325934,-0.6009165596485138,1.1241676958143711
1746477237156583000,1.5005830078125,-0.040131446314975616,-1.0431874486953019,1.4922785391509532
1746477237166561800,1.510561767578125,-0.7787988456398248,-1.629334309235215,1.9620108510971068
1746477237176541000,1.520541015625,0.04740582123212516,-1.622933794543147,2.115806159058213
1746477237186519800,1.530519775390625,0.5105465528935194,-1.759896041125059,2.427131869855523
1746477237196499000,1.5404990234375,0.5456352558009326,-1.8305495400190352,2.7818104001671076
1746477237206477800,1.550477783203125,0.7291712567050009,-1.871841335350275,3.037898792389035
1746477237216457000,1.56045703125,0.878281548655033,-1.7578344324201345,3.148527743318677
1746477237226435800,1.570435791015625,0.9743659144688397,-1.546241015484929,3.3039988755375145
1746477237236415000,1.5804150390625,1.073214411233738,-1.3415543091982602,3.372183353969455
1746477237246393900,1.590393798828125,1.1750919734962284,-1.088228951948881,3.3894811102509497
1746477237256373000,1.600373046875,1.259931818652898,-0.8247235614687204,3.4293718066126107
1746477237266351900,1.610351806640625,1.2940338486105203,-0.5267325485408306,3.450648987919092
1746477237276331800,1.620331787109375,1.3148684007160365,-0.26935294746458527,3.492719950929284
1746477237286311000,1.630310791015625,1.2738565913699567,-0.04100596412718296,3.5432881086498496
1746477237296290000,1.6402900390625,1.1926992341183125,0.1298959614574909,3.5932986324876546
1746477237306269000,1.65026904296875,1.143116141912341,0.28724457798600195,3.645411681562662
1746477237316248000,1.660248046875,1.067300876341015,0.4657984796285629,3.6855285878956314
1746477237326228000,1.67022802734375,1.0238106941826641,0.6452303331494331,3.657434712311625
1746477237336206800,1.680206787109375,1.0063945722185075,0.8887310464769601,3.5321295857757327
1746477237346186000,1.69018603515625,1.110643758983165,1.136570081269741,3.362758523020148
1746477237356164900,1.700164794921875,1.3060733921028673,1.4548895964771509,3.0655542765557766
1746477237366144000,1.71014404296875,1.4180169327624141,1.8053952250182628,2.795225762057304
1746477237376123000,1.720122802734375,1.4923112723767757,2.096463745206594,2.603680861416459
1746477237386102000,1.73010205078125,1.4984733021378516,2.308674417257309,2.3796534948438404
1746477237396081000,1.740080810546875,1.3931488873571156,2.6324697335273024,2.1363480118274687
1746477237406060000,1.75006005859375,1.1448306907452643,3.070100687813759,2.00842422722578
1746477237416039000,1.760038818359375,0.8508191028423607,3.4992853007942437,1.9976403828829525
1746477237426018000,1.77001806640625,0.5601977418996393,3.8676521647185087,2.1459400160372257
1746477237435997000,1.779996826171875,0.2553103935867548,4.070922574466467,2.487382632678747
1746477237445975800,1.789975830078125,-0.031207769820839164,4.151440464770793,2.7524118717253208
1746477237455954700,1.79995458984375,-0.46897170283719897,4.74996457632482,2.085831292033195
1746477237465933800,1.809933837890625,-0.3067062343031168,4.00493356025219,2.272463286191225
1746477237475912700,1.81991259765625,0.5006600957818329,4.05957583554387,2.1237503960609434
1746477237485891800,1.829891845703125,0.6816567144013941,4.655487718772888,1.401706872344017
1746477237495870700,1.83987060546875,0.7717923278786242,3.7402217165917158,1.4495599258869885
1746477237505851000,1.849850830078125,1.3471166195005178,3.265711522719264,1.2726374248385428
1746477237515829800,1.859829833984375,1.6920972010098396,3.6483436433613297,0.7703565959870815
1746477237525809000,1.869808837890625,1.6464128698080778,3.7790889151245355,0.7416127320617437
1746477237535787800,1.879787841796875,1.6828421736694872,3.636652036523819,0.9933312386363744
1746477237545767000,1.889766845703125,1.5485644899964333,3.6004964350372552,1.3087924418032169
1746477237555745800,1.899745849609375,1.0464869286321103,3.384555344286561,1.5070733727008103
1746477237565725000,1.909724853515625,0.5945565230973064,3.082785981863737,1.6140139905065296
1746477237575703800,1.919703857421875,0.23331498100832104,2.8422575623452664,1.673892997407913
1746477237585683000,1.929682861328125,-0.010651742395758628,2.5945062058359385,1.644867978453636
1746477237595661800,1.939661865234375,-0.13314429572895167,2.403855039164424,1.488739259108901
1746477237605641000,1.949640869140625,-0.09926073082759976,2.1266379341959953,1.2712287270843983
1746477237615619800,1.959619873046875,0.06484452035427093,1.795088350537419,0.9374813411206007
1746477237625599000,1.969598876953125,0.30426015632525083,1.398049518880248,0.48616146869957444
1746477237635577900,1.979577880859375,0.43798648972585796,1.011778749474883,-0.04803016367554664
1746477237645557000,1.989556884765625,0.3621330841012299,0.601108282828331,-0.502865350741148
1746477237655535900,1.999535888671875,0.28835750766396523,0.2202390802055597,-0.8922738336503505
1746477237665515000,2.009514892578125,0.19812252546548842,-0.08017243786752223,-1.1807511683017016
1746477237675494000,2.019493896484375,0.07370543381050229,-0.43788112965524195,-1.2434066541790962
1746477237685473000,2.02947314453125,0.004007628206163644,-0.8181301545530557,-1.1006705003708601
1746477237695452000,2.039451904296875,0.020029665463417768,-1.273659169101715,-0.8894014930844306
1746477237705431000,2.04943115234375,0.12953238884210586,-1.7493395757973194,-0.6372451796144246
1746477237715410000,2.059409912109375,0.2674902223326266,-2.17564191133976,-0.39658874980211256
1746477237725389000,2.06938916015625,0.45492111178338523,-2.545097155022621,-0.08828034099936485
1746477237735368000,2.079367919921875,0.6318997269332408,-2.7806273278623816,0.2696609905004501
1746477237745348000,2.08934814453125,0.7376853294849395,-2.908767970085144,0.650814270761609
1746477237755327000,2.099326904296875,0.7835510086029768,-3.0059920805186033,0.990159622862935
1746477237765306000,2.10930615234375,0.9250012142539024,-3.06914674808979,1.1852210071921347
1746477237775285000,2.119284912109375,1.0801479368239641,-3.1094109539389607,1.1464169370234012
1746477237785264000,2.12926416015625,0.8850257622182369,-3.134431413426995,1.3187708149820565
1746477237795242800,2.13924267578125,0.8170487890571355,-3.028435382995009,1.527596520769596
1746477237805222000,2.149221923828125,0.8380376549415289,-2.7874685720592733,1.5170026460409163
1746477237815200800,2.15920068359375,0.8579368258930742,-2.6909435498058794,1.4193413132339716
1746477237825180000,2.169179931640625,0.8041836083956062,-2.4100655842423437,1.2238707635819912
1746477237835158800,2.17915869140625,0.5936899693958461,-2.2925386904925107,1.240311026251316
1746477237845138000,2.189137939453125,0.3436901033073663,-2.0840444086164234,1.121180204436183
1746477237855116800,2.19911669921875,0.0580009380698204,-1.9453893866419791,0.8393319325357675
1746477237865096000,2.209095947265625,-0.2435917526118457,-1.823352906513214,0.39046471396386623
1746477237875074800,2.21907470703125,-0.49883375713750716,-1.7584277221381663,-0.03929214594662189
1746477237885054000,2.229053955078125,-0.659139616036415,-1.6172539953410625,-0.5104162045121192
1746477237895032800,2.23903271484375,-0.7324975515834987,-1.4662380889654159,-0.9507283607065677
1746477237905012000,2.249011962890625,-0.5878603864595293,-1.3772574907422066,-1.4270996722757816
1746477237914990800,2.258990966796875,-0.4292066786818206,-1.333203244960308,-1.9748598112761973
1746477237924970000,2.268969970703125,-0.2970639612108469,-1.2902134135395287,-2.6360470074921847
1746477237934948900,2.278948974609375,-0.21995792517662047,-1.2210486918985843,-3.3096775056958196
1746477237944928000,2.288927978515625,-0.1833743075363338,-0.9504244093239307,-3.8954672233611345
1746477237954907000,2.298906982421875,-0.29760522848069665,-0.578299069648981,-4.258668667346239
1746477237964886000,2.308885986328125,-0.42672479873821134,-0.2715367212444544,-4.371642135575414
1746477237974865000,2.318864990234375,-0.5721591055892408,-0.004265256229043007,-4.457428321671486
1746477237984844000,2.328843994140625,-0.7226045186005532,0.1786959404617548,-4.547344739440083
1746477237994823000,2.338822998046875,-0.9206056096434593,0.2965922520458698,-4.691260458421707
1746477238004802800,2.348802734375,-1.1269133412607013,0.5089122296899556,-4.870668638806045
1746477238014782000,2.358781982421875,-1.402331726244092,0.7396376325964927,-4.945514036431908
1746477238024761000,2.368760986328125,-1.6953170398391781,0.8615420107781887,-4.942650463694334
1746477238034740000,2.378739990234375,-1.9162476094402372,0.9368395360857248,-4.964999658146501
1746477238044719000,2.388718994140625,-1.9801713616877794,0.9899240605413913,-5.012196878129243
1746477238054698000,2.398697998046875,-1.901345662254095,1.1069570332944392,-5.03667314773798
1746477238064677000,2.408677001953125,-1.8568575550995765,1.1165104590594768,-4.850450611163676
1746477238074656000,2.418656005859375,-1.9572797309219836,0.9757552499353885,-4.494411606153846
1746477238084635000,2.428634765625,-2.0879479919262227,0.5051455706328153,-4.2136306712239975
1746477238094613800,2.43861376953125,-2.0438509299159047,-0.0917588307648897,-4.347745127159357
1746477238104593000,2.448593017578125,-1.712347085095197,-0.35457565445899963,-4.750790213494002
1746477238114571800,2.45857177734375,-1.2719102796077728,-0.22931787419617175,-5.073680397617816
1746477238124551000,2.468551025390625,-0.9739777188688516,0.1545043330132961,-4.921399585872888
1746477238134529800,2.47852978515625,-0.850332634499669,0.6546101559132337,-4.394963974452018
1746477238144509000,2.488509033203125,-0.9468652555376291,1.0217238049060107,-3.7171214115113016
1746477238154487800,2.49848779296875,-1.0954700091183185,1.1493974141389132,-2.9315742606550454
1746477238164467000,2.508467041015625,-1.2100890525974333,1.125180672249198,-2.352919801697135
1746477238174445800,2.51844580078125,-1.2675894937992096,1.0428799901813268,-2.053366361758113
1746477238184425000,2.528425048828125,-1.1600292827904224,0.9313386005818843,-1.8656687841951847
1746477238194403800,2.53840380859375,-0.9123474843859672,0.7794511720687151,-1.7123861019313333
1746477238204383000,2.548383056640625,-0.6166436325471848,0.5764706851780415,-1.5300462520092726
1746477238214361900,2.55836181640625,-0.4308275578819215,0.19711071807444094,-1.2644301529854536
1746477238224341000,2.568341064453125,-0.4861871145974844,-0.43388183088600635,-0.9989315428614616
1746477238234320000,2.57831982421875,-0.6261433553636073,-1.2390139721781015,-0.8276882564932108
1746477238244299800,2.5882998046875,-0.7907873895972967,-1.9902467655003069,-0.6816583218365907
1746477238254279000,2.59827880859375,-0.9457131628930568,-2.575729609173536,-0.5160404741346836
1746477238264257800,2.6082578125,-0.9600058921396731,-2.9988632515519855,-0.2038964326918125
1746477238274237000,2.61823681640625,-0.7808272827275097,-3.169963914579153,0.19240064068734644
1746477238284215800,2.6282158203125,-0.5161252298086881,-3.240592863553762,0.6678770492434501
1746477238294195000,2.63819482421875,-0.2334646186120808,-3.3629502461999654,1.107878824314475
1746477238304173800,2.648173828125,-0.0465811339110136,-3.3346319142103193,1.3748901770889759
1746477238314153000,2.658153076171875,0.05267360556721687,-3.218726484182477,1.5799153215497732
1746477238324131800,2.6681318359375,0.1912966249682009,-3.040099517303705,1.8677374071627855
1746477238334110200,2.678110107421875,0.3891187061823904,-2.6949925329357383,2.172351053100824
1746477238344089300,2.68808935546875,0.5423467356495559,-2.3284511308729647,2.485480013927817
1746477238354068200,2.698068115234375,0.5825695865750312,-2.0237299329072234,2.7944062623679637
1746477238364047400,2.70804736328125,0.5265111608751117,-1.7074182503908872,2.914661119776964
1746477238374026200,2.718026123046875,0.435760484239459,-1.4548469263792037,2.964018732663989
1746477238384005400,2.72800537109375,0.3792437933780253,-1.2126929514855145,2.9582524242222306
1746477238393984300,2.737984375,0.3684745620824396,-0.9263613966912031,2.908776737913489
1746477238403963400,2.74796337890625,0.36151042215824125,-0.47906361939311026,2.823018608868122
1746477238413942300,2.7579423828125,0.34302623257115483,0.053607087025046345,2.7783190509200093
1746477238423921400,2.76792138671875,0.2665123902764171,0.597616933581233,2.6799995464652775
1746477238433900300,2.777900390625,0.2881313707578927,1.1860703174978493,2.439563481405377
1746477238443879400,2.78787939453125,0.3389269074935466,1.851790480968356,2.196857717847824
1746477238453858300,2.7978583984375,0.2726473859000951,2.443093993619084,1.990638395166397
1746477238463837400,2.80783740234375,0.10701850534752011,2.9977310326516626,1.8795108470648525
1746477238473816300,2.81781640625,-0.13003383555822073,3.464809615218639,1.8402514343440532
1746477238483795500,2.82779541015625,-0.45379524955861267,3.7521687594950195,1.7965455636084078
1746477238493774300,2.8377744140625,-0.7376847449630498,3.928790231770277,1.7310042931616305
1746477238503754500,2.84775439453125,-0.9175000448435544,4.163724776804447,1.6723492750972508
1746477238513733400,2.8577333984375,-1.029368328309804,4.488842281588912,1.7922773847699165
1746477238523712500,2.86771240234375,-1.0948562611341477,4.7976691613078115,2.043334212565422
1746477238533691400,2.87769140625,-1.0375129101902245,5.045075649902224,2.2669436459869146
1746477238543670500,2.88767041015625,-0.8238373532187193,5.36595712455213,2.3032091375887394
1746477238553649400,2.8976494140625,-0.5462544106125832,5.5943672362536185,2.2639485558241605
1746477238563628500,2.907628662109375,-0.30445290241837497,5.50868626409769,2.1838667188495395
1746477238573607400,2.917607421875,0.00018178630769252776,5.265989268368482,1.8656535866260529
1746477238583586600,2.927586669921875,0.365129927829653,5.261099742761254,1.3076216444581745
1746477238593565400,2.9375654296875,0.6362954776741564,5.227393872514367,1.1827151618510483
1746477238603544600,2.947544677734375,0.6478847931809723,4.609271911042929,1.6734136894583702
1746477238613523200,2.957523193359375,0.4809288287431001,3.6052597039163112,2.317193823799491
1746477238623502300,2.96750244140625,0.28045667141154407,2.743807709509134,2.690381239748001
1746477238633481200,2.977481201171875,0.16465294819250703,2.233395596650243,2.745042219740152
1746477238643460400,2.98746044921875,0.15877368089556693,1.9655641596645115,2.685735459768772
1746477238653439200,2.997439208984375,0.2556916479893029,1.7588310422420501,2.62258956002593
1746477238663418400,3.00741845703125,0.5028473766930401,1.6947452313005924,2.435067923551798
1746477238673397200,3.017397216796875,0.9307669381737709,1.6875889298051594,2.0872540183126924
1746477238683376400,3.02737646484375,1.3261014501310884,1.6665695226520298,1.5894050344288349
1746477238693355300,3.037355224609375,1.6357850928097963,1.5226011967003346,1.0334253486156464
1746477238703334400,3.04733447265625,1.8482792579770086,1.2952379637032747,0.4680862983047962
1746477238713313300,3.057313232421875,1.8838370397008954,1.1188158133924007,0.010665770921111106
1746477238723292400,3.06729248046875,1.8386071742683647,0.9519780685067176,-0.1962888802975416
1746477238733271300,3.077271240234375,1.7120358271889387,0.7542366513133049,-0.2736404155254364
1746477238743250400,3.08725048828125,1.5189157861858607,0.5518471160531043,-0.21376023958027363
1746477238753230300,3.097230224609375,1.1960942833840846,0.2950181345969438,0.05445347472131252
1746477238763209200,3.107209228515625,0.9185171129316091,0.006145663148164749,0.4298468762814998
1746477238773188400,3.117188232421875,0.5984031155228614,-0.2719359496951103,0.982382559120655
1746477238783167500,3.12716748046875,0.2873684966266155,-0.6722954502075911,1.4246709838241338
1746477238793146400,3.137146484375,0.1384128837816417,-1.1665174757659436,1.6006167487949132
1746477238803125500,3.14712548828125,0.23626243263706564,-1.6740233457893132,1.623157666426897
1746477238813104400,3.1571044921875,0.46503918569386005,-2.1185160025388,1.5637334175556896
1746477238823083500,3.16708349609375,0.7178267828047276,-2.403132570108771,1.397535139617324
1746477238833062400,3.1770625,0.9624345805913209,-2.612656779554486,1.3467238207906485
1746477238843041500,3.18704150390625,1.195196457761526,-2.831678885185718,1.3537187942445277
1746477238853020400,3.1970205078125,1.4959668722748756,-3.036678895205259,1.1311948179721831
1746477238862999600,3.20699951171875,1.7463257809340953,-3.1967987300127745,0.6221832195609808
1746477238872978400,3.216978515625,1.7658834449715912,-3.0071231303751467,0.49799277626872057
1746477238882957600,3.22695751953125,1.7194360204428434,-2.811932566708326,0.9372223979234695
1746477238892936400,3.2369365234375,1.729131631157547,-2.446087914738059,1.1652952404946089
1746477238902915300,3.246915283203125,1.6587895363003013,-2.3985101710051295,1.0395236654907465
1746477238912894200,3.256894287109375,1.687205483445525,-2.154154302152991,0.5644114140719175
1746477238922873300,3.266873291015625,1.5561371172077954,-2.193980116584897,0.3125239806711674
1746477238932852200,3.276852294921875,1.1593513835288582,-2.3617735547602177,-0.22387071470618247
1746477238942831400,3.286831298828125,0.938733971530199,-2.1842174319833516,-1.0242185443311929
1746477238952810200,3.296810302734375,0.53488370629251,-2.0069909795522687,-1.4983470454096792
1746477238962789400,3.306789306640625,0.3049870092950761,-1.7732284009069204,-1.7562655756682157
1746477238972768300,3.316768310546875,0.18773162596300244,-1.5064818365484476,-2.088575622305274
1746477238982747400,3.326747314453125,0.22888722769394515,-1.1312708058178425,-2.5021909102320667
1746477238992726300,3.336726318359375,0.31452962140515445,-0.7437824773162603,-2.8939573544442654
1746477239002705400,3.346705322265625,0.2599422911711037,-0.38284780921936035,-3.169067842522263
1746477239012684300,3.356684326171875,0.026596988089755177,0.05348550647199154,-3.3881539533004164
1746477239022663400,3.366663330078125,-0.4047925145238638,0.2780190690010786,-3.553806872315705
1746477239032643300,3.376643310546875,-0.7905676093667745,0.38421909757256506,-3.8551583015874025
1746477239042622200,3.386622314453125,-1.0874043376930058,0.4787456394851207,-4.257646630822122
1746477239052601300,3.396601318359375,-1.3068155887722968,0.4510872327089309,-4.60554762982279
1746477239062580200,3.406580322265625,-1.4827847346186638,0.27943711910545826,-4.932770290192962
1746477239072559400,3.416559326171875,-1.5599515609294174,0.1327414140164852,-5.3099669417828315
1746477239082538200,3.426538330078125,-1.5107938545286654,0.29307810644507404,-5.70014874715209
1746477239092517400,3.436517333984375,-1.397857211178541,0.5109697467416524,-5.893419740933179
1746477239102496500,3.44649658203125,-1.5344173067003488,0.5149561860293149,-5.775595325541496
1746477239112475400,3.456475341796875,-1.7412258274465797,0.2071557267487049,-5.564381847834587
1746477239122454500,3.46645458984375,-1.8984563705533741,-0.10217559536099434,-5.480130031698942
1746477239132433400,3.476433349609375,-2.0244711066633463,-0.24921383027732372,-5.477434216743707
1746477239142412500,3.48641259765625,-2.0096359411031006,-0.2092857245147228,-5.560637400609255
1746477239152391400,3.496391357421875,-1.7927578617632387,0.02429623686671257,-5.768206968855858
1746477239162370600,3.50637060546875,-1.3837012600541114,0.42230128320753574,-6.086361064368486
1746477239172349400,3.516349365234375,-0.9658500150579958,0.9301514366239308,-6.299115926298499
1746477239182328600,3.52632861328125,-0.7959089703947305,1.250315118393302,-6.217714823418856
1746477239192307500,3.536307373046875,-0.9214251093327999,1.2475555905520914,-5.780784710878134
1746477239202286300,3.546286376953125,-1.3322060506165028,1.0843670158237217,-5.3440106656819575
1746477239212265200,3.55626513671875,-1.8860522315323351,0.8552432028949261,-4.773281739026308
1746477239222244400,3.566244384765625,-2.301693472328782,0.6725649147987365,-4.132361378030478
1746477239232223200,3.57622314453125,-2.543278707423806,0.6978472400933504,-3.527175762760639
1746477239242202400,3.586202392578125,-2.7561832069575787,0.7103858191490173,-2.9092069460242986
1746477239252181200,3.59618115234375,-2.9089316362142563,0.5918196454793214,-2.2520430139750243
1746477239262160400,3.606160400390625,-2.9015011939525603,0.47382981039285654,-1.583181045347452
1746477239272139300,3.61613916015625,-2.7473949203461405,0.14022037159502507,-0.9342360755890607
1746477239282118400,3.626118408203125,-2.4918483799159525,-0.3484206389605999,-0.43892216314077376
1746477239292097300,3.63609716796875,-2.073943870362639,-0.8350888881385325,-0.08290215509235858
1746477239302077200,3.6460771484375,-1.5350427451223134,-1.302242289507389,0.2140180137336254
1746477239312056300,3.656056396484375,-1.010167880212143,-1.7044716755449771,0.47050095823109145
1746477239322035200,3.66603515625,-0.639497342455387,-1.9693781649947166,0.6802309193819761
1746477239332014800,3.676014892578125,-0.30817513781189915,-2.124075390231609,0.989973160380125
1746477239341993700,3.68599365234375,0.007684782348945736,-2.2216215722262858,1.3812883536934852
1746477239351972900,3.695972900390625,0.22508301310539244,-2.2350983089148997,1.6978817757606506
1746477239361951700,3.70595166015625,0.4197913462132215,-2.1969740377038716,1.96784262599051
1746477239371931000,3.715930908203125,0.568161121994257,-2.1124299606233836,2.1617332129746676
1746477239381909800,3.72590966796875,0.6130756378673017,-1.9668284805119036,2.3521616768062112
1746477239391889000,3.735888916015625,0.6112951841913163,-1.8042694358587263,2.4765058493554593
1746477239401867800,3.74586767578125,0.6291682561427354,-1.620772232595086,2.580879247021675
1746477239411847000,3.755846923828125,0.6335469096183777,-1.372810448205471,2.5592291407495735
1746477239421825800,3.76582568359375,0.6227215642213821,-1.1402893940538168,2.493119130504131
1746477239431804700,3.7758046875,0.575780510956794,-0.9213841928005218,2.448935705384612
1746477239441783600,3.785783447265625,0.4630786992758512,-0.6298024623930454,2.405415128087997
1746477239451762700,3.7957626953125,0.31612346646785733,-0.39179274769723416,2.4276000718891617
1746477239461741600,3.805741455078125,0.19324184075184164,-0.26233517765700815,2.4048498954206705
1746477239471720700,3.815720703125,0.063097822817415,-0.10969605399370193,2.2509417747348546
1746477239481699600,3.825699462890625,0.005167173504829406,0.11336217528581619,2.055150907087326
1746477239491678700,3.8356787109375,-0.026616350377351043,0.5134738385170697,1.9598726700246334
1746477239501657600,3.84565771484375,-0.07225384676270187,1.0110609565943478,2.0329823298990726
1746477239511636700,3.85563671875,-0.12535831802785397,1.5268103388279675,2.131013080540299
1746477239521615600,3.86561572265625,-0.13864464671090243,2.103233093211055,2.1392156762182712
1746477239531594800,3.8755947265625,-0.1821044337309897,2.6337662030786273,2.1903952438354493
1746477239541574000,3.885573974609375,-0.26043423940651117,3.124848761567473,2.274566395950317
1746477239551552800,3.895552734375,-0.3738227912425995,3.568756311905384,2.37049754396379
1746477239561532000,3.905531982421875,-0.43462300464212894,3.948655792713165,2.428248306664824
1746477239571510800,3.9155107421875,-0.531480035328865,4.239230391904711,2.5790730743825434
1746477239581490000,3.925489990234375,-0.6288292334467173,4.362001031526923,2.8586744441390035
1746477239591469800,3.9354697265625,-0.6934433791112155,4.330061001908779,3.0860785936683413
1746477239601448700,3.94544873046875,-0.6458387473713606,4.386541598543524,3.0231758550316092
1746477239611427800,3.955427734375,-0.35554471868686377,4.561269804418087,2.6362621115475893
1746477239621406700,3.96540673828125,0.012375570513680576,4.692003385743498,2.2255910603791476
1746477239631385900,3.9753857421875,0.29234233951643107,4.609643082442879,2.036153945672512
1746477239641364700,3.98536474609375,0.4571694752320647,4.251958940574527,2.0341630641162394
1746477239651344000,3.99534375,0.6834095494180917,4.051085655096173,1.7152783162415026
1746477239661322800,4.00532275390625,0.874601983359456,4.007745110541582,1.5218886645168066
1746477239671302000,4.015302001953125,1.0088719221174716,3.9034488697648047,1.562923270216584
1746477239681280800,4.02528076171875,1.0710375786513089,3.9436101997613906,1.7967103987812996
1746477239691260000,4.035260009765625,1.005019922864437,4.209751199442148,2.11797531979084
1746477239701238800,4.04523876953125,0.8440408408790826,4.5845577410250895,2.5171266135573385
1746477239711218000,4.055218017578125,0.5389749211288988,4.8362476060271264,2.9979367843568325
1746477239721196800,4.06519677734375,0.14452552144303918,4.906540454915166,3.5002813260942696
1746477239731175700,4.07517578125,-0.25321196000277996,4.749165534901619,3.753897190722823
1746477239741154600,4.085154541015625,-0.517130607458949,4.39162343185246,3.5727795760720964
1746477239751133700,4.0951337890625,-0.6191491125620902,3.9134319191187616,3.002868395540118
1746477239761112600,4.105112548828125,-0.5583078364998102,3.3571149641752243,2.3596026404619215
1746477239771091700,4.115091796875,-0.3214969761997461,2.80429754178524,1.8635346947759388
1746477239781070600,4.125070556640625,-0.049575785682350396,2.235155592060089,1.4930875174462794
1746477239791049700,4.1350498046875,0.21581673371866344,1.692888205257058,1.1724474503368139
1746477239801028600,4.145028564453125,0.43844811588823795,1.2081254974395037,0.9829425310909747
1746477239811007700,4.1550078125,0.5745851636923849,0.7234568976461887,0.9754916305631398
1746477239820986600,4.164986572265625,0.6554957065761089,0.24708032537996769,1.1018354524970053
1746477239830965800,4.1749658203125,0.7049661321878433,-0.23912732054889202,1.3943465727090836
1746477239840944600,4.184944580078125,0.8200460711769759,-0.7407540694057941,1.61285722168684
1746477239850923800,4.194923828125,0.8588656311757862,-1.15548345605433,1.76146080622375
1746477239860903000,4.20490283203125,0.9091372901678085,-1.5353063644945621,1.9031366373240948
1746477239870881800,4.2148818359375,0.9722925422608851,-1.8851415464282035,1.966281368023157
1746477239880861700,4.22486181640625,1.059001103898883,-2.1546347791463134,2.0473077923715115
1746477239890840800,4.2348408203125,1.180382919511199,-2.3860616083204746,2.082392549756169
1746477239900819700,4.24481982421875,1.2961032022304833,-2.6025328604251143,2.044441881546378
1746477239910798800,4.254798828125,1.4513270816899835,-2.653911750006676,1.9439736746251581
1746477239920777700,4.26477783203125,1.6885048756062984,-2.57271990596354,2.0102093570768833
1746477239930756900,4.2747568359375,1.6659906998507676,-2.6923200988560914,2.025208188766241
1746477239940735700,4.28473583984375,1.672988742044568,-2.6582781285226345,1.5936434026509523
1746477239950715000,4.29471484375,1.6977029120624065,-2.476293667909503,1.0890917062580585
1746477239960693800,4.30469384765625,1.610253761190176,-2.5415771642029283,0.7645084544807672
1746477239970673000,4.3146728515625,1.4143687855184077,-2.3680904828220606,0.46092415159046646
1746477239980651800,4.32465185546875,1.2417701390184461,-2.1045967827796934,0.256764684048295
1746477239990631000,4.334630859375,0.9730829619862139,-2.0045593684911727,0.15775252115428448
1746477240000609800,4.34460986328125,0.6945435223728418,-1.861650780725479,-0.07875088063180447
1746477240010589000,4.3545888671875,0.4694951421894133,-1.6905846044898032,-0.5005927296340466
1746477240020567600,4.364567626953125,0.28979397020787,-1.5869985578089951,-0.8627794436186551
1746477240030546700,4.374546630859375,0.18565876521170138,-1.4231184936851262,-1.1410352439850568
1746477240040525600,4.384525634765625,0.017397271133214234,-1.2239385681211947,-1.3866975192606448
1746477240050504700,4.394504638671875,-0.05579422180578112,-1.0393477244019507,-1.7929507539868355
1746477240060483600,4.404483642578125,-0.04838204585313797,-0.8160235376626253,-2.4143542213469744
1746477240070462700,4.414462646484375,0.0003949906669557094,-0.5652326673269271,-3.066519906717539
1746477240080441600,4.424441650390625,0.04228314445614814,-0.20684417658150195,-3.6241719096571203
1746477240090420700,4.434420654296875,-0.008555208507925271,0.17991291503608225,-3.9806867154851555
1746477240100399600,4.444399658203125,-0.1327542004328221,0.5761719944924116,-4.335463153213262
1746477240110378800,4.454378662109375,-0.30397176783792673,1.0132511601150036,-4.7788989943861955
1746477240120357600,4.464357666015625,-0.5555728585779667,1.2758178084403275,-5.231109678167105
1746477240130336800,4.474336669921875,-0.8408353228360415,1.3147422901183365,-5.650112504351139
1746477240140315600,4.484315673828125,-1.1273602082453666,1.1248252829402685,-6.040967094415426
1746477240150294800,4.494294677734375,-1.3566583548277615,0.8739525795400143,-6.520734478163718
1746477240160273700,4.504273681640625,-1.4780197121739387,0.7876052524298429,-7.070349889641999
1746477240170252800,4.514252685546875,-1.57691847782135,0.7116805351346731,-7.416352946066856
1746477240180232700,4.524232666015625,-1.825339111894369,0.43352001183629035,-7.419524561840295
1746477240190211800,4.5342119140625,-2.1249100874900817,-0.023465046739578246,-7.083846500074863
1746477240200190700,4.544190673828125,-2.326512856286764,-0.4842980129152536,-6.713498691466451
1746477240210169900,4.554169921875,-2.4055384622067213,-0.8863152175068855,-6.450208405041694
1746477240220148700,4.564148681640625,-2.269007592779398,-1.1480746411025524,-6.281725815558433
1746477240230127900,4.5741279296875,-1.841203035980463,-1.1791823115497826,-6.260245805156231
1746477240240106800,4.584106689453125,-1.2447872948825358,-0.9270435337364673,-6.359655442935228
1746477240250086000,4.5940859375,-0.6679682346582412,-0.5225076243221759,-6.478539596512913
1746477240260064800,4.604064697265625,-0.16922032917328178,-0.17287819409370422,-6.377364118105173
1746477240270044000,4.6140439453125,0.15117906104810536,0.05516659142673015,-6.107198100692034
1746477240280022800,4.624022705078125,0.27733634743392466,0.027805706292390823,-5.719145708566904
1746477240290002000,4.634001953125,0.14235855266749858,-0.12931143956780433,-5.333853428804874
1746477240299980800,4.643980712890625,-0.21602416592426596,-0.3169996647804975,-5.029807353621721
1746477240309960000,4.6539599609375,-0.544280991647765,-0.4380705147475004,-4.738129761624336
1746477240319938600,4.6639384765625,-0.7688695722997189,-0.34130583851933477,-4.423900438340008
1746477240329917400,4.67391748046875,-0.9370967257171868,-0.20347616145312786,-3.8620568289294837
1746477240339896300,4.683896240234375,-1.0693927340537308,-0.11607961755096911,-3.2356881403774023
1746477240349875500,4.69387548828125,-1.2080758130788802,-0.08865092787742614,-2.5796955901950596
1746477240359854300,4.703854248046875,-1.326750123298168,-0.2216986313641071,-1.9602765746504067
1746477240369833500,4.71383349609375,-1.3936702808827162,-0.45483635610938067,-1.3748130201995372
1746477240379812400,4.723812255859375,-1.367696466192603,-0.7694090860038996,-0.8082605024456977
1746477240389791500,4.73379150390625,-1.221558394986391,-1.140279457181692,-0.31639351558089257
1746477240399770600,4.7437705078125,-1.0553671313107014,-1.460842367401719,0.09987433268129825
1746477240409749500,4.75374951171875,-0.9771416627924889,-1.6702268761157988,0.43615094486176964
1746477240419728600,4.763728759765625,-0.909798384425044,-1.7974357904464004,0.8554986389607191
1746477240429707500,4.77370751953125,-0.8180534360550343,-1.7595757231295108,1.3668378035366535
1746477240439686700,4.783686767578125,-0.6815822609256953,-1.6408517285495996,1.7897984274357557
1746477240449665500,4.79366552734375,-0.5589677617132663,-1.4629717806458473,2.1814216637849806
1746477240459644700,4.803644775390625,-0.4548356985222548,-1.1987106033623218,2.5386878725022077
1746477240469623600,4.81362353515625,-0.3540214546423405,-0.9293798677295446,2.795930695456266
1746477240479602700,4.823602783203125,-0.29783202297389505,-0.6003109949707984,2.9898458323597907
1746477240489582600,4.83358251953125,-0.33177111745476723,-0.301282455688715,3.185782245957851
1746477240499561500,4.8435615234375,-0.4078366314601153,-0.039411972934007646,3.350164414384961
1746477240509540600,4.85354052734375,-0.5151947440255433,0.1822550942480564,3.5019951442748307
1746477240519519500,4.86351953125,-0.6443990699570625,0.3653945701152086,3.5883506546914576
1746477240529498600,4.87349853515625,-0.7768068681050092,0.5103115750938654,3.71479384534657
1746477240539477500,4.8834775390625,-0.7966337775379418,0.6210983469337225,3.8004303938388824
1746477240549456600,4.89345654296875,-0.7656324170093983,0.7058259638875722,3.780680568230152
1746477240559435500,4.903435546875,-0.697674879201129,0.7617851669967174,3.706223585399985
1746477240569414700,4.91341455078125,-0.5431717152316123,0.8497036889463663,3.6055256613761184
1746477240579393500,4.9233935546875,-0.33603352413959797,1.0915578041106462,3.443291026371717
1746477240589372700,4.93337255859375,-0.15372465387769044,1.4660995572775601,3.2858921409606934
1746477240599351300,4.943351318359375,-0.012298340559005737,1.89050044311285,3.129291712450981
1746477240609330400,4.953330322265625,0.055404528368450695,2.3740976142823693,2.915117631372809
1746477240619309300,4.963309326171875,0.031110081600025295,2.81164556646049,2.799994876155257
1746477240629288400,4.973288330078125,-0.09789799110703169,3.21558760163486,2.756764221715927
1746477240639267300,4.983267333984375,-0.27412140397541224,3.6311300582319497,2.6818741081655024
1746477240649246500,4.99324658203125,-0.44576746245827525,4.025121192756295,2.7242449309051033
1746477240659225300,5.003225341796875,-0.612369097033143,4.2789089068204165,2.8846675480514765
1746477240669204500,5.01320458984375,-0.7976011612653732,4.384266639348865,3.0968671141862867
1746477240679183400,5.023183349609375,-0.902862447682023,4.583739410379529,3.125367817005515
1746477240689162500,5.03316259765625,-0.8477736707318574,4.983941089981794,2.844000022098422
1746477240699141400,5.043141357421875,-0.7331091076105832,5.304345594769716,2.5233260527193546
1746477240709120500,5.05312060546875,-0.602172624124214,5.322836944749951,2.393189268243313
1746477240719099600,5.063099609375,-0.4974789815276861,5.070916193601489,2.338629995059967
1746477240729078500,5.07307861328125,-0.3657259940266609,4.894384737697243,2.1616040336370466
1746477240739057700,5.0830576171875,-0.21335275475792587,4.808662849009036,2.0347247896522282
1746477240749036500,5.09303662109375,-0.1319703565787524,4.629910794445872,2.0212685112297533
1746477240759015700,5.103015625,-0.21730828745067118,4.381534584036469,2.133251799377799
1746477240768994600,5.11299462890625,-0.3563192101906985,3.93609500182569,2.2548031263381243
1746477240778973700,5.1229736328125,-0.48899749584309754,3.5225574553102255,2.248887180292606
1746477240788952600,5.13295263671875,-0.6403787283997983,3.2754490728795527,2.1965438295930624
1746477240798931700,5.142931640625,-0.7808101123970002,3.165771139064431,2.21230721591413
1746477240808910600,5.15291064453125,-0.8197432888381183,3.0910569666028023,2.2204472677499054
1746477240818890500,5.162890380859375,-0.6711573860883713,3.043717707800865,2.134633609125018
1746477240828869600,5.17286962890625,-0.36946342698931695,2.8869717333406206,1.9319529819637535
1746477240838848500,5.1828486328125,0.013265724286437033,2.6356056934654712,1.6601386128216982
1746477240848827600,5.19282763671875,0.36611587012708185,2.244573408746719,1.344512574481964
1746477240858806500,5.202806640625,0.6385029245905578,1.8312123878419397,1.0974065301388503
1746477240868785700,5.21278564453125,0.8757752649225294,1.431944189697504,0.7831301528424024
1746477240878764500,5.2227646484375,1.0546090064197777,1.036935987085104,0.56082595680058
1746477240888743700,5.23274365234375,1.1730378174453973,0.6390075131118297,0.4138233777195215
1746477240898722300,5.242722412109375,1.2249708337783813,0.19423837750852108,0.43907764596343035
1746477240908701400,5.252701416015625,1.1747253321409226,-0.2767307827562094,0.5366086303889751
1746477240918680300,5.262680419921875,1.1392609277889132,-0.8193845385283232,0.6656997052043676
1746477240928659500,5.272659423828125,1.1299819350510836,-1.337791157272458,0.7771271130353212
1746477240938638300,5.282638427734375,1.1866127538114786,-1.7918495147466658,0.858204975309968
1746477240948617500,5.292617431640625,1.282318276375532,-2.14811326842308,0.9056079469978808
1746477240958596400,5.302596435546875,1.4102854617275298,-2.4337726230442525,0.9440279862850904
1746477240968575500,5.312575439453125,1.5672101537555456,-2.6843320227116343,0.9582394669890403
1746477240978554400,5.322554443359375,1.7812753676317632,-2.7704823659449813,0.9881032748550176
1746477240988533500,5.332533447265625,1.8569553163856267,-3.015022943714261,1.1144149480849503
1746477240998512400,5.342512451171875,2.072215439134836,-3.1680069352924822,0.7463356689304113
1746477241008491500,5.352491455078125,2.169770388957858,-3.094955143085122,0.35473113728165623
1746477241018470400,5.362470458984375,1.8862199893146752,-3.1441110959202048,0.7865747403383254
1746477241028449500,5.372449462890625,1.6950250711552797,-3.0711154178142546,0.863214327904582
1746477241038428700,5.3824287109375,1.6647370465278624,-2.996265051752329,0.58219899969697
1746477241048407600,5.392407470703125,1.9048579081587493,-2.6877058830589053,0.1935088941901922
1746477241058386700,5.40238671875,1.9464074776433407,-2.499316816100478,0.017955927929282186
1746477241068365600,5.412365478515625,1.6194681642591953,-2.5067589487999675,-0.04271978230774402
1746477241078344700,5.4223447265625,1.2721347360134123,-2.2097189529865977,-0.4333697897106409
1746477241088323600,5.432323486328125,0.8482026367336511,-1.9986077666103839,-0.9133844262182712
1746477241098302700,5.442302734375,0.40352644011080263,-1.8285200800180434,-1.2329098100841045
1746477241108281600,5.452281494140625,0.14554843474999068,-1.5449609125465154,-1.508597805789113
1746477241118260700,5.4622607421875,0.13354337804913521,-1.1648597716867923,-1.6594313413351773
1746477241128239600,5.472239501953125,0.1838584377914667,-0.752214790096879,-1.742751429578662
1746477241138218500,5.482218505859375,0.2027479933090508,-0.3843663970887661,-1.8799977537989616
1746477241148198700,5.49219873046875,0.10235738166868687,-0.06180091487467289,-2.1713626265853643
1746477241158177500,5.502177490234375,-0.10600070660710334,0.14313596678078175,-2.5842402478873727
1746477241168156700,5.51215673828125,-0.30292028602361676,0.2532879478484392,-3.1138316929906606
1746477241178135600,5.522135498046875,-0.4623579837858677,0.4160311168968677,-3.7480598628714676
1746477241188114400,5.532114501953125,-0.5538982033640146,0.5792752212047576,-4.291159901106357
1746477241198093300,5.54209326171875,-0.6601772885210812,0.7134966446459293,-4.767800969527661
1746477241208072400,5.552072509765625,-0.7285019060760736,0.6765238815575838,-5.18559295861721
1746477241218051300,5.56205126953125,-0.7292522860519588,0.4487544058471918,-5.586053581416607
1746477241228030500,5.572030517578125,-0.6782586694609374,0.25775603317320345,-6.141714118278026
1746477241238009300,5.58200927734375,-0.5779800668276847,0.19883564217090605,-6.784899793857336
1746477241247988500,5.591988525390625,-0.6026673488385975,0.21424188561737537,-7.189926701658964
1746477241257967400,5.60196728515625,-0.8345621608506888,0.09733049341738223,-7.217988428539037
1746477241267946500,5.611946533203125,-1.1857072563391178,-0.2689566416233778,-7.083698031514882
1746477241277925400,5.62192529296875,-1.4438162676684558,-0.6982809553354978,-7.021662723362446
1746477241287904500,5.631904541015625,-1.5929823083937167,-0.9994593661278486,-7.037837613093853
1746477241297883400,5.64188330078125,-1.4963561638534069,-1.1003192027151585,-7.170222468757629
1746477241307862500,5.651862548828125,-1.156702038063854,-0.9039332917839288,-7.320148826330899
1746477241317841400,5.66184130859375,-0.6812952606778592,-0.5151882412195206,-7.324037065941095
1746477241327820500,5.671820556640625,-0.3449414916079491,-0.0633428836196661,-7.087280566176772
1746477241337799400,5.68179931640625,-0.251061503970623,0.2979208703011274,-6.686791301804781
1746477241347778600,5.691778564453125,-0.3892816416591406,0.4514771088093519,-6.124070325037836
1746477241357757700,5.7017578125,-0.7161521275907754,0.41492929313480853,-5.393820113989711
1746477241367736600,5.711736572265625,-1.0280758042812346,0.2840916669130325,-4.709903491832316
1746477241377715700,5.7217158203125,-1.2238853766292332,0.2956862431168556,-4.216966537648439
1746477241387694600,5.731694580078125,-1.3609288717538117,0.40369536693692204,-3.792267837910354
1746477241397673700,5.741673828125,-1.4812404277861118,0.5018652337878943,-3.385062709286809
1746477241407652600,5.751652587890625,-1.5713924078762531,0.6148679281115531,-3.0203485226511955
1746477241417631700,5.7616318359375,-1.6534329777032135,0.5843412724226713,-2.4695389329522848
1746477241427610600,5.771610595703125,-1.6951088039159774,0.44102118124663825,-1.8815917449921369
1746477241437589800,5.78158984375,-1.6474340295493601,0.1729705485522747,-1.2618763768494128
1746477241447568600,5.791568603515625,-1.587093834877014,-0.23069559229016304,-0.6796972508966922
1746477241457547800,5.8015478515625,-1.58764211640954,-0.7234826166093349,-0.300540112888813
1746477241467526700,5.811526611328125,-1.553227221110463,-1.170164307835698,-0.10522621510326861
1746477241477505800,5.821505859375,-1.6284417443096637,-1.51395611795187,-0.05083236161470413
1746477241487485700,5.831485595703125,-1.7286901710003613,-1.7947540040165184,0.21852876915633676
1746477241497464600,5.841464599609375,-1.6650532728701828,-1.8535376168966293,0.7088684003233909
1746477241507443700,5.851443603515625,-1.500007672098279,-1.7796891213536261,1.2769202167242764
1746477241517422600,5.861422607421875,-1.3260428518116474,-1.7290426376998425,1.7957295710504053
1746477241527401700,5.871401611328125,-1.1880174329776316,-1.6397604261815546,2.1603660162746907
1746477241537380600,5.881380615234375,-1.1207552570223807,-1.478528246217966,2.4632553226381537
1746477241547359700,5.89135986328125,-1.1041489901363848,-1.2654986589998005,2.7225398805528878
1746477241557338600,5.901338623046875,-1.0672271535176783,-0.9600251813620329,2.971656095674634
1746477241567317500,5.9113173828125,-1.0522001917123793,-0.626386516469717,3.2548002526044844
1746477241577296400,5.92129638671875,-1.0227969870954752,-0.2756757207453251,3.5215859799295663
1746477241587275500,5.931275634765625,-1.0432552532345056,0.006494038194417953,3.80088164473772
1746477241597254400,5.94125439453125,-1.1048656139731408,0.23167466645538806,4.035061572012305
1746477241607233500,5.951233642578125,-1.1384230156600474,0.41579964622855187,4.14669239346087
1746477241617212400,5.96121240234375,-1.1128390770703553,0.606675269305706,4.155060993355512
1746477241627191600,5.971191650390625,-1.0860194592058658,0.7722714896976948,4.143756924530863
1746477241637170400,5.98117041015625,-0.9925450566947459,0.9786112238883972,4.018275272384286
1746477241647149600,5.991149658203125,-0.810194100856781,1.2619962038367987,3.864682208997011
1746477241657128400,6.00112841796875,-0.6522919420987368,1.6827268767267465,3.666011986520886
1746477241667107600,6.011107666015625,-0.5510983435124158,2.185643080872297,3.4634406649529934
1746477241677086500,6.02108642578125,-0.5119359614253044,2.6747265744984148,3.313520737120509
1746477241687065600,6.031065673828125,-0.5744622679650783,3.1803689887374635,3.2201579782903194
1746477241697044700,6.041044677734375,-0.6792752260923385,3.549943474885821,3.1472289356797933
1746477241707023600,6.051023681640625,-0.7918395289987326,3.9434313360631466,2.9550299550443886
1746477241717002800,6.061002685546875,-0.9021458238452672,4.294913700681924,2.8100767097085715
1746477241726981600,6.070981689453125,-1.0364596017450094,4.576588369581103,2.8655548513025044
1746477241736960800,6.080960693359375,-1.254292789852619,4.82581330577433,3.0812872677385803
1746477241746939600,6.090939697265625,-1.5034335548937319,5.028860428160429,3.371083283773064
1746477241756918800,6.100918701171875,-1.603020887327194,5.341254060450196,3.4454689549326893
1746477241766897700,6.110897705078125,-1.647501249566674,5.694992679563164,3.4326503898918626
1746477241776876800,6.120876708984375,-1.64167122823894,5.834253266215324,3.4080420183360576
1746477241786855700,6.130855712890625,-1.5565291852653025,5.669966959378123,3.372743325939774
1746477241796834800,6.140834716796875,-1.2932371452748774,5.5083384735733265,3.059848173868656
1746477241806813700,6.150813720703125,-0.8008161047238856,5.445573097580671,2.5581056896775958
1746477241816792600,6.16079248046875,-0.2935796992916614,5.28921173852384,2.4052649059623477
1746477241826771500,6.170771484375,0.11755202819108962,4.90177660151422,2.6173510748505593
1746477241836750600,6.18075048828125,0.3337731049269438,4.25150535158813,2.8428409151911733
1746477241846730800,6.190730712890625,0.3195481071542948,3.5988340547829862,2.9890970598191022
1746477241856709600,6.200709716796875,0.16787585576176642,3.1195477325499055,3.0569582976460454
1746477241866688500,6.2106884765625,-0.02039564923159778,2.8818256026238203,2.990468348172307
1746477241876667400,6.22066748046875,-0.1366886172723025,2.8488644132643937,2.877146504896879
1746477241886646500,6.230646484375,-0.05224741604439914,2.90096109572649,2.7078695501655337
1746477241896625400,6.24062548828125,0.1546257674358785,2.9582898336231707,2.416486557200551
1746477241906604500,6.2506044921875,0.47847895137295127,2.958723548865318,2.0606272926717994
1746477241916583400,6.26058349609375,0.8377040390729904,2.824956883454323,1.6038912404209373
1746477241926562600,6.2705625,1.0928788235813378,2.5912889973551034,1.145811372345686
1746477241936541400,6.28054150390625,1.3044453525096178,2.2361077782183885,0.7521762116521596
1746477241946520600,6.2905205078125,1.4380489363133906,1.8753116418093443,0.40990649653673167
1746477241956499500,6.30049951171875,1.5353401206336914,1.5330512790441513,0.25295477037131786
1746477241966478600,6.310478515625,1.4642828632444143,1.1878174534261225,0.2923796027868986
1746477241976457500,6.32045751953125,1.1882326100982725,0.7457090614646673,0.4405284292936325
1746477241986436600,6.3304365234375,0.9037848232239484,0.2503904728412628,0.6157341895520687
1746477241996415500,6.34041552734375,0.6315186186611652,-0.25542086822390553,0.7149912671178579
1746477242006394600,6.35039453125,0.46311610867679115,-0.813951992085576,0.739745184624195
1746477242016373800,6.360373779296875,0.4524235228139907,-1.349283442145586,0.7610831562072038
1746477242026352600,6.3703525390625,0.52190322868824,-1.8756284526735543,0.6432528955966234
1746477242036331800,6.380331787109375,0.6543291470147669,-2.3450720108062026,0.472180289620161
1746477242046310700,6.390310546875,0.9883717165328562,-2.643547007858753,0.2943587939053774
1746477242056289800,6.400289794921875,1.4208850355446339,-2.9157261186599728,0.426828989765048
1746477242066268700,6.4102685546875,1.4987585488200186,-3.2559915082156654,0.3615373101651668
1746477242076247800,6.420247802734375,1.7402955608591437,-3.27252529438734,-0.08288228134810924
1746477242086226700,6.430226806640625,1.8808365427106617,-3.365114146235585,-0.32490649238228797
1746477242096205800,6.440205810546875,2.0861177077591417,-3.4076451279729603,-0.4130418719530105
1746477242106184700,6.450184814453125,2.246074607089907,-3.285571822965145,-0.5567074155658484
1746477242116163600,6.46016357421875,2.124121713591367,-3.09945303902626,-0.7023807918697595
1746477242126142500,6.470142578125,1.8840011442214248,-2.9801667343884706,-0.6180576640635729
1746477242136121600,6.48012158203125,1.5890677652984857,-2.7261154009521005,-0.49165422089695926
1746477242146100500,6.4901005859375,1.3680945255994796,-2.4919150154113767,-0.5465677143454551
1746477242156079600,6.50007958984375,1.2757571642942727,-2.2770552901566026,-0.7191285130530596
1746477242166058500,6.51005859375,1.0445898628391326,-2.203937446975708,-0.8479518768429756
1746477242176037600,6.52003759765625,0.8991830285169183,-2.0443892745763064,-1.1813508877605199
1746477242186016500,6.5300166015625,0.7946184921927749,-1.8732097010940312,-1.6893267133831977
1746477242195995600,6.53999560546875,0.4997229610621929,-1.6654589310616255,-2.23578804474473
1746477242205975600,6.5499755859375,0.13353519474267958,-1.2896879283607006,-2.792719916716218
1746477242215954400,6.559954345703125,-0.14547522338330746,-0.8138713280647992,-3.2941029199451206
1746477242225933600,6.56993359375,-0.4525822935722768,-0.3161649675220251,-3.696471422192454
1746477242235912400,6.579912353515625,-0.828052925087139,0.10395312642753124,-4.072281003338098
1746477242245891600,6.5898916015625,-1.1510907009880988,0.38651217694580553,-4.516146760360896
1746477242255870500,6.599870361328125,-1.427152133115381,0.6040723933309317,-5.102416662758588
1746477242265849600,6.609849609375,-1.6844477091699839,0.694772654953599,-5.698092399144173
1746477242275828500,6.619828369140625,-1.7756483215302228,0.5560919140160083,-6.229782862353325
1746477242285807600,6.6298076171875,-1.7520432817980647,0.24482874706089494,-6.7474740263044835
1746477242295786500,6.639786376953125,-1.5467834517985581,-0.05311375055015087,-7.312582190468907
1746477242305765600,6.649765625,-1.2634586776047945,-0.22807634970247745,-7.7936653329908845
1746477242315744500,6.65974462890625,-1.090821964116767,-0.2973854482501745,-8.127836497324704
1746477242325723600,6.6697236328125,-1.0337561880052089,-0.29863398700654503,-8.254148170554638
1746477242335702800,6.679702880859375,-1.0392010824728757,-0.21625439448356626,-8.185546343493462
1746477242345682000,6.689681884765625,-1.148258180975914,-0.06485387270450592,-7.989753137758374
1746477242355660800,6.699660888671875,-1.3387157247714698,0.062169163665175435,-7.702405099397898
1746477242365640000,6.709639892578125,-1.482842017763853,0.0045317982107400895,-7.4001044065773485
1746477242375618800,6.719618896484375,-1.4936398906320332,-0.20038345613479613,-7.223584056589007
1746477242385598000,6.729597900390625,-1.3037801665991544,-0.36989305057823657,-7.181209142196178
1746477242395576800,6.739576904296875,-1.1334698502320795,-0.4136281474083662,-7.06977238201499
1746477242405556000,6.749555908203125,-1.0758137800771743,-0.3165612733632326,-6.667109280735254
1746477242415534800,6.759534912109375,-1.191089606964588,-0.15670271984040737,-6.010983459562063
1746477242425513700,6.769513671875,-1.3447300166249274,-0.10894669693112373,-5.310443327122926
1746477242435492900,6.779492919921875,-1.5800246271431446,-0.11997019524872302,-4.559206734408438
1746477242445471700,6.7894716796875,-1.645839453834295,0.004776712882518768,-3.878956818065047
1746477242455451000,6.799450927734375,-1.6535960593104362,0.2478641692340374,-3.2681407956928012
1746477242465429800,6.8094296875,-1.6458312705278395,0.4436825094103813,-2.7605811496555805
1746477242475409000,6.819408935546875,-1.5635019468873739,0.6175567288041115,-2.3281594544500113
1746477242485387800,6.8293876953125,-1.4297814587056636,0.7041764431148767,-1.888739863181114
1746477242495367000,6.839366943359375,-1.3475678703993559,0.5904799213081597,-1.425966868853569
1746477242505345800,6.849345703125,-1.2982464978694914,0.34987317585647104,-0.9137930070191621
1746477242515325000,6.859324951171875,-1.2780395761430263,-0.02637713479399681,-0.3974760540306568
1746477242525303800,6.8693037109375,-1.320817810639739,-0.5270277320951223,-0.08320844456255436
1746477242535283000,6.879282958984375,-1.383729901626706,-0.9638304188638925,0.06881985372602939
1746477242545261800,6.88926171875,-1.4219523725152015,-1.3016577676177024,0.24702070414721963
1746477242555241700,6.89924169921875,-1.4194120403826236,-1.416940097311139,0.5642512550741434
1746477242565220900,6.909220947265625,-1.35280051035583,-1.410845287567377,1.025578142246604
1746477242575199700,6.91919970703125,-1.2965233273386954,-1.2799112152338028,1.511775851303339
1746477242585179000,6.929178955078125,-1.1969167056828736,-1.1089034911870956,1.9194296004772184
1746477242595157800,6.93915771484375,-1.0760948620408772,-0.9230606015801429,2.2761305765271187
1746477242605137000,6.949136962890625,-0.9462952736299485,-0.652690586027503,2.610384158447385
1746477242615115800,6.95911572265625,-0.8689706994742155,-0.2899158430218696,2.949995468008518
1746477242625095000,6.969094970703125,-0.8523504040628671,0.08359656709730624,3.2890099807202815
1746477242635073800,6.97907373046875,-0.8867916759122163,0.37811025930345055,3.5565111628383397
1746477242645053000,6.989052978515625,-0.8797790937364101,0.6847831758588552,3.7555630781084295
1746477242655031800,6.99903173828125,-0.8267109358936547,0.9924971258997917,3.8947511840462683
1746477242665011000,7.009010986328125,-0.7934288440167904,1.211110650730133,4.014410413649678
1746477242674989800,7.01898974609375,-0.7854560385067015,1.413607153496146,4.176332329443097
1746477242684969000,7.028968994140625,-0.7907686848968267,1.536645504143834,4.362663294827938
1746477242694947800,7.03894775390625,-0.7959200763106345,1.5659546007364988,4.400261496338248
1746477242704927000,7.048927001953125,-0.7640402524471283,1.5664432610362766,4.274973320937156
1746477242714905900,7.05890576171875,-0.665943450832367,1.5659405722111464,4.0876977681785815
1746477242724884700,7.068884765625,-0.5943389348238707,1.7023030993342398,3.9090176098078486
1746477242734864000,7.07886376953125,-0.524406187952496,1.9759072745025157,3.7399721257448193
1746477242744842800,7.0888427734375,-0.46844227213561535,2.358296234038472,3.574608545064926
1746477242754822000,7.09882177734375,-0.44386429571807384,2.833479797127843,3.4833465579062697
1746477242764800800,7.10880078125,-0.44614159300029277,3.4059944381564855,3.417112044498324
1746477242774780000,7.11877978515625,-0.5519166741579771,3.9380058038830756,3.410090183037519
1746477242784758800,7.1287587890625,-0.7273509824752807,4.446495424246788,3.428658105385303
1746477242794738000,7.138738037109375,-0.908664411959052,4.789275719232857,3.4033313564270733
1746477242804716800,7.148716796875,-1.0929659173429012,4.961198512297869,3.5168221265286204
1746477242814696000,7.158696044921875,-1.329920570027828,4.893914782097935,3.667340020254254
1746477242824674800,7.1686748046875,-1.520681042292714,4.850148705607652,3.799989079812169
1746477242834654000,7.178654052734375,-1.5623217971920966,4.86250023765862,3.7278134859174488
1746477242844632800,7.1886328125,-1.407491885486245,4.992143685659766,3.381589480218291
1746477242854612000,7.198612060546875,-1.2029559858471155,5.0324949852705,3.0821511910915373
1746477242864590800,7.2085908203125,-0.9384481403261422,4.802537644127011,2.982655044072866
1746477242874570000,7.218570068359375,-0.5949280598234384,4.580889866167307,2.758062444832921
1746477242884548900,7.228548828125,-0.15293014249913395,4.65016856957674,2.313088142046332
1746477242894528000,7.238528076171875,0.23632746069729327,4.773718961399793,2.07125623871386
1746477242904507000,7.2485068359375,0.5514928957879544,4.744138062128425,2.128911724346876
1746477242914486000,7.258486083984375,0.7061095300693064,4.665962351036072,2.294652906167507
1746477242924465000,7.26846484375,0.6516840393334626,4.63780242447853,2.3804314934790134
1746477242934444800,7.27844482421875,0.3218931359104812,4.65568937882483,2.465084876152873
1746477242944424000,7.288423828125,-0.1568278075248003,4.616576096576452,2.603033795684576
1746477242954402800,7.29840283203125,-0.5866382973186671,4.482849763175845,2.7523972586780783
1746477242964382000,7.3083818359375,-0.8046919232439249,4.250166211938858,2.695737798345089
1746477242974360800,7.31836083984375,-0.8912421525150537,3.9538726505786177,2.3699913480073214
1746477242984340000,7.328340087890625,-0.8222503762882203,3.6037890468418596,1.997018451592326
1746477242994318800,7.33831884765625,-0.5240477664362639,3.2443203596442935,1.645539594104886
1746477243004298000,7.348298095703125,-0.11894260576665401,2.8494360756725072,1.2884966727495193
1746477243014276900,7.35827685546875,0.24512173865810036,2.4101865802735087,0.9918880540907382
1746477243024255700,7.368255859375,0.6123604753352702,1.9432716638356446,0.7218512160152196
1746477243034235000,7.37823486328125,0.8992635464072227,1.450903741711378,0.5239110613793134
1746477243044213800,7.3882138671875,1.0921769589222967,0.8882125755608081,0.5188759898215533
1746477243054193000,7.39819287109375,1.2235827404208481,0.2693120309323072,0.5655266818374395
1746477243064171800,7.408171875,1.294689097648859,-0.3370388287246227,0.5539829590380192
1746477243074151000,7.41815087890625,1.3738035508960484,-0.9208540314465761,0.531334489378333
1746477243084129800,7.4281298828125,1.4685573256932198,-1.4983020372241735,0.5845774192661046
1746477243094109000,7.43810888671875,1.6094500435918568,-2.0245202065020798,0.527468461599946
1746477243104087800,7.448087890625,1.755308128812909,-2.4480162524521347,0.31450960153043267
1746477243114067000,7.45806689453125,2.0908558421969414,-2.5162457390695807,0.30862346610128877
1746477243124045800,7.4680458984375,2.014923672247678,-2.932115527924895,0.7259042907983064
1746477243134025000,7.47802490234375,2.0482279759563506,-2.892620552882552,0.7415572024822235
1746477243144003800,7.48800390625,2.111155118381977,-3.015698066496849,0.53589083750844
1746477243153983000,7.49798291015625,2.187961294686794,-2.90459740640223,0.13440847044587134
1746477243163961900,7.5079619140625,1.8247884922742843,-2.9520202518343925,-0.05709726722836494
1746477243173941000,7.51794091796875,1.6488696153104305,-2.9198119266688822,-0.46438393665552136
1746477243183919900,7.527919921875,1.4749638317346572,-2.7004420305132864,-0.8686293386906385
1746477243193899000,7.53789892578125,1.1622772078476846,-2.4060399819880725,-1.1002402922600507
1746477243203878000,7.5478779296875,0.7173083118885755,-2.197512382364273,-0.9163070356667041
1746477243213857000,7.55785693359375,0.49942032485380766,-2.0030156461805104,-0.7314999188482761
1746477243223836000,7.5678359375,0.45674467394873497,-1.661257972240448,-0.8600696001380681
1746477243233815000,7.57781494140625,0.35394787794947624,-1.5432488479316233,-0.9338368471384048
1746477243243794000,7.5877939453125,0.18704115948081015,-1.569600263762474,-1.1049965468764305
1746477243253772800,7.597772705078125,-0.07491101020798087,-1.4303338318914174,-1.4917723431944847
1746477243263751700,7.607751708984375,-0.3214015530012548,-1.344841075783968,-1.8891753319889306
1746477243273730800,7.617730712890625,-0.48272681807577605,-1.2874030322939156,-2.3723522319197654
1746477243283709700,7.627709716796875,-0.5255003763973712,-1.1569371619939803,-2.9640771848529575
1746477243293688800,7.637688720703125,-0.5285989269345999,-0.9503349774748087,-3.5291479396164416
1746477243303667700,7.647667724609375,-0.5785239644460379,-0.7245499535799026,-4.069233013944328
1746477243313646800,7.657646728515625,-0.669768269817531,-0.4875877021104097,-4.515590295521915
1746477243323626800,7.667626708984375,-0.7508230434775353,-0.219699566501379,-4.904588151803613
1746477243333605600,7.677605712890625,-0.7890028442680835,-0.008349895194172858,-5.320931987911463
1746477243343584500,7.68758447265625,-0.8469500063240527,0.12929156582355497,-5.746902315020561
1746477243353563600,7.697563720703125,-0.9089747930824756,0.11288286733627319,-6.055529872775077
1746477243363542500,7.70754248046875,-0.9311234965264796,-0.05948387010395526,-6.343712023872136
1746477243373521700,7.717521728515625,-0.9627939884882419,-0.2630424491435289,-6.598984423536062
1746477243383500500,7.72750048828125,-0.8982211977474391,-0.34506957496702667,-6.8906643536210055
1746477243393479700,7.737479736328125,-0.840005155622214,-0.33639176299273965,-7.125893497687578
1746477243403458600,7.74745849609375,-0.970483373947069,-0.32566169466376305,-7.258759999388456
1746477243413437700,7.757437744140625,-1.2342309756852685,-0.4722480941593647,-7.148106498539447
1746477243423416600,7.76741650390625,-1.5148510209649801,-0.7543506330817937,-6.899885770952701
1746477243433395700,7.777395751953125,-1.6697170268975197,-0.9803723883420229,-6.567726530963182
1746477243443374600,7.78737451171875,-1.6847253570675849,-1.114277585440874,-6.325506505095959
1746477243453353500,7.797353515625,-1.4705292102880776,-1.0487345614284276,-6.234712719970942
1746477243463332400,7.807332275390625,-1.0593098775871097,-0.7548626742571591,-6.312443025383353
1746477243473311500,7.8173115234375,-0.6185258660972118,-0.34131986704468725,-6.387534798985719
1746477243483290400,7.827290283203125,-0.2862269253760576,0.09406126248836517,-6.228098270267248
1746477243493269500,7.83726953125,-0.12739844555333257,0.3808241944372654,-5.931552779972553
1746477243503248400,7.847248291015625,-0.13427344588935375,0.38418110364973546,-5.53861963006854
1746477243513227500,7.8572275390625,-0.230788458205387,0.19631226117312908,-5.133102892923355
1746477243523206400,7.867206298828125,-0.42851241280734537,-0.0016050971090793608,-4.830609307879209
1746477243533185500,7.877185546875,-0.6572295446313917,-0.06271744519770145,-4.572401147024333
1746477243543164400,7.887164306640625,-0.8865238918215036,0.020818916144967076,-4.18985728918761
1746477243553143600,7.8971435546875,-0.9657697894286363,0.12963117304146288,-3.788281690883636
1746477243563122400,7.907122314453125,-1.0741541763018816,0.2608750419765711,-3.2713626803487537
1746477243573101600,7.9171015625,-1.1719652197778225,0.3192079884797335,-2.674159003743529
1746477243583080400,7.92708056640625,-1.1910732403516768,0.30333354299962517,-1.9605004465341567
1746477243593059600,7.9370595703125,-1.2478659716755152,0.08378361410200595,-1.1771832466870547
1746477243603038500,7.94703857421875,-1.2902327027618885,-0.2477496029436588,-0.6024912616193294
1746477243613017600,7.957017578125,-1.3277730366051197,-0.6523761132508515,-0.16516425871551035
1746477243622996500,7.96699658203125,-1.1517886931896208,-1.019669794985652,0.24923253497779368
1746477243632975600,7.9769755859375,-1.057378471133113,-1.3307944302529096,0.493866636249423
1746477243642954500,7.98695458984375,-1.083655579618737,-1.5192875421077012,0.7311790163308381
1746477243652933600,7.99693359375,-1.059213285344839,-1.6713018118709324,1.178400221261382
1746477243662912500,8.00691259765625,-0.9553923339296132,-1.661349157655239,1.6639251456230877
1746477243672891600,8.0168916015625,-0.7785960896093398,-1.4937965424984692,2.008030843994021
1746477243682870500,8.02687060546875,-0.6272796659171581,-1.3050485790997743,2.25965991871953
1746477243692849700,8.036849609375,-0.508006732217595,-1.054047280883789,2.468126143544912
1746477243702828300,8.046828369140625,-0.40562954986989497,-0.7618412810981273,2.6385107672572135
1746477243712807400,8.056807373046874,-0.38512802911102767,-0.45755262933075425,2.76826585893929
1746477243722786300,8.066786376953125,-0.37493857046477497,-0.11330196953117846,2.8649826043725013
1746477243732765400,8.076765380859374,-0.4801548486959189,0.20122750574350357,3.0529286037385464
1746477243742744300,8.086744384765625,-0.595190583217144,0.45241117478907106,3.209960409402847
1746477243752724500,8.096724365234374,-0.6435691219389438,0.743823978370428,3.3871278251230716
1746477243762702600,8.10670263671875,-0.7168885521065443,0.9531734157711267,3.514334985888004
1746477243772682500,8.1166826171875,-0.8220458666920661,1.0714292083173989,3.5232577125340696
1746477243782661400,8.126661376953125,-0.9482587557226418,1.1950731236428023,3.4542210011869665
1746477243792640500,8.136640625,-1.0550643489718436,1.3090747658759354,3.371167454925179
1746477243802619400,8.146619384765625,-1.1229003792922942,1.5212246476501226,3.271291368678212
1746477243812598500,8.1565986328125,-1.1520301007300615,1.8372335478276014,3.200682293447852
1746477243822577400,8.166577392578125,-1.1489420715868472,2.249415588080883,3.068507281142473
1746477243832556500,8.176556640625,-1.1044804140478373,2.7586487202882766,2.914952211678028
1746477243842535400,8.186535400390625,-1.1163853713750838,3.2463591719955205,2.8196681293964385
1746477243852514600,8.1965146484375,-1.2249158887207507,3.650259121593833,2.85390649908483
1746477243862493400,8.206493408203125,-1.3683768496721982,4.0148552348077295,2.842370375069976
1746477243872472600,8.21647265625,-1.484063668513298,4.346692987757921,2.718943317365646
1746477243882451500,8.226451416015625,-1.5819611481636762,4.640517528656125,2.7225755363881587
1746477243892430600,8.2364306640625,-1.7680232334792614,4.813469957029819,2.929358922693133
1746477243902409500,8.246409423828124,-1.9569968223273753,4.922610715228319,3.1208611532360315
1746477243912388600,8.256388671875,-2.0080828664422032,5.187586762782931,3.0787410903871057
1746477243922367500,8.266367431640624,-1.9066227258741855,5.657436563628911,2.8654665884971617
1746477243932346600,8.2763466796875,-1.7850883500486612,5.991540507945418,2.7957436484515665
1746477243942325500,8.286325439453124,-1.7691665582954883,5.908719601395726,3.0102865628421305
1746477243952304600,8.2963046875,-1.7197170293413102,5.5821524823248385,3.157630502706766
1746477243962283500,8.306283447265624,-1.6050748972475528,5.114011823484301,3.1349644973903894
1746477243972262700,8.3162626953125,-1.5634049162536858,4.364602738457918,3.162072869068384
1746477243982241500,8.326241455078126,-1.4256547341644763,3.6087411162912844,3.1194226448655127
1746477243992220700,8.336220703125,-1.1386357816278934,3.099757574930787,2.876460276198387
1746477244002199300,8.34619921875,-0.734940999212861,2.8501626363813877,2.663510183957219
1746477244012178400,8.356178466796875,-0.27687106800973416,2.875948819544911,2.624126852595806
1746477244022157300,8.3661572265625,0.11392682343125343,3.1678385929882524,2.8915830265283584
1746477244032136400,8.376136474609375,0.3613485095947981,3.585947685202956,3.245616244673729
1746477244042115300,8.386115234375,0.378262892581895,3.8934932929396626,3.538599658572674
1746477244052094500,8.396094482421875,0.33566125676110387,4.120094893914461,3.7039457035958763
1746477244062073300,8.4060732421875,0.4464274242043495,4.180395925620198,3.6259319050669667
1746477244072052500,8.416052490234375,0.6001221944004297,4.093264754655957,3.3984739795237777
1746477244082031600,8.426031494140625,0.7322855162680149,3.8339217445522547,3.026639731749892
1746477244092010500,8.436010498046874,0.9101065735913813,3.453534772488475,2.536525726032257
1746477244101989600,8.44598974609375,1.0367490862108766,2.9741800611943003,2.0189239939302204
1746477244111968500,8.455968505859374,1.0688492748267948,2.4317320571273564,1.590111721393466
1746477244121947600,8.46594775390625,1.0034452208936213,1.77707104780972,1.3762790010988712
1746477244131926500,8.475926513671874,0.9044237056493759,1.1818377944946288,1.2679805389434098
1746477244141905700,8.48590576171875,0.8633405846327543,0.5855313589900731,1.1810106960207223
1746477244151884500,8.495884521484374,0.881860576185584,-0.0073357497155666345,1.0770534779399632
1746477244161863700,8.50586376953125,0.9522603925794363,-0.594028553700447,0.8671446530908345
1746477244171842600,8.515842529296876,1.1988504502244293,-1.0239099167734385,0.6803846486389636
1746477244181821700,8.52582177734375,1.3269997141450642,-1.4866443326562642,0.5994225216984749
1746477244191800600,8.535800537109376,1.5642029347635804,-1.8529758913606404,0.467571919041872
1746477244201779700,8.54577978515625,1.8117695823557673,-2.1819442263543603,0.3342845615804195
1746477244211758600,8.555758544921876,2.089455620010197,-2.4095740013331173,0.08709902226030826
1746477244221738500,8.565738525390625,2.44241609435752,-2.416978724631667,0.08133505190610885
1746477244231717600,8.575717529296876,2.332258706462383,-2.7350638465613124,0.009856792625784873
1746477244241696500,8.585696533203125,2.407103227305412,-2.6958874359488485,-0.49837972975969314
1746477244251675600,8.595675537109376,2.3951300270475446,-2.7136083860784765,-0.8970534691423178
1746477244261654500,8.605654541015625,2.3148354241050777,-2.7088620683342217,-1.140900803950429
1746477244271633700,8.615633544921875,2.130356224066764,-2.5984166572779417,-1.5051841979533434
1746477244281612500,8.625612548828125,1.7270333437040448,-2.515740127635002,-1.862236471658945
1746477244291591400,8.63559130859375,1.1853300205245614,-2.3801515074938533,-2.020222801569104
1746477244301570300,8.6455703125,0.6623464492537081,-2.3528350460231304,-1.9853128162294624
1746477244311549400,8.655549560546875,0.3857663270145654,-2.294413836714625,-2.1123738465219737
1746477244321528300,8.6655283203125,0.2102596841134131,-2.147448082512617,-2.3390818304806946
1746477244331507500,8.675507568359375,0.1655811689533293,-2.09762811281085,-2.493704821437597
1746477244341486000,8.685486083984374,0.16501169850230216,-1.9981798965871334,-2.571402978146076
1746477244351465000,8.69546484375,0.14110650677978992,-1.711376048105955,-2.826090271398425
1746477244361444000,8.705444091796876,-0.038099867422133685,-1.428050104868412,-3.1024943064182997
1746477244371423000,8.715423095703125,-0.2914263937152922,-1.1132552566558123,-3.401796986466646
1746477244381402000,8.725402099609376,-0.42046471543014047,-0.741447896888852,-3.778274676132202
1746477244391381000,8.735381103515625,-0.5054283330969512,-0.4076192623823881,-4.114010313303768
1746477244401360100,8.745360107421876,-0.5520310943178832,-0.15982874290645122,-4.515012495633959
1746477244411339000,8.755339111328125,-0.5381488455682992,0.10286766927838326,-4.984067346709966
1746477244421318100,8.765318115234376,-0.539363482055068,0.31494097868502136,-5.439191287589073
1746477244431297000,8.775297119140625,-0.5964880756817758,0.34484044238626954,-5.805554410475492
1746477244441276200,8.785276123046875,-0.692858930286765,0.1815449001520872,-6.1004123860746615
1746477244451255000,8.795255126953125,-0.7577718397021294,-0.0708937373906374,-6.434863536393642
1746477244461234200,8.805234130859375,-0.6426793334923684,-0.22579320720136165,-6.886182824292779
1746477244471212800,8.815212890625,-0.5975799625717103,-0.28134967472851274,-7.253557754570245
1746477244481192000,8.82519189453125,-0.7581077205929905,-0.37337972365021704,-7.437227391791343
1746477244491170800,8.8351708984375,-1.1058230608284472,-0.571872251471877,-7.376902979210018
1746477244501150000,8.84514990234375,-1.390167825719714,-0.8502882108360529,-7.134873507478833
1746477244511128800,8.85512890625,-1.5374365083910524,-1.068929792717099,-6.862352451372146
1746477244521108000,8.86510791015625,-1.6157688713498413,-1.1750988416284323,-6.658772829544544
1746477244531086800,8.8750869140625,-1.6583318556606768,-1.1943746199846268,-6.444095475119352
1746477244541066000,8.88506591796875,-1.5102864895284176,-1.046430376139283,-6.213962192887068
1746477244551044900,8.895044921875,-1.2107494162023067,-0.7278846509605645,-6.049540861493349
1746477244561024000,8.90502392578125,-0.9020523003429174,-0.325544205763936,-5.887555817335843
1746477244571003000,8.9150029296875,-0.7043943236492574,-0.036406361377239224,-5.586275699734688
1746477244580982000,8.92498193359375,-0.6473356348656117,0.1336123516321182,-5.26381250885129
1746477244590961000,8.9349609375,-0.7787601941298693,0.10079963083267211,-4.853505614820122
1746477244600940000,8.94493994140625,-0.9758311647158115,-0.008136544704437256,-4.46785414635688
1746477244610919000,8.9549189453125,-1.1233978074204176,-0.02838964366018772,-4.183486877372861
1746477244620898000,8.96489794921875,-1.1872072125732898,-0.017431027272343635,-3.925108328387141
1746477244630877000,8.974876953125,-1.2532184386193752,0.12952069840431213,-3.5065286960512396
1746477244640856000,8.98485595703125,-1.44944535959661,0.290426130631566,-3.013911183080077
1746477244650835000,8.9948349609375,-1.5772452255576848,0.3637988253563642,-2.468568042093515
1746477244660814000,9.00481396484375,-1.6225094316512345,0.36670974436700343,-1.9062123915076254
1746477244670793000,9.01479296875,-1.6635101350814103,0.17220482487678526,-1.3781594080179929
1746477244680772000,9.024772216796874,-1.6404057383477686,-0.08753156845867634,-0.9471277058660984
1746477244690751000,9.0347509765625,-1.5985107164263723,-0.3561930265277624,-0.5698457140803337
1746477244700730000,9.044730224609374,-1.571422218492627,-0.7212637715160847,-0.2499672789931297
1746477244710709000,9.054708984375,-1.4786796373873947,-1.024057800811529,-0.030177111598849296
1746477244720687900,9.06468798828125,-1.332739134579897,-1.191393558347225,0.15547873100340365
1746477244730666800,9.074666748046875,-1.144175222511217,-1.3087386657893656,0.5109498729974031
1746477244740646000,9.08464599609375,-1.0014355615716426,-1.2771557790458201,0.909680895525217
1746477244750624800,9.094624755859375,-0.838778317240998,-1.1481436146855353,1.2969354152709245
1746477244760604000,9.10460400390625,-0.7230980012059212,-0.9702812024384736,1.7377034985393285
1746477244770583000,9.1145830078125,-0.6469657055746764,-0.7501572730451822,2.0948872896701096
1746477244780563000,9.12456298828125,-0.5853998415648937,-0.48538989980518815,2.38731949942708
1746477244790541800,9.134541748046875,-0.5358025747030973,-0.17075871772170065,2.6915309943050145
1746477244800521000,9.14452099609375,-0.5212888961821794,0.17525135296583175,2.981258036756515
1746477244810499800,9.154499755859375,-0.573349995874241,0.5121703547030687,3.377622330152988
1746477244820479000,9.16447900390625,-0.6332224269043654,0.8064829713791608,3.6435628388255834
1746477244830457900,9.174457763671874,-0.682077424031496,1.0063491256415844,3.855250363785028
1746477244840437000,9.18443701171875,-0.6606196985263377,1.130236786594987,3.999588692092895
1746477244850415900,9.194415771484374,-0.651370151078701,1.2519342440277337,4.119320986932516
1746477244860395000,9.20439501953125,-0.6339092401247471,1.2962439258754253,4.202565671852231
1746477244870374000,9.214373779296874,-0.5456669661134481,1.3558990608930588,4.168423748275638
1746477244880353000,9.22435302734375,-0.41440439247787,1.5283990693241356,4.052345299768447
1746477244890332000,9.234331787109374,-0.2390758826225996,1.8396821100234984,3.9242479121655225
1746477244900311000,9.24431103515625,-0.10393266816139221,2.2785201020121573,3.8196827913194893
1746477244910290000,9.2542900390625,-0.10467618000507355,2.781018373006582,3.764195297375321
1746477244920269000,9.26426904296875,-0.13774199878275395,3.2915497283309696,3.724990245190263
1746477244930248000,9.274248046875,-0.2134516120225191,3.7618706538200377,3.6858442297160625
1746477244940227000,9.28422705078125,-0.3161135295957327,4.147796847571432,3.5583670198380943
1746477244950206000,9.2942060546875,-0.4810952713511884,4.626479943214356,3.45624753857851
1746477244960185000,9.30418505859375,-0.6424912635743618,4.946306063592433,3.5615742914468047
1746477244970164000,9.3141640625,-0.9448258586645126,4.98115116700232,3.829433200961351
1746477244980143000,9.32414306640625,-1.2028707187164573,4.953487499529123,3.920288945406675
1746477244990122000,9.3341220703125,-1.2635019322246313,5.039070272007584,3.648684419623017
1746477245000101000,9.34410107421875,-1.0931944654017687,5.304967526060342,3.1871728235334156
1746477245010079700,9.354079833984375,-0.8835083433926105,5.511061761057377,2.8721026655107735
1746477245020059000,9.364058837890624,-0.7487070742368698,5.3876534080535174,2.8941040694385767
1746477245030037800,9.374037841796875,-0.5892371547054499,5.0598482716202735,2.8307220228523016
1746477245040017000,9.384016845703124,-0.38142500987462696,4.862203592799603,2.553812376397848
1746477245049995800,9.393995849609375,-0.2797106022845954,4.649613858303427,2.3791361929714676
1746477245059975000,9.403974853515624,-0.2226326973438263,4.386121327304839,2.2942793966799973
1746477245069953800,9.413953857421875,-0.2005892078399658,4.164748859155178,2.2864754449307916
1746477245079933000,9.423932861328124,-0.25441841318309305,4.004342024099826,2.367412437430024
1746477245089912000,9.433912109375,-0.3035574148833752,4.031711677062511,2.43881295529902
1746477245099891000,9.443890869140626,-0.37420667599365115,4.207439999890327,2.5930834795564413
1746477245109870000,9.4538701171875,-0.44140112047493457,4.300727939918637,2.765357862538099
1746477245119849000,9.463848876953126,-0.5159234236262739,4.297250619196891,2.784038597610593
1746477245129828000,9.473828125,-0.4863765727549791,4.182963730281591,2.5631436838448045
1746477245139807000,9.483806884765626,-0.32958383654356,3.9454789162427186,2.1149030727386475
1746477245149786000,9.4937861328125,-0.032445056530833245,3.582810556221008,1.5742057117313146
1746477245159765000,9.503764892578126,0.25157749066874385,3.1420506562590598,1.0448872383505106
1746477245169744100,9.513744140625,0.5195207174658775,2.676335763260722,0.6600017858237027
1746477245179723000,9.523722900390625,0.7679822680711745,2.1875509603202343,0.34505437739789485
1746477245189702100,9.5337021484375,1.0283318248689175,1.6526111399263144,0.1623918713927269
1746477245199681000,9.543680908203125,1.1721499286949635,1.0810364100962877,0.15792261702418325
1746477245209660200,9.55366015625,1.195592179080844,0.4864116440683603,0.18466741608679293
1746477245219639000,9.56363916015625,1.1704565687805413,-0.061438511303067204,0.27890578870773314
1746477245229618200,9.5736181640625,1.1282768846988678,-0.5276537550389766,0.40790100193321704
1746477245239597000,9.58359716796875,1.1093963892705738,-0.9913269130766391,0.5323609098166227
1746477245249576200,9.593576171875,1.1253099977172911,-1.4377765491127967,0.5575035343796014
1746477245259554800,9.603554931640625,1.1696272783495485,-1.8412036205023525,0.6155296068906784
1746477245269534000,9.613533935546876,1.288428283688426,-2.2286814276099203,0.6246762054204941
1746477245279512800,9.623512939453125,1.5348036756694317,-2.4471008911728855,0.49978550490438933
1746477245289492000,9.633491943359376,1.8617703154519198,-2.4891087258189915,0.6747662242352962
1746477245299470800,9.643470947265625,1.7541987062662838,-2.8896126032382248,1.0826198798954487
1746477245309450000,9.653449951171876,1.8748636057808994,-2.796023634436726,0.8492623749196528
1746477245319428900,9.663428955078125,2.2562211764425038,-2.8716882394909855,0.5297656326264143
1746477245329408000,9.673407958984376,2.401659282685816,-2.911801638692617,0.24650457131862638
1746477245339386600,9.68338671875,2.0227137416020033,-3.0279853011399505,-0.08778642000257969
1746477245349366800,9.69336669921875,1.7171885337769983,-2.9306296732813117,-0.5666863732665777
1746477245359345700,9.703345703125,1.240902562403679,-2.7869325654864308,-0.9694839145809412
1746477245369324800,9.71332470703125,0.6962023954957723,-2.6694635394036768,-1.20250005877316
1746477245379303700,9.7233037109375,0.28684841827526686,-2.5231021808356044,-1.3486650179862976
1746477245389282800,9.73328271484375,-0.0630060528807342,-2.323581479009986,-1.5132634595125913
1746477245399261700,9.74326171875,-0.31037703177034853,-2.057210177704692,-1.6447697787761688
1746477245409240800,9.75324072265625,-0.3900368439406156,-1.770382948347926,-1.8244319339215755
1746477245419219700,9.7632197265625,-0.4890471071384847,-1.6347265236675739,-1.949734722369909
1746477245429198800,9.77319873046875,-0.5071664089359342,-1.4781220035046339,-2.207296109753847
1746477245439177700,9.783177734375,-0.41887130875885487,-1.2409668598115444,-2.522515905380249
1746477245449156900,9.793156982421875,-0.22142156798839568,-1.0765496200710534,-2.7852140711307523
1746477245459135700,9.8031357421875,-0.09318141091391444,-0.8346008123606443,-3.03456994022727
1746477245469115000,9.813114990234375,-0.0523889434069395,-0.5428308659046888,-3.2386043200850483
1746477245479093800,9.82309375,-0.11759922833368182,-0.24440789130032062,-3.37396322312355
1746477245489073000,9.833072998046875,-0.19116773789152502,0.001460135680437088,-3.5114456941872834
1746477245499051800,9.8430517578125,-0.2717280060328543,0.14955752426087857,-3.6789416107207535
1746477245509031000,9.853031005859375,-0.3864332664906978,0.211844176825881,-4.025281351754069
1746477245519009800,9.863009765625,-0.43184462596997614,0.19455226576328277,-4.625706913015246
1746477245528989000,9.872989013671875,-0.4305740215122699,0.06552373479008675,-5.169246219450235
1746477245538967800,9.8829677734375,-0.2805250604726374,-0.09350362860560417,-5.796070542815327
1746477245548946700,9.89294677734375,-0.21249825682044027,-0.1869032123148441,-6.375656145143509
1746477245558925600,9.902925537109375,-0.2667038942605257,-0.24393033691644667,-6.681638156825303
1746477245568904700,9.91290478515625,-0.5612199245542288,-0.5056617034614086,-6.720206080150604
1746477245578883600,9.922883544921875,-0.9025001902408898,-0.8842600385427475,-6.56592152736783
1746477245588862700,9.93286279296875,-1.1443757865846156,-1.2718079882770776,-6.421618854895233
1746477245598841600,9.942841552734375,-1.3320732180170713,-1.5117133074611424,-6.352848101007938
1746477245608820700,9.95282080078125,-1.3649663105763494,-1.5270236893177032,-6.390391941982507
1746477245618799600,9.962799560546875,-1.185138589605689,-1.2735989633470772,-6.466869616985321
1746477245628778800,9.97277880859375,-0.8130522667668759,-0.8398340368390083,-6.446459866163134
1746477245638757600,9.982757568359375,-0.4665045820713043,-0.3486953642487526,-6.377541812759637
1746477245648736800,9.99273681640625,-0.2955780335020274,-0.08085457491278648,-6.193415079420805
1746477245658715600,10.002715576171875,-0.2036567056518048,-0.12231354350447654,-5.817393901351094
1746477245668694800,10.01269482421875,-0.2028190857838839,-0.2937392007023096,-5.458398676884174
1746477245678673700,10.022673583984375,-0.3528400628380477,-0.4982061267584562,-5.13212323423624
1746477245688652800,10.03265283203125,-0.5878091677289455,-0.6085860713630914,-4.764502804765105
1746477245698631700,10.042631591796875,-0.884635886117816,-0.48879941598773,-4.37222724198699
1746477245708610800,10.05261083984375,-1.1947475449502467,-0.1749526622802019,-3.942176367565989
1746477245718589700,10.062589599609375,-1.4919715190283953,0.1615548360466957,-3.4167215838760137
1746477245728568800,10.07256884765625,-1.7111135977774858,0.45075639331936834,-2.780858214008808
1746477245738547700,10.082547607421875,-1.771269083532691,0.6865723973631859,-1.9980542243808508
1746477245748526800,10.09252685546875,-1.902755529052019,0.7221855625361203,-1.293271632066369
1746477245758505700,10.102505615234374,-1.9518571213513611,0.5429261429727077,-0.8396504969656466
1746477245768484900,10.11248486328125,-1.9630885633312165,0.17379706250429153,-0.4967746326506138
1746477245778463700,10.122463623046874,-1.770741260266304,-0.24848960765600203,-0.24719956784546374
1746477245788442600,10.132442626953125,-1.5870593480855226,-0.7266337741166353,-0.09637947630286216
1746477245798421500,10.14242138671875,-1.5232118759445845,-1.102770687520504,0.023978256958723066
1746477245808400600,10.152400634765625,-1.5261469064831732,-1.3036854740530253,0.23069325420260428
1746477245818379500,10.162379638671876,-1.5206658447235821,-1.3971031779408454,0.6437134988456964
1746477245828358700,10.172358642578125,-1.3733067072898149,-1.3242115447312592,1.111924300312996
1746477245838337500,10.182337646484376,-1.1441022303402424,-1.2003203766465187,1.5603279930263756
1746477245848316700,10.192316650390625,-0.9193080441135912,-1.0694441719800234,1.901071521487832
1746477245858295600,10.202295654296876,-0.8056424289017915,-0.9042623776078224,2.1220389159679414
1746477245868274700,10.212274658203125,-0.7358645437985658,-0.6713041010826826,2.397303133302927
1746477245878253800,10.22225390625,-0.7359119631368667,-0.39440965219736096,2.6561814485043285
1746477245888232700,10.232232666015625,-0.7087351293325423,-0.10262976886928081,2.90334828312397
1746477245898211800,10.2422119140625,-0.6941419558346271,0.20981588586866853,3.1827421476095914
1746477245908190700,10.252190673828125,-0.6920237215716392,0.49158524731397624,3.5508220112860203
1746477245918169900,10.262169921875,-0.6690874479465186,0.7123989125370979,3.861645617780089
1746477245928148700,10.272148681640624,-0.613203282834962,0.896161488738656,4.145780539312958
1746477245938128000,10.2821279296875,-0.5393208119571209,1.0600018053740263,4.384782187655568
1746477245948106800,10.292106689453124,-0.4482610693722963,1.192262742397189,4.501666107326746
1746477245958086000,10.3020859375,-0.3179891872745007,1.3758102145433424,4.473575738874078
1746477245968064800,10.312064697265624,-0.195831199657917,1.6438047331362962,4.338485131382942
1746477245978044700,10.322044677734375,-0.06119125854372978,2.007673701119423,4.204144465476274
1746477245988023800,10.33202392578125,0.04705576568543911,2.498686116981506,3.9540100132226943
1746477245998002700,10.342002685546875,0.11638006180226802,2.968347701779008,3.7284208041608333
1746477246007981800,10.35198193359375,0.10271394002139568,3.3713165080070495,3.6245202847033737
1746477246017960700,10.361960693359375,-0.02185235084593296,3.7702854309439657,3.5539100404292343
1746477246027939800,10.37193994140625,-0.2757441828716546,4.1811201482415195,3.5918893502116203
1746477246037918700,10.381918701171875,-0.5981571048725396,4.504013839496672,3.737071143606305
1746477246047897900,10.39189794921875,-0.9931225643217563,4.673290209706128,3.956829746818542
1746477246057876700,10.401876708984375,-1.4298036705374717,4.742291849739849,4.201981149962545
1746477246067856000,10.41185595703125,-1.7053712547332047,4.873160747882723,4.180480681294203
1746477246077834800,10.421834716796875,-1.7020055776923895,5.235753704580664,3.812195650434494
1746477246087813600,10.431813720703126,-1.5745879890471697,5.59542697443962,3.375177859610319
1746477246097792500,10.44179248046875,-1.3854016342312097,5.649781664961576,3.1745769613325594
1746477246107771600,10.451771728515626,-1.2679179951012134,5.27196249755919,3.1608950574606656
1746477246117750500,10.46175048828125,-1.0673422312647103,4.875179686489701,2.829282929959893
1746477246127729700,10.471729736328125,-0.8200758817933499,4.673715449380874,2.3943121347934007
1746477246137708500,10.48170849609375,-0.6370199925564229,4.441171014353633,2.179151380765438
1746477246147687700,10.491687744140625,-0.5182014515608548,4.208352438560128,2.030502788043022
1746477246157666600,10.50166650390625,-0.4563789093762636,4.015155094537139,1.9832757574439048
1746477246167645700,10.511645751953125,-0.4385059104900807,3.9037808781981465,1.9766057781606912
1746477246177624600,10.52162451171875,-0.4687148054666817,3.9984599803239105,1.9747212795883415
1746477246187603700,10.531603759765625,-0.5931476792126894,4.140970508682727,2.0835154163062573
1746477246197582800,10.541582763671874,-0.7277455347508192,4.289568248000741,2.1582927171319723
1746477246207561700,10.551561767578125,-0.7542424965322018,4.24572326105535,2.1484984683483836
1746477246217540900,10.561540771484376,-0.6775801126122474,4.0492122624397275,1.9147516717940567
1746477246227519700,10.571519775390625,-0.4377303230077028,3.6902304819762706,1.5359353100478648
1746477246237499000,10.581498779296876,-0.173021255826205,3.2174107254087922,1.171531504535675
1746477246247477800,10.591477783203125,0.07544263286665082,2.6894460047245023,0.8175047161310911
1746477246257457000,10.601456787109376,0.31489538597762584,2.129861572417617,0.5591776050716638
1746477246267435800,10.611435791015625,0.5230325249791145,1.6217647507637738,0.36504970220029354
1746477246277415000,10.621414794921876,0.6407774453938007,1.0592384197860956,0.2226578317850828
1746477246287393800,10.631393798828125,0.6800618464253843,0.5030956523656844,0.1806558423578739
1746477246297373000,10.641373046875,0.6699491793423891,-0.05338496870696544,0.20639993994534014
1746477246307351800,10.651351806640625,0.6270780058652162,-0.6514321103990077,0.2922135985702276
1746477246317331000,10.6613310546875,0.6620780075758695,-1.1043103181779383,0.3606184417545795
1746477246327309800,10.671309814453124,0.7155348724752664,-1.491204772439599,0.40992403219342227
1746477246337289200,10.681289306640625,0.8745682272203266,-1.8834242211163044,0.4303168318808078
1746477246347268000,10.69126806640625,1.1917432485677302,-2.1448656648039814,0.400905443957448
1746477246357247200,10.701247314453125,1.4394899289019405,-2.4423440520346165,0.5381207885175943
1746477246367226000,10.71122607421875,1.637240552315116,-2.6777777787625787,0.5518704969286918
1746477246377205200,10.721205322265625,1.931219114731252,-2.8485476024001835,0.40705519875884055
1746477246387183900,10.731183837890624,2.5732985826343295,-2.9248037436068057,0.23283786501586437
1746477246397163000,10.7411630859375,2.7815269070506092,-3.0223844123929737,0.020054361513257027
1746477246407142000,10.751141845703126,2.7480890400901434,-2.9989328096568584,-0.26710546079874037
1746477246417121000,10.76112109375,2.65576819152832,-2.885074375286698,-0.5290829110592603
1746477246427100000,10.771099853515626,2.422916882508993,-2.574814832416177,-0.7329243986934423
1746477246437079000,10.7810791015625,2.015161426526308,-2.165360171300173,-0.7934750212460756
1746477246447058000,10.791057861328126,1.600934144181013,-1.907399555465579,-0.8569991066515446
1746477246457037000,10.801037109375,1.2647843732506037,-1.6322797150373458,-0.9511515545547008
1746477246467016000,10.811015869140626,0.9585118541896342,-1.4155647173047066,-1.187926759019494
1746477246476995000,10.8209951171875,0.7227639469459652,-1.3681652527481316,-1.3975287098765372
1746477246486974000,10.830973876953125,0.4186092968218028,-1.466400001528859,-1.5853069514602423
1746477246496953000,10.840953125,0.1818628800600767,-1.5241864200651645,-1.8132511992156504
1746477246506932000,10.850931884765625,0.03662921034768223,-1.5036100805044172,-1.96234052144289
1746477246516911000,10.8609111328125,-0.13164894260466098,-1.3779782062321901,-2.2055425440847873
1746477246526890000,10.870889892578125,-0.30195465586185455,-1.1031254923075438,-2.6008710646927353
1746477246536869000,10.880869140625,-0.4547638753950596,-0.6761907040804624,-2.9879367838680744
1746477246546848000,10.890847900390625,-0.6009785189688205,-0.23111294091939924,-3.3262165525645018
1746477246556827100,10.9008271484375,-0.675632924067229,0.14338964928090572,-3.5781881571173666
1746477246566806000,10.910805908203125,-0.6375571681730449,0.5092915843963622,-3.818903039118647
1746477246576785200,10.92078515625,-0.5180062212496995,0.7504647315591573,-4.044512998707592
1746477246586764000,10.930763916015625,-0.4411813402444124,0.73020578738451,-4.184116991969943
1746477246596743200,10.9407431640625,-0.38137759053632614,0.42883156175911424,-4.395361157076061
1746477246606722000,10.95072216796875,-0.2971165681809187,0.0315665201306343,-4.774672608862817
1746477246616701200,10.960701171875,-0.1437345171958208,-0.16606266885995863,-5.259007738918066
1746477246626681000,10.97068115234375,0.03608385142460465,-0.09107610919773577,-5.759849474877119
1746477246636660200,10.98066015625,0.02200491105914116,0.06284077931642532,-6.114600485903025
1746477246646639000,10.99063916015625,-0.23067849502488968,0.20370997020900247,-6.102526601749658
1746477246656618200,11.0006181640625,-0.5259462204687297,0.1881155107140541,-5.853891448143124
1746477246666597000,11.01059716796875,-0.7259077979296445,0.0004021510601043701,-5.581107357186078
1746477246676576300,11.020576171875,-0.7937093414586037,-0.26493746910989285,-5.411511838024854
1746477246686555000,11.030554931640625,-0.6574788432173431,-0.5288590391755104,-5.4115837342172854
1746477246696534000,11.040533935546875,-0.428947224028036,-0.657239335373044,-5.507888391718268
1746477246706513000,11.050512939453125,-0.25789178838208315,-0.5788602106630801,-5.617742851144075
1746477246716492000,11.060491943359375,-0.18942893140017986,-0.38611119492948054,-5.611572638076543
1746477246726471000,11.070470947265624,-0.28964046014659106,-0.212196643525362,-5.406446371328831
1746477246736450000,11.080449951171875,-0.5775887294225395,-0.1551677653580904,-5.0734956887006755
1746477246746429000,11.090428955078124,-0.9849386733442544,-0.23230361200869082,-4.651600940467417
1746477246756408000,11.100407958984375,-1.4306887828089296,-0.4474778100401163,-4.13279713909924
1746477246766387000,11.110386962890624,-1.8132962074011563,-0.7226169396907091,-3.6694524823635812
1746477246776366000,11.120365966796875,-2.0838129379481076,-0.8975853840619326,-3.3194767229154705
1746477246786345000,11.130344970703124,-2.2033803976148367,-1.0171639496445655,-2.992859042701125
1746477246796324000,11.140323974609375,-2.213674412614107,-1.0921113463401795,-2.62753227712512
1746477246806303000,11.150302978515626,-2.1591075406461955,-1.0819599546819925,-2.2701532556831836
1746477246816282000,11.1602822265625,-2.018538794004917,-1.0391863963603973,-1.8940034827977419
1746477246826261000,11.170260986328126,-1.899232615622878,-1.0992021813839674,-1.4973744009852408
1746477246836240100,11.180240234375,-1.792780073595047,-1.234469899007678,-1.1712497649848461
1746477246846219000,11.190218994140626,-1.6338018100380896,-1.429029179033637,-0.88561671384871
1746477246856198100,11.2001982421875,-1.4276637358993292,-1.6392577373564243,-0.6311158830791711
1746477246866177000,11.210177001953125,-1.2207464940816164,-1.8076257605493067,-0.4291939653307199
1746477246876156200,11.22015625,-1.011526162953302,-1.9175497780799864,-0.24110066644847392
1746477246886135000,11.230135009765625,-0.8288689907103777,-1.9917478177130221,-0.09121697897315025
1746477246896114200,11.2401142578125,-0.7124456742882728,-1.96737617752254,0.10811433776021002
1746477246906093000,11.250093017578125,-0.7071539245557039,-1.8551871376693247,0.33475802431106566
1746477246916072200,11.260072265625,-0.6642599547248333,-1.6905536248296498,0.5490840810805558
1746477246926051000,11.270051025390625,-0.645692616898939,-1.3962959532111883,0.826033475023508
1746477246936030000,11.280030029296874,-0.6855885739576071,-1.0721025775343178,1.1142319927334785
1746477246946008800,11.2900087890625,-0.7039653576474636,-0.7283592827349901,1.3645914859145878
1746477246955988000,11.299988037109374,-0.7610982807110994,-0.3774643626153469,1.581157430565357
1746477246965966800,11.309966796875,-0.8250187450230121,0.005331424155831337,1.7845003210276364
1746477246975946000,11.319946044921876,-0.8759105817399918,0.41606852629780766,2.0612667596191168
1746477246985924900,11.3299248046875,-0.9446801665835082,0.7288298228561878,2.3642536811381576
1746477246995904000,11.339904052734376,-0.9874707491051405,0.9285200360298156,2.6283915243029594
1746477247005883000,11.3498828125,-0.9739373868584632,1.0428414117366074,2.873558125016093
1746477247015862000,11.359862060546876,-0.8799047659426927,1.054006364351511,3.043365241101384
1746477247025841000,11.3698408203125,-0.8071002264946698,1.006267877098918,3.1660189763456583
1746477247035820000,11.379820068359376,-0.7392220375329256,0.9673042324542999,3.1934260387092825
1746477247045799000,11.389798828125,-0.6766401283483952,1.0075374586433172,3.112170481780171
1746477247055778000,11.399778076171875,-0.5675187324374914,1.1417068596363067,3.0649802760601044
1746477247065757000,11.4097568359375,-0.40456747359633444,1.4133020330697297,2.9509195971161124
1746477247075736000,11.419736083984375,-0.2992646861255169,1.8895991103589533,2.7937463371545075
1746477247085715000,11.42971484375,-0.257409996214509,2.3222312334448096,2.6703093425780535
1746477247095694000,11.439694091796875,-0.3111485275994986,2.717915727883577,2.5584365290671585
1746477247105673000,11.4496728515625,-0.31110702654533084,3.0605601215302944,2.4013415950387715
1746477247115652000,11.459652099609375,-0.3022048312306404,3.4059681346714497,2.222535764461756
1746477247125631000,11.469630859375,-0.29844577095806596,3.7293408416152,2.1356512617349623
1746477247135610000,11.479610107421875,-0.3489562071420252,4.070165034097433,2.165772259232402
1746477247145589000,11.489589111328126,-0.41188685669898983,4.373842275968194,2.231099594667554
1746477247155568000,11.499568115234375,-0.46614451658725736,4.635869995111227,2.364143206501007
1746477247165547000,11.509547119140626,-0.45666532510221003,4.980559630849958,2.3104075246602296
1746477247175526000,11.51952587890625,-0.3613976094335317,5.390140548694133,2.240128119775653
1746477247185505000,11.529505126953126,-0.3618161271065473,5.48712792776227,2.349935232928395
1746477247195484000,11.53948388671875,-0.3891084770493209,5.289635516893863,2.502452191516757
1746477247205463000,11.549463134765626,-0.3549963640891015,5.063577521276474,2.466225862881541
1746477247215442000,11.55944189453125,-0.33029286159574983,4.881652681896091,2.347579609712958
1746477247225421000,11.569421142578125,-0.3012561522036791,4.695318209379911,2.324640048152208
1746477247235400000,11.57939990234375,-0.27315701592266556,4.387551652368903,2.5040742397606373
1746477247245379800,11.5893798828125,-0.3440530914008617,3.9890041697144505,2.718683205124736
1746477247255359000,11.59935888671875,-0.4078953028447926,3.7670501022845504,2.892314263412356
1746477247265337900,11.609337890625,-0.49184901281669735,3.7465252006500958,3.09432444396615
1746477247275317000,11.61931689453125,-0.5438195846810937,3.6766795110076664,3.380698668858409
1746477247285295900,11.6292958984375,-0.4382826961934566,3.5405788496911526,3.502415415513515
1746477247295275000,11.63927490234375,-0.1936702222317457,3.4095717121213673,3.296041779053211
1746477247305254000,11.64925390625,0.08598375449478626,3.2974604136794805,2.929596823102236
1746477247315233000,11.65923291015625,0.3780617439866066,3.0807594444721937,2.5927596544295546
1746477247325212000,11.6692119140625,0.7124943357355892,2.8360142840415237,2.284132681196928
1746477247335191800,11.67919189453125,1.0548172423429787,2.5279455292135475,2.030939425894618
1746477247345170700,11.689170654296875,1.3266414022266864,2.170671137189865,1.8604191931039094
1746477247355149800,11.69914990234375,1.4904159601494669,1.7714613912343977,1.730691573950648
1746477247365128700,11.709128662109375,1.5713053141146898,1.2928846785753965,1.6830886957764624
1746477247375107800,11.71910791015625,1.5813734114035962,0.8255284481108188,1.6648066046327352
1746477247385086700,11.729086669921875,1.5073074737176297,0.3418938675403595,1.7441215488880872
1746477247395065900,11.73906591796875,1.4253481524333358,-0.1673667371958494,1.8146464529663324
1746477247405044700,11.749044677734375,1.3616978102996944,-0.6384077936530113,1.7845605267822742
1746477247415023900,11.75902392578125,1.3686223488658666,-1.046503441375494,1.6345295397907496
1746477247425002800,11.769002685546875,1.4521454123355448,-1.3730723140120507,1.5345722050011157
1746477247434982000,11.77898193359375,1.4993088761791586,-1.7252420763731002,1.4702666138291358
1746477247444960800,11.788960693359375,1.6593138524353503,-1.9609780009180307,1.2680822457522154
1746477247454940000,11.79893994140625,1.9395326234377919,-2.0516496209681034,1.319635322856903
1746477247464918800,11.808918701171875,1.9011926636494696,-2.3179881890475746,1.4281132332324982
1746477247474898000,11.81889794921875,2.0383017713561653,-2.2867951784044505,1.0824982993423937
1746477247484876800,11.828876708984374,2.090729000946879,-2.4048686001211403,0.7835679597377777
1746477247494856000,11.83885595703125,2.192118414366245,-2.3295523701131344,0.39199849940240383
1746477247504834800,11.848834716796874,1.9485130716204642,-2.3336031068086625,0.037027123624086375
1746477247514813700,11.858813720703125,1.531462840808928,-2.173894190889597,-0.29468086546659467
1746477247524792600,11.86879248046875,1.1059510711222886,-2.022140033367276,-0.5318494531631469
1746477247534771700,11.878771728515625,0.7047308621272445,-1.8863643662214278,-0.6053408058315515
1746477247544750600,11.88875048828125,0.39509003567695616,-1.6797253568232058,-0.7814134120523929
1746477247554729700,11.898729736328125,0.21773732651770114,-1.5421119528561829,-1.0419967776060104
1746477247564708600,11.90870849609375,0.06518412757217884,-1.408506615486741,-1.2919640565991402
1746477247574687700,11.918687744140625,-0.1922496879093349,-1.333856155911088,-1.5544354278564452
1746477247584666600,11.92866650390625,-0.34157515698000784,-1.1746277169853447,-1.9535767847508192
1746477247594645800,11.938645751953125,-0.38559564662277696,-0.965897872787714,-2.4572265638679265
1746477247604624600,11.948624755859376,-0.45598041157796976,-0.7550789473563432,-3.00698635225296
1746477247614603800,11.958603759765625,-0.540696045833081,-0.4136503592401743,-3.5336727235645053
1746477247624582700,11.968582763671876,-0.6245632465653121,-0.037459085300564764,-3.8771635049074886
1746477247634561800,11.978561767578125,-0.7167341652624308,0.3010767039835453,-4.18062593498379
1746477247644540700,11.988540771484375,-0.7697421173505484,0.5541664989113807,-4.4002401612892745
1746477247654519800,11.998519775390625,-0.8304125668905675,0.7865694796413183,-4.634228949905932
1746477247664498700,12.008498779296875,-0.9658686466932296,0.8755582611709832,-4.908077747485041
1746477247674477800,12.018477783203124,-1.1221347286820411,0.787970578610897,-5.135532165896892
1746477247684456700,12.028456787109375,-1.2382849272511898,0.5404103607594967,-5.434430941319465
1746477247694435800,12.038435791015624,-1.2177724467068909,0.2503559860497713,-5.827327850866317
1746477247704414700,12.048414794921875,-1.0884319271750746,0.07572364176511764,-6.241013865941762
1746477247714393900,12.058393798828124,-1.0694928334273397,-0.06425239968001842,-6.583968056190013
1746477247724372700,12.068372802734375,-1.2403281235165893,-0.28859949972629545,-6.707777975732088
1746477247734352000,12.078351806640624,-1.432626911264658,-0.5850871223539114,-6.632495063471794
1746477247744331000,12.0883310546875,-1.545486543855816,-0.9217880974262952,-6.514293046939373
1746477247754309600,12.0983095703125,-1.5724439627557991,-1.2404127330601216,-6.426015044027567
1746477247764288800,12.108288818359375,-1.425500420385599,-1.376762400701642,-6.389441509389877
1746477247774267600,12.118267578125,-1.2114134330689907,-1.3497592429637908,-6.31809885918796
1746477247784246800,12.128246826171875,-1.0255991119693963,-1.1469225484579801,-6.228644213712215
1746477247794225700,12.1382255859375,-0.8790853393185883,-0.8929770134836434,-6.039572425186634
1746477247804204800,12.148204833984375,-0.7938444390803575,-0.7164058100908994,-5.771121394997834
1746477247814183700,12.15818359375,-0.7402174783110618,-0.669410250160098,-5.394942980539798
1746477247824162800,12.168162841796875,-0.7842571841109544,-0.8207359531372785,-5.019563022983074
1746477247834141700,12.1781416015625,-0.9510743976652621,-1.0500234321951865,-4.6453573699027295
1746477247844120800,12.188120849609374,-1.1368051321346313,-1.2230495103269814,-4.290214436949789
1746477247854099700,12.198099609375,-1.290649466869235,-1.2345230904996394,-4.007960799118877
1746477247864079600,12.20807958984375,-1.3944564628243445,-1.1037281343758105,-3.6871237481325863
1746477247874058800,12.218058837890625,-1.5072481447458266,-0.8569359782874584,-3.3419287932202217
1746477247884037600,12.22803759765625,-1.5929536668211222,-0.5907815346032381,-3.00261266721338
1746477247894016800,12.238016845703125,-1.703483249029517,-0.403497798538208,-2.6736750196188686
1746477247903995600,12.24799560546875,-1.856609863948822,-0.3373538860231638,-2.3237065666943786
1746477247913974800,12.257974853515625,-1.9491917015343903,-0.43536651648581026,-1.8925977076530456
1746477247923953700,12.26795361328125,-1.9223405194878578,-0.6499743128061294,-1.5401830306202173
1746477247933932800,12.277932861328125,-1.8671511317074299,-0.8960521831452846,-1.2223925077229738
1746477247943911700,12.28791162109375,-1.7328315085887909,-1.0941221016407012,-0.9305454043775796
1746477247953890800,12.297890869140625,-1.5682523562848567,-1.227927345496416,-0.6383382355481386
1746477247963869700,12.30786962890625,-1.4196844275832174,-1.278345865613222,-0.3415712114572525
1746477247973848800,12.317848876953125,-1.2547732668459415,-1.2118927410185336,-0.10678104332983493
1746477247983827700,12.32782763671875,-1.1670816124547272,-1.0872153909921645,0.15675181967914104
1746477247993806800,12.337806884765625,-1.023660910448432,-0.9197709123849869,0.4642155943512916
1746477248003785700,12.34778564453125,-0.8438333356082439,-0.7244213587641716,0.7555185078173875
1746477248013764900,12.357764892578125,-0.6749608700245618,-0.508626398485899,1.0242471859037876
1746477248023743700,12.36774365234375,-0.5733481692433356,-0.1967342859774828,1.2223434078842401
1746477248033723000,12.377722900390625,-0.5363439881034195,0.10224456894397735,1.4695961672216653
1746477248043701800,12.38770166015625,-0.5260445662766695,0.38994156687259673,1.74245624602437
1746477248053680600,12.3976806640625,-0.5501970107585191,0.7011474506825208,2.0255103865832087
1746477248063659800,12.40765966796875,-0.6925134047847241,0.9220108002662658,2.451667176175117
1746477248073638700,12.417638671875,-0.7827911301463842,1.0541618471741676,2.902199697610736
1746477248083617800,12.42761767578125,-0.7851777330219745,1.1079881299078465,3.325050431394577
1746477248093596700,12.4375966796875,-0.6997942094426601,1.107929093196988,3.68144687153995
1746477248103575800,12.447575927734375,-0.5611386029463261,1.071248591053486,3.9116292536109682
1746477248113554700,12.4575546875,-0.39849714070670306,1.0383528681457042,4.000543800860643
1746477248123533800,12.467533935546875,-0.210475226560235,1.0977952371954918,3.888192263922095
1746477248133512700,12.4775126953125,-0.02717515330389142,1.2849696676671505,3.704000648653507
1746477248143491800,12.487491943359375,0.1687626485336572,1.6639380051046608,3.5460558197975156
1746477248153470700,12.497470703125,0.35418636288046834,2.168992390322685,3.423449430826306
1746477248163449900,12.507449951171875,0.5165862714491785,2.7211229994922874,3.3166005829572676
1746477248173428700,12.5174287109375,0.5743267319519072,3.1848867584228513,3.291214797288179
1746477248183407900,12.527407958984375,0.4918805039335042,3.4741730713695285,3.286521086513996
1746477248193386800,12.53738671875,0.3226346019275486,3.6932425232738253,3.3090456375330684
1746477248203366000,12.547365966796875,0.2377683802206069,3.9772412512063977,3.293587371638417
1746477248213344800,12.5573447265625,0.1116414889730513,4.158599104353785,3.2978193101197477
1746477248223324000,12.567323974609375,0.023456863433122633,4.389327429869771,3.32211671603024
1746477248233302800,12.577302734375,0.061210109374672174,4.757607784554362,3.205081989711523
1746477248243282000,12.587281982421874,0.15804083657637238,5.212190458163619,3.07231777934134
