time,seconds_elapsed,z,y,x
1746476193893165800,0.064165771484375,0.22378946616351603,-0.512328175613284,0.03780132286697626
1746476193903162600,0.07416259765625,0.4095400013118982,-0.49376989787667985,-0.011112345644831656
1746476193913159000,0.084158935546875,0.6792471690416335,-0.41700551488697524,-0.06872019274383782
1746476193923155000,0.094155029296875,0.9289619345784187,-0.3725073247298598,-0.10375190476700663
1746476193933150700,0.104150634765625,1.0673726264029741,-0.33044133015573024,-0.058204351687431335
1746476193943146800,0.114146728515625,1.0828343994289635,-0.2895955250263214,0.024572861851006746
1746476193953142800,0.124142822265625,1.1852683534651993,-0.1399716575309634,0.07789996289089321
1746476193963138800,0.134138916015625,1.2797533943235873,-0.18179449099898337,0.04466624020040035
1746476193973135600,0.144135498046875,1.4012246417850256,-0.2481263273015618,0.006234364344924688
1746476193983132000,0.1541318359375,1.59836633951962,-0.2300938270047307,-0.15135332163646817
1746476193993128000,0.1641279296875,1.8045336397528646,-0.20219985790699718,-0.2674804315909743
1746476194003123700,0.174123779296875,1.9564047016531227,-0.15123890147656202,-0.2751390565853566
1746476194013119700,0.18411962890625,2.1401772147268057,0.014084639453887939,-0.17885580719858407
1746476194023115800,0.19411572265625,2.297618185713887,0.22725860357880592,-0.2545161014039069
1746476194033111800,0.20411181640625,2.149329658475518,0.48131227510273455,-1.0640775303803385
1746476194043108600,0.214108642578125,2.243401442357898,0.41291181583255526,-1.627672805763781
1746476194053105000,0.22410498046875,2.730044557094574,0.11974310849457978,-1.51724785297364
1746476194063101000,0.234100830078125,3.4317905581921337,0.1563964303702116,-1.4800766447037457
1746476194073096700,0.2440966796875,4.09687768445611,0.38259558802396054,-1.1691456323124467
1746476194083092700,0.2540927734375,4.299010614606738,0.37469898955523967,-1.1722599649406968
1746476194093088800,0.2640888671875,4.188070698031783,0.23559768511801957,-1.414960467801243
1746476194103084800,0.274084716796875,3.5177883412122726,0.1127742923952639,-1.5531538636133073
1746476194113081600,0.28408154296875,2.399844634479284,0.24559578591063616,-1.852642713883519
1746476194123078000,0.294077880859375,1.319683838173747,0.5813830071389675,-2.399231471017003
1746476194133074000,0.304073974609375,0.5766653309673071,0.8981288432888687,-2.834669299173355
1746476194143069700,0.314069580078125,0.2414104630500078,1.0764121112965046,-3.0468855241820214
1746476194153066000,0.32406591796875,0.21563538580238817,1.0579599242828785,-3.1926074158027764
1746476194163061800,0.334061767578125,0.34725802492201324,0.8857242658764123,-3.351716027741134
1746476194173058800,0.344058837890625,0.5087181684225798,0.6589834025613963,-3.4682203004449605
1746476194183054600,0.3540546875,0.6029705695688724,0.43016354101523757,-3.5027976928293705
1746476194193051000,0.36405078125,0.6038064358711243,0.2650863760612905,-3.4216523182764647
1746476194203047000,0.374046875,0.6049778177380561,0.2897960160344839,-3.151938428544998
1746476194213042700,0.384042724609375,0.7503507497906684,0.540838815304637,-2.8100089051693677
1746476194223039000,0.3940390625,1.0050175847768783,0.8641163913108408,-2.404170827115327
1746476194233034800,0.40403466796875,1.1905389873445034,1.0110269081942735,-2.0398986851587892
1746476194243031800,0.41403173828125,1.20229489158988,0.974612436575815,-1.8563275398761032
1746476194253027800,0.42402783203125,0.9391618415534496,0.7570254783142357,-1.8478939119212328
1746476194263023900,0.43402392578125,0.5040267957359552,0.3859159646183252,-2.0601760417729613
1746476194273020000,0.44402001953125,0.050342532271146774,-0.004641396065056324,-2.2719820785455402
1746476194283015700,0.454015625,-0.37214229080975053,-0.25017390748113394,-2.285397732696682
1746476194293012000,0.464011962890625,-0.6299941855728626,-0.27969913104251026,-2.1250981574080883
1746476194303007700,0.4740078125,-0.8375988251328468,-0.38084954807423055,-1.8958305520944296
1746476194313004800,0.4840048828125,-1.0133926144123078,-0.6110556398143991,-1.6582479767695069
1746476194323000800,0.494000732421875,-0.9930863239645957,-0.809201874949038,-1.3933932175070047
1746476194332996900,0.503996826171875,-0.8544254567712545,-1.0104488160453735,-1.0483841405555605
1746476194342993000,0.513992919921875,-0.8133131096601486,-1.2593772535100578,-0.6907923531457781
1746476194352988700,0.52398876953125,-0.8182143257051706,-1.4070125775367022,-0.4468862738877535
1746476194362985000,0.53398486328125,-0.7324795775353908,-1.4265491987861691,-0.3198579768210649
1746476194372981800,0.543981689453125,-0.5369850624859333,-1.4367040975756942,-0.2049894886255264
1746476194382977800,0.553977783203125,-0.4148252482384443,-1.5289777459949254,-0.03101034755259752
1746476194392973800,0.563973876953125,-0.5410469050973653,-1.7620112797133622,0.13188158231675623
1746476194402969900,0.573969970703125,-0.7952315095245838,-1.9859011375114322,0.2748550520122051
1746476194412966000,0.5839658203125,-1.1438380264461039,-2.076363644855469,0.4324342624261975
1746476194422961700,0.593961669921875,-1.558880132305622,-2.1180219354115426,0.648154696163535
1746476194432958000,0.6039580078125,-1.954458828282356,-2.0739241427488624,0.8792635454297065
1746476194442954800,0.613954833984375,-2.3997148706197735,-1.9596425145305691,1.1144760306224226
1746476194452950800,0.62395068359375,-2.772804671412706,-1.9198130468368528,1.4581000829562545
1746476194462946800,0.63394677734375,-3.0262849269628522,-1.9744481617353855,1.8642250151276587
1746476194472942800,0.64394287109375,-3.1471704834908247,-2.012509889104217,2.239545935973525
1746476194482939000,0.65393896484375,-3.20462138646245,-1.9837093265555799,2.5652570227369664
1746476194492934700,0.6639345703125,-3.2390766137719154,-2.0150171957500276,2.8520646706104276
1746476194502931000,0.673930908203125,-3.361123030772805,-2.159587871509045,2.9900480769336224
1746476194512927700,0.683927734375,-3.621442776954174,-2.364877658255398,2.9681618238180874
1746476194522923800,0.693923828125,-3.815049286299944,-2.559761347930133,2.7439538399815557
1746476194532919800,0.703919921875,-3.9126913298845287,-2.7071520495459436,2.501480131614208
1746476194542915800,0.713915771484375,-3.9349844102352853,-2.8088270019084214,2.446083238562941
1746476194552912000,0.723911865234375,-4.033193440052867,-2.8863585698783396,2.4554601387172936
1746476194562907600,0.73390771484375,-4.175652530485391,-2.953624764421582,2.4951538512021303
1746476194572904000,0.743904052734375,-4.230964667862653,-2.853005750852823,2.282248767146468
1746476194582900700,0.753900634765625,-4.279910192817449,-2.536683839203417,1.587776556444168
1746476194592896800,0.763896728515625,-4.595135833662748,-2.9753517353221772,1.9917776283293962
1746476194602892800,0.773892822265625,-4.639669387394189,-3.071005819959938,2.3606039264589547
1746476194612888800,0.783888916015625,-4.599422717201709,-2.8291686559304594,2.273651034671068
1746476194622884900,0.793884765625,-4.648174765411019,-2.6493466340482232,2.0812790355563164
1746476194632880600,0.803880615234375,-4.762164717206359,-2.4895909563779828,1.8646242435783147
1746476194642877700,0.813877685546875,-5.01391946413815,-2.406855390024185,1.6883546534806488
1746476194652873700,0.823873779296875,-5.248626630157232,-2.5243647481173275,1.5998177073717117
1746476194662869800,0.833869873046875,-5.501661480027437,-2.585969263637066,1.3189309739798307
1746476194672865800,0.84386572265625,-5.555812172409892,-2.4715783298254013,0.8099538623601198
1746476194682861800,0.85386181640625,-5.548804339474439,-2.3714359938576814,0.2572784787893295
1746476194692857900,0.86385791015625,-5.652867940539121,-2.351848226942867,-0.3467757943630218
1746476194702854000,0.87385400390625,-5.756721113723516,-2.425709874228388,-1.0540092869609594
1746476194712850700,0.8838505859375,-5.674750102001428,-2.523442664836347,-1.7213497451096773
1746476194722846700,0.8938466796875,-5.330582444310188,-2.58477713124305,-2.254609065070748
1746476194732843000,0.903843017578125,-4.953565240940451,-2.601837863898277,-2.6807711153596636
1746476194742838800,0.9138388671875,-4.722550499698519,-2.6515806767106054,-3.0118156721055507
1746476194752834800,0.923834716796875,-4.641979417902231,-2.5974510271161795,-3.2619168066114184
1746476194762830800,0.933830810546875,-4.579885657560825,-2.4073808752030135,-3.3128672416478393
1746476194772827000,0.943826904296875,-4.392176389560103,-1.9874965900093315,-3.123935153853893
1746476194782823700,0.95382373046875,-4.026794678926468,-1.3867694154530763,-2.717681334605813
1746476194792819700,0.96381982421875,-3.4393723916232584,-0.7596008086949586,-2.12517370686233
1746476194802816000,0.97381591796875,-2.71902924208343,-0.17802637063711882,-1.47134038054049
1746476194812811300,0.983811279296875,-1.9473352600127458,0.36389205659776924,-0.8365674362584948
1746476194822807300,0.993807373046875,-1.3140899636894463,0.7593596934154629,-0.3061617521628737
1746476194832803300,1.00380322265625,-0.8967559475004673,1.0951020525887607,-0.017581249397993087
1746476194842800400,1.01380029296875,-0.6994447384178638,1.3955118170961738,-0.013493687823414802
1746476194852796400,1.02379638671875,-0.7134662495076656,1.6189508623868225,-0.2898679122269153
1746476194862792200,1.033792236328125,-0.7472258957684039,1.8204232828021047,-0.6912339594334364
1746476194872788200,1.043788330078125,-0.7792273001849651,1.9965233615517615,-1.0016142060741782
1746476194882784300,1.0537841796875,-0.7628764693647623,2.0989701750695704,-1.1677949483558534
1746476194892780300,1.0637802734375,-0.7606611314028501,2.141100174790621,-1.2457210686013103
1746476194902776300,1.0737763671875,-0.6741992380023002,2.2237112379819153,-1.2779308550715445
1746476194912773400,1.0837734375,-0.5020218856543303,2.3371032238841054,-1.3956635005265474
1746476194922769400,1.093769287109375,-0.3056406508982181,2.4272855991125106,-1.4763625926166772
1746476194932765200,1.10376513671875,0.04044833024442196,2.571808051815629,-1.4832123123809695
1746476194942761200,1.11376123046875,0.47844987140893935,2.7873832318633793,-1.448675252006948
1746476194952757200,1.12375732421875,0.9609218379408121,2.9979332772254943,-1.4293264084145425
1746476194962753300,1.133753173828125,1.4336948327571153,3.210674695152044,-1.405298759356141
1746476194972749300,1.143749267578125,1.9293460143357515,3.4346354262292382,-1.421800104562938
1746476194982746400,1.153746337890625,2.38636789779067,3.6202000834167003,-1.5967741018921136
1746476194992742400,1.163742431640625,2.8956852011501786,3.679802026942372,-2.085839475339651
1746476195002738200,1.17373828125,2.8298791422873735,3.849984406080842,-1.1780991924881934
1746476195012734200,1.183734130859375,3.323386882096529,3.8885231033116576,-0.8739083020068704
1746476195022730200,1.193730224609375,3.904466522374749,3.642129006630182,-1.584314287161082
1746476195032726300,1.203726318359375,3.8289772738873955,3.751849026021361,-0.5639138398133218
1746476195042722300,1.213722412109375,3.9725867033988234,3.8265351414322852,-0.027035598702728748
1746476195052719400,1.22371923828125,4.1902632396399975,3.76347049023211,0.40406595381498334
1746476195062715400,1.23371533203125,4.452361101409792,3.6679303873628375,0.5139553384236991
1746476195072711200,1.243711181640625,4.649747713816166,3.56273982809484,0.5855686222605407
1746476195082707200,1.253707275390625,4.7546553644895555,3.438260046467185,0.5834703348070382
1746476195092703200,1.263703125,4.825141690123081,3.2851644112080334,0.5609054883101955
1746476195102699300,1.27369921875,4.850102528378367,3.150724376580119,0.6146693367995322
1746476195112695300,1.2836953125,4.862672671616077,3.0853789209663867,0.7323109429702163
1746476195122692400,1.2936923828125,4.929195354315638,3.109173638051748,0.7697736815325915
1746476195132688400,1.3036884765625,5.052298586893081,3.1323563607186076,0.7655816366702318
1746476195142684200,1.31368408203125,5.04318062993586,3.0872125661343333,0.7931816643226891
1746476195152680200,1.32368017578125,4.448700240814685,3.0478783346116542,0.800774968995899
1746476195162676200,1.33367626953125,4.267019731584191,3.037109687837958,0.13122355679944156
1746476195172672300,1.34367236328125,4.158047900211811,2.798402638527751,-0.49199886961616573
1746476195182669000,1.3536689453125,3.605580606433749,2.4687130035221574,-0.3778456900831312
1746476195192665300,1.363665283203125,3.1604584196090695,2.0626210968375203,-0.42469263532347973
1746476195202661400,1.373661376953125,2.665501650035381,1.7703151438087223,-0.5597908415991812
1746476195212657200,1.3836572265625,2.1907488795787096,1.6064777497828007,-0.6865331613313407
1746476195222653200,1.393653076171875,1.6976842073619365,1.5761545077115295,-0.7451359377518296
1746476195232649200,1.403649169921875,1.2242284909784793,1.6239087770551441,-0.9262572056643664
1746476195242645200,1.413645263671875,0.980553005605936,1.6731535772174595,-1.1469780049722642
1746476195252642000,1.42364208984375,0.9368313527792692,1.5430121165663002,-1.3532074837215244
1746476195262638300,1.433638427734375,0.7829653176695108,1.3511124111384152,-1.5389080422483383
1746476195272634400,1.44363427734375,0.3876192614048719,1.2260440159678458,-1.7244569173447786
1746476195282630100,1.453630126953125,0.15929799703061578,1.1118892289996147,-1.890650811368972
1746476195292626400,1.46362646484375,0.3039256636738777,1.182009059408307,-2.165343950817734
1746476195302622200,1.473622314453125,0.610090046185255,1.4114672188580035,-2.4341296197883784
1746476195312618200,1.4836181640625,0.8386176467865705,1.5368758057683705,-2.5986045810654756
1746476195322615000,1.493614990234375,0.7576701328933239,1.3564035032838582,-2.6942437603950498
1746476195332611300,1.503611328125,0.22372516875565052,1.0415864432394504,-3.0295035967484116
1746476195342607400,1.513607421875,-0.5583347245067357,0.7093772266283631,-3.298093158625066
1746476195352603100,1.52360302734375,-1.2990724272996186,0.532602901878953,-3.371619874867797
1746476195362599400,1.533599365234375,-1.7892676815599202,0.6099810328528285,-3.2088740754708645
1746476195372595200,1.54359521484375,-2.0572253752738234,0.8315686050578951,-2.8701985854551193
1746476195382591200,1.55359130859375,-2.2399545167744157,1.0250707772463559,-2.475794778476655
1746476195392588300,1.56358837890625,-2.3422785806953907,1.172737957715988,-1.869246934942901
1746476195402584300,1.573584228515625,-2.579215697723627,0.973479121696949,-1.196397942505777
1746476195412580400,1.583580322265625,-2.7231816855877637,0.7546575070738792,-1.0459051832213997
1746476195422576000,1.593576171875,-2.626455587804317,0.5257178185403347,-1.0210232554212213
1746476195432572400,1.603572509765625,-2.4939655182003975,0.20393033496141433,-0.9515896537110209
1746476195442568200,1.613568115234375,-2.151440951541066,0.002151332814991474,-0.978124609415233
1746476195452565200,1.623565185546875,-1.5971826826930045,-0.09346256594285368,-1.0365914114311336
1746476195462561300,1.633561279296875,-1.047805171623826,-0.20125906992554662,-1.11506844355762
1746476195472557300,1.643557373046875,-0.6149275493443012,-0.3905028540171683,-1.2182079155147074
1746476195482553300,1.65355322265625,-0.3031125937253237,-0.6398825423806905,-1.2810264829993248
1746476195492549000,1.663549072265625,-0.06268120484054088,-0.8975728168413043,-1.2623442866221068
1746476195502545400,1.67354541015625,0.12584697832763195,-1.1433479048416018,-1.1143518197208642
1746476195512541200,1.683541259765625,0.22276772190034388,-1.382845081616193,-0.9240092806071043
1746476195522538200,1.693538330078125,0.24195231484174726,-1.5129802586570382,-0.6212099906146527
1746476195532534300,1.7035341796875,-0.012327566653490066,-1.6401158154904842,-0.23658991102576254
1746476195542530300,1.7135302734375,-0.375159008282423,-1.7795412373155355,0.012116554251313208
1746476195552526300,1.7235263671875,-0.6574035860240459,-1.843626609865576,0.23358371494710445
1746476195562522000,1.733522216796875,-0.8110439956843852,-1.7595942816995083,0.42950931489020583
1746476195572518400,1.743518310546875,-0.8455068217784166,-1.6456266878664492,0.6516770250707864
1746476195582514200,1.75351416015625,-0.812609345304966,-1.6026749964989722,0.8828001951232552
1746476195592511200,1.76351123046875,-0.7421919932544231,-1.6153572218090295,1.1597095493167637
1746476195602507300,1.77350732421875,-0.6313461847037076,-1.6798495677247642,1.4891428714737296
1746476195612503300,1.78350341796875,-0.5094774623572826,-1.8415965653426944,1.8767875595808028
1746476195622499300,1.793499267578125,-0.49971711584329603,-2.0733442970342932,2.284615496277809
1746476195632495000,1.8034951171875,-0.5604384187877178,-2.3054570626460014,2.6198195107907054
1746476195642491400,1.813491455078125,-0.6035983460783958,-2.4693179836779833,2.833324314305186
1746476195652487200,1.823487060546875,-0.6097340723544359,-2.5283593707114456,2.894151415711641
1746476195662484200,1.833484130859375,-0.634732320010662,-2.515603349512815,2.8745629181444645
1746476195672480300,1.843480224609375,-0.7207254268556833,-2.4858672596797344,2.877721089914441
1746476195682476300,1.853476318359375,-0.9846773920595645,-2.492241178625822,2.919719279949367
1746476195692472300,1.863472412109375,-1.4801970562130211,-2.5714035626679657,2.9475056970193982
1746476195702468000,1.873468017578125,-2.1046692634940145,-2.648893337322771,2.88616187826246
1746476195712464400,1.88346435546875,-2.696738499820232,-2.5882410079613325,2.8048563447117805
1746476195722460200,1.893460205078125,-3.0941870813220738,-2.3477748400241136,2.779987860915065
1746476195732457200,1.903457275390625,-3.284672828298807,-2.035240484089404,2.789176837281883
1746476195742453200,1.913453369140625,-3.3403298335909843,-1.754519316522777,2.9092779654338954
1746476195752449300,1.92344921875,-3.3254525824546812,-1.5439876836001871,3.0685660255923866
1746476195762445300,1.9334453125,-3.348217371970415,-1.4329600887417793,3.1568194785848256
1746476195772441000,1.943441162109375,-3.5199925732582806,-1.4727072849795222,3.0948291786178945
1746476195782437400,1.953437255859375,-3.993100499117374,-1.569216963533312,2.826097577922046
1746476195792433200,1.96343310546875,-4.73118447253108,-1.6887027362659572,2.3021803790628907
1746476195802430200,1.97343017578125,-5.533629566696286,-1.6571270099155604,1.572528133907914
1746476195812426800,1.9834267578125,-6.350030705499648,-1.4545200325123966,0.8452271280542015
1746476195822422800,1.9934228515625,-6.87735946636796,-1.127929021109268,0.4722217906743288
1746476195832418600,2.00341845703125,-6.941363444244861,-0.8069382408659904,0.5905003795742988
1746476195842414800,2.013414794921875,-6.3576721601635215,-0.5404158406522125,0.9355036113068461
1746476195852411000,2.023410888671875,-5.520877637150884,-0.24845263664647935,1.1784718251928687
1746476195862406700,2.03340673828125,-4.758611408638954,-0.13709537144228814,1.2075678635567426
1746476195872404000,2.043404052734375,-4.350285459291935,-0.3050508683115244,1.0047194786131382
1746476195882399700,2.053399658203125,-4.512710063910484,-0.6964177918121218,0.5770651439398526
1746476195892395800,2.063395751953125,-5.1396577213943,-1.0457485313549637,-0.06207213303148746
1746476195902391600,2.0733916015625,-5.9666772848457095,-1.1727283131048083,-0.7664569582000375
1746476195912387800,2.083387939453125,-6.526259379065037,-0.9309878874480724,-1.3452017257899045
1746476195922384000,2.0933837890625,-6.472375813186169,-0.34227921359613533,-1.7176976523429155
1746476195932380700,2.103380615234375,-5.9224728169381615,0.48964288107454773,-1.895273356603086
1746476195942377000,2.113376953125,-5.114487624302506,1.3035656470656394,-2.0540791862025856
1746476195952372700,2.123372802734375,-4.199488748624921,1.8617954498931764,-2.074050253346562
1746476195962368800,2.13336865234375,-3.301054638779163,2.1445905011244117,-1.8781860282018779
1746476195972364500,2.143364501953125,-2.372500700479746,2.1665987731844187,-1.5204799667626618
1746476195982360800,2.15336083984375,-1.4444617259651422,1.9704894872374832,-0.923053002795577
1746476195992356900,2.16335693359375,-0.9421990172922611,1.6375914115794001,-0.45295594919025894
1746476196002353700,2.173353759765625,-0.7867641254305839,1.5442767296746371,-0.6021592531859874
1746476196012350000,2.183349853515625,-0.7552011124312877,1.7613184751436113,-1.0550821768894791
1746476196022345700,2.193345703125,-0.6364765333294868,2.047173060075939,-1.585301690763235
1746476196032341800,2.203341796875,-0.3048860331386328,2.269708434525132,-1.9230401921898126
1746476196042337500,2.213337646484375,0.1400876851260662,2.432335575978458,-1.9941899501681326
1746476196052333800,2.223333740234375,0.6857377001047134,2.46569599378854,-1.8125614633858202
1746476196062329900,2.233329833984375,1.2195043850660323,2.417912498350441,-1.5300601344041524
1746476196072326700,2.24332666015625,1.65439100908041,2.351791382189095,-1.1929387419626116
1746476196082323000,2.253322998046875,1.98755562672019,2.3282301815986632,-0.9006512013733387
1746476196092318700,2.263318603515625,2.143620633178949,2.3602944221183657,-0.7881476887434721
1746476196102314800,2.273314697265625,2.1402502799630163,2.3949910569682715,-0.7774114829346537
1746476196112310500,2.283310546875,2.076281373399496,2.43654588714987,-0.9057451635114848
1746476196122306800,2.293306884765625,1.9840794750422237,2.4401316366821524,-1.0497627354323864
1746476196132302800,2.303302734375,1.9477695597767828,2.3867963523358107,-1.1527595840483904
1746476196142299600,2.313299560546875,2.0810984182924033,2.4086899119749665,-1.1775519338689744
1746476196152296000,2.3232958984375,2.3475614895343777,2.4673881846591827,-1.1270759844765066
1746476196162291700,2.333291748046875,2.7449674009382723,2.537558576211333,-1.0865199560739098
1746476196172287700,2.343287841796875,3.187974787566066,2.6086355612143874,-1.0650715098537504
1746476196182283800,2.35328369140625,3.601753741621971,2.662820448127389,-1.0037875315252691
1746476196192279800,2.36327978515625,3.870367853417992,2.67609727832973,-0.9461009201016276
1746476196202275800,2.37327587890625,4.020891592362523,2.624300455597043,-0.9093961602997034
1746476196212272600,2.383272705078125,4.057506043532491,2.539964760570228,-0.8397675474740565
1746476196222269000,2.39326904296875,3.9890082613676783,2.492811671990156,-0.8249116313867271
1746476196232264700,2.4032646484375,3.885238674813509,2.451649055996537,-0.8775006274104118
1746476196242260700,2.4132607421875,3.8384944592952728,2.452740358364582,-0.9443100180968642
1746476196252256800,2.4232568359375,3.8820296496391293,2.5080969194054603,-1.0500820305146277
1746476196262252800,2.433252685546875,4.000709805077314,2.551158062496781,-1.0727671058576553
1746476196272248800,2.443248779296875,4.127746869972348,2.5380069045007225,-1.090675687513873
1746476196282246000,2.453245849609375,4.237629970970749,2.520087216928601,-1.0970641464419661
1746476196292242000,2.463241943359375,4.2296261127352714,2.498427758306265,-1.142622659306973
1746476196302237700,2.47323779296875,4.195650777897239,2.5101211187094448,-1.2573378566369413
1746476196312233700,2.483233642578125,4.120604012480378,2.601802792584896,-1.3335329153060913
1746476196322229800,2.493229736328125,4.067574433082342,2.7355004844129085,-1.408139243479073
1746476196332225800,2.503225830078125,4.041026617896557,2.914903696361184,-1.5114403357386588
1746476196342222600,2.51322265625,3.96045202896893,3.0548692164123055,-1.6161702917575835
1746476196352219000,2.523218994140625,3.7508605995059012,3.1187641809567808,-1.6790949499651788
1746476196362215000,2.53321484375,3.3531367081940173,3.103041711167991,-1.625290879063308
1746476196372210700,2.543210693359375,2.7702859665900466,2.965172871135175,-1.5084271253973245
1746476196382206700,2.553206787109375,2.1418927864730355,2.7488611935064196,-1.5287112040132282
1746476196392202800,2.56320263671875,1.6684207034766674,2.7665003105714914,-1.9365451320596039
1746476196402198800,2.57319873046875,1.364673318979144,2.979153173431754,-2.4780264830514787
1746476196412195600,2.583195556640625,1.2551537905961274,3.072716715531051,-2.9186864297702906
1746476196422191900,2.59319189453125,1.0925883162021637,2.805746571549773,-3.1265847915798424
1746476196432188000,2.60318798828125,0.45859074020683765,2.271130284021795,-3.25286899228096
1746476196442183700,2.61318359375,-0.7739367925614118,1.6265122375518082,-3.3222610929369925
1746476196452179700,2.6231796875,-2.400980360510945,1.0239344666928052,-3.2297382920622826
1746476196462175700,2.63317578125,-4.042548128375411,0.5421607115581631,-3.010503420463204
1746476196472171800,2.643171875,-5.138174789360165,0.3976858973890543,-2.6673919938266275
1746476196482168600,2.65316845703125,-5.476470924669504,0.5678844970099628,-2.275237134818733
1746476196492164900,2.663164794921875,-5.066930338835716,0.8991304215468465,-1.8188091256037353
1746476196502161000,2.673160888671875,-4.010936600059271,1.2729568660512567,-1.3241662442848086
1746476196512156700,2.68315673828125,-2.7190122909486294,1.392969146876037,-0.749900741000846
1746476196522152700,2.693152587890625,-1.568995868128538,1.2228157015711068,-0.22261706138327716
1746476196532148700,2.703148681640625,-0.804444159027934,0.829600739051029,0.08484759007170796
1746476196542144800,2.713144775390625,-0.4613105205595493,0.28188034753911195,0.18053543084859847
1746476196552141600,2.7231416015625,-0.43854163939058777,-0.18699045220687985,0.06347980787232518
1746476196562137900,2.733137939453125,-0.5315227054268121,-0.5017367851026356,-0.2197385833375156
1746476196572134000,2.7431337890625,-0.624411417004466,-0.7301030576623976,-0.5551163469821214
1746476196582129700,2.753129638671875,-0.7261164722442627,-0.9463912813503295,-0.7863065909214317
1746476196592125700,2.763125732421875,-0.8430226037472486,-1.1717192091275006,-0.899472659113258
1746476196602121700,2.773121826171875,-0.9005576778709888,-1.3871411713749169,-0.847581874486804
1746476196612117800,2.78311767578125,-0.9023135816276073,-1.5319772200718522,-0.6339348860226571
1746476196622114600,2.793114501953125,-0.8327905480682849,-1.5443242220781743,-0.3188482152566314
1746476196632110800,2.80311083984375,-0.7095330017119645,-1.438149912469834,0.0866563930593431
1746476196642107000,2.81310693359375,-0.5596212571859359,-1.396265411942452,0.5738742389440536
1746476196652102700,2.8231025390625,-0.41908115211725233,-1.4097175987116992,1.0349798845812679
1746476196662098700,2.8330986328125,-0.22442893311083315,-1.4261362340711057,1.3937912769138812
1746476196672094700,2.8430947265625,0.11242401765286922,-1.4610621476322412,1.581207261056453
1746476196682090800,2.8530908203125,0.4463485137492418,-1.4866599686168134,1.7333096474945544
1746476196692087600,2.863087646484375,0.6380237627714872,-1.5681816291362047,1.9684648495420813
1746476196702083800,2.873083740234375,0.6097141986101865,-1.7436776045128701,2.243965067590028
1746476196712080000,2.883079833984375,0.3989075481384992,-1.8708080467797814,2.4050901339173314
1746476196722075600,2.89307568359375,0.11431962214112282,-1.8631272830188272,2.451784957335889
1746476196732072000,2.903072021484375,-0.1770914278745651,-1.719648640280217,2.473715341854095
1746476196742067700,2.913067626953125,-0.4556979413747787,-1.5339257237911224,2.6089576327756046
1746476196752064800,2.923064697265625,-0.6892267112642526,-1.4808672105595468,2.7686864224389196
1746476196762060800,2.933060791015625,-0.9765759186685085,-1.489981368124485,2.9111969507977364
1746476196772056800,2.943056884765625,-1.2577782938808202,-1.4625878958947955,2.996902180612087
1746476196782052900,2.953052978515625,-1.4452180972903965,-1.4431579498901963,2.9724253264814613
1746476196792048600,2.963048583984375,-1.5500737255156039,-1.425773538238555,2.91577784884721
1746476196802045000,2.973044921875,-1.573030238211155,-1.447890969761461,2.8650992164894937
1746476196812040700,2.983040771484375,-1.5670260293602942,-1.5054948713377116,2.746879956561327
1746476196822038300,2.993038330078125,-1.606331619310379,-1.6215902709797023,2.5642127743810414
1746476196832034000,3.003033935546875,-1.650177775299549,-1.761169275931269,2.4476927195861933
1746476196842030300,3.0130302734375,-1.7256401357799767,-1.838179596506059,2.4456235120967027
1746476196852026000,3.023026123046875,-1.9211247139573095,-1.9004491518057882,2.5553087524354456
1746476196862022100,3.033022216796875,-2.25891406878829,-1.8510050296790896,2.6315076104968784
1746476196872018200,3.04301806640625,-2.696253931173682,-1.5652328623332081,2.5179598495110866
1746476196882014200,3.05301416015625,-3.2244284952163693,-1.1116885918609798,2.2818735040932894
1746476196892011300,3.06301123046875,-3.7764334321796893,-0.703910047263652,2.000121678304672
1746476196902007000,3.073007080078125,-4.338371734136342,-0.4549499725516885,1.7040917363166808
1746476196912003300,3.08300341796875,-4.85425730997026,-0.45240511037446557,1.4407014966487883
1746476196921999000,3.0929990234375,-5.088807824122905,-0.6742289755534381,1.2575292875558137
1746476196931995100,3.1029951171875,-4.76242249135971,-0.8635161603953689,1.003759109148383
1746476196941991200,3.1129912109375,-4.2025148184478285,-0.7986470170564949,0.6915481399491429
1746476196951987200,3.1229873046875,-3.9555087273478504,-0.5899830411693081,0.40882074712663885
1746476196961984300,3.132984375,-4.308680944749713,-0.3838081421514973,0.13477934958487747
1746476196971980000,3.14297998046875,-5.342268205928802,-0.30669837979022413,-0.11243702326491474
1746476196981976300,3.152976318359375,-6.749712160620093,-0.3183278081117198,-0.2626784381367266
1746476196991972000,3.16297216796875,-8.111385713261365,-0.29979391589770094,-0.3210987706623971
1746476197001968000,3.172968017578125,-8.961782645168899,-0.09239148437893017,-0.4236412996396422
1746476197011964200,3.182964111328125,-8.850723486128448,0.37372638166341926,-0.5748308090165257
1746476197021960200,3.192960205078125,-7.732191750374436,1.0400480546910316,-0.7392403038419783
1746476197031957200,3.202957275390625,-5.945761338067054,1.6423963276430964,-0.8205730176605284
1746476197041953000,3.212953125,-3.9676761350035665,2.0584093243613837,-0.9032691287867725
1746476197051949300,3.22294921875,-2.1208780554950235,2.3283538079783317,-1.05743020132035
1746476197061945000,3.232945068359375,-0.5673492210894823,2.4567595308780668,-1.1960763093359768
1746476197071941000,3.242941162109375,0.605960983556509,2.405182780636847,-1.3384548818781972
1746476197081937200,3.252937255859375,1.4412246437400578,2.2130774696342645,-1.4477619365543126
1746476197091933200,3.26293310546875,1.9536434202462434,1.9437062558606266,-1.5593183775924144
1746476197101930200,3.27293017578125,2.2141484598666428,1.7664714739926157,-1.6841019644722341
1746476197111926000,3.282926025390625,2.2738982874304057,1.6644209663160143,-1.8590433747060595
1746476197121922300,3.29292236328125,2.1546295184493065,1.6194178953766822,-2.0054732684656975
1746476197131918000,3.30291796875,1.9606740495353936,1.5952162049256264,-1.9593997918158768
1746476197141914000,3.3129140625,1.7673253143429755,1.5856795841649174,-1.8168455704458057
1746476197151910100,3.32291015625,1.5223656343787908,1.6431861628465354,-1.6652575632706283
1746476197161906200,3.33290625,1.216429799926281,1.7825864502303301,-1.4726780588850379
1746476197171903200,3.3429033203125,0.8569318866342306,1.9308708858154713,-1.3344417007140814
1746476197181899000,3.35289892578125,0.5553600926101208,2.104338424104452,-1.3381082603976129
1746476197191895300,3.362895263671875,0.4777630581885576,2.268800379769504,-1.3956544404372573
1746476197201891000,3.37289111328125,0.6259615690559148,2.374659632079303,-1.5209436387516557
1746476197211887000,3.38288720703125,0.9199299023389815,2.4424706010237336,-1.6193217415258288
1746476197221883400,3.39288330078125,1.3054507301598786,2.446464931356907,-1.6493084451191127
1746476197231880200,3.402880126953125,1.6918050861954688,2.3775968545749784,-1.6562262616835535
1746476197241876200,3.412876220703125,2.0563713887929915,2.278349421620369,-1.674400654669106
1746476197251872000,3.4228720703125,2.332963639861345,2.2200383946880695,-1.6898869776144623
1746476197261868300,3.432868408203125,2.541186119058728,2.171118296435475,-1.674993652126193
1746476197271864000,3.442864013671875,2.767739789238572,2.1960925786942243,-1.6570001686654985
1746476197281860000,3.452860107421875,3.0456402002960443,2.2352350870370863,-1.5777106511123478
1746476197291856400,3.4628564453125,3.4255367584943768,2.280518290092051,-1.5014647390387952
1746476197301853200,3.472853271484375,3.844797358831763,2.28075297563076,-1.4936229394972325
1746476197311849200,3.48284912109375,4.321454501605033,2.3304639320001006,-1.5340312299922108
1746476197321845200,3.49284521484375,4.784062076237798,2.4030460608690976,-1.5117173991143702
1746476197331841300,3.50284130859375,5.110391294899583,2.430272505968809,-1.447975579304993
1746476197341837000,3.512837158203125,5.360601150476932,2.4214716521367428,-1.3603332439482212
1746476197351833000,3.5228330078125,5.5413125224143265,2.422878011803329,-1.3028532610125838
1746476197361829400,3.532829345703125,5.577304457771778,2.4397069815292953,-1.278634911687672
1746476197371826200,3.542826171875,5.477943919831514,2.4803882437467575,-1.2451054209209977
1746476197381822200,3.552822265625,5.128565834015608,2.507676063644886,-1.1696372152216732
1746476197391818200,3.562818359375,4.6541146768540145,2.476064535328746,-1.1335315903566776
1746476197401814300,3.572814208984375,4.183894289129972,2.4556585838988423,-1.1603235895618795
1746476197411810000,3.58281005859375,3.7345764041811225,2.4935326797410844,-1.3144631809160112
1746476197421806000,3.59280615234375,3.4931174258142708,2.6261639113813637,-1.7202373999536036
1746476197431802400,3.60280224609375,3.3672155024290085,2.78576907466501,-2.1982335362456737
1746476197441799200,3.612799072265625,3.1518665323525665,2.7898917075529694,-2.55584125187695
1746476197451795200,3.622795166015625,2.663562790927291,2.60371651725173,-2.7737513046130537
1746476197461791200,3.632791259765625,1.9273171388566492,2.1778677706956864,-2.8558348367989064
1746476197471787300,3.642787353515625,1.1653560307711361,1.8360238797768949,-3.1115865444123743
1746476197481783000,3.652782958984375,0.5233464132338762,1.8175217161417005,-3.4908681855827566
1746476197491779000,3.662779052734375,-0.0006675239980220794,2.053873142236471,-3.8277915712341666
1746476197501775400,3.672775390625,-0.47406128106117246,2.31166570802778,-4.022320748382807
1746476197511772200,3.682772216796875,-1.0412520967185497,2.4149741068109867,-3.9415529749706386
1746476197521768200,3.692768310546875,-1.6660300089478493,2.455246203705668,-3.7974274126306176
1746476197531764200,3.70276416015625,-2.395564765202999,2.50045984865576,-3.6790181830883024
1746476197541760300,3.71276025390625,-3.1566116810530422,2.5234812432810663,-3.5212697535872457
1746476197551756000,3.722756103515625,-3.7725557139635084,2.433744419863075,-3.2607962781488893
1746476197561752000,3.732751953125,-4.132311985930801,2.197065369249135,-2.840895041820407
1746476197571748400,3.742748291015625,-4.126943736895918,1.9567358333036302,-2.395789367739111
1746476197581745200,3.7527451171875,-3.7345764041811225,1.7634706847414374,-1.9452315657317638
1746476197591741200,3.7627412109375,-3.193876705086231,1.5161561122141778,-1.4702525853037833
1746476197601737200,3.7727373046875,-2.6595763516396285,1.1705101255986838,-1.0730815055690706
1746476197611733200,3.782733154296875,-2.252281498906016,0.7671948440205305,-0.8014477536909281
1746476197621729000,3.79272900390625,-1.928597241795063,0.3857344705715775,-0.6192407363682985
1746476197631725000,3.80272509765625,-1.5809084242403506,0.1530911052145064,-0.5434107116192579
1746476197641722000,3.81272216796875,-1.152204288253188,0.055718672351539135,-0.5900928216867148
1746476197651718100,3.82271826171875,-0.7887678664684296,-0.0059377194859087466,-0.632415129109472
1746476197661714200,3.832714111328125,-0.5286930349588393,-0.10276183428373187,-0.6195192610487341
1746476197671710200,3.842710205078125,-0.37059038519263265,-0.2247052293015644,-0.5953920971386134
1746476197681706200,3.852706298828125,-0.21493571310043333,-0.3369902038099244,-0.5915273845344782
1746476197691702000,3.862701904296875,-0.10672083757519721,-0.48212651409506796,-0.5139018546707927
1746476197701698000,3.872697998046875,-0.0588157615840435,-0.6399886331036686,-0.3266115427345037
1746476197711695000,3.882695068359375,-0.1357645612299442,-0.7994947929922491,-0.040157238343358034
1746476197721691100,3.892691162109375,-0.27109832982718945,-0.9444916582740843,0.24773089824318884
1746476197731687200,3.902687255859375,-0.3989180695325136,-0.9666866850778459,0.48134909998178477
1746476197741683200,3.91268310546875,-0.4232195670962333,-0.8903417696092277,0.6665694737762212
1746476197751679200,3.92267919921875,-0.35106150885820386,-0.8337951950661837,0.8719725116387009
1746476197761675000,3.932675048828125,-0.2770207056134939,-0.8083531491652131,1.0788748481482267
1746476197771671300,3.94267138671875,-0.17857552895247936,-0.7983833976842463,1.2499939236149191
1746476197781668000,3.952668212890625,-0.06632511430084705,-0.7710780421294271,1.3716376050338148
1746476197791664000,3.9626640625,0.05043839386105537,-0.7519490518327802,1.4536106625825165
1746476197801660200,3.97266015625,0.10504325975179672,-0.8070078720360994,1.4953358808949588
1746476197811656200,3.98265625,0.09917056832611561,-0.866328952793777,1.557649421466887
1746476197821651500,3.9926513671875,0.015334931775927542,-0.9621057870283722,1.6016919768109916
1746476197831647700,4.002647705078125,-0.16688099950551985,-1.0732319468904286,1.6335560185834765
1746476197841643500,4.0126435546875,-0.34612112984657284,-1.1604463391587136,1.6720216505780816
1746476197851640600,4.022640625,-0.5146703548252582,-1.222391557874903,1.7246721675306558
1746476197861636600,4.03263671875,-0.5694885712057352,-1.2905597427591682,1.8613526745617388
1746476197871632600,4.042632568359375,-0.6082406189262867,-1.3121543194517493,1.9821166505366563
1746476197881628400,4.05262841796875,-0.6018436113655566,-1.2822940187171101,2.091097249737382
1746476197891624400,4.06262451171875,-0.671764119809866,-1.228150486727804,2.188743384975195
1746476197901620700,4.072620849609375,-0.9253735546976327,-1.1973093582622707,2.327327679800987
1746476197911617500,4.082617431640625,-1.217418226441741,-1.2292469036623834,2.4657448013663292
1746476197921613600,4.092613525390625,-1.3398469207584858,-1.2800259276546537,2.493109778153896
1746476197931609600,4.102609619140625,-1.3499638256251811,-1.2760738290280103,2.3708982337191697
1746476197941605600,4.112605712890625,-1.3213444648623465,-1.207094254695624,2.0884441048800944
1746476197951601400,4.122601318359375,-1.4566642049342393,-1.0876891459837554,1.6353917095780373
1746476197961597400,4.132597412109375,-1.8035814535945653,-0.9866994724716991,1.0841799688190221
1746476197971593700,4.14259375,-2.344737079763412,-0.9342708546414971,0.692191406288743
1746476197981590500,4.152590576171875,-2.914645922207832,-0.9211484843485057,0.5306529368549585
1746476197991586600,4.162586669921875,-3.3306443058788773,-0.8920308917399495,0.5979381283596158
1746476198001582600,4.17258251953125,-3.4930174725711343,-0.6599897300597279,0.5806263435527682
1746476198011578600,4.18257861328125,-3.3515637597888706,-0.38150527203660456,0.5118120427846908
1746476198021574400,4.192574462890625,-3.2343490007281304,-0.21466898845564572,0.3418818848416209
1746476198031570400,4.2025703125,-3.5504409030139445,-0.17336265314240007,-0.0034396190598607063
1746476198041566700,4.212566650390625,-4.400909146592021,-0.20127181980926542,-0.4722700137302279
1746476198051563500,4.2225634765625,-5.746930372071266,-0.2494249522773549,-1.0765139642357826
1746476198061559600,4.2325595703125,-7.101456391045451,-0.28765030924268065,-1.7527911775559186
1746476198071555600,4.2425556640625,-8.00490511418283,-0.30640641110632566,-2.149396878492832
1746476198081551600,4.252551513671875,-8.342901974284649,-0.22835096539277583,-2.1789986744217575
1746476198091547400,4.26254736328125,-7.906217360937595,-0.04972787097152322,-1.9240205815292895
1746476198101543700,4.272543701171875,-6.73252254088819,0.24165934151085092,-1.617881479589641
1746476198111539700,4.282539794921875,-5.047743407806754,0.588357595391944,-1.4512909874632953
1746476198121536500,4.29253662109375,-3.22722484793663,0.9374432010672986,-1.5023637337051332
1746476198131532500,4.302532470703125,-1.553033159843087,1.26381202108711,-1.7200889313936232
1746476198141528600,4.312528564453125,-0.18195698808431623,1.508531608685106,-2.0008955852866173
1746476198151524600,4.322524658203125,0.8112573461741208,1.6079060290202498,-2.3776509228497744
1746476198161520400,4.332520263671875,1.3962117820590734,1.5917539356425403,-2.704816592335701
1746476198171516700,4.3425166015625,1.6265186672925949,1.4870356700614094,-2.8860791684150695
1746476198181513500,4.352513427734375,1.5211574276328086,1.307225630877912,-2.952691867485642
1746476198191509500,4.362509521484375,1.2084703653544187,1.124906604548171,-2.944423220834136
1746476198201505500,4.372505615234375,0.8851111024141312,1.0637418686851858,-2.9103672219753265
1746476198211501600,4.38250146484375,0.6895932064890861,1.2106190678209066,-2.928461973853409
1746476198221497600,4.39249755859375,0.5900315930187702,1.497947378567606,-2.99217865922153
1746476198231493400,4.402493408203125,0.46103462622761726,1.7504181648142634,-3.0541736353635787
1746476198241489700,4.41248974609375,0.25221885731220245,1.8969436279028653,-3.030612142512202
1746476198251486500,4.422486572265625,-0.07262450670599938,1.891723847427964,-2.995697480997443
1746476198261482500,4.432482421875,-0.49236499951481816,1.802455664435029,-3.0306553971320387
1746476198271478500,4.442478515625,-0.9492764083325862,1.6338273828707635,-3.191661367124319
1746476198281474600,4.452474609375,-1.208462182047963,1.4585823135152458,-3.466202530881762
1746476198291470600,4.462470703125,-1.1703946094602347,1.3751608107239006,-3.7832419431507587
1746476198301466400,4.47246630859375,-0.8147440192461013,1.3861400315083563,-4.016132122875749
1746476198311462700,4.482462646484375,-0.27739187701344487,1.5301432826429604,-4.128314148466289
1746476198321459500,4.49245947265625,0.2519815414249897,1.7523779205799102,-4.115491491772234
1746476198331455500,4.50245556640625,0.6694540893018245,1.9628262591332195,-4.025824372589588
1746476198341451500,4.512451416015625,0.9132154993921517,2.115433526353538,-3.898060162463784
1746476198351447600,4.522447509765625,1.0359943223208188,2.286338666808605,-3.8275434416919945
1746476198361443600,4.532443603515625,1.0818255146473645,2.460533496458828,-3.785941265237331
1746476198371439400,4.542439453125,0.9939286200076342,2.6067408335089683,-3.7550951683357354
1746476198381435600,4.552435546875,0.8498334528058766,2.7835516908764837,-3.716505617700517
1746476198391432400,4.562432373046875,0.6820037742733955,2.9966365154132246,-3.6953701829522845
1746476198401428500,4.572428466796875,0.6157581549495458,3.240428905163705,-3.655370765519142
1746476198411424500,4.582424560546875,0.7022919445425272,3.476574871814251,-3.5719150681972502
1746476198421420500,4.592420654296875,0.8679296659886836,3.691700554528832,-3.434119293400645
1746476198431416600,4.60241650390625,1.0134680177360773,3.8349662851691244,-3.1858915515512227
1746476198441412400,4.612412353515625,1.0738362694591284,3.9440880464062094,-2.9915912147223946
1746476198451409700,4.62240966796875,1.0629542254388331,4.055143406054377,-2.8386718128129838
1746476198461405400,4.632405517578125,1.0586100587546825,4.1847053132519125,-2.767814023518562
1746476198471401500,4.6424013671875,1.1503846716105937,4.322048375844955,-2.733915845569968
1746476198481397500,4.6523974609375,1.287204879373312,4.368987237152457,-2.7513191080525514
1746476198491393500,4.6623935546875,1.428514215248823,4.367831929637491,-2.81545927952975
1746476198501389600,4.6723896484375,1.5686545073449611,4.34279598031938,-2.8699080780759454
1746476198511385300,4.68238525390625,1.5946014340281485,4.265586483910679,-2.924416790115833
1746476198521382700,4.692382568359375,1.5198282248556614,4.073428712068498,-2.947275103133917
1746476198531378400,4.70237841796875,1.4418202715456485,3.835462544253468,-2.935300879962742
1746476198541374500,4.71237451171875,1.4551415254116058,3.7577322388410566,-2.9847245438233014
1746476198551370500,4.72237060546875,1.6218752254009245,3.7853023828119037,-3.166470811766386
1746476198561366500,4.732366455078125,1.8515332913368938,3.8901813919126984,-3.4844720548048613
1746476198571362600,4.742362548828125,2.052441063606739,3.9790000775724645,-3.7934532483026384
1746476198581358600,4.752358642578125,2.1422212877750395,3.9799668767780063,-4.081718693768978
1746476198591355600,4.762355712890625,2.0605600726544857,3.8812916907534003,-4.183779722839594
1746476198601351400,4.772351318359375,1.7551386174649,3.7617233543038364,-4.007945017027855
1746476198611347500,4.782347412109375,1.2018126610308886,3.625539106357097,-3.6533830988332627
1746476198621343500,4.792343505859375,0.32465982414484024,3.474892033293843,-3.192160841079056
1746476198631339500,4.802339599609375,-0.6696113256901502,3.405651908329129,-2.728240430282056
1746476198641335600,4.81233544921875,-1.492967105937004,3.4464363386601207,-2.3262382771290837
1746476198651332600,4.82233251953125,-1.8679460814774036,3.52225058131814,-1.9345039816208183
1746476198661328600,4.83232861328125,-1.7781378002583978,3.5959210899457332,-1.5794301683813332
1746476198671324400,4.842324462890625,-1.283034315690398,3.6567943685814734,-1.2834817671969532
1746476198681320700,4.85232080078125,-0.4958873284220695,3.7066406417682765,-1.1214881013415754
1746476198691316500,4.86231640625,0.3288777341008186,3.7327249310955404,-1.1280975826092063
1746476198701312500,4.8723125,0.9155126704186201,3.6986698090195653,-1.176017198582366
1746476198711308500,4.88230859375,1.1316641890496015,3.6111452548235654,-1.2202704010024665
1746476198721305600,4.8923056640625,1.104557570937276,3.542693065366149,-1.2304016266554594
1746476198731301600,4.902301513671875,0.9166828832417726,3.476317097660899,-1.2392149015776812
1746476198741297400,4.91229736328125,0.6252519594818353,3.3144112562194463,-1.1857324638456106
1746476198751293700,4.922293701171875,0.3223918792128563,3.1030440492555496,-1.1607876999422908
1746476198761289500,4.93228955078125,0.17833938210904599,2.9456542239338157,-1.2515876225471496
1746476198771285500,4.942285400390625,0.18690788848996162,2.9436618810728192,-1.5681924427911638
1746476198781281500,4.952281494140625,0.28923721310794354,3.0554291883826252,-1.9594516681335865
1746476198791278600,4.962278564453125,0.25622809295356275,3.1143259062483906,-2.216476464422792
1746476198801274600,4.972274658203125,0.035683892321586606,3.115453741234541,-2.3271859332427383
1746476198811270400,4.9822705078125,-0.42992929386794565,3.0437519023314117,-2.290629203609377
1746476198821266700,4.9922666015625,-1.0419850871682166,2.95855228395164,-2.2423735606148836
1746476198831262700,5.0022626953125,-1.6658189965456722,2.9541087485462425,-2.236163453928381
1746476198841258800,5.0122587890625,-2.163222574749589,3.081113372476399,-2.272993593675643
1746476198851255600,5.022255615234375,-2.432380291903019,3.27724472412467,-2.2646385839149357
1746476198861251800,5.032251953125,-2.475952307125926,3.487147119233012,-2.1983004640020427
1746476198871248000,5.042247802734375,-2.406554945772886,3.6570910134404895,-2.0300202652230857
1746476198881243600,5.05224365234375,-2.353576219779253,3.7477310693085193,-1.8241744520291685
1746476198891239700,5.06223974609375,-2.2944927471697327,3.7623838640391822,-1.5538672725796698
1746476198901235700,5.072235595703125,-2.264277057126164,3.8070933588594196,-1.2240917128562927
1746476198911231700,5.082231689453125,-2.264646474960446,3.821744400024414,-0.8672177183270454
1746476198921228500,5.092228515625,-2.284940490448475,3.8437610015213486,-0.5531017922893167
1746476198931224800,5.102224853515625,-2.303819378441572,3.869863411027193,-0.33766280584186315
1746476198941220900,5.112220947265625,-2.302709955894947,3.8865538490653035,-0.12193944949507712
1746476198951216600,5.122216552734375,-2.2871131583124398,3.8234827681243417,0.1112222406476736
1746476198961213000,5.132212890625,-2.2944027307987214,3.691666944520175,0.37585546611398457
1746476198971208700,5.142208740234375,-2.3157149834185837,3.543158052529394,0.6041971887543797
1746476198981204700,5.152204833984375,-2.237625197044015,3.4350478064224124,0.8032964502975344
1746476198991201800,5.162201904296875,-2.054169494834542,3.3894396091967818,0.9636866264790296
1746476199001197800,5.17219775390625,-1.7432681469291447,3.3331817154020067,1.099559031997621
1746476199011193900,5.18219384765625,-1.36093237888515,3.1958941823884843,1.223423312075436
1746476199021189600,5.192189697265625,-1.0119009145498274,3.0211461027696727,1.360169577819109
1746476199031186000,5.20218603515625,-0.7510749724119902,2.849613478066027,1.5324302245363592
1746476199041181700,5.212181640625,-0.5656757349193096,2.7030399380519983,1.7186901705116033
1746476199051178800,5.2221787109375,-0.42522038552463054,2.5860759388819337,1.9185718146041035
1746476199061174800,5.2321748046875,-0.39789340265989304,2.52031342689991,2.145194750627875
1746476199071170800,5.2421708984375,-0.40538931137323375,2.4755425572812557,2.3741516825571654
1746476199081166800,5.252166748046875,-0.49223114400207996,2.456889879259467,2.5994518455445763
1746476199091162600,5.26216259765625,-0.6582973199933767,2.446989685883373,2.828880194377899
1746476199101159000,5.272158935546875,-0.9616928223133087,2.3925182371139524,3.0653526165038345
1746476199111154700,5.28215478515625,-1.2836778742909432,2.297828175202757,3.2408845399767157
1746476199121151700,5.29215185546875,-1.4932698882758617,2.160655939131975,3.3910870841428635
1746476199131147800,5.302147705078125,-1.5883213308453559,2.0329072188362476,3.6090357153236865
1746476199141143800,5.312143798828125,-1.577826824837923,1.8460805788889527,3.874225113368034
1746476199151139800,5.322139892578125,-1.5337147113889456,1.60499627905339,4.172296205794811
1746476199161135600,5.332135498046875,-1.5001765989243983,1.3406100140854715,4.447677035246789
1746476199171132000,5.3421318359375,-1.5122370390743016,1.0910906249903143,4.644477664458751
1746476199181127700,5.352127685546875,-1.623981842291355,0.8943724133647978,4.775574526138604
1746476199191124700,5.362124755859375,-1.827619916307926,0.6971444255862385,4.961909290915727
1746476199201120800,5.372120849609375,-2.096104264244437,0.4519761078400537,5.221958403462171
1746476199211116800,5.38211669921875,-2.4076333886593577,0.2005432863390073,5.520089117121696
1746476199221112800,5.39211279296875,-2.64442963591218,0.010056370318494736,5.800007297742367
1746476199231108600,5.402108642578125,-2.747011473986506,-0.13920710289925337,6.1365890303492545
1746476199241105000,5.41210498046875,-2.7099323279142378,-0.3164345051784068,6.5142614827573295
1746476199251101700,5.422101806640625,-2.5499656378418205,-0.5187713604032993,6.834900380823016
1746476199261097700,5.43209765625,-2.334407408928871,-0.6987540527399629,7.064835510134697
1746476199271093800,5.44209375,-2.1974761420071123,-0.8722956061132252,7.243727265429496
1746476199281089800,5.45208984375,-2.1565759763419625,-1.1470689711913467,7.341697810316085
1746476199291085800,5.4620859375,-2.2603210129767657,-1.460805688653141,7.337929982215166
1746476199301081600,5.47208154296875,-2.3789748649299143,-1.7306906971678138,7.137181784421205
1746476199311078000,5.482077880859375,-2.546378427004814,-1.9351735514454542,6.661973086890578
1746476199321074700,5.49207470703125,-2.6729630719572306,-2.1213507875733075,6.150710494682192
1746476199331070700,5.50207080078125,-2.7205647810876368,-2.2997306478232145,5.789645478203893
1746476199341066800,5.512066650390625,-2.7205338014274836,-2.4668507167816163,5.484663583475351
1746476199351062800,5.522062744140625,-2.7235534415096043,-2.5393761470273137,5.249947065106034
1746476199361058800,5.532058837890625,-2.787394337779283,-2.562837102113664,5.1552825760275125
1746476199371054600,5.5420546875,-2.9548703805685044,-2.5845360159635544,5.062373990705609
1746476199381051000,5.55205078125,-3.251960060742497,-2.618913794122636,4.910232879692316
1746476199391047700,5.562047607421875,-3.6885108185768125,-2.6057111982002854,4.489873085941374
1746476199401043700,5.572043701171875,-4.171079231220483,-2.560309921723604,3.7610073149889707
1746476199411039700,5.582039794921875,-4.5966655274480575,-2.6138234852463005,2.970130201281607
1746476199421035800,5.592035888671875,-4.913440735822916,-2.692988499636948,2.2529238884627816
1746476199431031800,5.60203173828125,-5.242167663276195,-2.7755270821139213,1.5648954470723866
1746476199441027800,5.61202783203125,-5.5683525050312275,-2.8720711013287303,0.8933280188784003
1746476199451024000,5.62202392578125,-5.797013376623392,-2.985316956758499,0.5373150250926614
1746476199461020700,5.632020751953125,-5.781494320452213,-3.104066085779667,0.37272096748054023
1746476199471016700,5.6420166015625,-5.4008600956290955,-3.02526318269968,0.20831395687311888
1746476199481012700,5.6520126953125,-4.69196422277689,-2.7266391325652597,0.0741767045840621
1746476199491008800,5.6620087890625,-3.888448284509778,-2.3870811606265603,-0.05114449630379676
1746476199501004800,5.6720048828125,-3.242887111970782,-2.054301012259722,-0.20993454381227492
1746476199511000800,5.682000732421875,-3.002133651524782,-1.7474460171356796,-0.36116496972143647
1746476199520998000,5.691997802734375,-3.242846195438504,-1.5358765655979514,-0.5210065721094608
1746476199530993700,5.70199365234375,-3.8666538013309237,-1.4193839833319186,-0.6684042879879474
1746476199540990000,5.711989990234375,-4.578248996269703,-1.3266910865873098,-0.7406541161626577
1746476199550985700,5.72198583984375,-5.202039651027322,-1.1098866570055483,-0.7412085351750254
1746476199560981800,5.731981689453125,-5.462384531649946,-0.7194616905301809,-0.727482792161405
1746476199570977800,5.741977783203125,-5.303114007148146,-0.3094673695795238,-0.7647087993584573
1746476199580973800,5.751973876953125,-4.823456513515114,-0.031585078700631854,-0.8099670141026377
1746476199590971000,5.761970947265625,-4.057592552772164,0.11463248748257755,-0.8654530467420816
1746476199600966700,5.771966552734375,-3.1572254290372133,0.21491814091112463,-0.8931256281740962
1746476199610963000,5.781962890625,-2.222949605959654,0.2584949784396216,-0.8619766028031707
1746476199620958700,5.791958740234375,-1.319215636140108,0.21704097828399388,-0.7495308847751468
1746476199630954800,5.801954833984375,-0.5540554397523403,0.16294709412269293,-0.5958273467507214
1746476199640950800,5.81195068359375,0.08868366110324859,0.16612287461459635,-0.49205359547808764
1746476199650947800,5.82194775390625,0.4591992274940014,0.1748649839967489,-0.4614115697812289
1746476199660944000,5.83194384765625,0.5893108775287866,0.2327059822645038,-0.6471208961363881
1746476199670939600,5.841939697265625,0.3747960201889276,0.2674762668725103,-0.7364009887628257
1746476199680936000,5.85193603515625,0.022375497937202452,0.27441841416060925,-0.8439901336051523
1746476199690931700,5.861931640625,-0.37585517385303974,0.36589667441844936,-0.921528423576802
1746476199700927700,5.871927734375,-0.643563276720047,0.5552658384554088,-1.0372023098710923
1746476199710923800,5.881923828125,-0.6681324853092432,0.8503678519435226,-1.0524598655618727
1746476199720920800,5.8919208984375,-0.5336866054624319,1.2684974024243652,-0.9813365571990609
1746476199730916900,5.901916748046875,-0.2759931161314249,1.6459283011615276,-0.8539753749161958
1746476199740912600,5.91191259765625,-0.01814239041209221,1.8248184490211308,-0.7272299133788794
1746476199750909000,5.921908935546875,0.16698504440188408,1.8561171119958162,-0.7119624938812107
1746476199760904700,5.93190478515625,0.28881869543492794,1.7792089366212487,-0.8232100881658494
1746476199770900700,5.941900634765625,0.23802900391817092,1.635629463856667,-0.9470613626316189
1746476199780897800,5.951897705078125,0.08625731073915958,1.498724646550417,-1.0612597695458679
1746476199790893800,5.961893798828125,-0.011675240224599837,1.4201923771053553,-1.1967314853090791
1746476199800889900,5.971889892578125,0.019065350475907326,1.4825880430027842,-1.2883689547166228
1746476199810885600,5.9818857421875,0.22941841196119783,1.6513886123940347,-1.3370466225154698
1746476199820881200,5.991881103515625,0.47604748644232747,1.8980097958296536,-1.3122579259566962
1746476199830877200,6.001877197265625,0.6879425166726112,2.159374667149782,-1.2572672756187617
1746476199840873200,6.011873291015625,1.0931026954650878,2.291464339259267,-1.2906564811319112
1746476199850870000,6.0218701171875,1.66711020539999,2.4227482479438183,-1.3540923037320374
1746476199860866000,6.031865966796875,2.2829618838518857,2.5454747561633586,-1.2900647988490759
1746476199870862300,6.0418623046875,2.8656927984684706,2.6094334335938094,-1.2347969390049576
1746476199880858000,6.051858154296875,3.2919787673979997,2.626353588734567,-1.234579789122939
1746476199890854100,6.061854248046875,3.559191780224442,2.6794059644863006,-1.2864629749648273
1746476199900850200,6.07185009765625,3.752489077490568,2.681673324896395,-1.3743494943410157
1746476199910847200,6.08184716796875,3.951794675260782,2.6931881138622757,-1.4510210844807325
1746476199920843000,6.091843017578125,4.173775046175718,2.6320371873289345,-1.5954812856025993
1746476199930839000,6.101839111328125,4.353929368752241,2.451794894208014,-1.8837968538209795
1746476199940835300,6.11183544921875,4.478281140086055,2.235220766250789,-2.1482971005573868
1746476199950831000,6.1218310546875,4.579872798079252,2.086439487059414,-2.2871746792413292
1746476199960827100,6.1318271484375,4.548501508259773,1.973599874342978,-2.172965823998302
1746476199970824200,6.14182421875,4.292476244401931,1.8519649607524276,-1.7800331124857067
1746476199980820200,6.1518203125,3.986069285306334,1.8131074068307875,-1.6210029726110398
1746476199990816000,6.16181591796875,3.5853684240102766,1.9108181317374109,-1.5526903377547858
1746476200000812300,6.171812255859375,3.1254601714640855,2.044924988888204,-1.3951153651244939
1746476200010808300,6.181808349609375,2.8092577945411206,2.133470410564542,-1.607556484930217
1746476200020804000,6.19180419921875,2.632851426321268,2.1362831298977136,-1.9160256372526288
1746476200030800100,6.201800048828125,2.5693957299768924,1.959802527397871,-2.125723595830053
1746476200040797200,6.211797119140625,2.6382436407536267,1.7135598218858241,-1.9793464551709592
1746476200050793200,6.221793212890625,2.6270634905695913,1.3687956596061586,-1.8180436941891907
1746476200060789000,6.2317890625,2.6182886479616165,1.0280638215824962,-1.564477952312678
1746476200070785300,6.241785400390625,2.470631404364109,1.0321084207981823,-1.551912631380558
1746476200080781300,6.25178125,2.249413249993324,1.263297349563241,-1.8203516788706182
1746476200090777000,6.261777099609375,1.906765349215269,1.433590787860751,-2.1223513429179786
1746476200100774400,6.2717744140625,1.2987258058190345,1.537567002902925,-2.3971914896219966
1746476200110770200,6.281770263671875,0.25425299348831176,1.6367650437578558,-2.641797533842921
1746476200120766200,6.29176611328125,-1.17116793192029,1.8005059916719792,-2.7356159274861214
1746476200130762000,6.301761962890625,-2.6227339369326828,1.9209724460050464,-2.706994813157618
1746476200140758300,6.31175830078125,-3.75097458127439,1.9373472422227263,-2.4953137179389593
1746476200150754300,6.32175439453125,-4.286235888707638,1.8095044139027594,-2.2239019382484257
1746476200160751000,6.331751220703125,-4.164199408578872,1.5670784901998935,-1.9604167137734592
1746476200170747400,6.341747314453125,-3.3122260211348533,1.254951253761351,-1.650828640423715
1746476200180743200,6.3517431640625,-1.8336024978488683,0.931725261811912,-1.3349514038018881
1746476200190739200,6.3617392578125,-0.25138123744428154,0.7141662144705653,-1.11611298417449
1746476200200735000,6.37173486328125,0.9844196179062128,0.5561430596813559,-1.0937928696863353
1746476200210731300,6.381731201171875,1.679954489403963,0.44395854987278577,-1.1119530149508268
1746476200220727300,6.391727294921875,1.8285802857726812,0.3009773352622986,-1.0277017833370714
1746476200230724000,6.40172412109375,1.4255103572577237,0.12250482829287647,-1.0459842398069799
1746476200240720400,6.411720458984375,0.6840911019414663,-0.07548997913971543,-1.212161474957317
1746476200250716200,6.421716064453125,-0.197395964756608,-0.13174787293449045,-1.4481572194822132
1746476200260712200,6.431712158203125,-0.923297332945466,-0.08913819993771611,-1.5906903980642557
1746476200270708000,6.4417080078125,-1.3050479945778846,-0.13141118832603096,-1.567283803513646
1746476200280704300,6.451704345703125,-1.4260989708006382,-0.1860207303918898,-1.4553019766703248
1746476200290701000,6.461701171875,-1.2545768674910067,-0.17155841673202812,-1.2704824387617408
1746476200300697000,6.471697021484375,-0.9214870686531066,-0.21860994463376698,-0.9772167007900774
1746476200310693400,6.481693359375,-0.5431131899774074,-0.3704839291434735,-0.5993810206443071
1746476200320689200,6.491689208984375,-0.13335983817577363,-0.5806571040172129,-0.24488223081380128
1746476200330685200,6.501685302734375,0.20097849941849708,-0.7992226980525999,0.05846446392834186
1746476200340681000,6.511680908203125,0.44073476552069185,-1.0354609460964799,0.3766688283234834
1746476200350677200,6.52167724609375,0.5802507882386445,-1.2757476658135651,0.7565012352444231
1746476200360674000,6.531674072265625,0.6389630894482136,-1.4652080152653157,1.140057631124556
1746476200370670000,6.541670166015625,0.6813339121878147,-1.5550003682628273,1.5164127173237503
1746476200380666400,6.551666259765625,0.6278244403183459,-1.542890389882773,1.791722381235659
1746476200390662100,6.561662109375,0.5371867225378751,-1.4955800649143756,2.0440840080194174
1746476200400658200,6.571658203125,0.3750362586855888,-1.5597367491349576,2.2486817208483814
1746476200410654000,6.581654052734375,0.09086042062044143,-1.7024065597087144,2.4207915609180928
1746476200420651300,6.5916513671875,-0.2957417726963758,-1.8351532344222068,2.5516519834935663
1746476200430647000,6.60164697265625,-0.7047533662199974,-1.9375170458316802,2.5567659655064343
1746476200440643000,6.61164306640625,-1.1450731211990117,-2.0497914258807897,2.346240762324631
1746476200450639400,6.621639404296875,-1.6424381209582088,-2.1160724087789653,2.0518653095453976
1746476200460635100,6.63163525390625,-2.1383529219090938,-2.172442092385143,1.840188305979967
1746476200470631200,6.641631103515625,-2.549718385082483,-2.3652570129618047,1.7218410357579588
1746476200480628200,6.651628173828125,-2.866841968503594,-2.6729069578558207,1.7263254876956342
1746476200490624300,6.661624267578125,-2.9914141045898197,-2.9631857889711855,1.8092308576583862
1746476200500620000,6.6716201171875,-2.8957904150903224,-3.0934692884415385,1.9756603140041231
1746476200510616000,6.681615966796875,-2.6519424957603213,-3.0276120839133855,2.1586294017404315
1746476200520612400,6.6916123046875,-2.37336930000782,-2.7935893930271267,2.2766394028320907
1746476200530608000,6.701608154296875,-2.2618694114625453,-2.5257024264618755,2.38329097456336
1746476200540604200,6.711604248046875,-2.3823610002368687,-2.2683831772707403,2.384113689123094
1746476200550601200,6.721601318359375,-2.711520473888516,-2.0754183268293738,2.3007170285120604
1746476200560597200,6.73159716796875,-3.183700763508677,-1.91671785730049,2.1573425768002865
1746476200570593000,6.741593017578125,-3.6983833932936188,-1.809043664523214,2.075048032212257
1746476200580589300,6.75158935546875,-4.174091857039929,-1.7657964973405003,2.1010320760354397
1746476200590585300,6.76158544921875,-4.633893726602197,-1.6434838306188582,2.113044585390389
1746476200600581000,6.7715810546875,-5.010041161400079,-1.3883543465569614,2.0392004737615586
1746476200610578200,6.781578125,-5.123728915378451,-1.1388500089004636,1.9668138674646616
1746476200620574200,6.79157421875,-4.934093647751212,-1.1097378961846232,1.9770655046269296
1746476200630570200,6.8015703125,-4.399859345278144,-1.209551730850339,1.905326402453333
1746476200640566000,6.81156591796875,-3.427420672544837,-1.2041668960068375,1.651408486138284
1746476200650562300,6.821562255859375,-2.328648114749789,-1.0792637744005769,1.460080589248985
1746476200660558300,6.831558349609375,-1.7657804229885339,-0.9816809867225587,1.3468370719067753
1746476200670554000,6.84155419921875,-2.1440379818081854,-0.9145881029196083,1.1721660030469299
1746476200680551200,6.85155126953125,-3.232013835778832,-0.7941023593641817,0.8728808586552739
1746476200690547200,6.861547119140625,-4.447988293153047,-0.6526920473322272,0.7235214873149991
1746476200700543200,6.871543212890625,-5.524239222538471,-0.2757888257309794,0.6373265742875636
1746476200710539000,6.8815390625,-6.1868053058922285,0.33094091370832174,0.47181262535154816
1746476200720535300,6.891535400390625,-6.251610078758001,0.9977729474108665,0.2698739025987685
1746476200730531300,6.90153125,-5.736365138915181,1.7110568991541861,0.022544278632849454
1746476200740528000,6.911528076171875,-4.803357143816352,2.377944498968869,-0.21937428006976842
1746476200750524200,6.921524169921875,-3.7238334763705727,2.740695130446553,-0.35530170371122655
1746476200760520200,6.931520263671875,-2.609986683562398,2.782010598914325,-0.4251375295467674
1746476200770516200,6.94151611328125,-1.6580857719451187,2.5791660133630034,-0.543268307473883
1746476200780512000,6.951511962890625,-0.9193442114055156,2.3435610217213627,-0.716156146178767
1746476200790508300,6.96150830078125,-0.4408224438041448,2.081608413641155,-0.8275995552964508
1746476200800504300,6.97150439453125,-0.16529869875013828,1.8292451794221996,-0.8656568987511097
1746476200810501000,6.981501220703125,0.07500467984080314,1.6749876607768237,-0.8333290388591587
1746476200820497700,6.99149755859375,0.33860125573575495,1.591804058394581,-0.7878622959308326
1746476200830493700,7.00149365234375,0.5982657528787851,1.5254118702068924,-0.7568620313808322
1746476200840490000,7.011489990234375,0.8555816410690545,1.4853143992267548,-0.7591574488416314
1746476200850485800,7.02148583984375,1.0555594390124081,1.4876633004404602,-0.756400697479397
1746476200860481800,7.031481689453125,1.2307692909240722,1.496590118739754,-0.7945848821841179
1746476200870478800,7.041478759765625,1.372741474622488,1.548166576720029,-0.8737671399705111
1746476200880475000,7.051474853515625,1.4888187540858984,1.7187964073650537,-0.9444486228499561
1746476200890470700,7.061470703125,1.6451538096576928,1.8638297321997581,-0.9732571495093405
1746476200900466700,7.071466796875,1.8267595000863075,1.8891947673417626,-0.9267036342576146
1746476200910463000,7.081462890625,2.065227479943633,1.868798460523039,-0.9033004007078707
1746476200920458800,7.091458740234375,2.3902765956670042,1.8546942395858466,-0.9620989919614046
1746476200930454800,7.101454833984375,2.7246079189985988,1.8258393165014684,-1.09019849845618
1746476200940451800,7.111451904296875,3.068143708527088,1.7963330899015069,-1.2072911655072123
1746476200950447900,7.12144775390625,3.3947166728168723,1.8295032458364962,-1.2991153896585106
1746476200960443600,7.131443603515625,3.6683179253756997,1.8297925841718912,-1.3812402767680585
1746476200970439700,7.141439697265625,3.9916415324807164,1.846320525124669,-1.4378940380126237
1746476200980436000,7.15143603515625,4.266820994141698,1.9408301159024237,-1.47944389975816
1746476200990431700,7.161431640625,4.539612683883309,2.03473092713207,-1.5132906397804617
1746476201000427800,7.171427734375,4.81000023509264,2.0814336415961385,-1.5547598375052212
1746476201010424800,7.1814248046875,5.0754351323306555,2.1654729840248823,-1.6445638809405265
1746476201020420900,7.1914208984375,5.249131657069921,2.267151151257753,-1.8208228035137055
1746476201030416600,7.201416748046875,5.292054268473387,2.3246695665076373,-2.057912773016095
1746476201040412700,7.21141259765625,5.221762004107236,2.3104861428543924,-2.058745278317481
1746476201050409000,7.221408935546875,5.274879261788725,2.255097433109581,-2.4551529724642633
1746476201060404700,7.23140478515625,5.324007157573104,2.173297394040227,-2.7187787744536993
1746476201070400800,7.24140087890625,5.095367913290858,2.177039795438945,-2.4775994898110625
1746476201080397800,7.251397705078125,4.620573057258129,2.1236621332556007,-2.2391316560842096
1746476201090393900,7.261393798828125,3.9214480523139237,1.8182044377088546,-2.277737134940922
1746476201100389600,7.2713896484375,3.051598816439509,1.6454826032206415,-2.2893609372392296
1746476201110385700,7.2813857421875,2.160377706712484,1.5492217848613856,-2.368844516059756
1746476201120382000,7.2913818359375,1.1759060663580894,1.7029560102850199,-2.5851678841263053
1746476201130377700,7.301377685546875,0.2459597969174385,2.0095859644815324,-2.6909879734694955
1746476201140373800,7.311373779296875,-0.5306137738883495,2.1671244044937192,-2.5609675088495014
1746476201150370800,7.321370849609375,-1.0330588533908127,2.2618314175397156,-2.2888243461444975
1746476201160366800,7.331366943359375,-1.127267415395379,2.2187238049581643,-2.1533649053409696
1746476201170362600,7.341362548828125,-0.5917465802431107,2.222532841852307,-2.378849631115049
1746476201180358700,7.351358642578125,0.3722206167429685,2.536695237380266,-2.793353538444638
1746476201190355000,7.36135498046875,1.0310206255614758,2.671928468212485,-3.0887954514116047
1746476201200350700,7.371350830078125,1.0681816046983004,2.5146207682162522,-3.1643954667970537
1746476201210346800,7.3813466796875,0.42378889141678805,2.274241547910124,-2.907409541213512
1746476201220343800,7.39134375,-0.8163193057388066,1.9816189301475882,-2.400003332172334
1746476201230339800,7.40133984375,-2.2212755352675915,1.730002861034125,-1.9354113057240843
1746476201240335600,7.411335693359375,-3.5388322982847686,1.5646271515250205,-1.5778236099675296
1746476201250332000,7.421331787109375,-4.5753953604042525,1.4536498255491257,-1.2180191149443387
1746476201260328000,7.431327880859375,-5.146238853350281,1.4780333023078738,-0.8688811945598572
1746476201270323700,7.44132373046875,-5.009194773703813,1.4296242223173379,-0.4981195079209283
1746476201280319700,7.45131982421875,-4.218278204768896,1.3355468854770063,-0.2895193910501897
1746476201290316800,7.46131689453125,-3.1141046647131443,1.2523866639703511,-0.11928564705066382
1746476201300312800,7.471312744140625,-2.13612238637805,0.9816165431842208,-0.07816968321036546
1746476201310308600,7.48130859375,-1.5093085844069718,0.5192014223836362,-0.04411211344897747
1746476201320305000,7.491304931640625,-1.2527981673806905,-0.05630759642170742,-0.07826883273590356
1746476201330301000,7.501301025390625,-1.195541910198331,-0.5595994106803089,-0.23214100532550364
1746476201340296700,7.511296630859375,-1.1865326743125915,-0.9170879569113254,-0.45054384654723106
1746476201350292700,7.521292724609375,-1.0982903272360562,-1.1277861055072396,-0.6193417125247419
1746476201360289800,7.531289794921875,-0.8675842135518789,-1.2506800061829388,-0.6944893810328095
1746476201370285800,7.541285888671875,-0.5343108748406171,-1.3874492144107817,-0.6331582756269722
1746476201380281600,7.551281494140625,-0.22527590532898903,-1.4586790518879889,-0.3658114803530276
1746476201390278000,7.56127783203125,-0.019176409634947777,-1.505862681736797,0.013783683745935558
1746476201400274000,7.57127392578125,0.024116788646578787,-1.5199541893228887,0.45642399062700567
1746476201410269700,7.581269775390625,-0.14708441214561463,-1.444996417363733,0.8956748742654919
1746476201420265700,7.591265625,-0.5134896206080913,-1.2745631322041153,1.3491554318517445
1746476201430261800,7.60126171875,-0.8216337787598371,-1.2801453162506222,1.7693164881601928
1746476201440258800,7.6112587890625,-0.9240630566209554,-1.4746724475726485,2.085158215077221
1746476201450254600,7.621254638671875,-0.6891653364658356,-1.7436926559515296,2.25492236880362
1746476201460251000,7.6312509765625,-0.22443360928595066,-2.0084186742678285,2.289861287976801
1746476201470247000,7.641246826171875,0.32168694581389423,-2.253240260935575,2.2569271327547726
1746476201480242700,7.65124267578125,0.739694915741682,-2.4520447773158547,2.1731804896622893
1746476201490238700,7.66123876953125,0.8937374764621258,-2.549629537755251,2.063722189947218
1746476201500234800,7.67123486328125,0.7983265529304743,-2.6395290043890474,1.9639730910807847
1746476201510231800,7.681231689453125,0.5177046079546213,-2.6654396907150746,1.9833654815539716
1746476201520227600,7.6912275390625,0.10381517926156521,-2.603560742168128,2.1209202872015536
1746476201530223900,7.701223876953125,-0.3718476917773485,-2.4183229788474736,2.374602495064586
1746476201540220000,7.711219970703125,-0.9322311655074358,-2.0646151932641863,2.645097159910202
1746476201550215700,7.721215576171875,-1.5793711316704748,-1.6498593570001423,3.0314848336935043
1746476201560211700,7.731211669921875,-2.1930723540902135,-1.5140426271915435,3.3880955011114477
1746476201570207700,7.741207763671875,-2.5219623631507155,-1.5941769250057636,3.509073704358935
1746476201580204800,7.751204833984375,-2.48929752638936,-1.7312478926591575,3.493824112778902
1746476201590200600,7.76120068359375,-2.252680727356672,-1.8077195763126015,3.3876281758606432
1746476201600196900,7.77119677734375,-2.0442846451580525,-1.8767523421369492,3.259249048706889
1746476201610193000,7.78119287109375,-2.0108155062764883,-1.918938309828937,3.1945886527478695
1746476201620188700,7.791188720703125,-2.2147738982886076,-1.8976060373343526,3.1101331307336686
1746476201630184700,7.801184814453125,-2.47428466617465,-1.8135266551561653,2.9972797817528245
1746476201640180700,7.8111806640625,-2.785958752018213,-1.6215604603633285,2.933385693991184
1746476201650176800,7.8211767578125,-3.103823509195447,-1.3273144791826605,2.8979502234727144
1746476201660173600,7.831173583984375,-3.517285652387142,-1.018513976014033,2.8734534955978392
1746476201670169900,7.841169921875,-4.0535903313934805,-0.7203769787441938,2.8603777409255504
1746476201680166000,7.851165771484375,-4.555384253510833,-0.5841163776256144,2.760063555522263
1746476201690161700,7.86116162109375,-4.670258586925268,-0.5266182745113969,2.5328765558749438
1746476201700158000,7.871157958984375,-4.218516689699888,-0.41665041783899065,2.128402605780959
1746476201710153700,7.88115380859375,-3.5216362488120794,-0.3256060920190066,1.7006997557908297
1746476201720149800,7.891149658203125,-3.0115935537874696,-0.20681323345396666,1.3136702769726514
1746476201730146600,7.901146484375,-3.1416292159765957,-0.048639052821509536,0.8795538336131721
1746476201740142800,7.911142822265625,-4.041154628190398,0.05635613000486046,0.4814085750840604
1746476201750139000,7.921138916015625,-5.388000029534101,0.1807942644478753,0.20918467529304324
1746476201760134700,7.931134765625,-6.588990852788091,0.4587760701784864,-0.011944704815745354
1746476201770131000,7.941130859375,-7.188838321900367,0.958359293976426,-0.2575773156054318
1746476201780126700,7.951126708984375,-7.029603453233838,1.6542998236656188,-0.5768939520914107
1746476201790122800,7.961122802734375,-6.196916950061917,2.386725479056686,-0.9105562170550227
1746476201800119800,7.971119873046875,-5.094459566274285,2.9704382443174717,-1.182379938547313
1746476201810115800,7.98111572265625,-4.017728744417429,3.138053111055493,-1.2676594902954994
1746476201820112000,7.99111181640625,-3.024705548816919,3.0030805769860742,-1.2651058602899312
1746476201830107600,8.001107666015624,-2.0911814208894968,2.825613301536441,-1.3060285300478338
1746476201840103700,8.011103759765625,-1.1949813537061214,2.704898425400257,-1.2983832759916782
1746476201850099500,8.021099365234376,-0.34724925709366794,2.5978221985161305,-1.2793844148807227
1746476201860095700,8.031095703125,0.4233493309557438,2.5267533968195317,-1.228597938234359
1746476201870091800,8.041091796875,1.0927513978093861,2.448728200113773,-1.0831875967808067
1746476201880088600,8.051088623046875,1.6132856762319803,2.3563860165029764,-0.9176704329743981
1746476201890084900,8.0610849609375,1.9562749377936124,2.28341532670781,-0.752764825195074
1746476201900080600,8.07108056640625,2.1741689161777495,2.2668315639145673,-0.6817075678057968
1746476201910076700,8.08107666015625,2.2541496308654545,2.244498736075312,-0.669052230502665
1746476201920072400,8.091072509765626,2.2885849844306705,2.234951155529171,-0.7187730506788939
1746476201930068700,8.10106884765625,2.3926737199366093,2.2690061314746734,-0.7678107108965516
1746476201940064800,8.111064697265626,2.590973355534673,2.3525585671693086,-0.879701790716499
1746476201950061600,8.1210615234375,2.841903342080116,2.429830022898316,-0.9548355037644505
1746476201960057900,8.131057861328125,3.1147698506236075,2.4593337652802467,-0.9918688379336148
1746476201970053600,8.1410537109375,3.3859862538725136,2.4718325968474146,-1.0203380496360361
1746476201980049700,8.151049560546875,3.613546470746398,2.5174936933040617,-1.045168101118505
1746476201990045400,8.16104541015625,3.8089065457612272,2.574566118352115,-1.0868393242213874
1746476202000041700,8.171041748046875,3.999609734880924,2.635389712627232,-1.1724082873702049
1746476202010037800,8.181037841796876,4.2006455174446105,2.728100437289476,-1.2572134996049105
1746476202020034600,8.19103466796875,4.424846487018466,2.8426939079359173,-1.365601393609494
1746476202030030800,8.20103076171875,4.646817505583167,2.953919655714929,-1.461163269919157
1746476202040026600,8.211026611328125,4.8593297909289594,3.064521718637645,-1.512642697265744
1746476202050022700,8.221022705078125,4.982029703402519,3.184449243788421,-1.5382694520838558
1746476202060018400,8.231018310546874,4.995424607026576,3.3229356311976908,-1.5230372500300406
1746476202070014700,8.2410146484375,4.934603935360908,3.30404388372302,-1.55219758580178
1746476202080010800,8.2510107421875,4.78103659093678,3.228698135359585,-1.6081807543084023
1746476202090007600,8.261007568359375,4.477952638784051,3.1040289686396716,-1.733241258433461
1746476202100003800,8.27100390625,4.105486522847413,2.9638074280008673,-1.8955607952423392
1746476202109999600,8.28099951171875,3.6633272774815557,2.869287315829098,-2.0744576651036737
1746476202119995600,8.29099560546875,3.1519536261141297,2.8821698860168454,-2.194163071936369
1746476202129991400,8.300991455078124,2.694793795493245,2.932819000019133,-2.292242776285857
1746476202139987700,8.31098779296875,2.2778876493275164,2.990426847118139,-2.360856732176244
1746476202149983700,8.320983642578126,1.857963616645336,3.0517750497892497,-2.421257132603228
1746476202159979500,8.3309794921875,1.3709259496331214,3.1219404729053375,-2.42709548336789
1746476202169976800,8.340976806640626,0.7563456062912941,3.0532071284189817,-2.4198751767255366
1746476202179972600,8.35097265625,0.06359130542278289,2.863436836235225,-2.3882518118411302
1746476202189968600,8.36096875,-0.6435714600265026,2.5285949330329895,-2.282033516960591
1746476202199964400,8.37096435546875,-1.2673176911205053,2.1616011110275983,-2.092570537160337
1746476202209960700,8.380960693359375,-1.5963316188216208,1.7314412232741712,-1.8882927039355037
1746476202219956700,8.390956787109374,-1.472951907390356,1.515598624461889,-2.018448631503433
1746476202229952500,8.400952392578125,-0.7884802816987038,1.7643365077905355,-2.4315935254395007
1746476202239949800,8.41094970703125,0.07355272746682166,2.1132063518233597,-2.7573621876090764
1746476202249945600,8.420945556640625,0.6046224284291267,2.35434179732427,-2.8994103591531513
1746476202259941600,8.430941650390626,0.6884083806186914,2.5183593702226874,-2.7618960316464305
1746476202269937700,8.440937744140625,0.16031038894355296,2.4623253483116625,-2.400305822250247
1746476202279933700,8.45093359375,-0.8089601751476526,2.468423080664873,-2.0250337089821695
1746476202289929700,8.4609296875,-2.0439087975829837,2.4787445681929587,-1.5507035478517412
1746476202299925500,8.470925537109375,-3.3589047702014443,2.238229300417006,-0.821762665836513
1746476202309922800,8.4809228515625,-4.3959582461863755,1.7112458458550273,-0.0377354180239141
1746476202319918600,8.490918701171875,-4.8579672704041,1.0998917710833251,0.5522765204463154
1746476202329914600,8.50091455078125,-4.624128703913092,0.5908933974798768,0.8968671527899801
1746476202339910700,8.51091064453125,-3.8464801973521707,0.1965399689817801,1.020585156264901
1746476202349906700,8.52090673828125,-2.7976743242532014,-0.06524266195953823,0.979590955640748
1746476202359902700,8.53090283203125,-1.8625205492973327,-0.25022985718576235,0.7570910178311169
1746476202369898500,8.5408984375,-1.2641665336132049,-0.43791992729566986,0.47580637116283175
1746476202379895800,8.550895751953124,-1.1260042635917662,-0.6559649315230548,0.29411139501556754
1746476202389891600,8.5608916015625,-1.3302186761915682,-0.8667567497517913,0.10966763161681592
1746476202399887600,8.5708876953125,-1.6435773541212082,-1.0096665796265005,-0.06610723376646638
1746476202409883600,8.580883544921875,-1.850313394153118,-1.044864149735868,-0.20864041234850883
1746476202419879700,8.590879638671876,-1.8279864115327595,-1.0801117695320397,-0.2092640241395682
1746476202429875700,8.600875732421875,-1.5582108547419309,-1.1438215137027203,-0.04419087777361273
1746476202439871500,8.61087158203125,-1.154647589752078,-1.3088827504351734,0.19851963502429423
1746476202449867800,8.62086767578125,-0.7212485739469527,-1.4820993827030062,0.44335415423884983
1746476202459864600,8.630864501953125,-0.39785599325895304,-1.596487978427112,0.6422759403232484
1746476202469860600,8.640860595703124,-0.17692893078923225,-1.7542923758991062,0.8612324333723634
1746476202479856600,8.650856689453125,-0.06392799003124237,-1.9079573354788124,1.012539870040491
1746476202489852700,8.660852783203126,0.015830606338381768,-2.017596836979687,1.0842425126612185
1746476202499848700,8.6708486328125,0.04838672202825546,-2.0579232944101093,1.1023269623409957
1746476202509844500,8.680844482421875,0.070862757730484,-2.0271283431738616,1.104181577231735
1746476202519840800,8.6908408203125,0.1721861201763153,-2.017290547509491,1.137020236190036
1746476202529837600,8.700837646484375,0.29389292995929717,-2.0276533899612725,1.1508930595241487
1746476202539833600,8.71083349609375,0.453466821321845,-2.0652190043762326,1.2120024850033222
1746476202549829600,8.72082958984375,0.5522837539047002,-2.077165462757647,1.3393342950612306
1746476202559825700,8.73082568359375,0.5500801063805818,-1.9997586902111768,1.4973600801989435
1746476202569821700,8.74082177734375,0.5088076002717018,-1.93043030244112,1.6335685858041047
1746476202579817500,8.7508173828125,0.4473877936691045,-1.8398735409423708,1.7071942323766647
1746476202589813800,8.760813720703124,0.36279227866232394,-1.7474626760095358,1.7561176916301249
1746476202599810600,8.770810546875,0.17285072156488895,-1.6208607876613734,1.7782336618483066
1746476202609806600,8.780806640625,-0.11324702447354792,-1.5122640732116996,1.7152277550980448
1746476202619802600,8.790802734375,-0.44474049403071403,-1.4174829720161854,1.593938586205244
1746476202629798700,8.800798583984376,-0.6857628345459699,-1.3861065676301716,1.4423495561167596
1746476202639794700,8.810794677734375,-0.8254168044298886,-1.4146841350778936,1.306550508095324
1746476202649790500,8.82079052734375,-0.9563146364063024,-1.4432286770388483,1.2018448828000574
1746476202659786800,8.830786865234375,-1.1177993298262356,-1.4527607677549124,1.1653327960260211
1746476202669783600,8.840783447265625,-1.273392627120018,-1.3714955662146209,1.1519441760122775
1746476202679779600,8.850779541015624,-1.545597456884384,-1.0838307900551707,1.1476076081126927
1746476202689775600,8.860775634765625,-1.7833792080432176,-0.810331682696566,1.1005184516143054
1746476202699771600,8.870771728515624,-1.9615999322086572,-0.5895101994931697,1.0612657608952372
1746476202709767700,8.880767578125,-2.1332991456508634,-0.40857678230293093,1.0840398296959697
1746476202719763700,8.890763671875,-2.364452418580651,-0.37611711272485554,1.1229031557712703
1746476202729759700,8.900759765625,-2.5624036791324616,-0.4969882754012942,1.1372082330428064
1746476202739756500,8.910756591796876,-2.5424481018185614,-0.5732222778413445,1.0711927692130208
1746476202749752600,8.920752685546875,-2.4325036260217425,-0.483998372381553,0.9534884000044316
1746476202759748600,8.93074853515625,-2.672051217809319,-0.2799046270193532,0.818028374679014
1746476202769744600,8.94074462890625,-3.468955628982186,-0.04109678421579301,0.6930849941276014
1746476202779740700,8.95074072265625,-4.895601712271571,0.17102043739780784,0.5218144544262439
1746476202789736700,8.96073681640625,-6.617069530802965,0.3880014656554907,0.2805044378097169
1746476202799732700,8.970732666015625,-8.197332058355212,0.5987976677983999,0.05350232974262908
1746476202809729500,8.9807294921875,-9.175705966356396,0.9282344970867037,-0.15967346101319416
1746476202819726300,8.990726318359375,-9.398133496516943,1.3625278313830493,-0.32001324044801294
1746476202829722400,9.000722412109376,-8.792983244821428,1.811147358804196,-0.43555951830726114
1746476202839718400,9.010718505859375,-7.41923697707057,2.1674010294780133,-0.5701304127732292
1746476202849714200,9.020714111328125,-5.596215494468808,2.3908963350005448,-0.752560680925101
1746476202859710200,9.030710205078124,-3.74552917535007,2.5568255867391825,-1.0258457071416078
1746476202869706500,9.04070654296875,-2.1052572925150392,2.758539414694905,-1.415843241985142
1746476202879702300,9.050702392578126,-0.7608405796229839,2.935722612506151,-1.8094944770306347
1746476202889699300,9.06069921875,0.35922143443822857,3.051566083213687,-2.147458457776159
1746476202899695400,9.0706953125,1.17491647079885,3.078110391268134,-2.462718147021532
1746476202909691400,9.08069140625,1.723030830064416,3.047401072488725,-2.6200521505028007
1746476202919687200,9.090687255859375,2.0402298168092963,2.990132248085737,-2.621801039996743
1746476202929683200,9.10068310546875,2.140032837820053,2.8471806979611514,-2.499505616670847
1746476202939679500,9.110679443359375,2.0688240431308746,2.7096979346364733,-2.3906369534119962
1746476202949675300,9.12067529296875,1.8338187709480522,2.8518896063044665,-2.3376363078474998
1746476202959672300,9.13067236328125,1.4880758267641068,3.21670696105361,-2.2756273031800984
1746476202969668400,9.14066845703125,1.0434750334650278,3.522780158150196,-2.1603598787948486
1746476202979664400,9.150664306640625,0.5681190364181995,3.8314828269675374,-2.054589181551337
1746476202989660200,9.16066015625,0.20573826116621494,4.076668132381141,-1.9982779501341281
1746476202999656200,9.17065625,-0.10871055008769034,4.092351146942377,-1.9101472467385232
1746476203009652500,9.180652587890625,-0.3404974447458982,3.955545552226901,-1.9110212530940769
1746476203019648300,9.190648193359374,-0.3873813609957695,3.757617672550678,-1.9960284176416694
1746476203029645300,9.200645263671875,-0.19000526998341083,3.5999338327184316,-2.2033277906447646
1746476203039641300,9.210641357421874,0.23581892665326593,3.5185347756654024,-2.4676760616898537
1746476203049637400,9.220637451171875,0.692916797953844,3.508283723025024,-2.7175419261351226
1746476203059633200,9.230633056640626,1.0553764836609363,3.5424709470480678,-2.9210049358457324
1746476203069629200,9.240629150390625,1.2799527162879705,3.637742462109029,-3.05980316568315
1746476203079625500,9.25062548828125,1.3488777839541435,3.7680668781116604,-3.0480095597758887
1746476203089621200,9.260621337890624,1.4133189842045306,3.9110543763324617,-2.9440400667354463
1746476203099618300,9.270618408203125,1.5468307980716227,3.970329572121799,-2.8124206424862144
1746476203109614300,9.2806142578125,1.7506202632576227,4.023419649535417,-2.69525089161098
1746476203119610400,9.2906103515625,2.0538222888320683,4.073726233710349,-2.626874105477333
1746476203129606100,9.300606201171876,2.3358237054675817,4.075840449385344,-2.6057629283875223
1746476203139602400,9.3106025390625,2.628528302425146,4.0559263731256125,-2.673182267665863
1746476203149598500,9.320598388671876,2.9119986225694414,4.04644864294529,-2.8643057280242443
1746476203159594200,9.33059423828125,3.0824691709995267,4.080757155260444,-3.0719881089955567
1746476203169591300,9.34059130859375,3.1090754383742807,4.0973777429327365,-3.127085726839304
1746476203179587300,9.35058740234375,3.045204146966338,3.996482542771101,-3.1662828879788516
1746476203189583400,9.360583251953125,3.0191923383533954,3.903632409638166,-3.219561765962839
1746476203199579100,9.3705791015625,3.0055940211117265,3.952003641836345,-3.313811244499683
1746476203209575400,9.380575439453125,3.0501597235471007,4.008173857347667,-3.3970030301883813
1746476203219571500,9.390571533203126,3.1490164036184547,4.022492890079319,-3.511725680172443
1746476203229567200,9.400567138671875,3.256035347357392,4.155649022376537,-3.6663378574743866
1746476203239563300,9.410563232421875,3.2361849839836356,4.249178662206233,-3.7119375791326163
1746476203249560300,9.420560302734375,2.8943671042889356,4.24522963231951,-3.516696454322338
1746476203259556400,9.430556396484375,2.326667754587531,4.249302580846845,-3.1826226128831503
1746476203269552000,9.44055224609375,1.7055694076538086,4.289653003674745,-2.8591686573967334
1746476203279548400,9.45054833984375,1.1783762558639048,4.461510622549056,-2.5903762664243577
1746476203289544400,9.46054443359375,1.07459790148139,4.9372950741410255,-2.6146201885819433
1746476203299540200,9.470540283203125,1.490235050624609,5.582316148453951,-3.1879519912123677
1746476203309536300,9.480536376953125,1.766264991635084,6.117228496319055,-4.019387909801304
1746476203319533300,9.490533203125,1.182710485675931,6.329959392851591,-4.486944923534989
1746476203329529300,9.500529296875,-0.6330027197390794,6.383668771207332,-4.410983673621714
1746476203339525000,9.510525146484374,-3.614349603822827,6.057589727914333,-3.6457457358226177
1746476203349521400,9.520521484375,-6.8863587653815745,5.5632893764227624,-2.345580252589285
1746476203359517400,9.530517333984376,-9.620654550179838,5.23919361590147,-0.9642593848656862
1746476203369513200,9.54051318359375,-11.279261715650557,5.147399129301309,0.11570855574887245
1746476203379509200,9.55050927734375,-11.473734486436843,5.2061330578207965,0.7199776772283017
1746476203389506300,9.56050634765625,-10.408236421734093,5.053612592101096,0.9213487561609596
1746476203399502300,9.57050244140625,-8.596037946441768,4.486111395320296,0.8282382915914058
1746476203409498000,9.580498046875,-6.655508274790645,3.607607728347182,0.514527475755848
1746476203419494400,9.590494384765625,-4.991116096177697,2.674275031338632,0.05116754838582128
1746476203429490400,9.600490478515624,-3.6476936550199985,1.8203510943487287,-0.3166762049797922
1746476203439486200,9.610486328125,-2.673739317026734,1.0889585813976823,-0.36831107861641793
1746476203449482200,9.620482177734376,-2.0258938329428435,0.5943079551637173,-0.23521763629186898
1746476203459479300,9.630479248046875,-1.485448985391855,0.42677389857694503,-0.16472586729824543
1746476203469475300,9.640475341796876,-0.9357266064077615,0.486497130394727,-0.1824433102965355
1746476203479471000,9.65047119140625,-0.380127444344759,0.5659213802434504,-0.2837086954774335
1746476203489467400,9.66046728515625,0.11564531778693199,0.7157045299537479,-0.4238412791911512
1746476203499463400,9.67046337890625,0.44031274071633814,0.9699265437819063,-0.5836775478169322
1746476203509459200,9.680459228515625,0.6448720212310552,1.2787865951180457,-0.6911088717490435
1746476203519455200,9.690455322265626,0.8200877183616161,1.5401647643111644,-0.7151712998598814
1746476203529452300,9.700452392578125,1.0528338134407997,1.8044070907637475,-0.5750592109449207
1746476203539448300,9.7104482421875,1.3798738107204436,2.089716901294887,-0.3171783823482692
1746476203549444000,9.720444091796875,1.6790794601351022,2.3587032074041665,-0.0354009837269783
1746476203559440400,9.7304404296875,1.896830230656266,2.663868495875597,0.18956147173866628
1746476203569436400,9.7404365234375,2.096872910529375,2.98156607979238,0.2905467613365501
1746476203579432200,9.75043212890625,2.281154542168975,3.2571085295468567,0.3323462139289826
1746476203589428200,9.76042822265625,2.4923154129058123,3.4261139738604425,0.2498888799946755
1746476203599425300,9.77042529296875,2.6399481065839527,3.525079667264223,0.1593337989963591
1746476203609421300,9.78042138671875,2.6269945169866085,3.4309044230073686,0.17613792654201388
1746476203619417000,9.7904169921875,2.556604052942991,3.236111334225535,0.29080424322895704
1746476203629413400,9.800413330078126,2.442799979108572,3.028885464850068,0.35665567560344935
1746476203639409400,9.810409423828125,2.376611058408022,2.847123122555017,0.31244587393365797
1746476203649405200,9.8204052734375,2.215997887125611,2.668782571402192,0.3203478061646223
1746476203659401500,9.8304013671875,1.8326894746571778,2.4243612360984086,0.5045194746237248
1746476203669398300,9.840398193359375,1.1703858416318893,2.1739755855627356,0.8099259514398872
1746476203679394300,9.850394287109374,0.3293091112554073,2.0197537227526308,1.0410742559336126
1746476203689390300,9.860390380859375,-0.39629765790104865,1.9946578599408267,1.2073218529064207
1746476203699386400,9.870386474609376,-0.8027239111065864,1.8964327557712792,1.3038107078678904
1746476203709382400,9.88038232421875,-0.8462275372684002,1.705573060915619,1.3421928993627428
1746476203719378200,9.890378173828125,-0.5573059659808873,1.5112582571700215,1.2790280026584864
1746476203729374500,9.90037451171875,-0.10115969631671905,1.235738019247353,1.2294994171187281
1746476203739371300,9.910371337890625,0.3060088996887207,0.9709902274906634,1.2068587654393166
1746476203749367300,9.9203671875,0.5825035356014967,0.7542641238421202,1.1355671878375113
1746476203759363300,9.93036328125,0.655557081374526,0.5838518084052949,1.0786362901519984
1746476203769359400,9.940359375,0.4728028054326772,0.3977892846982926,1.1194213050048798
1746476203779355400,9.95035546875,0.03243628870248794,0.23999760057739913,1.3709358865052461
1746476203789351200,9.96035107421875,-0.5322697244018316,0.16792006022967398,1.7096506856180727
1746476203799347500,9.970347412109374,-1.0107523290365934,0.11334189054961316,1.9792676908463238
1746476203809343200,9.98034326171875,-1.2334838105797767,0.1484107745117042,2.1155608059950173
1746476203819340300,9.99034033203125,-1.140333817717433,0.14735963062411173,2.1547136896014214
1746476203829336000,10.000336181640625,-0.885773365715146,-0.0007509644977748394,2.1985073847509917
1746476203839332000,10.01033203125,-0.5975409457355737,-0.2557117591955699,2.273187362682074
1746476203849328000,10.020328125,-0.3192880679786205,-0.5154423255784437,2.396701514147967
1746476203859324200,10.03032421875,-0.11545534817278384,-0.8172467227820307,2.582752931939065
1746476203869320200,10.0403203125,-0.03015723785459995,-1.145298162126541,2.824797308978438
1746476203879316000,10.05031591796875,0.01070610293149948,-1.4253143962942063,2.9470529848158358
1746476203889313300,10.060313232421874,0.027618659287691114,-1.6662965509295462,2.9893501577973365
1746476203899309000,10.07030908203125,-0.037706922581791875,-1.8310729793712495,2.894136802664399
1746476203909305000,10.08030517578125,-0.1702285563677549,-2.0156592930458483,2.8367177561357617
1746476203919301000,10.090301025390625,-0.35093174499869345,-2.2810341306596995,2.82956817664206
1746476203929297200,10.100297119140626,-0.5548164872527123,-2.5827503015905617,2.8273028620585796
1746476203939293200,10.110293212890625,-0.8758867624729871,-2.830418948252499,2.839223309215903
1746476203949289000,10.1202890625,-1.2944775007247924,-3.1033097144544124,2.9067960854902863
1746476203959286300,10.130286376953125,-1.7382634705096482,-3.3832503991678355,3.0344547894150016
1746476203969282000,10.140281982421875,-2.161174410048127,-3.6526676440402865,3.1989275587350128
1746476203979278000,10.150278076171874,-2.5783365768015383,-3.881060512346029,3.30357860429883
1746476203989274000,10.160274169921875,-3.11370192913115,-4.019035735362768,3.3499849661648273
1746476203999270100,10.170270263671876,-3.7693010960817337,-4.058229681631922,3.3113024765491486
1746476204009266200,10.18026611328125,-4.5841871541470285,-4.061707879136502,3.187921596074104
1746476204019262000,10.190261962890625,-5.468410952332616,-4.0680481880739325,2.998710983599722
1746476204029259300,10.20025927734375,-6.2753147794723505,-4.075457295286655,2.790933325560391
1746476204039255000,10.210255126953125,-6.755420601394772,-4.1765076860100026,2.552463299876451
1746476204049251000,10.2202509765625,-6.738342625343799,-4.206494827994704,2.3261012067459523
1746476204059247400,10.230247314453125,-6.24767741548419,-4.167449058024585,2.0459471715427933
1746476204069243100,10.2402431640625,-5.479861151629686,-4.033845474220812,1.7021093303278088
1746476204079239200,10.2502392578125,-4.737034952124953,-3.818521054063737,1.3769777970179915
1746476204089235000,10.26023486328125,-4.395392428997159,-3.594653846488893,1.1129887877393514
1746476204099232300,10.270232177734375,-4.651097374859452,-3.3889401352420445,0.9629775283616036
1746476204109228000,10.28022802734375,-5.424187195202708,-3.046220630532503,0.7402756382390856
1746476204119224000,10.29022412109375,-6.568274227973818,-2.646950971083343,0.6094350894078612
1746476204129220400,10.300220458984375,-7.657886158713698,-2.1853763927601277,0.6189789436269552
1746476204139216100,10.310216064453124,-8.32740162281394,-1.4639599149003624,0.7254818276025354
1746476204149212200,10.320212158203125,-8.486867962148786,-0.5752361749470234,0.8939539687570184
1746476204159208000,10.3302080078125,-7.985984140613675,0.2554948102429509,0.9212656809873878
1746476204169205200,10.340205322265625,-6.786364021191001,0.9242356367088854,0.8814331445537507
1746476204179201000,10.350200927734376,-5.029994985148311,1.3905328596398234,0.8648558115012943
1746476204189197000,10.360197021484375,-3.0062399177998302,1.7374220512494445,0.7539345996268093
1746476204199193300,10.370193359375,-1.087035358250141,1.8968368065275252,0.7092763966023922
1746476204209189000,10.380189208984374,0.47509413124024863,1.8485373243913052,0.7210613808117806
1746476204219185200,10.39018505859375,1.556997971820831,1.6858222123935818,0.7014683531999587
1746476204229181000,10.400180908203126,2.127965967929363,1.552315366962552,0.6048411857463419
1746476204239178200,10.41017822265625,2.2153514059156176,1.492385506656766,0.3444507489489391
1746476204249174000,10.420174072265626,1.9124848959058522,1.5574695348553358,-0.0015168525700457393
1746476204259170000,10.430170166015625,1.5118489165395497,1.6792853579707443,-0.36403051522038876
1746476204269166300,10.440166259765626,1.26581663890779,1.7956904080837963,-0.6582631254628301
1746476204279162000,10.450162109375,1.168560379770398,1.8654269382633268,-0.8691419643878936
1746476204289158100,10.460158203125,1.1930156065911053,1.8925237656340002,-0.9690129360683262
1746476204299154000,10.47015380859375,1.3330524383127689,1.9076722349271178,-1.002910383364558
1746476204309150200,10.480150146484375,1.476640825036168,1.9580521765992045,-0.9454245552100241
1746476204319147000,10.49014697265625,1.6235469580054283,2.0531492118760943,-0.8032472043283283
1746476204329143000,10.50014306640625,1.8440461504518986,2.134132089343667,-0.5874718985985964
1746476204339139300,10.510139404296876,2.1892788070261475,2.188884839272499,-0.4140199232049286
1746476204349135000,10.520135009765625,2.6010727247446774,2.242768112890422,-0.2660015912100673
1746476204359131100,10.530131103515625,3.008353548952937,2.2839558633252977,-0.14831793599594384
1746476204369127000,10.540126953125,3.395959366354346,2.3097774100631474,-0.0396114775614813
1746476204379123200,10.550123291015625,3.68832903226912,2.3115289299055934,0.0178270773852244
1746476204389120000,10.5601201171875,3.88870547414124,2.301792548789084,-0.03675539401061833
1746476204399116000,10.570115966796875,3.9983477521210906,2.272712877038121,-0.17404296355675905
1746476204409112300,10.5801123046875,4.053932276698947,2.2540897173717616,-0.329031061499007
1746476204419108000,10.590108154296875,4.110807425609231,2.2561913658261297,-0.444400850280188
1746476204429104000,10.600104248046875,4.176843786096573,2.306441543638706,-0.5441595572251826
1746476204439100000,10.610099853515624,4.282711806234717,2.3062317002803088,-0.6275850786045193
1746476204449096200,10.62009619140625,4.475556683558225,2.276450602261722,-0.673070745429024
1746476204459093000,10.630093017578124,4.705480706954002,2.2971026374071837,-0.8214649980641902
1746476204469089000,10.640089111328125,4.908104050970077,2.3343919190987945,-0.999868458385393
1746476204479085300,10.650085205078126,5.045837281924486,2.340671730020642,-1.1450795509397982
1746476204489081000,10.6600810546875,5.095244579172134,2.293854449266195,-1.250420916855335
1746476204499077000,10.6700771484375,5.075979322209954,2.246608421705663,-1.2863223974503577
1746476204509073000,10.680072998046874,4.989167300197482,2.2120827595084904,-1.2422339571379124
1746476204519069200,10.690069091796875,4.880727383744716,2.2261823042705653,-1.1743902549676597
1746476204529066000,10.70006591796875,4.693032728791237,2.342327680534124,-1.1358042845290153
1746476204539062000,10.71006201171875,4.310943628984689,2.466753978408873,-1.137564353004098
1746476204549058300,10.720058349609374,3.7458407255172728,2.5516195425286887,-1.3058169331237672
1746476204559054000,10.73005419921875,2.9622751038670536,2.597539582182467,-1.5060007750332354
1746476204569050000,10.740050048828126,1.9096768527477979,2.549022804033756,-1.674363975920528
1746476204579046100,10.750046142578125,0.6896037278831004,2.4668352269515395,-1.7945855155818162
1746476204589042200,10.760042236328125,-0.533016743376851,2.4111460729554293,-1.7392881373822688
1746476204599039000,10.7700390625,-1.6204115825891494,2.302855501845479,-1.6516040087103843
1746476204609035300,10.78003515625,-2.519838795125484,2.28594791392535,-1.8054858259111641
1746476204619031300,10.79003125,-2.890655390289426,2.4949030913114547,-2.1301751684114336
1746476204629027000,10.800027099609375,-2.5112743803977966,2.70819395981431,-2.271409685485065
1746476204639023000,10.810023193359376,-1.5545383037090301,2.75567642647922,-2.334425382976979
1746476204649019100,10.82001904296875,-0.4288169487118721,2.708109788662195,-2.35866419056803
1746476204659015200,10.83001513671875,0.37034079434573647,2.5323452254772185,-2.255387794358283
1746476204669012000,10.840011962890625,0.3806090903818607,2.0561255973383785,-2.0643411986283957
1746476204679008300,10.85000830078125,-0.3985205946475267,1.4588009247019886,-1.907357323759049
1746476204689004300,10.86000439453125,-1.6432231338560581,0.9984333840809761,-1.7662626535475252
1746476204699000000,10.87,-3.0479256808847186,0.6125592127777636,-1.6320046974882483
1746476204708996000,10.87999609375,-4.3387738851964475,0.1468635359365493,-1.2965299032099544
1746476204718992100,10.8899921875,-5.2264925397604705,-0.23517105720378456,-0.7900937082447111
1746476204728988200,10.89998828125,-5.521413059201836,-0.4150364798363298,-0.27807825184240936
1746476204738985000,10.90998486328125,-5.216148255878687,-0.4331809891402721,0.12790318020507693
1746476204748981200,10.919981201171876,-4.503067206296325,-0.34912842190377413,0.3597467734865844
1746476204758977300,10.929977294921875,-3.741261581033468,-0.35138752594217654,0.5214182216502726
1746476204768973000,10.93997314453125,-3.1767683338969945,-0.5047650468826294,0.7508421865694225
1746476204778969000,10.949968994140624,-2.7603771515160798,-0.7028006977822632,0.7395277424812317
1746476204788965000,10.959965087890625,-2.4464742837071416,-0.8487185503665358,0.47336920714378355
1746476204798961200,10.969961181640626,-2.1128157450705767,-0.9634339668922126,0.09051146105229854
1746476204808958000,10.9799580078125,-1.6986206114292144,-1.1512819127112626,-0.3276131209924817
1746476204818954200,10.989954345703126,-1.2289894217699766,-1.4091735549628734,-0.5821516534239053
1746476204828950000,10.999949951171875,-0.7141857959538698,-1.7441699180744588,-0.6010647359475493
1746476204838945800,11.00994580078125,-0.17427929306328296,-2.0500100370675325,-0.4553656406804919
1746476204848941800,11.01994189453125,0.3648854515492916,-2.2533470823109147,-0.2162681307479739
1746476204858937900,11.029937744140625,0.8404296646445989,-2.343068562029302,0.09169599466174841
1746476204868934000,11.039933837890626,1.180638355576992,-2.349459578240663,0.3922352307677269
1746476204878930700,11.0499306640625,1.434247205942869,-2.317532261973619,0.6329676484256982
1746476204888927000,11.059927001953126,1.6436784764081238,-2.2370342454135415,0.8513052789241075
1746476204898923000,11.069923095703125,1.755823092597723,-2.1894372124582526,1.0748507071986795
1746476204908918800,11.079918701171875,1.6991835060089826,-2.2785708092860877,1.2850468245565891
1746476204918914800,11.089914794921874,1.5046405925959347,-2.409086948468536,1.5039254300639033
1746476204928910800,11.099910888671875,1.3246154493570328,-2.5087580136626957,1.7086106750458478
1746476204938907000,11.109906982421874,1.1364689589828252,-2.5852684218913313,1.907302232570946
1746476204948903700,11.119903564453125,0.9688859486877918,-2.661628607994318,2.07251617564708
1746476204958900000,11.12989990234375,0.7724222963452338,-2.7200913183569906,2.2004446364238857
1746476204968896000,11.13989599609375,0.5202326651275158,-2.75283243522495,2.3015464650735256
1746476204978891800,11.149891845703126,0.08729016091823577,-2.779198756363988,2.4328528778508303
1746476204988887800,11.1598876953125,-0.554143702557683,-2.8272312581270933,2.558896840055287
1746476204998883800,11.1698837890625,-1.3264134386897086,-2.8727085224494338,2.7027389092788097
1746476205008879900,11.1798798828125,-2.078093975779414,-2.9017601371496915,2.771693787561357
1746476205018876700,11.189876708984375,-2.6777503062337638,-2.8180905048161744,2.7574957508608695
1746476205028873000,11.199873046875,-3.026311814969778,-2.6042118995532393,2.5709938128232954
1746476205038869000,11.209868896484375,-3.083324911046028,-2.4373393756151196,2.297560610307753
1746476205048864800,11.21986474609375,-3.012680179980397,-2.338005579551309,2.039027455282211
1746476205058860800,11.22986083984375,-2.9828040971547365,-2.349243012880534,1.8052647305063902
1746476205068856800,11.23985693359375,-3.0425667842000723,-2.3928709960743784,1.6027736345678567
1746476205078852900,11.249852783203124,-3.181094380402565,-2.3993407766103743,1.4519970899060368
1746476205088849700,11.259849609375,-3.316814517968893,-2.3419880733162164,1.284496789458394
1746476205098846000,11.269845947265624,-3.3873014281243083,-2.1392501630097627,1.1356057662822305
1746476205108842000,11.279842041015625,-3.456964162415266,-1.8984325512863693,1.067075981543958
1746476205118837800,11.289837646484376,-3.523670969510078,-1.6964697170056402,1.0558378175623715
1746476205128833800,11.299833740234375,-3.5602357363194224,-1.498152838011831,1.1086689517788588
1746476205138829800,11.309829833984375,-3.5170044973582026,-1.3547520828150212,1.1550611389890313
1746476205148825900,11.319825927734374,-3.367997592717409,-1.2207280816420911,1.1408254006266594
1746476205158822700,11.32982275390625,-3.0417607285141943,-1.0507317265950142,1.0604099477834998
1746476205168819000,11.33981884765625,-2.4923849710106847,-0.8223832088876515,0.8808084367841482
1746476205178815000,11.34981494140625,-1.9755390257120131,-0.6885785495538264,0.7015621689632534
1746476205188810800,11.359810791015626,-1.8491718229025602,-0.6802933901589363,0.5499281306892633
1746476205198807000,11.36980712890625,-2.354806638357043,-0.7293349958993494,0.37153687226250764
1746476205208802800,11.379802734375,-3.4760622461169954,-0.6367528660528361,0.2542876264102757
1746476205218798800,11.389798828125,-5.139742477068305,-0.47968270113952455,0.1995136875629425
1746476205228796000,11.3997958984375,-6.774128224474191,-0.27994484943188724,0.313366715105623
1746476205238792000,11.4097919921875,-7.787680997884273,0.12626900313198566,0.5215259198084473
1746476205248788000,11.4197880859375,-7.816549364972114,0.8666972015842794,0.6894079130500554
1746476205258783700,11.42978369140625,-6.7707561176925894,1.7444976887241004,0.7104736435629427
1746476205268780000,11.439780029296875,-4.977830498147011,2.5261755969315765,0.6105620476111769
1746476205278775800,11.44977587890625,-3.031770664897561,2.983907089960575,0.4407265822142362
1746476205288771800,11.459771728515625,-1.3704331976801156,3.101909200006723,0.2271052396479994
1746476205298769000,11.469768798828126,-0.2308399691969156,2.9828987897008656,0.01411927237585187
1746476205308765000,11.479764892578125,0.3916057006925344,2.711300693657994,-0.13039455862939356
1746476205318761000,11.489760986328125,0.5830933181881904,2.4104911161780356,-0.22081118100509045
1746476205328756700,11.4997568359375,0.5328542462915182,2.2528975849777457,-0.2806331239569932
1746476205338753000,11.5097529296875,0.5008031575143337,2.2371558259665965,-0.3613457331158221
1746476205348748800,11.519748779296876,0.572644404888153,2.2807857088565826,-0.4361658501699567
1746476205358744800,11.529744873046875,0.7240355743169784,2.279656120304763,-0.4217321050174534
1746476205368742000,11.539741943359376,0.8642571149557828,2.3113211323738097,-0.37991482450738545
1746476205378738000,11.549738037109375,1.0211977352052926,2.395659750010073,-0.3574478488944471
1746476205388734000,11.55973388671875,1.1370610796570777,2.5376915549412367,-0.3275907630302012
1746476205398729700,11.569729736328124,1.2015063715606926,2.6565675252124668,-0.30394568354859947
1746476205408726000,11.57972607421875,1.3019523666501045,2.76475931212306,-0.2805339013662189
1746476205418721800,11.5897216796875,1.4718559288471937,2.922994648358226,-0.23772088781706988
1746476205428717800,11.5997177734375,1.785858749899268,3.049903995220363,-0.241716898650676
1746476205438715000,11.60971484375,2.22331025596559,3.1766242492511867,-0.2244334631554782
1746476205448711000,11.6197109375,2.6872803511232135,3.27839126381129,-0.24675876527540383
1746476205458707000,11.62970703125,3.105359632721543,3.3327985613033175,-0.3081070410117507
1746476205468702700,11.63970263671875,3.4486171898305416,3.357959598305821,-0.32536833774037655
1746476205478699000,11.649698974609375,3.7456022405862806,3.370567150944471,-0.34270671829320487
1746476205488694800,11.65969482421875,3.9811131242036817,3.3615342419221994,-0.3779494427185505
1746476205498690800,11.66969091796875,4.232707127615809,3.34141938239336,-0.4104761131182313
1746476205508688000,11.67968798828125,4.476863089981675,3.317390272030234,-0.4317300596795976
1746476205518684000,11.689683837890625,4.656126016676426,3.2884503010109065,-0.4882294340800494
1746476205528680000,11.699679931640626,4.7246372428447,3.237110866656899,-0.5780580274347216
1746476205538675700,11.70967578125,4.7226212268471714,3.119272715000808,-0.6824399737335741
1746476205548672000,11.719672119140625,4.7020986633002755,2.987579640993476,-0.7629019691321999
1746476205558667800,11.729667724609374,4.5759798822939395,2.8626451013356444,-0.7809235827088356
1746476205568663800,11.739663818359375,4.361840288007259,2.722084538000822,-0.7656578437115996
1746476205578660900,11.749660888671874,4.120773523828387,2.6084391618594527,-0.7556264982365072
1746476205588657000,11.759656982421875,3.903995982253551,2.550910517476499,-0.7841001669183373
1746476205598653000,11.76965283203125,3.7795752373367546,2.561218268740177,-0.8761649948924779
1746476205608648700,11.779648681640625,3.694207568913698,2.5827970633417365,-1.0015986431788653
1746476205618645000,11.78964501953125,3.647476797398925,2.6111291315957903,-1.157096517274156
1746476205628640800,11.799640869140624,3.5987270872771737,2.6834268905654546,-1.319807172292471
1746476205638636800,11.80963671875,3.446339308026433,2.8148151364073155,-1.448824012827873
1746476205648633900,11.8196337890625,3.0863837140947576,2.941595303931832,-1.6113289892062543
1746476205658630000,11.8296298828125,2.401414660274982,3.068174103665352,-1.6502024713493884
1746476205668626000,11.8396259765625,1.389931094354391,3.1548481785118576,-1.5811609376966953
1746476205678621700,11.84962158203125,0.25841128221154214,3.1683275455489754,-1.4741934318840504
1746476205688618000,11.859617919921876,-0.618758505809307,3.0302520770281554,-1.297523736552894
1746476205698613800,11.86961376953125,-1.0728642095565795,2.635296481385827,-1.252301323774457
1746476205708609800,11.87960986328125,-1.0467261442154645,2.276598194038868,-1.4549018714368342
1746476205718606800,11.88960693359375,-0.6993962231010198,2.1059131260752677,-1.7589865250647068
1746476205728603000,11.899602783203125,-0.2957476179152727,1.879681819717586,-2.0657696239963173
1746476205738599000,11.909598876953124,-0.15733984870016574,1.5743164786294102,-2.3041186536490916
1746476205748595000,11.919594970703125,-0.5076625218898058,1.2725854023903607,-2.4065748195171355
1746476205758591000,11.929591064453126,-1.4155056805938482,1.0987113291271031,-2.3653566739439964
1746476205768586800,11.939586669921875,-2.8117805910170075,1.0787097207143903,-2.120661636265367
1746476205778582800,11.949582763671875,-4.471449248239398,1.0506617300987242,-1.627844362938404
1746476205788579800,11.959579833984375,-5.987511983081698,0.9492328614518046,-0.8753169997610152
1746476205798575900,11.969575927734375,-6.977232630005479,0.8724307768002152,-0.08228146591074764
1746476205808572000,11.979572021484374,-7.247798460391164,0.7149078266181051,0.7133359011262654
1746476205818568000,11.98956787109375,-6.631704789876937,0.5278809148583561,1.3026634375289081
1746476205828564500,11.999564453125,-5.271024339926242,0.376285016637668,1.6497274011835454
1746476205838560300,12.009560302734375,-3.7368811739921566,0.13986958539597688,1.8117849260553716
1746476205848556300,12.019556396484376,-2.431956513532996,-0.1869711264519021,1.7356369213983416
1746476205858553300,12.02955322265625,-1.579467577782273,-0.468345460697636,1.4858154806166886
1746476205868549400,12.03954931640625,-1.2024334232777356,-0.7475703252919018,1.048082454195246
1746476205878545400,12.04954541015625,-1.1636550720721484,-1.0022096877492963,0.5812232865326106
1746476205888541200,12.059541259765625,-1.174466973465681,-1.2166833362959324,0.19377529004141686
1746476205898537500,12.069537353515624,-0.9793173263311385,-1.3779025106474756,-0.14620909061580895
1746476205908533200,12.079533203125,-0.5942378125369548,-1.613166726027429,-0.33617285954505205
1746476205918529300,12.089529296875,-0.0586719691991806,-1.899864483785629,-0.3554854627802968
1746476205928526300,12.0995263671875,0.505517326554656,-2.1005064447261392,-0.27664222768992186
1746476205938522400,12.1095224609375,0.9571224456578492,-2.26615044978261,-0.0753223674878478
1746476205948518400,12.119518310546875,1.173362811616063,-2.377763443313539,0.30387028022482987
1746476205958514200,12.12951416015625,1.1635504426538943,-2.384495381917059,0.71716013558954
1746476205968510500,12.139510498046874,0.9429927980184555,-2.3579335382059217,1.061797018227726
1746476205978506200,12.14950634765625,0.6563304038345813,-2.3166008263424036,1.327761053906381
1746476205988502300,12.159502197265626,0.41765550322830675,-2.264515834318101,1.5593402971632777
1746476205998499300,12.169499267578125,0.22619769634902476,-2.1922797424077984,1.7592844850979745
1746476206008495400,12.179495361328126,0.12406652465164661,-2.1415376894250513,1.8844282835923134
1746476206018491400,12.189491455078125,0.1711532699972391,-2.1409771329328415,1.9629902175232767
1746476206028487200,12.199487060546875,0.3227443459123373,-2.20206873049438,1.957525960768014
1746476206038483500,12.2094833984375,0.31649756047725675,-2.2584520042344924,1.9309477504439652
1746476206048479200,12.219479248046875,0.12051380060613155,-2.270965741109848,1.9554237277917563
1746476206058475300,12.229475341796874,-0.19971476309299468,-2.3160884929060934,1.9996061299979686
1746476206068472300,12.239472412109375,-0.5006190331190824,-2.384832797177881,2.0189156644932926
1746476206078468400,12.24946826171875,-0.7081757418841124,-2.443497898244858,2.032459913460165
1746476206088464400,12.25946435546875,-0.8671738791853189,-2.526620710350573,2.073439866363257
1746476206098460200,12.269460205078126,-1.0169529372423887,-2.5095094165518876,2.1025211455494164
1746476206108456400,12.27945654296875,-1.2142021870046853,-2.45772340747416,2.0629389306150374
1746476206118452200,12.2894521484375,-1.379052557465434,-2.3686020856060086,1.972209442897886
1746476206128448300,12.2994482421875,-1.5442016186118126,-2.1975722958579658,1.8317242828868328
1746476206138445300,12.3094453125,-1.799825900453329,-1.9776842210471628,1.7922915594257414
1746476206148441300,12.31944140625,-2.0297119299262762,-1.8205857798874376,1.8402816833518445
1746476206158437400,12.329437255859375,-2.1873077992141248,-1.6490145767390727,1.8487781474098561
1746476206168433200,12.33943310546875,-2.3316128097742794,-1.4385206454783677,1.7993815176866947
1746476206178429400,12.349429443359375,-2.624257200977206,-1.2295653219617904,1.772215278341621
1746476206188425200,12.35942529296875,-3.111975251469016,-0.9884767843425273,1.7702901554979382
1746476206198421200,12.369421142578124,-3.6197020707666874,-0.8723746626988053,1.7444122023977338
1746476206208418300,12.379418212890625,-4.0756040102809665,-0.8563457573093474,1.63869688860327
1746476206218414300,12.389414306640624,-4.455490047085285,-0.9456539069864899,1.5147199419312178
1746476206228410400,12.399410400390625,-4.693869179615378,-1.094000082696229,1.402900173781812
1746476206238406400,12.409406494140624,-4.597697793105245,-1.1990144816797226,1.2076567108839749
1746476206248402400,12.41940234375,-4.05049353442192,-1.1192817504037171,0.9277162453662604
1746476206258398200,12.429398193359376,-3.2702743005901573,-0.8840955686960369,0.6507368216112256
1746476206268394200,12.439394287109375,-2.682354000636935,-0.7776753945678472,0.5088196560356766
1746476206278391300,12.449391357421876,-2.600072023269534,-0.8122551250398159,0.44737208464331923
1746476206288387300,12.45938720703125,-3.1073160274863243,-0.7810862259246408,0.40169827483557163
1746476206298383400,12.46938330078125,-4.100978690034151,-0.6888749752171337,0.46710620122626423
1746476206308379400,12.47937939453125,-5.223707877478003,-0.45958603485450145,0.7024358099926262
1746476206318375400,12.48937548828125,-6.0508162882566445,-0.12171568720918148,0.9400495111081749
1746476206328371200,12.49937109375,-6.176360484245419,0.37185477910526094,1.027847548483312
1746476206338367200,12.5093671875,-5.373429652389883,1.0985479552589357,0.8285309909276664
1746476206348364300,12.5193642578125,-3.912193317234516,1.756887506958842,0.5165440762752667
1746476206358360300,12.5293603515625,-2.241804528555274,2.141249227872491,0.2284568734526634
1746476206368356400,12.5393564453125,-0.7924632138550282,2.2970519301332533,-0.017243505343608558
1746476206378352400,12.549352294921874,0.22548925581872462,2.391455137927085,-0.2783369758438319
1746476206388348400,12.559348388671875,0.7155529926538468,2.457128656451404,-0.49315454245731233
1746476206398344200,12.56934423828125,0.772347477543354,2.4822698197096584,-0.6294057181604206
1746476206408341500,12.579341552734375,0.6262573371320963,2.49853004963696,-0.6721951316382736
1746476206418337300,12.589337158203126,0.46592415183484553,2.481081194446981,-0.6630529900878668
1746476206428333300,12.599333251953125,0.46426761679947376,2.4797537452355027,-0.6411479592066258
1746476206438329300,12.609329345703125,0.5785147582262754,2.4911267876431347,-0.6784028271719813
1746476206448325400,12.619325439453124,0.7064204226493835,2.489808983042836,-0.7258247227560728
1746476206458321400,12.6293212890625,0.8174538627266883,2.54597510690093,-0.8422691550314426
1746476206468317200,12.639317138671874,0.8984048837512731,2.631583306081593,-0.9572007715910673
1746476206478313200,12.649313232421875,0.9660258830815553,2.7395398229315875,-1.0534005074128507
1746476206488310300,12.659310302734376,1.0364297911286353,2.8513869174793363,-1.0809080344762652
1746476206498306300,12.669306396484375,1.1217138729214668,2.9263109332993626,-1.040175772723928
