time,seconds_elapsed,z,y,x
1746476320232984000,0.921984130859375,0.5473310999333858,0.8322334987074136,-0.7394451056990772
1746476320242980400,0.93198046875,0.42080023099482056,0.8581763337373733,-0.6506031122289597
1746476320252976000,0.94197607421875,0.22803952482342718,1.0159311929792165,-0.6698639852769672
1746476320262973200,0.95197314453125,0.051985038781166074,1.2794400905907153,-0.69461220369488
1746476320272969200,0.96196923828125,0.01963058314323425,1.5767901752665638,-0.6365086820334196
1746476320282965200,0.97196533203125,0.15239303994774817,1.835382074742019,-0.5143887979375198
1746476320292961000,0.9819609375,0.45396658753752706,2.039005243450403,-0.37943263048101217
1746476320302958300,0.991958251953125,0.8240402553796767,2.2253274410068986,-0.2419722616512328
1746476320312954000,1.0019541015625,1.2144792503803967,2.4091452545270324,-0.1810729352587834
1746476320322950100,1.0119501953125,1.6226538085579871,2.558122348551452,-0.24021639442723244
1746476320332946200,1.0219462890625,1.9862486357748508,2.7049565853282806,-0.3524132157281041
1746476320342942200,1.031942138671875,2.303571541160345,2.8130826135262845,-0.46739893709514285
1746476320352939000,1.04193896484375,2.5987632787585255,2.9047862069725987,-0.5464943933809175
1746476320362935000,1.05193505859375,2.9228976177245376,3.001331687492132,-0.6977074662964791
1746476320372931300,1.061931396484375,3.243329595041275,3.0159803905695677,-0.6769973442882299
1746476320382927000,1.071927001953125,3.548597320973873,3.0748142723321914,-0.6809722392685711
1746476320392924200,1.081924072265625,3.7912972393125295,3.1458097165316343,-0.6909291312679648
1746476320402920200,1.091920166015625,4.073610790637135,3.221217131954431,-0.6858986628200858
1746476320412916200,1.101916259765625,4.355052819824219,3.3111440711170435,-0.6673490067813546
1746476320422912000,1.111912109375,4.632213810691237,3.389696798828244,-0.6191982124008238
1746476320432908000,1.121907958984375,4.869975688105821,3.382701240852475,-0.5523411101151258
1746476320442905000,1.131905029296875,5.103996040904522,3.359281786820292,-0.4739976412404328
1746476320452901000,1.141901123046875,5.350473139694333,3.3297990872263905,-0.3730663103194907
1746476320462897200,1.151897216796875,5.585583625817298,3.29443902003169,-0.26469688355335963
1746476320472893200,1.16189306640625,5.798688616359233,3.2191467554211615,-0.16380263323979452
1746476320482890200,1.17189013671875,6.007658114531636,3.1374650820344683,-0.07349026582301593
1746476320492886000,1.181885986328125,6.150316526928544,3.062150021070242,-0.011523533961339852
1746476320502882300,1.19188232421875,6.007603169474005,2.918195139122009,0.03804602747620083
1746476320512878000,1.201878173828125,5.616306680861115,2.7628350660622116,-0.0307030351690948
1746476320522875100,1.211875244140625,5.119617972928285,2.7077602445721625,-0.2414069924512878
1746476320532871200,1.22187109375,4.546304290476441,2.7302298505336045,-0.5423671573830768
1746476320542867200,1.2318671875,3.8209225622475147,2.663964941987395,-0.8483897568035871
1746476320552863200,1.24186328125,3.093905341771245,2.5948206786125896,-1.1711910205349325
1746476320562859000,1.25185888671875,2.4771178437739607,2.577788587529957,-1.416587630611658
1746476320572856000,1.26185595703125,1.9521499668180942,2.569041509711742,-1.5698179981663822
1746476320582852000,1.27185205078125,1.4181827908486127,2.49609580822736,-1.5764529061362147
1746476320592848100,1.28184814453125,0.9924953723341225,2.2769719957873225,-1.4556275553628801
1746476320602844200,1.29184423828125,0.7405506557881831,2.1929478509277103,-1.3926521898813544
1746476320612841200,1.30184130859375,0.6151408998340367,2.336370817956328,-1.4124291957579553
1746476320622837000,1.3118369140625,0.3015758856773376,2.463343000921607,-1.4491295716457069
1746476320632833300,1.321833251953125,-0.5301736289054155,2.4516540244325995,-1.721009699500352
1746476320642829000,1.3318291015625,-2.072293765068054,2.3560876180782913,-2.29348605434522
1746476320652825000,1.3418251953125,-4.186060527253151,2.249065897860378,-3.2012294059365987
1746476320662822100,1.351822265625,-6.52099342136085,2.144876478458941,-4.323729753060639
1746476320672818200,1.361818115234375,-8.8176161662966,1.8120973530054092,-5.409544337344169
1746476320682814200,1.371814208984375,-10.486977365493773,1.4104372912883758,-5.978427928394079
1746476320692810000,1.38181005859375,-10.78844219201207,1.0599449606202542,-5.662918794432282
1746476320702807300,1.391807373046875,-9.76019044664204,0.7524138198003173,-4.587375136533379
1746476320712803000,1.401802978515625,-7.789065145719051,0.48745647694617505,-3.11630451284498
1746476320722799000,1.411799072265625,-5.40268029679358,0.32326252456754445,-1.7247037317126988
1746476320732795100,1.421795166015625,-3.1975597775131464,0.2086165930815041,-0.6808321001455188
1746476320742791200,1.431791259765625,-1.4605471838474273,0.09673471948131919,0.05430062224715948
1746476320752788000,1.4417880859375,-0.3122387339890003,0.037513445836305614,0.4949041626036167
1746476320762784300,1.4517841796875,0.36769758636057376,0.009835019185394048,0.664039078515768
1746476320772780300,1.4617802734375,0.7262590955853462,0.005724953518062829,0.6336573842555284
1746476320782776000,1.471776123046875,0.823430014526844,-0.041458968591690064,0.5459200640916824
1746476320792773000,1.481773193359375,0.6970598891079426,-0.23548487239331006,0.45824178063869475
1746476320802769200,1.49176904296875,0.5301601849019527,-0.5270315314874052,0.4017731667026877
1746476320812765200,1.50176513671875,0.43582068999409673,-0.9007142566721886,0.42403322156667705
1746476320822761000,1.511760986328125,0.4758241990804672,-1.3107722174435854,0.5599257930904626
1746476320832757200,1.52175732421875,0.6156669695347547,-1.7479883073188363,0.8211828201219439
1746476320842754000,1.531754150390625,0.761968706870079,-2.2005603717580438,1.156656299225986
1746476320852750000,1.54175,0.7140308976531028,-2.6185703875124453,1.4325842411667107
1746476320862746000,1.55174609375,0.488829226604104,-2.930191281864047,1.5268088775232433
1746476320872742100,1.5617421875,0.21849954306185243,-3.048120618934929,1.4908154808610676
1746476320882739000,1.571739013671875,0.03626432255804538,-2.921986348098516,1.4124591525048016
1746476320892735200,1.5817353515625,-0.23104279829263685,-2.68871447557956,1.31232090819031
1746476320902731300,1.591731201171875,-0.629441227865219,-2.5467928530246016,1.179910918085277
1746476320912727000,1.60172705078125,-1.063840360623598,-2.5753932168260216,1.0173340455144644
1746476320922723300,1.611723388671875,-1.4930670591801405,-2.7762594880416986,0.9273103679791093
1746476320932719400,1.62171923828125,-1.7078882059901952,-2.9476506584480404,1.0245479224160312
1746476320942715400,1.63171533203125,-1.812795272141695,-3.0764141087442636,1.279153674864769
1746476320952711400,1.64171142578125,-1.8719179077178238,-3.1040739768251773,1.642251658475399
1746476320962707500,1.65170751953125,-1.9890555098891256,-3.087830405771732,1.911080874326825
1746476320972704500,1.66170458984375,-2.0621634161978957,-2.939176552352309,2.0495999949619175
1746476320982700300,1.6717001953125,-2.048403770914674,-2.7646614047065374,2.0834312451541424
1746476320992696600,1.681696533203125,-1.9077894315659998,-2.6474454766020177,2.045980927681923
1746476321002692400,1.6916923828125,-1.6524427976220846,-2.5685449583664535,1.9838477121129632
1746476321012689400,1.701689453125,-1.5227332986474036,-2.555134564912319,1.8402113945946097
1746476321022685400,1.711685546875,-1.6201520548701285,-2.587190329864621,1.6765198387801645
1746476321032681500,1.721681396484375,-1.8171838624894618,-2.5979765122950074,1.5094494541823864
1746476321042677500,1.731677490234375,-1.943105075097084,-2.5938848590672015,1.3497358620882034
1746476321052673300,1.74167333984375,-2.054869167536497,-2.6054677448332306,1.34521473140195
1746476321062670600,1.751670654296875,-2.1530565700441597,-2.6321502923145887,1.5198559896454213
1746476321072666400,1.761666259765625,-2.143445861133933,-2.537399001735449,1.7523055859960615
1746476321082662400,1.771662353515625,-2.2325316732972857,-2.327771185784787,1.8255640066914258
1746476321092658400,1.781658447265625,-2.4852426980406044,-2.055552619756013,1.776187689103931
1746476321102655500,1.791655517578125,-2.9288363601237535,-1.745405158957839,1.6894791274659335
1746476321112651300,1.8016513671875,-3.5629362274497747,-1.4220517412364482,1.5693353292159735
1746476321122647600,1.8116474609375,-4.409073163825274,-1.0950224845465273,1.5033295099973678
1746476321132643600,1.8216435546875,-5.228841733235121,-0.8132732160411774,1.4306722700655459
1746476321142639400,1.831639404296875,-5.405780016374588,-0.47547133052218704,1.330142396084964
1746476321152636400,1.841636474609375,-4.954214644759893,-0.05622494137324392,1.2551745411232114
1746476321162632400,1.851632568359375,-4.217452859860658,0.4004756011728197,1.2064482118770479
1746476321172628500,1.86162841796875,-3.8646711030811067,0.7198466712597757,1.1134150503274052
1746476321182624300,1.871624267578125,-4.225801586011052,0.822653696392104,0.8819885864794254
1746476321192620500,1.88162060546875,-4.783097615119814,0.9783435128629207,0.6805217190220951
1746476321202617300,1.891617431640625,-5.077174084952473,1.4132844974130392,0.38916926732584833
1746476321212613400,1.90161328125,-4.835910921418667,1.9422829450592398,0.10644377419948577
1746476321222609400,1.911609375,-4.101809295639396,2.4302907722778615,0.014746829689666627
1746476321232605400,1.92160546875,-3.105078477692604,2.8581074579060077,-0.07806611323803662
1746476321242602200,1.931602294921875,-2.031646112859249,3.068221449938416,-0.3446120039252564
1746476321252598500,1.9415986328125,-0.9294453341811895,2.9102888960421085,-0.6680089319948107
1746476321262594600,1.951594482421875,0.1609007560521364,2.4877877063483,-0.8695210998985916
1746476321272590300,1.96159033203125,1.0727315230876207,2.1290654536038636,-0.9276298822570591
1746476321282586400,1.97158642578125,1.6994880419135092,1.946439480216801,-0.8872305787861346
1746476321292583400,1.98158349609375,1.948440590906143,1.966051943181455,-0.8530814217511564
1746476321302579500,1.991579345703125,1.9803689300864933,2.1495706276245414,-0.9201249865196645
1746476321312575200,2.0015751953125,1.7929051612794398,2.382601969385892,-1.1070379165109245
1746476321322571500,2.011571533203125,1.7609651316612958,2.5156840135335923,-1.087903080995381
1746476321332568300,2.021568359375,1.796912643355131,2.536691730248928,-0.7825087330084294
1746476321342564400,2.031564453125,2.0729718104600905,2.5730308716088532,-0.36373021709956227
1746476321352560600,2.041560546875,2.5421599325269457,2.74423470274955,0.182427893531695
1746476321362556400,2.051556396484375,2.812064084133506,2.821371426182985,0.6074766488164663
1746476321372552400,2.061552490234375,2.455496379074454,2.5885522658675906,0.5249775215670466
1746476321382549500,2.071549560546875,1.7988129240185022,2.4594918784514066,-0.14944683042801915
1746476321392545500,2.081545654296875,1.6115794568359851,2.4264590851604937,-0.9932880570817738
1746476321402541300,2.091541259765625,1.7420727996647356,2.528567460504174,-1.6010709223031996
1746476321412537300,2.101537353515625,1.8705121325731275,2.47837894975096,-1.6336033648565411
1746476321422534400,2.111534423828125,1.9969015472143887,2.3005478094249963,-1.2494367281235754
1746476321432530400,2.121530517578125,2.2690660449683664,2.439200493311882,-0.860944629406929
1746476321442526500,2.1315263671875,2.591349203109741,2.7459946981593966,-0.5961782060150057
1746476321452522500,2.1415224609375,2.803423097038269,2.8945734405159946,-0.5969422491900622
1746476321462518500,2.1515185546875,2.926395981234312,2.8229376525864005,-0.7970912389818579
1746476321472515300,2.161515380859375,2.8880729725807903,2.4688252317249773,-1.022808312207088
1746476321482511600,2.17151171875,2.74707927852571,2.0587188287019726,-1.3610853774897753
1746476321492507400,2.18150732421875,2.882607108390331,1.801806552876532,-1.8864523367658257
1746476321502503400,2.19150341796875,3.1871435974389315,1.6584046286359428,-2.4749866769641637
1746476321512499500,2.20149951171875,3.542569146725535,1.5273451763570307,-2.6808687305152414
1746476321522496500,2.21149658203125,3.906502996638417,1.4688389191135762,-2.5871613960310813
1746476321532492300,2.2214921875,4.354362499472499,1.4584379366084932,-2.4500050881817934
1746476321542488300,2.23148828125,4.659962818360328,1.4509426124170421,-2.291621137256175
1746476321552484600,2.241484619140625,4.703986669003963,1.4869482840389012,-2.141625367708504
1746476321562481400,2.2514814453125,4.512933935794234,1.565864584365487,-2.1276317675389347
1746476321572477400,2.2614775390625,4.24057537677288,1.6867200380161405,-2.2621492513172328
1746476321582473500,2.271473388671875,3.9200007761150597,1.6467697204217313,-2.457824529761076
1746476321592469500,2.281469482421875,3.561579552143812,1.5029776278197764,-2.5921613962754604
1746476321602465300,2.29146533203125,3.1589217115610837,1.5236135886132716,-2.6200337380632757
1746476321612462600,2.301462646484375,2.825023518949747,1.6415622149065137,-2.8920111888125537
1746476321622458400,2.311458251953125,2.4984376951783895,1.8206418939888476,-3.122873954363167
1746476321632454400,2.321454345703125,2.1709721659630534,1.9509303618952631,-3.0731390325963495
1746476321642450400,2.331450439453125,1.8662778560042381,1.7664041078448294,-2.8326035988152025
1746476321652447500,2.341447509765625,1.3748831628262996,1.246340661804378,-1.6891976801760493
1746476321662443500,2.351443603515625,1.0418827958375214,0.22663988715857267,-0.24564017304163424
1746476321672439300,2.361439208984375,1.4055980345636605,0.2093788096256554,-1.060253003656119
1746476321682435600,2.371435546875,1.743215539959073,1.6609540208578109,-2.9721769046783444
1746476321692431400,2.381431396484375,1.2830267169058323,2.6093437094837424,-4.4112890863090755
1746476321702428400,2.391428466796875,0.19179098435640335,2.986274403613806,-5.173461206796765
1746476321712424400,2.401424560546875,-1.2900854032456874,2.9118215124368665,-5.250917371442914
1746476321722420500,2.41142041015625,-2.5096850653797387,2.4898975381091235,-4.987634099280834
1746476321732416500,2.42141650390625,-3.0569232263326644,2.1824814019709824,-4.39357982661724
1746476321742413600,2.43141357421875,-3.096538028362393,2.1584492228679357,-3.5124016797378657
1746476321752409300,2.441409423828125,-2.837228336006403,2.360680644956976,-2.795453141072392
1746476321762405400,2.4514052734375,-2.2069173395693302,2.667272459100187,-2.334244765713066
1746476321772401400,2.4614013671875,-1.5388731170654295,3.060760028016567,-1.848665480815619
1746476321782397400,2.4713974609375,-0.8857762883245944,3.1631948588356376,-1.2703690415151416
1746476321792394500,2.48139453125,-0.3275409325391054,2.8057079931050537,-0.7716194555297493
1746476321802390300,2.491390380859375,-0.419286903822422,2.158679086101055,-0.4938379581442103
1746476321812386600,2.501386474609375,-0.8271364678293466,1.5847240370057523,-0.445098148361966
1746476321822382300,2.51138232421875,-1.3348439979046582,1.140914394084364,-0.4527828576456755
1746476321832379400,2.52137939453125,-1.7925684766709804,0.798588857128471,-0.6289991831861436
1746476321842375400,2.53137548828125,-1.8488357228159904,0.6324953547388315,-1.1089780177280306
1746476321852371500,2.541371337890625,-1.7425930241465568,0.7366305597350001,-1.292465137989074
1746476321862367500,2.551367431640625,-1.782768382668495,0.9255705385744571,-1.0654966033980249
1746476321872363300,2.56136328125,-1.7135615754514932,1.0845485098704695,-0.45547892832923675
1746476321882360600,2.571360595703125,-1.4644833542525768,1.030001511646807,0.6919809053432195
1746476321892356400,2.5813564453125,-0.9760077633917331,0.4899018242716789,2.0620985342681406
1746476321902352400,2.591352294921875,-0.5020417593985795,0.057394788870215416,3.131398913863301
1746476321912348400,2.601348388671875,-0.40248774471282955,-0.1277881755232811,3.5923955461680888
1746476321922345500,2.611345458984375,-0.46220600809454915,-0.22255437141060827,3.750566292734444
1746476321932341500,2.621341552734375,-0.5730488940358162,-0.49406215882152316,3.4432381271407007
1746476321942337500,2.631337646484375,-0.6857488060206175,-0.8200497244387864,3.1376193958133456
1746476321952333600,2.64133349609375,-0.8299719835162163,-1.138300558324158,3.2295851473271844
1746476321962329600,2.65132958984375,-1.0071978514254092,-1.4067659092992544,3.5322032355338333
1746476321972326400,2.661326416015625,-1.3782885873556137,-1.799697305637598,3.963171517060697
1746476321982322400,2.671322509765625,-1.7992928164899349,-1.8301278074756264,4.594186570113897
1746476321992318700,2.681318603515625,-1.9451935718089342,-1.4559987267628312,5.001162273895741
1746476322002314500,2.691314453125,-1.8694068016797303,-1.4840920178249477,5.094057415214181
1746476322012311600,2.7013115234375,-1.852836775150895,-1.676696656651795,5.430685909572244
1746476322022307600,2.7113076171875,-2.0896967352896927,-1.8706857355743645,5.779995606327057
1746476322032303600,2.7213037109375,-2.5242571960896254,-1.8233973301768303,5.757290438044071
1746476322042299400,2.73129931640625,-3.111615770506859,-1.527271818859875,5.513671066772938
1746476322052295400,2.74129541015625,-3.52562561070919,-1.2225386381953953,5.346269258263707
1746476322062292500,2.75129248046875,-3.942092196413874,-1.1932616903066635,5.573453627562523
1746476322072288500,2.76128857421875,-4.490892784377932,-1.5346736195489763,5.694034648185968
1746476322082284500,2.771284423828125,-4.77639256452322,-1.685030769754946,5.635547387903928
1746476322092280600,2.781280517578125,-4.829848844900727,-1.7834797458082436,5.269871078237891
1746476322102277600,2.791277587890625,-4.841868368518353,-1.8359049295723437,5.062921687716245
1746476322112273400,2.8012734375,-4.857280457183719,-1.7679168504953384,4.851818684646487
1746476322122269700,2.811269775390625,-4.8993432368874545,-1.5077479109615086,4.471665521338582
1746476322132265500,2.821265380859375,-5.004176068758964,-1.1534750388413666,3.8282539280489085
1746476322142261500,2.831261474609375,-4.943191730964183,-0.8119690015748142,2.798077059835195
1746476322152258600,2.841258544921875,-4.811295535600185,-0.523044507677853,1.7576497235029935
1746476322162254600,2.851254638671875,-4.932957337197661,-0.28846447516977786,1.2550617283985017
1746476322172250600,2.861250732421875,-5.148033920073509,-0.2153539385125041,1.3318864632733165
1746476322182246400,2.871246337890625,-5.161467986664175,-0.25840280664414167,1.626815750543028
1746476322192243500,2.881243408203125,-5.090986337205767,-0.2918973722279072,1.916252724006772
1746476322202239500,2.891239501953125,-4.81604185334444,0.07343041626140474,1.8187075649254023
1746476322212235500,2.901235595703125,-4.384997291710973,0.9623033554270863,1.403540225251019
1746476322222231600,2.9112314453125,-4.111729216629267,1.7870939907826482,0.9347808499902486
1746476322232228600,2.921228515625,-4.025727926477789,2.2351661134541034,0.5471856635807082
1746476322242224400,2.931224365234375,-4.228222675678134,2.0885142475068568,0.29700015699332577
1746476322252220700,2.941220703125,-4.933609663626552,1.6156588351041077,0.18343878760728985
1746476322262216400,2.951216552734375,-5.850184994840622,1.5849104994885623,-0.27109171742331234
1746476322272212500,2.96121240234375,-5.776257588842511,2.1806395734965798,-1.1412579468250275
1746476322282209500,2.97120947265625,-4.7465708422333,3.007428250801563,-1.7404557198569177
1746476322292205600,2.98120556640625,-3.5246962209045885,3.5879984802529212,-1.9540794735759495
1746476322302201600,2.99120166015625,-2.434196401414275,3.7987154066145417,-1.8737609052360056
1746476322312197400,3.001197265625,-1.4836018962204456,3.6550749974429606,-1.4966126228325067
1746476322322194700,3.011194580078125,-0.8627548936992884,3.3241169499367476,-1.0773773030668496
1746476322332190500,3.0211904296875,-0.5040694658339023,3.0224253289252516,-0.9685364045977591
1746476322342186500,3.0311865234375,-0.2157651496618986,2.872036614537239,-1.0796958091422915
1746476322352182500,3.0411826171875,-0.12994213868677615,2.748867623247206,-1.3393459854990244
1746476322362178600,3.051178466796875,-0.20917232726812363,2.7271783540084957,-1.7479772014029322
1746476322372175400,3.06117529296875,-0.21378420497775077,2.812909887307882,-2.158122913523018
1746476322382171600,3.071171630859375,0.0882914469152689,2.871603483816981,-2.5268328917965293
1746476322392167700,3.081167724609375,0.49401744289696214,2.812607689490914,-2.7174267753228545
1746476322402163500,3.09116357421875,0.8421504970878362,2.6664132119223476,-2.720176658552885
1746476322412160500,3.101160400390625,1.0475976663529871,2.51253577863574,-2.5911878750681874
1746476322422156500,3.111156494140625,1.1450152535319327,2.4312673622250554,-2.405041034078598
1746476322432152600,3.121152587890625,1.3172832067728042,2.439946343243122,-2.2650066865749654
1746476322442148400,3.1311484375,1.6496230640262364,2.495471538849175,-2.194271646877378
1746476322452144600,3.14114453125,2.0494781221479177,2.550017075768113,-2.1713941907674075
1746476322462141400,3.151141357421875,2.5107056405991313,2.6369872109517454,-2.1689731011003253
1746476322472137500,3.161137451171875,3.0121085175722837,2.7265134603589773,-2.204988271202892
1746476322482133500,3.171133544921875,3.5251024636179205,2.7750770002588627,-2.240893405059725
1746476322492129500,3.181129638671875,4.009846466735005,2.7379019925966857,-2.246881101167202
1746476322502126300,3.191126220703125,4.349588124677538,2.6021467837169765,-2.1222265474945305
1746476322512122600,3.20112255859375,4.536586614060401,2.4406340332463383,-1.9509166256308554
1746476322522118700,3.21111865234375,4.568807214185595,2.4251181919455527,-1.878696169681102
1746476322532114400,3.221114501953125,4.535573053103685,2.510426531396806,-1.9104304475940763
1746476322542111700,3.23111181640625,4.594139808362722,2.6427082189470528,-1.9792904872000217
1746476322552107500,3.241107421875,4.745252160850167,2.7513436579719186,-2.1042717886090276
1746476322562103600,3.251103515625,4.983032158443331,2.8027295618161556,-2.104428148214519
1746476322572099300,3.261099365234375,5.1173091114640235,2.7733988379135726,-2.031319365122914
1746476322582095600,3.271095703125,5.02758909305036,2.6359730654731393,-1.9711390371873974
1746476322592092400,3.281092529296875,4.728191720455885,2.4452213610365985,-1.9307422909997403
1746476322602088400,3.29108837890625,4.303604956659674,2.3984017421945927,-1.9608431224919853
1746476322612084700,3.301084716796875,3.967013287180662,2.5968904706239697,-2.12799475563243
1746476322622080500,3.31108056640625,3.732608318978548,2.8935704009532928,-2.296847347471863
1746476322632077600,3.32107763671875,3.5535195798069235,3.103395346911251,-2.429661826724559
1746476322642073600,3.331073486328125,3.42420697119534,3.132844144235551,-2.520373048132658
1746476322652069600,3.341069580078125,3.2546511995226144,3.0145956582129,-2.58433844756484
1746476322662065400,3.3510654296875,2.7797505450278517,2.8016914509400723,-2.5350661748737093
1746476322672061400,3.3610615234375,1.8720728060185907,2.5673361670985817,-2.3160332555875183
1746476322682058500,3.37105859375,0.846792769935727,2.4177082079499956,-2.1286551192373038
1746476322692054500,3.381054443359375,-0.016935937231779098,2.478566873538494,-2.099560249917209
1746476322702050600,3.391050537109375,-0.6288362477093935,2.6242317742750045,-2.090232011210173
1746476322712046600,3.401046630859375,-1.052863039535284,2.6725755339443684,-2.05996839037165
1746476322722043400,3.41104345703125,-1.2630045040965079,2.522293494801223,-2.189097605240345
1746476322732039400,3.421039306640625,-1.3041834867030382,2.3810832353860136,-2.445967357098311
1746476322742035700,3.43103564453125,-1.3286854752749204,2.0665859088152647,-2.7210186623349784
1746476322752031500,3.441031494140625,-1.5217770208358763,1.595558880883455,-2.9069854705825446
1746476322762028500,3.451028564453125,-2.0618150411516427,1.123298511764407,-2.7974393464535474
1746476322772024600,3.461024658203125,-2.9564076731383797,0.8404628362618386,-2.436372868670523
1746476322782020600,3.4710205078125,-4.0211715783476825,0.8728747211754322,-2.002809163822979
1746476322792016400,3.481016357421875,-5.114652459475398,1.1278918309040367,-1.5895472193785012
1746476322802012400,3.491012451171875,-5.821138933098315,1.382283648341149,-1.214154548470676
1746476322812009500,3.501009521484375,-5.899606320613622,1.545083516012877,-0.8980794511891901
1746476322822005500,3.511005615234375,-5.425422289955615,1.522731398951262,-0.5770239351466298
1746476322832001500,3.52100146484375,-4.6255403242766855,1.3099328440099953,-0.38893794278800486
1746476322841997600,3.53099755859375,-3.7811598761796947,0.9765000769533216,-0.45877164973169565
1746476322851994600,3.54099462890625,-3.0197809518963097,0.49319246331490574,-0.49537309528961776
1746476322861990400,3.550990478515625,-2.5617630431413647,-0.07661788719110191,-0.29328283523693677
1746476322871986700,3.560986572265625,-2.40971837823987,-0.5542212978385389,0.05338584548979997
1746476322881982500,3.570982421875,-2.284085919445753,-0.7249620415121316,0.19692352493926882
1746476322891978500,3.580978515625,-1.9967215144723653,-0.5349134438436478,0.1193719370946288
1746476322901975600,3.5909755859375,-1.513890651500225,-0.2477575670544058,-0.05328691515997052
1746476322911971600,3.6009716796875,-0.9270604848712682,-0.09676065764017402,-0.15442206155732274
1746476322921967600,3.610967529296875,-0.2195434991568327,-0.13538710621967912,-0.14954714899733662
1746476322931964200,3.620964111328125,0.4887386257112026,-0.3740497318662703,-0.0731330407500267
1746476322941961000,3.6309609375,1.0922627375096081,-0.7360566323045641,0.023236790941655636
1746476322951957000,3.64095703125,1.5868617796868085,-1.1220199431959539,0.13415434955433012
1746476322961953300,3.650953369140625,1.9569418772697447,-1.3945368345841764,0.19433321618512273
1746476322971949000,3.660948974609375,2.232089190226793,-1.5590568040467798,0.19745368629321455
1746476322981946000,3.670946044921875,2.405855857592821,-1.638217580653727,0.1546075011268258
1746476322991942100,3.680942138671875,2.368257656082511,-1.6580794883348047,0.03725158002972603
1746476323001938200,3.690938232421875,2.1977871076524256,-1.5697034318760037,-0.11126878320313989
1746476323011934000,3.700933837890625,2.0646131474375724,-1.4390879239723084,-0.1598367800824344
1746476323021931000,3.710930908203125,1.9750819295942783,-1.3297779466867445,-0.05734503144435584
1746476323031927000,3.720927001953125,1.9069564878731964,-1.2928722574852407,0.18221074364967643
1746476323041923000,3.730923095703125,1.9108242692172526,-1.3141462239213286,0.465346242349036
1746476323051919000,3.740919189453125,1.9594991605371235,-1.3089809501126408,0.7408620598249137
1746476323061915100,3.7509150390625,1.99730954349339,-1.313100368130207,1.0313665163896977
1746476323071912000,3.760911865234375,1.9109318212449549,-1.2896060952961443,1.075354857328534
1746476323081908000,3.770907958984375,1.6524807915449142,-1.2964854795463383,1.0370437583085148
1746476323091904300,3.780904296875,1.0482914938360453,-1.4499904262587426,1.1107274917438625
1746476323101900000,3.790900146484375,0.027329905474185942,-1.6334736009970305,1.1080755889955907
1746476323111897000,3.80089697265625,-0.9662105919986963,-1.5762475928224622,0.9182572929516434
1746476323121893000,3.81089306640625,-1.8170850782901047,-1.2344000486418605,0.6436727284438908
1746476323131889200,3.82088916015625,-2.390388823869824,-0.7161943592973053,0.41791064703315495
1746476323141885000,3.830885009765625,-2.553776720562577,-0.26809710218459365,0.37410295989084985
1746476323151882000,3.840882080078125,-2.293888351535797,-0.19828056557141244,0.5561643581977114
1746476323161878000,3.8508779296875,-1.907466775482893,-0.4820080753471702,0.9394535179764032
1746476323171874000,3.8608740234375,-1.6657938621044157,-0.9954708810135722,1.3120491055116057
1746476323181870000,3.8708701171875,-1.6993705530136822,-1.572710358607024,1.4370583178408443
1746476323191866000,3.8808662109375,-1.8455600621461867,-2.1036983726352454,1.3335577574864028
1746476323201863200,3.89086328125,-2.1035651016443966,-2.2381338772185146,1.0619256130434571
1746476323211859000,3.90085888671875,-2.760650707760453,-1.9081223167821764,0.6538933859460055
1746476323221855200,3.910855224609375,-4.169706773823499,-1.282365768779069,0.2776026702199131
1746476323231851000,3.92085107421875,-6.300376155492663,-0.4016475675616413,0.12251944134011863
1746476323241848000,3.93084814453125,-8.8150997995615,0.5376888999063522,0.16259389677084982
1746476323251844000,3.940843994140625,-10.955658707082272,1.4728067998312413,0.3625509441871196
1746476323261840100,3.950840087890625,-11.984307342815399,2.3818428215816616,0.6032238136775792
1746476323271836200,3.960836181640625,-11.492109516561031,3.0632337246537205,0.7906908704202622
1746476323281833000,3.9708330078125,-9.765278709691762,3.312116423280537,0.9973924967259168
1746476323291829000,3.9808291015625,-7.434713363143802,3.2054876479029653,0.9691584820188581
1746476323301825000,3.990824951171875,-4.8317614005237814,2.9427324912682176,0.6134735511437058
1746476323311821000,4.000821044921875,-2.383419569379091,2.6214433126002548,-0.009316256008297205
1746476323321817000,4.010817138671875,-0.45163200711011886,2.2492522142127154,-0.7943304690316318
1746476323331814100,4.020814208984375,0.8529097915112972,1.8120608203873037,-1.657837057881057
1746476323341810000,4.030809814453125,1.558732832789421,1.419170632842183,-2.482412443050742
1746476323351806200,4.04080615234375,1.7546505416870115,1.1095241073034703,-3.1861750446677206
1746476323361802000,4.050802001953125,1.6457435922443866,0.9301629809312522,-3.755387137019634
1746476323371799000,4.060799072265625,1.3883598995149136,0.8705803266279399,-4.026878850078583
1746476323381795000,4.070795166015625,1.075425584477186,0.9244828894682228,-3.9299820719033476
1746476323391791000,4.080791015625,0.7049632095783949,1.022000868281722,-3.6253529361352324
1746476323401787100,4.090787109375,0.3878507320731878,1.2979301253966986,-3.291388692550361
1746476323411784000,4.100783935546875,0.16484627880752087,1.785899228040129,-2.995567132616043
1746476323421780200,4.1107802734375,-0.11440028616189955,2.3294006866827606,-2.7577909344151617
1746476323431776000,4.12077587890625,-0.47800388120710846,2.871365291146934,-2.6881217703834173
1746476323441772000,4.13077197265625,-0.759503193539381,3.322528219440579,-2.747002413897216
1746476323451769000,4.14076904296875,-0.7958218766331672,3.6724309136524793,-2.887577298018336
1746476323461765000,4.15076513671875,-0.641871670371294,3.937010947626829,-3.093364074501395
1746476323471761000,4.160760986328125,-0.37465047423839565,4.112173161004484,-3.2623660116836426
1746476323481757200,4.170757080078125,-0.007725625815987586,4.084834195441007,-3.4415655177533626
1746476323491754000,4.18075390625,0.4754015897542238,3.9616020757868884,-3.604053250735998
1746476323501750000,4.19075,1.0821329731613396,3.882054784080386,-3.7520796199068425
1746476323511746000,4.20074609375,1.7115847224205731,3.804397543904185,-3.8746006686821577
1746476323521742000,4.2107421875,2.306046991363168,3.722847972464561,-3.9638574534982443
1746476323531738000,4.220738037109375,2.8150650195151568,3.710136959451437,-4.0433506769299505
1746476323541735000,4.23073486328125,3.2271067745149136,3.801333480158448,-4.162965482869744
1746476323551731200,4.240731201171875,3.567621754917502,3.9608682085543867,-4.3847406866014005
1746476323561727000,4.25072705078125,3.793688518363237,4.1893578152328725,-4.642447327674925
1746476323571723000,4.260722900390625,3.836244050019979,4.5355645775362845,-4.924729607078433
1746476323581720000,4.270719970703125,3.7467268607020374,4.900808048743009,-5.114563027626276
1746476323591716000,4.280716064453125,3.439818381825089,5.171973598587512,-5.175742595732212
1746476323601711900,4.2907119140625,2.881798130095005,5.381043634524941,-5.1369771040081975
1746476323611708200,4.300708251953125,2.202040673443675,5.563605602765083,-5.025400643095374
1746476323621705000,4.310705078125,1.4765332730084657,5.735186158263683,-4.856152329936624
1746476323631701000,4.320700927734375,0.5472101039022207,6.0602791131287805,-4.500204802602529
1746476323641697300,4.330697265625,-0.49180444302260873,6.398550113996863,-3.993348336398601
1746476323651693000,4.340693115234375,-1.4014543588876724,6.583070230567455,-3.424531965366006
1746476323661690000,4.350690185546875,-1.829399200940132,6.721428315421939,-3.063805387061834
1746476323671686000,4.360685791015625,-1.4920026448190211,6.757503252887726,-3.1844059891685843
1746476323681682200,4.37068212890625,-0.4340612791061401,6.7101973118335,-4.0886853179112075
1746476323691678000,4.380677978515625,0.7348363697946071,6.49473435998857,-5.499338590037822
1746476323701675000,4.390675048828125,1.4527870712399482,5.79332445897758,-6.654777037906646
1746476323711671000,4.400671142578125,1.5053502021700143,4.773026887482405,-7.124487138020992
1746476323721667000,4.4106669921875,0.16804478258788585,4.010153048466146,-6.968228070294857
1746476323731663000,4.4206630859375,-2.5214649350225926,4.2882787927120924,-6.199264389970899
1746476323741659100,4.4306591796875,-5.641825737521052,5.2570419918030495,-5.132713016822934
1746476323751656000,4.440656005859375,-8.28694978543818,6.308925957173109,-4.055488858491182
1746476323761652000,4.45065185546875,-10.156114595055579,7.1207900370687245,-2.999910714778304
1746476323771648300,4.460648193359375,-10.813645606851576,7.425515326687693,-2.045194161218405
1746476323781644000,4.47064404296875,-9.573951251193881,7.395535198965669,-1.343922645764798
1746476323791641000,4.48064111328125,-6.964196622821688,7.159540915745496,-0.9717487907730042
1746476323801636900,4.490636962890625,-4.1711441131502385,6.467078291299939,-0.6874882700990885
1746476323811633200,4.500633056640625,-1.7955986381471156,5.413758740168809,-0.4940070311008021
1746476323821629000,4.51062890625,-0.06757014592587947,4.353845782122016,-0.4523007001519203
1746476323831626000,4.5206259765625,0.890557092860341,3.606867139112949,-0.6590999416131526
1746476323841622000,4.5306220703125,1.152555001387,3.3504502455890175,-1.3294691729985177
1746476323851618000,4.5406181640625,1.040421491113305,3.4843986973077055,-2.365733982823789
1746476323861614000,4.550614013671875,0.8844944318205118,3.963350088497996,-3.5089939171209927
1746476323871611100,4.560611083984375,0.6677519615590572,4.479777516123653,-4.454400498282909
1746476323881607200,4.570607177734375,0.3138613667547703,4.7261371260136364,-4.994755329462886
1746476323891603000,4.58060302734375,-0.27786709330976006,4.827096331322193,-4.963492760714888
1746476323901599200,4.59059912109375,-1.018832175117731,4.976836810934543,-4.487327785372734
1746476323911596000,4.600595947265625,-1.757902236959338,5.3582946271002285,-3.794225986240804
1746476323921592000,4.610592041015625,-2.382617605346441,5.968032791107893,-3.048041123957932
1746476323931588000,4.620588134765625,-2.7938790236234663,6.706172878623009,-2.3053071327812966
1746476323941584100,4.630584228515625,-3.0016812315821646,7.358363113912939,-1.4703582376353441
1746476323951580200,4.640580078125,-2.966995118126273,7.7091697712272405,-0.5594118522189557
1746476323961577200,4.6505771484375,-2.747076940438151,7.777949292942881,0.37292423496767874
1746476323971573000,4.660572998046875,-2.37161690338254,7.534924380433559,1.3262966804422438
1746476323981569300,4.6705693359375,-1.763663284704089,7.060535182592273,2.263955277825892
1746476323991565300,4.6805654296875,-1.112089720007777,6.446553974187374,3.1390128959983588
1746476324001562000,4.69056201171875,-0.5050146377295255,5.752482745501399,3.9715333949536085
1746476324011558400,4.700558349609375,-0.07993219937086105,5.0161558448880905,4.7267757161781185
1746476324021554200,4.71055419921875,0.15756722771525383,4.346764883950352,5.377778495249152
1746476324031550200,4.72055029296875,0.2927431754022837,3.748391579043865,5.88888735820055
1746476324041547000,4.730547119140625,0.4398749338209629,3.260592280009389,6.158890878528356
1746476324051543300,4.740543212890625,0.48087505272924896,2.948263237388432,6.191101541781425
1746476324061539000,4.7505390625,0.2717623466938734,2.7995114765524862,6.163530813288689
1746476324071535000,4.76053515625,-0.0899684402167797,2.665861715519428,6.088094171771407
1746476324081532200,4.7705322265625,-0.3979103537946939,2.3386790948987004,6.004440321528911
1746476324091528200,4.780528076171875,-0.6279951207101345,1.875249536358565,5.877925234681368
1746476324101524200,4.790524169921875,-0.8104197263062,1.3442396027594803,5.649558377599716
1746476324111520300,4.800520263671875,-0.9642214640080928,0.8211233450196683,5.339410478410125
1746476324121517000,4.81051708984375,-1.0051660533368587,0.27202216667383905,5.050167420083284
1746476324131513000,4.82051318359375,-0.9854495454758405,-0.3284672536037862,4.918252520018815
1746476324141509400,4.83050927734375,-1.022687096980214,-0.9153402364611625,5.097645795094967
1746476324151505200,4.840505126953125,-1.0543278513908385,-1.3371356159731744,5.421136575460434
1746476324161502200,4.850502197265625,-0.9217664701163768,-1.5363837844677268,5.642910025626421
1746476324171498000,4.860498046875,-0.6590735650628805,-1.5390519807636738,5.8618093816608186
1746476324181494300,4.870494384765625,-0.4330822049409151,-1.4907403697982429,6.030871232336759
1746476324191490000,4.880489990234375,-0.3408896589338779,-1.6747817629411816,6.152568689769506
1746476324201487000,4.890487060546875,-0.4345587072342634,-2.1334061131566764,6.2761997456133365
1746476324211483100,4.900483154296875,-0.6496715304672718,-2.792945249904692,6.368392291620373
1746476324221479200,4.910479248046875,-0.7930810534924269,-3.625713293880224,6.405478451955318
1746476324231475200,4.92047509765625,-0.7731120321750641,-4.526375601169467,6.197558170574903
1746476324241471200,4.93047119140625,-0.6609241613656281,-5.289252655056119,5.685352744558453
1746476324251468300,4.94046826171875,-0.904016878414154,-5.84884585519135,4.714341474279761
1746476324261464000,4.950464111328125,-1.845371261575818,-6.195799928730726,3.298828194901347
1746476324271460400,4.96046044921875,-3.329942295089364,-6.213484638503194,1.7138985523208974
1746476324281456000,4.9704560546875,-4.894895609828829,-5.91503419137001,0.42732130332663654
1746476324291453200,4.980453125,-6.221002174526452,-5.393276508632302,-0.3809241476804018
1746476324301449000,4.990448974609375,-7.249080901417136,-4.603058151094615,-0.5393317717425525
1746476324311445200,5.0004453125,-7.801090514555573,-3.721984633633494,-0.12151377142891287
1746476324321441300,5.010441162109375,-7.687713141700625,-2.9924983926951882,0.5716929493822157
1746476324331438000,5.02043798828125,-6.990747360616922,-2.363857667557895,1.168104598826915
1746476324341434400,5.030434326171875,-6.060602938255667,-1.8698865480206905,1.5334478771463036
1746476324351430100,5.04043017578125,-5.156668477427959,-1.497721022465825,1.715931373322755
1746476324361426200,5.05042626953125,-4.360430421209335,-1.223167876009643,1.666105850663036
1746476324371423200,5.06042333984375,-3.696113694795966,-1.032178271164,1.414183784340322
1746476324381419300,5.070419189453125,-3.1220734516352415,-0.8447568801939487,0.9766437962729483
1746476324391415000,5.0804150390625,-2.6145786875277754,-0.7338181326627731,0.5289779893800616
1746476324401411000,5.0904111328125,-2.166234031525254,-0.6829705734789371,0.17826982400417327
1746476324411408100,5.100408203125,-1.7302081743478774,-0.6765994310118257,-0.04662628822699189
1746476324421404200,5.110404052734375,-1.4711556716233491,-0.596125964371115,-0.133547469702363
1746476324431400000,5.12039990234375,-1.3929331987798212,-0.4208079759098589,-0.14475092769674955
1746476324441396200,5.130396240234375,-1.2759312056869268,-0.14426438628882168,-0.11712912660390137
1746476324451393000,5.14039306640625,-0.9682955815792084,0.164840433588624,-0.15657777828648686
1746476324461389000,5.15038916015625,-0.531038136780262,0.46953123641610145,-0.16228483082167802
1746476324471385300,5.16038525390625,-0.10874912853240966,0.7910404875755309,-0.11749284534975886
1746476324481381000,5.170381103515625,0.3033329584777355,1.1023188520997762,-0.02855404044166207
1746476324491378200,5.180378173828125,0.7563491134226322,1.339816525620222,0.08685319427307694
1746476324501374200,5.190374267578125,1.2459475708335637,1.5035913758039474,0.18610628978349267
1746476324511370200,5.200370361328125,1.7037825242370366,1.575111428399384,0.18776015793774276
1746476324521366000,5.210365966796875,2.115079013827443,1.5867258783474563,0.08659235137980431
1746476324531363300,5.22036328125,2.4752643248617647,1.613627621537447,-0.06852565655242651
1746476324541359000,5.230359130859375,2.853599040570855,1.6649088959634304,-0.28338260532822457
1746476324551355100,5.240355224609375,3.224489285492897,1.7113751713231204,-0.5364375116057694
1746476324561351200,5.25035107421875,3.604392273432016,1.7698986719623206,-0.6881473185297101
1746476324571348200,5.26034814453125,4.040430405569077,1.7978806116044521,-0.7322984488148242
1746476324581344000,5.270343994140625,4.357675569543242,1.7647931655168532,-0.6736207805272192
1746476324591340000,5.280340087890625,4.5837961090028285,1.6725170328795909,-0.5731609395755455
1746476324601336300,5.29033642578125,4.805631518489122,1.6509361924514174,-0.5113125688299537
1746476324611332000,5.30033203125,5.055100784832239,1.676395920139551,-0.5189539504285902
1746476324621329200,5.3103291015625,5.205912108546495,1.6976187409102916,-0.4481895385060459
1746476324631325200,5.3203251953125,5.172154800373315,1.644036496065557,-0.35292613368630404
1746476324641321200,5.3303212890625,4.900030050107836,1.5535937163352966,-0.33439076190125194
1746476324651317000,5.34031689453125,4.568787924963235,1.5215525644302368,-0.36629758336953816
1746476324661314300,5.350314208984375,4.22395858849287,1.6298311528414486,-0.5053877818908542
1746476324671310000,5.36031005859375,3.8873417845726013,1.805152356173098,-0.6772889476459473
1746476324681306000,5.37030615234375,3.3330542896300552,1.8827058437138795,-0.7690306080803274
1746476324691302100,5.38030224609375,2.6779069581001997,1.8291954950615763,-0.7178007715806365
1746476324701299200,5.39029931640625,1.9829197836130856,1.735789189350605,-0.5492859237955883
1746476324711295200,5.400295166015625,1.2675696200549602,1.74369689373523,-0.4345285312917083
1746476324721291000,5.410291015625,0.3945931920707226,2.0108616835057735,-0.5061852524114773
1746476324731287300,5.420287353515625,-0.5491688367545604,2.496741120393574,-0.669909285723418
1746476324741284000,5.4302841796875,-1.2213713479816912,3.0010306587189435,-0.7178234218038618
1746476324751280000,5.440280029296875,-1.4865940637737511,3.2780750374689696,-0.7376085379216819
1746476324761276200,5.450276123046875,-1.2933289152115583,3.2898400018036362,-0.8580409438546747
1746476324771272200,5.460272216796875,-0.7252408584535122,3.1010452766537666,-1.0960783502750098
1746476324781269000,5.47026904296875,0.00885609115064144,2.7185665930077434,-1.4086447087831795
1746476324791265300,5.480265380859375,0.584371667560935,2.2342504599139095,-1.7578429079875348
1746476324801261300,5.49026123046875,0.7812146746098995,1.6737939209476111,-2.0572424725390968
1746476324811257000,5.500257080078125,0.49097208385169505,1.2088202017053962,-2.3621651844263076
1746476324821254100,5.510254150390625,-0.1447977625131607,0.8743038771957159,-2.568002814313769
1746476324831250200,5.520250244140625,-1.0108043514847755,0.662073331400752,-2.572843532343209
1746476324841246200,5.53024609375,-1.7751514779239892,0.6319254458963871,-2.358406124153733
1746476324851242000,5.540241943359375,-2.2672458438038823,0.7104632682994008,-1.9739993950545787
1746476324861239300,5.5502392578125,-2.4663795921385288,0.8014896931365132,-1.5092571464806794
1746476324871235000,5.560235107421875,-2.3868314236491917,0.8332926523715257,-1.0830416124388575
1746476324881231000,5.570231201171875,-2.100391732305288,0.795039932475239,-0.7524627735085785
1746476324891227100,5.58022705078125,-1.67906484708786,0.7203076398350298,-0.6674868808820843
1746476324901224200,5.59022412109375,-1.3089958554208279,0.5742899801380932,-0.7757342704374343
1746476324911220000,5.600219970703125,-1.204454115450382,0.26610636675879357,-0.8055093771066516
1746476324921216300,5.61021630859375,-1.3719903639942406,-0.10758373801484704,-0.7524243411943315
1746476324931212300,5.62021240234375,-1.5728811851292848,-0.4608183531284332,-0.656376727194339
1746476324941209000,5.630208984375,-1.7137573902845382,-0.8199160150565207,-0.5550906280189752
1746476324951205400,5.640205322265625,-1.8598317486047744,-1.1672680749375373,-0.34034714955501255
1746476324961201200,5.650201171875,-1.9527906028091906,-1.4833113888412712,-0.08083608940802514
1746476324971197200,5.660197265625,-1.8215823897093533,-1.6574834221377968,0.049453547542169685
1746476324981194200,5.6701943359375,-1.3404840496182442,-1.7013208102986215,0.05345803394317627
1746476324991190300,5.680190185546875,-0.5918436108767986,-1.720788896356523,-0.06099960842914879
1746476325001186000,5.69018603515625,0.2353717674076557,-1.8254653686225413,-0.12983816685564814
1746476325011182000,5.70018212890625,1.0660919389426708,-1.9910611506231128,0.05104907310530543
1746476325021179100,5.71017919921875,1.7530986360698937,-2.2236200525671244,0.3515014346454292
1746476325031175200,5.720175048828125,2.227538687315583,-2.4439257682681084,0.6621892128653823
1746476325041171200,5.730171142578125,2.4961475384145975,-2.627220434696972,0.902069835999608
1746476325051167200,5.740167236328125,2.58441385088861,-2.7879987334132195,1.0804295302443205
1746476325061164000,5.7501640625,2.609047941407561,-2.8680373157680035,1.1398213381506501
1746476325071160000,5.76016015625,2.6100971581995487,-2.8876585465610027,1.1357925210259854
1746476325081156400,5.77015625,2.495741295701265,-2.9496973618447777,1.0941069040715694
1746476325091152100,5.780152099609375,1.977131847861409,-3.0684704562634226,1.242188364430517
1746476325101149200,5.790149169921875,0.8479968850284815,-3.255589649416506,1.5068283118985593
1746476325111145200,5.800145263671875,-0.7018482924282551,-3.2608009543240066,1.7601776345454154
1746476325121141200,5.810141357421875,-2.028093973335624,-3.034711394524574,1.969718648995459
1746476325131137000,5.820136962890625,-2.867312508624792,-2.7445418690025805,2.2397391204580663
1746476325141134300,5.83013427734375,-3.177718181967735,-2.5304019824549555,2.513428928083181
1746476325151130000,5.840130126953125,-3.093306206834316,-2.3958678398028015,2.7311095559775826
1746476325161126100,5.850126220703125,-2.8213077132970095,-2.3572442407675087,2.7961031294137237
1746476325171122200,5.8601220703125,-2.8047610676437613,-2.3810396885052323,2.7826199629843233
1746476325181118200,5.8701181640625,-3.4031817188233133,-2.316590451078862,2.7143957370638847
1746476325191115300,5.880115234375,-4.36275214215517,-2.1981272993922234,2.6916803396478293
1746476325201111000,5.890111083984375,-5.244290646779537,-2.192081589487195,2.699314780049026
1746476325211107300,5.900107421875,-5.7270250636398785,-2.2949203249320385,2.7388462877094746
1746476325221103000,5.91010302734375,-5.789541433307528,-2.3771733684659004,2.7253660438895224
1746476325231100200,5.92010009765625,-5.642872031703591,-2.3906509819373487,2.6678373995065687
1746476325241096200,5.93009619140625,-5.433838236123323,-2.2622958201810714,2.5440017610013483
1746476325251092200,5.94009228515625,-5.194491135343909,-2.001144445481151,2.3344404344156384
1746476325261088300,5.950088134765625,-4.876569095021486,-1.7356980039358139,2.127641850541532
1746476325271085300,5.960085205078125,-4.466386119630933,-1.5512163196794688,1.9902192929714917
1746476325281081000,5.9700810546875,-3.8336125324726105,-1.6027556605197488,1.8186340612977743
1746476325291077000,5.9800771484375,-3.0001065296113487,-1.6986021989896893,1.5983957117445766
1746476325301073200,5.9900732421875,-2.331606380033493,-1.814359744979441,1.2961103626236319
1746476325311070200,6.0000703125,-2.0120459248542786,-1.9040613509535789,0.8690542130392044
1746476325321066200,6.010066162109375,-2.270598076841235,-1.880206866504997,0.5983044774539769
1746476325331062000,6.02006201171875,-3.0655799955189225,-1.6927907362319528,0.5622626385401934
1746476325341058300,6.030058349609375,-4.101978222465515,-1.260263534825295,0.5517307596644386
1746476325351055000,6.04005517578125,-5.205684145009517,-0.4913341951623559,0.5221622449506074
1746476325361051100,6.050051025390625,-5.703101751738786,0.501015046699345,0.43773536450900136
1746476325371047200,6.060047119140625,-5.304325136503577,1.550005774845928,0.3286190831646323
1746476325381043200,6.070043212890625,-4.2545635701149696,2.371789921861887,0.2752508829293772
1746476325391040000,6.0800400390625,-2.9814608658522364,2.767777198639512,0.3630819457912817
1746476325401036300,6.090036376953125,-1.7402444151937961,2.8374028157904743,0.4718852521963417
1746476325411032300,6.1000322265625,-0.6968494612276553,2.744101431758702,0.43780251146107907
1746476325421028000,6.110028076171875,0.05734627355337143,2.620807645045221,0.2756178530782461
1746476325431025200,6.120025146484375,0.5346271011829375,2.58189573058784,-0.010983750829100608
1746476325441021200,6.130021240234375,0.8058885126173496,2.660419232204556,-0.3282105388963595
1746476325451017200,6.140017333984375,0.9929770183712243,2.799617859536409,-0.6273309577129781
1746476325461013000,6.150012939453125,1.2130477562725543,2.900861727005243,-0.8468165892027318
1746476325471010300,6.16001025390625,1.4720266092389822,2.914228865839541,-0.9939846610438078
1746476325481006000,6.170006103515625,1.7791496076494455,2.8764664136782288,-1.1102739027574657
1746476325491002000,6.180002197265625,2.085162598991394,2.8099250262781976,-1.2186216108821333
1746476325500998100,6.189998046875,2.462380293369293,2.796188761870563,-1.335553315217793
1746476325510995200,6.1999951171875,2.7830618615329263,2.8413354790642855,-1.392162360537797
1746476325520991000,6.209990966796875,3.042669075530767,2.8927064776003357,-1.3424915900483727
1746476325530987300,6.2199873046875,3.2089339889645574,2.925244473111629,-1.1756857016056774
1746476325540983300,6.2299833984375,3.296352160176635,2.930743070527911,-0.971383756852895
1746476325550980000,6.23997998046875,3.359520856273174,2.955096298278868,-0.8402522622510791
1746476325560976400,6.249976318359375,3.4166707304716106,2.970919305832684,-0.7064771943379193
1746476325570972200,6.25997216796875,3.488072417384386,3.003539718930423,-0.6760187085144221
1746476325580968200,6.26996826171875,3.577295592191815,3.0787162482067942,-0.798729507708177
1746476325590965200,6.27996533203125,3.667118486458063,3.163641433559358,-1.1087349296871571
1746476325600961300,6.289961181640625,3.735895670086145,3.2704481958523393,-1.5442369821861386
1746476325610957000,6.29995703125,3.8705835419952868,3.324209596656263,-1.9987473212115465
1746476325620953000,6.309953125,4.050524514082074,3.3031115713089703,-2.3691744786664843
1746476325630950100,6.3199501953125,4.255896280023455,3.1637837646394966,-2.5609733540683983
1746476325640946200,6.3299462890625,4.3927761090189215,2.921711038288474,-2.5386042858719824
1746476325650942200,6.339942138671875,4.519968072214723,2.5936869984075424,-2.268192184743285
1746476325660938200,6.349938232421875,4.522151845994592,2.2547335682332514,-1.7983029286697505
1746476325670935000,6.35993505859375,4.320114777433872,2.0141139632999896,-1.432302501615882
1746476325680931000,6.36993115234375,4.063830570378899,1.9550006800740956,-1.3482470848351715
1746476325690927400,6.37992724609375,3.899654153656959,2.0583309984281657,-1.4836080337002873
1746476325700923100,6.389923095703125,3.7253000417917965,2.2492951765716076,-1.6989609492994844
1746476325710920200,6.399920166015625,3.433556398820877,2.3921458966702223,-1.8151763220593333
1746476325720916200,6.409916259765625,2.9670179144799707,2.451933133634925,-1.6731705283522604
1746476325730912300,6.419912353515625,2.158395592984557,2.5227406540468333,-1.434547357933223
1746476325740908000,6.429907958984375,0.9393085565477609,2.720067645220458,-1.3605831270560622
1746476325750905300,6.4399052734375,-0.30754385417103763,2.926386336623132,-1.4152977369315922
1746476325760901000,6.449901123046875,-1.337121879708767,2.965161472958326,-1.4976844898477195
1746476325770897200,6.459897216796875,-2.0421347736477853,2.787304029147327,-1.629558181118965
1746476325780893200,6.46989306640625,-2.373113863942027,2.4403669067427516,-1.755182602737099
1746476325790890200,6.47989013671875,-2.2721640109837056,2.0475857325300573,-1.9008933884419499
1746476325800886300,6.48988623046875,-1.8987848718553781,1.721441515046358,-2.11462323288396
1746476325810882000,6.499882080078125,-1.356560739672184,1.5369316276088356,-2.390258329357952
1746476325820878300,6.50987841796875,-0.9957038129866123,1.4778025622919202,-2.620512169229984
1746476325830875100,6.519875244140625,-1.2489689644813537,1.5316548562496899,-2.6587489609047767
1746476325840871200,6.52987109375,-2.20729084905684,1.7085259193718432,-2.5250083067178726
1746476325850867200,6.5398671875,-3.561301319724321,1.8181261117756367,-2.157196446327865
1746476325860863200,6.54986328125,-4.742417229685187,1.8596067076772451,-1.602731110600382
1746476325870860000,6.559860107421875,-5.427779666736722,1.8073533733487128,-0.965971376415342
1746476325880856300,6.569856201171875,-5.359103020873666,1.6394959300264715,-0.4372274149868637
1746476325890852000,6.57985205078125,-4.412552238112688,1.4310402265951037,-0.19469660613741724
1746476325900848000,6.58984814453125,-2.8207518329799175,1.1312149839773773,-0.220240906836465
1746476325910845200,6.59984521484375,-1.1655378170788286,0.637054333217442,-0.37986736863646653
1746476325920841200,6.60984130859375,0.17557284000515938,-0.015518910040706395,-0.5553861038342118
1746476325930837200,6.619837158203125,0.8763561335504054,-0.7760293809264898,-0.5830413688052445
1746476325940832500,6.62983251953125,0.9780103353857994,-1.410428377329558,-0.5487042879827321
1746476325950829800,6.639829833984375,0.7502560572445393,-1.7143005572505294,-0.6531295619666576
1746476325960825600,6.64982568359375,0.4720820899426937,-1.704169769988954,-0.7716497045375407
1746476325970821600,6.659821533203125,0.3307821064174175,-1.6194896454386412,-0.7842465165864676
1746476325980818000,6.66981787109375,0.3181201932430267,-1.5629282386526464,-0.5958079844631254
1746476325990814700,6.679814697265625,0.4408890792995691,-1.595009868698567,-0.2450638709910214
1746476326000810500,6.689810546875,0.577016044101119,-1.744869736906886,0.2261514460545033
1746476326010806500,6.699806640625,0.6451864940077066,-1.887180651040375,0.7503199893262237
1746476326020802800,6.709802734375,0.5778910733699798,-2.004228236840665,1.1671895298086106
1746476326030799600,6.719799560546875,0.46763855453729625,-2.063651608929038,1.4297672840498388
1746476326040795600,6.729795654296875,0.33395781384408474,-2.082638925732672,1.5298625660054386
1746476326050791700,6.739791748046875,0.18606442340314386,-2.0756594421088694,1.5841212488070129
1746476326060787700,6.74978759765625,-0.02831599390208721,-2.162083049325645,1.6548934056445954
1746476326070784500,6.759784423828125,-0.22435119169950485,-2.263356435149908,1.7626060307361184
1746476326080780800,6.76978076171875,-0.3626087387889623,-2.4009590254619715,1.8606569473825394
1746476326090776600,6.779776611328125,-0.4886906949162483,-2.5220617318719625,1.9249447106368838
1746476326100772600,6.789772705078125,-0.6154162096440792,-2.6225726088911294,1.9017548275768756
1746476326110769700,6.799769775390625,-0.7573667660325765,-2.6739924150049683,1.8907003495991228
1746476326120765700,6.809765625,-0.9272107069969177,-2.6932538725748656,1.9269426064558326
1746476326130761700,6.81976171875,-1.1078133578628302,-2.756725058749318,2.0174733567304908
1746476326140757500,6.829757568359375,-1.1445961513370275,-2.8150521600335834,2.1558836101636287
1746476326150754800,6.8397548828125,-1.029774424892664,-2.8159190059959887,2.2654598371699453
1746476326160750600,6.84975048828125,-0.9138590579926967,-2.716627733899653,2.449483402395248
1746476326170746600,6.85974658203125,-0.915219824951887,-2.62848387876153,2.661566648674011
1746476326180742700,6.86974267578125,-1.1068524038761853,-2.5489661054104564,2.873632943817973
1746476326190739700,6.87973974609375,-1.5229133313894272,-2.3621514481619,3.0769954157635566
1746476326200735500,6.889735595703125,-2.0703847165763376,-2.017081580933928,3.24518486751914
1746476326210731800,6.899731689453125,-2.6467040105849504,-1.6442967544369398,3.356900736902654
1746476326220727800,6.909727783203125,-3.1761160074681043,-1.3307282331489025,3.3071912418380376
1746476326230724600,6.919724609375,-3.492287404730916,-1.1406064241137355,3.1857521430805322
1746476326240720600,6.929720703125,-3.8101094918102025,-1.049591762779653,3.0748344383373856
1746476326250716700,6.939716552734375,-4.349589878243208,-1.0227022214841097,2.9576296161487696
1746476326260712700,6.949712646484375,-5.226646269017458,-1.013210828104615,2.8211560298666356
1746476326270709800,6.959709716796875,-6.163554778686166,-0.9154425277918576,2.638955588415265
1746476326280705800,6.969705810546875,-6.637908320692182,-0.8367613513953983,2.4202051393322646
1746476326290701600,6.97970166015625,-6.362723013812303,-0.7399490366332232,2.1350354679241774
1746476326300699000,6.989698974609375,-5.6044426400661465,-0.5318847071396187,1.8241490253269672
1746476326310694700,6.999694580078125,-4.784986789867282,-0.40784189215712247,1.5526076279073953
1746476326320690700,7.009690673828125,-4.330932524046301,-0.35243133590668435,1.2688630208663643
1746476326330686500,7.0196865234375,-4.397698952373862,-0.2515302174609154,0.9238454683475196
1746476326340683800,7.029683837890625,-4.947702486386895,-0.09243716841787099,0.620618527527526
1746476326350679600,7.039679443359375,-5.538877988743781,0.17054178703539072,0.3919343481250107
1746476326360675600,7.049675537109375,-5.736567968010902,0.6221062088020145,0.22175408787839113
1746476326370671900,7.059671875,-5.291854361987114,1.1724969155017286,0.04074273748057894
1746476326380668700,7.069668701171875,-4.425785813695192,1.6707345333769916,-0.16979783680029212
1746476326390664700,7.079664794921875,-3.3486393967747685,1.9788499038256704,-0.3823689761938527
1746476326400660700,7.08966064453125,-2.288711241158843,2.077717251421511,-0.6019287323657423
1746476326410656800,7.09965673828125,-1.424948631721735,2.00721733565405,-0.8124712520085274
1746476326420652500,7.109652587890625,-0.9020943859189748,1.8615283233895896,-1.0382343563325702
1746476326430649900,7.11964990234375,-0.5820885250598192,1.7550078306920824,-1.3128433246292173
1746476326440645600,7.129645751953125,-0.31921967891752717,1.786151595366001,-1.6821189739614724
1746476326450641700,7.1396416015625,-0.08814414739906787,1.901026513302326,-1.9711799537196755
1746476326460638700,7.149638671875,0.1333645143508911,1.9988228706657885,-2.053168208837509
1746476326470634800,7.159634765625,0.3491261568814516,2.1036808369785547,-2.0668191330492496
1746476326480630500,7.169630615234375,0.5650719238072633,2.211738476115465,-1.9949907451570033
1746476326490626600,7.17962646484375,0.750054981714487,2.305999645090103,-1.8986342113383112
1746476326500623600,7.18962353515625,0.9241472277730702,2.3643717545598744,-1.785289279448241
1746476326510619600,7.19961962890625,1.1233435199499129,2.459875909332931,-1.6783827100425959
1746476326520615700,7.20961572265625,1.3932850809574127,2.5880039843350646,-1.6064000083714722
1746476326530611700,7.21961181640625,1.7274872249513864,2.764937006777525,-1.5495181374594569
1746476326540608800,7.22960888671875,2.0936434270888564,2.9752760397374627,-1.5002955491289496
1746476326550604500,7.2396044921875,2.47594470834136,3.1854896927520633,-1.4581594119280576
1746476326560600800,7.249600830078125,2.867567944690585,3.3804587226226923,-1.450726631578803
1746476326570596600,7.2595966796875,3.261848417550325,3.527832473103702,-1.4769051750607787
1746476326580593700,7.26959375,3.6283757910877465,3.622522388884425,-1.483601019437611
1746476326590589700,7.279589599609375,3.9742654502660035,3.644891457080841,-1.5061410602867602
1746476326600585700,7.289585693359375,4.267794223088026,3.566443651048839,-1.5256646759241819
1746476326610581800,7.299581787109375,4.57101787597239,3.460594920133054,-1.5368565165460109
1746476326620578800,7.309578857421875,4.8480076019257305,3.3229809316441417,-1.5325506360456347
1746476326630574600,7.31957470703125,5.092704247039556,3.156929953221977,-1.5104928257554768
1746476326640570600,7.329570556640625,5.334776388868689,2.998037906643748,-1.5272266645438968
1746476326650566700,7.339566650390625,5.659855315208435,2.8880998605877157,-1.5327030501283705
1746476326660563700,7.349563720703125,6.000497721382975,2.8230589408785103,-1.595727223187685
1746476326670559700,7.359559814453125,6.29892712572813,2.745309930765629,-1.6842479488141833
1746476326680555500,7.369555419921875,6.531258794787526,2.6882284456282854,-1.7871179561801254
1746476326690551800,7.3795517578125,6.7774670135080815,2.590892106992006,-1.903663876068592
1746476326700548600,7.389548583984375,6.825704097932577,2.4757868874311444,-2.074973505671322
1746476326710544600,7.399544677734375,6.536209110671281,2.2925258310109378,-2.2773175943546
1746476326720540700,7.409540771484375,5.802740522098541,2.206366719949245,-2.3337347703643143
1746476326730536700,7.41953662109375,4.679824872171879,2.143664180059731,-2.195878935943544
1746476326740533500,7.429533447265625,3.231320592817664,2.107360110013187,-1.7854145132631063
1746476326750529800,7.43952978515625,1.5578402678638696,2.177267174454033,-1.1822986900046466
1746476326760525800,7.44952587890625,-0.03532733396887779,2.4886367243930696,-0.7096217029087245
1746476326770521600,7.459521484375,-1.359119191983342,2.891837878072262,-0.4499324001180008
1746476326780518700,7.4695185546875,-2.2944781341224907,3.2319273265391586,-0.31778570059165356
1746476326790514700,7.4795146484375,-2.8952772048711775,3.233194569995999,-0.3679761475736275
1746476326800510700,7.4895107421875,-3.1743051586538553,3.0300580157607793,-0.702102997841686
1746476326810506500,7.499506591796875,-3.1744460284292697,2.7078336020693183,-1.3396937760233878
1746476326820503800,7.50950390625,-2.8842624743819236,2.3286025220423934,-2.1198989813297984
1746476326830499600,7.51949951171875,-2.5963965496271846,1.9890905812025068,-2.83044495947659
1746476326840495600,7.52949560546875,-2.5167484278947114,1.7260446249276398,-3.288248056437075
1746476326850491600,7.53949169921875,-2.9683067852467295,1.5880463132962583,-3.453448555509746
1746476326860488700,7.54948876953125,-4.053524864941835,1.5475459606036543,-3.298424874797463
1746476326870484500,7.559484375,-5.414561288723349,1.4978130846634505,-2.7930209454894066
1746476326880480800,7.569480712890625,-6.538887974491715,1.5103158617533743,-2.0001175866514442
1746476326890476800,7.579476806640625,-6.953709715598821,1.5804187410272656,-1.1379339900340883
1746476326900473600,7.5894736328125,-6.553965132114291,1.5772086929395794,-0.4042788293806836
1746476326910470000,7.599469970703125,-5.287918191581964,1.5020041066125034,0.08831658135652541
1746476326920465700,7.609465576171875,-3.4129502486437557,1.2878431772768497,0.28922080996241417
1746476326930461700,7.619461669921875,-1.4961229396194218,0.876051013123989,0.2508358054559678
1746476326940459300,7.629459228515625,0.01742342848777771,0.44590456937402484,-0.004425287362653762
1746476326950455300,7.639455322265625,0.9424550378799438,0.12691051590591668,-0.426170854649879
1746476326960451300,7.649451416015625,1.2736188370913266,-0.10630173538029193,-0.7770317629020661
1746476326970447400,7.659447265625,1.0537217021912335,-0.2800850616201758,-0.8841800321090966
1746476326980444200,7.669444091796875,0.5193330859392881,-0.40632644609287377,-0.8393191461194306
1746476326990440400,7.6794404296875,-0.015976152288913727,-0.4306302817441523,-0.6633800300851463
1746476327000436200,7.689436279296875,-0.31833179016709323,-0.3462072006948292,-0.40292617266271263
1746476327010432300,7.699432373046875,-0.30827684462070465,-0.31135537528321144,-0.1544535892067477
1746476327020429300,7.70942919921875,-0.003655599898099899,-0.40549905535802244,0.08870930700115859
1746476327030425300,7.71942529296875,0.480690343812108,-0.6001270167060196,0.32349578533414747
1746476327040421000,7.729421142578125,0.9630395607471466,-0.8804175377704203,0.5406983473880216
1746476327050417200,7.739417236328125,1.300740652772784,-1.208063611184433,0.7633787197984755
1746476327060414200,7.749414306640625,1.4365946458518504,-1.4605638427212833,0.9021709582865237
1746476327070410200,7.75941015625,1.4570277775496243,-1.6700331071093677,0.8945148905754089
1746476327080406300,7.76940625,1.364039112728834,-1.8089611008062958,0.8495512748636305
1746476327090402300,7.77940234375,1.1950409749388695,-1.9069880520552396,0.8619888046976178
1746476327100399400,7.7893994140625,1.0276491033017634,-2.0731537428982554,0.8945813799403607
1746476327110395100,7.79939501953125,0.883943812200427,-2.256372713742405,0.9526024109501391
1746476327120391400,7.809391357421875,0.6854828485608101,-2.3387514294825493,1.0797092531457542
1746476327130387200,7.81938720703125,0.38322482583820816,-2.3146058531329032,1.210865297666937
1746476327140384300,7.82938427734375,0.066754153367877,-2.296004466906935,1.3777600334368645
1746476327150380300,7.83938037109375,-0.2720405791133642,-2.2970427239134907,1.578523428799957
1746476327160376300,7.849376220703125,-0.6736041947185992,-2.238474653480202,1.7960402444347738
1746476327170372400,7.859372314453125,-1.092904542544484,-2.1020880148291585,2.035160989112407
1746476327180369400,7.869369384765625,-1.4989689767003058,-2.0826726818718013,2.391517535638809
1746476327190365400,7.879365478515625,-1.9360610018044708,-2.298063153002411,2.7596070439264175
1746476327200361200,7.889361328125,-2.2500725906848906,-2.542783909644186,2.813572442869842
1746476327210357200,7.899357177734375,-2.3414731095314023,-2.6624653510794043,2.6643378669530153
1746476327220354300,7.909354248046875,-2.283213228264451,-2.6968931058600543,2.4288836819589137
1746476327230350300,7.919350341796875,-2.177368589001894,-2.655587866525352,2.247406147954613
1746476327240346000,7.92934619140625,-2.1066800187945365,-2.5063752101793884,2.1651376145906744
1746476327250342400,7.93934228515625,-2.1428835510760544,-2.2679675822071728,2.2104889144457873
1746476327260339200,7.949339111328125,-2.2362737824350596,-1.98330805227831,2.3304184854231775
1746476327270335200,7.959335205078125,-2.36061327880919,-1.7179453434936702,2.4447870612725615
1746476327280331300,7.969331298828125,-2.5710592792749405,-1.5033474840454757,2.470269877575338
1746476327290327300,7.979327392578125,-2.844296374696493,-1.4031272605359553,2.350453411583602
1746476327300324000,7.989323974609375,-3.060013593563437,-1.2655810765862465,1.9481036140367387
1746476327310320400,7.9993203125,-3.3557360770374536,-0.9997177248030901,1.3732605300605296
1746476327320316400,8.00931640625,-3.913051395368576,-0.695520258450508,0.7016616838149726
1746476327330312200,8.019312255859376,-4.834202363935113,-0.37957375598475335,0.07580554789490998
1746476327340309500,8.0293095703125,-6.066912852054834,-0.13958324273526668,-0.32283611584901806
1746476327350305300,8.03930517578125,-7.423560100966691,0.12179759333897382,-0.43969124781712887
1746476327360301300,8.04930126953125,-8.665494344505667,0.5135509588738904,-0.2621935772292316
1746476327370297000,8.059297119140625,-9.489718724280594,1.0326384360216558,0.011088453312590717
1746476327380294400,8.06929443359375,-9.54338543253839,1.6204779258236288,0.07046696334592997
1746476327390290200,8.079290283203125,-8.637527310171723,2.194517292201519,-0.1690827473334968
1746476327400286200,8.0892861328125,-6.9191159566015,2.549360073164105,-0.6621520957253872
1746476327410282500,8.099282470703125,-4.853986091813445,2.662982945212722,-1.182753448034823
1746476327420279300,8.109279296875,-2.773372242167592,2.6325544892013073,-1.6405109522879122
1746476327430275300,8.119275390625,-0.9205845668554306,2.5821143417745827,-2.003915079238266
1746476327440271400,8.129271240234376,0.6167880825191736,2.544787942942977,-2.2455945684880017
1746476327450267400,8.139267333984375,1.7400182052224873,2.50031985566318,-2.3775100530743596
1746476327460264200,8.14926416015625,2.4559341859698294,2.473078212994337,-2.389832066769898
1746476327470260500,8.159260498046875,2.8229408674567935,2.452672553825378,-2.31354421525076
1746476327480256300,8.16925634765625,2.927718169748783,2.418075579957664,-2.17982314254716
1746476327490253300,8.17925341796875,2.879237924218178,2.4150752290979027,-2.0107365958213803
1746476327500249300,8.189249267578125,2.733199221733212,2.464494216783345,-1.87511889571622
1746476327510245400,8.199245361328124,2.4835247882068154,2.508475397329032,-1.7384819355659187
1746476327520241200,8.2092412109375,2.166774714273214,2.615664729198813,-1.6406208424031734
1746476327530237200,8.2192373046875,1.9024954168111086,2.8096678366467356,-1.630624933567643
1746476327540234200,8.229234130859375,1.6893956869661808,3.0643510382458565,-1.6018224713228641
1746476327550230300,8.239230224609376,1.5496861875027417,3.406838195504248,-1.5340117946393788
1746476327560226300,8.249226318359375,1.5587567981868982,3.73585855294615,-1.4388234278172254
1746476327570222300,8.259222412109375,1.6915619250893592,3.9527264031529423,-1.381915253420174
1746476327580219400,8.269219482421875,1.9087638295561073,4.147015634065866,-1.4894164277181028
1746476327590215200,8.279215087890625,2.0659984643161295,4.244405164194107,-1.7640648512423038
1746476327600211500,8.28921142578125,2.1687784553110596,4.18865463539958,-2.0897247923403977
1746476327610208300,8.299208251953125,2.141595264831185,4.008955070853233,-2.3462644354611633
1746476327620204300,8.309204345703124,2.0282102931916715,3.7596497629001733,-2.4870707902505993
1746476327630200300,8.319200439453125,1.9434668941467999,3.6153184488549828,-2.551281981137395
1746476327640196400,8.3291962890625,1.8460732723653315,3.6154587341085076,-2.571338096216321
1746476327650193200,8.339193115234375,1.6378572229087351,3.814574654525518,-2.4914117420643564
1746476327660189400,8.349189453125,1.413750945881009,4.114230093534291,-2.377052956956625
1746476327670185200,8.359185302734375,1.333063544228673,4.306426736082137,-2.3386805562034247
1746476327680181200,8.36918115234375,1.455765794789791,4.3108597500935195,-2.444887306776643
1746476327690178300,8.37917822265625,1.6010264986395835,4.1599093101695175,-2.6554899591088295
1746476327700174300,8.38917431640625,1.5923019249141215,3.9426583058640357,-2.8939339735686778
1746476327710170400,8.39917041015625,1.4057751446962357,3.6939585625886915,-3.1277699097111817
1746476327720166100,8.409166259765625,1.2531214079856872,3.3905525388747453,-3.311866832433641
1746476327730163500,8.41916357421875,1.1478250502556562,3.0854458487227556,-3.4817928987234827
1746476327740159200,8.4291591796875,1.1039192730337382,2.848140190643072,-3.7006352638736364
1746476327750155300,8.4391552734375,1.1207593486756087,2.7203669204279777,-3.9065202400341628
1746476327760151300,8.4491513671875,1.1889923424243927,2.6478561032295227,-4.104629613757133
1746476327770148400,8.4591484375,1.3158739244967699,2.558542327529192,-4.268913582506776
1746476327780144000,8.46914404296875,1.5281272666454315,2.4722674811333416,-4.368754889701306
1746476327790140400,8.479140380859375,1.653005107679963,2.468311144722998,-4.336087422591447
1746476327800136400,8.489136474609374,1.5405214687943458,2.539966806396842,-4.199327128322422
1746476327810133200,8.49913330078125,1.0707231058746576,2.8288033297494053,-3.9801872415304183
1746476327820129300,8.50912939453125,0.3632002749413252,3.2765997042194006,-3.6960689788714047
1746476327830125300,8.519125244140625,-0.4143424331575632,3.573631516726315,-3.28860256896317
1746476327840121300,8.529121337890626,-1.0551368296861647,3.6910078960895536,-2.8942642284363505
1746476327850118400,8.539118408203125,-1.5098925217747687,3.567016774761677,-2.585678463996947
1746476327860114400,8.549114501953126,-1.6768652912169695,3.4097464841663836,-2.542080145289004
1746476327870110200,8.559110107421875,-1.4164251335263252,3.4261715492665767,-2.8813749362468717
1746476327880106200,8.569106201171875,-0.8235732223898172,3.5647526292219758,-3.3960429529845713
1746476327890103300,8.579103271484374,-0.3408440662264824,3.7155873338118193,-3.9171190831989047
1746476327900099300,8.589099365234375,-0.5232499671220779,3.8819957473695275,-4.2786528862327335
1746476327910095000,8.59909521484375,-1.4012000918656586,4.112141304561495,-4.243732964020968
1746476327920091400,8.60909130859375,-2.697026669111848,4.4432279468834395,-3.819881236501038
1746476327930088200,8.619088134765626,-4.104350212293863,4.611292018693685,-3.073365534828603
1746476327940083500,8.62908349609375,-5.228447765481472,4.684939438706636,-2.1185116186246273
1746476327950079500,8.63907958984375,-5.772056630021333,4.744114388991892,-1.1822883147411047
1746476327960075500,8.649075439453124,-5.612510795709491,4.768429038298129,-0.44610739846974606
1746476327970072600,8.659072509765625,-4.806164017930627,4.715353281670809,0.058323740283399816
1746476327980068400,8.669068359375,-3.6704432469666,4.53408953654766,0.3378079134009778
1746476327990064600,8.679064697265625,-2.5745447833031414,4.152558655145764,0.4586421050678938
1746476328000060700,8.689060791015624,-1.8037269995450973,3.7187346919268367,0.4976464470490813
1746476328010057500,8.699057373046875,-1.4161030619651078,3.338347427602112,0.5067296980191022
1746476328020053500,8.709053466796876,-1.245831250977516,3.072330931083858,0.43132688570618627
1746476328030049500,8.719049560546875,-1.0937105982303619,2.9102041403681036,0.3744358085744083
1746476328040045600,8.729045654296876,-0.8462135087430477,2.8333868581473824,0.3428661466386169
1746476328050042600,8.739042724609375,-0.4915589438289404,2.771284914499521,0.29460020144581794
1746476328060038700,8.74903857421875,-0.0957896937161684,2.742476168644428,0.26331271745227275
1746476328070034400,8.759034423828124,0.21987550759017466,2.719094708535075,0.2912940725725144
1746476328080030500,8.769030517578125,0.3413976084560156,2.7492297345578667,0.29145627739690244
1746476328090027500,8.779027587890624,0.35272914980947967,2.858063618764281,0.14009349381234495
1746476328100023600,8.7890234375,0.26549977916777134,3.0611206780225038,-0.0865902690205723
1746476328110019300,8.799019287109376,0.09261983150839805,3.3370883674517273,-0.2589141536997631
1746476328120015600,8.809015625,-0.27004268329441544,3.5798598897218703,-0.23442075029313564
1746476328130012400,8.819012451171876,-0.825651197707653,3.8293329554572697,-0.06114009461207315
1746476328140008400,8.829008544921875,-1.2979787868440151,4.035777903588116,0.1801737213967368
1746476328150004700,8.839004638671875,-1.6385434516072273,4.13793537877053,0.42358346850518136
1746476328160000500,8.84900048828125,-1.857687722313404,4.183750204484165,0.6406717199970037
1746476328169997600,8.85899755859375,-1.82619543646276,4.144411589047312,0.7341486067261547
1746476328179993600,8.86899365234375,-1.5632430036902427,4.022632006289065,0.5913851630521938
1746476328189989600,8.87898974609375,-1.140932368132472,3.843228794340789,0.35973427933119234
1746476328199985400,8.8889853515625,-0.73037354516685,3.573977553685009,0.21220665346272288
1746476328209982700,8.898982666015625,-0.4882908819437027,3.232314280030131,0.1748521610477939
1746476328219978500,8.908978515625,-0.44270869594216344,2.8634374207571147,0.2599687773192301
1746476328229974500,8.918974609375,-0.48951896243393417,2.518236912886798,0.38096422396246343
1746476328239970600,8.928970458984375,-0.4397305569142103,2.240262267549336,0.5596866871049627
1746476328249967600,8.938967529296875,-0.331422742408514,2.0046756883472203,0.8814812214791774
1746476328259963400,8.94896337890625,-0.16912497904002666,1.7369884821377695,1.2205385504193604
1746476328269959400,8.95895947265625,0.04011573728919029,1.4717824252195655,1.510643924663961
1746476328279955700,8.968955810546875,0.2471528060942888,1.2247225581057368,1.6229051529705523
1746476328289952500,8.978952392578124,0.31774902184307574,0.9323946855060755,1.5925919939018784
1746476328299948500,8.988948486328125,0.24195699101686477,0.6214392693258821,1.447195096451789
1746476328309944600,8.998944580078126,0.059651627886295314,0.39000732558518647,1.2541307311587035
1746476328319940600,9.008940673828125,-0.16216390785574913,0.20525312626408412,1.0729648203868418
1746476328329937400,9.0189375,-0.35056115812063215,0.05529282532201614,0.955399567387998
1746476328339933700,9.02893359375,-0.44333121175467965,-0.04499662293223664,0.8816293247129767
1746476328349929500,9.038929443359375,-0.34084348170459267,-0.0887703073402401,0.8116914998076855
1746476328359925500,9.048925537109374,-0.09345686685442924,-0.10317893631779589,0.7708961096912622
1746476328369922600,9.058922607421875,0.3070575319588184,-0.10766944353692233,0.6945648574218154
1746476328379918600,9.068918701171874,0.7466150703936815,-0.1390566707110498,0.6323107188869267
1746476328389914600,9.07891455078125,1.1553899325519799,-0.18333549162959678,0.5239489457042887
1746476328399910400,9.088910400390626,1.4651514627724884,-0.24814981777500358,0.37776992143318056
1746476328409907500,9.098907470703125,1.6364111157536505,-0.28288702209731564,0.1826735388558358
1746476328419903500,9.108903564453126,1.7241414216548203,-0.30033662620596585,-0.019688743071258067
1746476328429899500,9.1188994140625,1.7880530450731515,-0.34142489832174033,-0.17553627085443585
1746476328439896600,9.128896484375,1.8261252938359975,-0.3981808047665283,-0.229484663864132
1746476328449892600,9.138892578125,1.8183909001916645,-0.4633457527142018,-0.2054477537870407
1746476328459888400,9.148888427734375,1.7370388971507549,-0.521033679312095,-0.13422675720341504
1746476328469884700,9.158884765625,1.6089134524971245,-0.5730801659569144,-0.015369162839092313
1746476328479881500,9.168881591796875,1.407870655670762,-0.6133029438171536,0.17571360018271953
1746476328489877500,9.17887744140625,1.1789566861003637,-0.6858301276285201,0.358300739396736
1746476328499873500,9.18887353515625,0.9491045588970184,-0.81142685752213,0.5557643260294571
1746476328509869600,9.19886962890625,0.5893804356336594,-0.9169284555006771,0.8599104640536009
1746476328519866400,9.208866455078125,0.1386842480689287,-1.0709420093223452,1.211875570688024
1746476328529862700,9.218862548828126,-0.4022814084857702,-1.2524117984116077,1.5970327528283
1746476328539858700,9.228858642578125,-0.8856734124720096,-1.3505211672469972,1.7702870867580174
1746476328549854500,9.2388544921875,-1.1385305676877497,-1.4838319055840372,1.7992763037465511
1746476328559851500,9.2488515625,-1.144714224758744,-1.6905032098166644,1.7352616583451628
1746476328569847600,9.25884765625,-1.1503063456773757,-1.9902248459294438,1.618236722768098
1746476328579843600,9.268843505859374,-1.451470727944374,-2.3095037076883016,1.501668444917351
1746476328589839400,9.27883935546875,-2.0602876854538916,-2.6486545601308342,1.3995136000834405
1746476328599836700,9.288836669921874,-2.9318688596874476,-2.8899861127257345,1.3563057419978082
1746476328609832400,9.29883251953125,-3.856712837553024,-2.95353533257246,1.3914267397396265
1746476328619828500,9.308828369140626,-4.611218368935584,-2.901960043635964,1.5085869921341537
1746476328629824500,9.318824462890625,-4.9853860280930995,-2.7520535598069427,1.5856528422884641
1746476328639821600,9.328821533203126,-4.851875967791676,-2.5409564019560813,1.4900408432267604
1746476328649817300,9.3388173828125,-4.363129158774018,-2.355131632527709,1.3696443853899836
1746476328659813600,9.348813720703125,-3.8953397975891826,-2.290515221840888,1.2894120340287685
1746476328669809700,9.3588095703125,-3.6850410966396328,-2.312820869412273,1.1917181141264737
1746476328679806500,9.368806396484375,-3.617796529406309,-2.3743990814469753,1.1633550662122667
1746476328689802800,9.378802734375,-3.6585306908547874,-2.3481015877604485,1.2544848052933812
1746476328699798500,9.388798583984375,-3.789779820486903,-2.244427132143825,1.4505056823045015
1746476328709794600,9.398794677734376,-4.027672046282888,-2.1056648504026234,1.708299855531007
1746476328719791600,9.40879150390625,-4.253898968726396,-1.930408090609312,1.8481478866823016
1746476328729787600,9.41878759765625,-4.345350340977311,-1.7054592252776026,1.8755662010923027
1746476328739783400,9.428783447265625,-4.2049306474179025,-1.4829790881469844,1.7910165710538624
1746476328749779500,9.438779541015625,-3.88089100099802,-1.3554779128715395,1.6485307387448846
1746476328759776500,9.448776611328125,-3.4401620806962248,-1.3301708915270865,1.5003274055719376
1746476328769772500,9.4587724609375,-2.9083535440653563,-1.3059303303703664,1.3030804938971996
1746476328779768600,9.4687685546875,-2.2929022631078957,-1.1904171145305036,1.086546259558946
1746476328789764600,9.4787646484375,-1.7378864538908003,-1.0688695138972253,0.9712361650757491
1746476328799761400,9.488761474609374,-1.3745458936959505,-0.8974885726239532,0.9305272841989993
1746476328809757400,9.49875732421875,-1.254490942773223,-0.7053076391018926,0.9804455266434698
1746476328819753700,9.508753662109376,-1.3897469699591398,-0.5198320119047537,1.1094894743815065
1746476328829749500,9.51874951171875,-1.6131161648839711,-0.30109734491277484,1.208246639601141
1746476328839746600,9.52874658203125,-1.7408225073426962,-0.045857203550636765,1.2344336586505174
1746476328849742600,9.53874267578125,-1.7102940980881451,0.190191440205276,1.212941300223395
1746476328859738600,9.548738525390625,-1.5313783773958682,0.3919316447112709,1.159004688983038
1746476328869734400,9.558734375,-1.1771499289393423,0.5650749925471842,1.0285543815784155
1746476328879731700,9.568731689453125,-0.6144055712968111,0.7380477330565453,0.8548219818081706
1746476328889727500,9.5787275390625,-0.005050853648781776,0.8543981303729117,0.7511859585057944
1746476328899723500,9.5887236328125,0.5784218192458153,0.9062104429356753,0.6844126620460301
1746476328909719600,9.598719482421876,1.112653199109435,1.001816889039427,0.5451472165556625
1746476328919716600,9.608716552734375,1.5717168175250291,1.1055255391865968,0.374702569751814
1746476328929712600,9.618712646484376,1.9936194568037986,1.2052296298675238,0.2526228715358302
1746476328939708700,9.628708740234375,2.4757278507202862,1.3173162322595715,0.21036877051107583
1746476328949704700,9.63870458984375,2.967987051773071,1.4387187983989715,0.1702115687003359
1746476328959701500,9.648701416015625,3.3973949521154165,1.5613246028482912,0.11118285848535597
1746476328969697500,9.658697509765625,3.781975284215808,1.6012895334899424,0.05783128059133887
1746476328979693600,9.668693603515624,4.098474598258734,1.5951345179915428,-0.02389861585125327
1746476328989689600,9.678689697265625,4.403352448090911,1.5641925595000385,-0.062211285773850974
1746476328999686400,9.688686279296874,4.633057275778055,1.4832453378677368,-0.05403630875516682
1746476329009682700,9.6986826171875,4.768320901748538,1.45908763268888,-0.024968672218581196
1746476329019678700,9.7086787109375,4.807555764549971,1.5029752897322177,0.05976142667001113
1746476329029674500,9.718674560546875,4.826438159674406,1.6308683869346976,0.02927745477880817
1746476329039671600,9.728671630859376,4.784945873335004,1.80507403023988,-0.14370075192353687
1746476329049667600,9.73866748046875,4.668609066152572,1.9523925434023142,-0.3478004247030243
1746476329059663600,9.74866357421875,4.588496834039688,2.08581346411556,-0.46813795542679726
1746476329069659600,9.75865966796875,4.491928557166457,2.2640265894964338,-0.5246485818736255
1746476329079656700,9.76865673828125,4.2323511537849905,2.4032082656934857,-0.5870869544016197
1746476329089652500,9.778652587890624,3.7177521106302738,2.4873946153774855,-0.7880893096197396
1746476329099648500,9.7886484375,3.041800476002693,2.6041604616269467,-1.1592091985791921
1746476329109644500,9.79864453125,2.3260960921794176,2.760006856898963,-1.458320739969611
1746476329119641600,9.8086416015625,1.6311241152614353,2.8470228770509363,-1.5899695364437996
1746476329129637400,9.818637451171876,0.9637930094629525,2.817666434185207,-1.6227277505770326
1746476329139633700,9.828633544921875,0.42449674742519855,2.6703406144991515,-1.577826532576978
1746476329149630500,9.83863037109375,0.05244388846457004,2.5156445583060383,-1.58642981801033
1746476329159626500,9.84862646484375,-0.0911667100906372,2.5576313501641152,-1.753010665525496
1746476329169622800,9.858622802734375,-0.1049661028623581,2.7234371216535567,-1.8729311764135956
1746476329179618600,9.86861865234375,-0.08206161261498927,2.938672986744344,-1.9207438979461788
1746476329189615600,9.87861572265625,0.02872866635620594,3.0346453435510394,-1.9117599426321685
1746476329199611600,9.888611572265624,-0.022914427119493482,2.827690400071442,-1.8551402297876773
1746476329209607700,9.898607666015625,-0.3773901283353567,2.4174912041984498,-1.7408195847332477
1746476329219603500,9.908603515625,-0.878650966489315,1.9919851336002348,-1.5149122496329248
1746476329229600800,9.918600830078125,-1.4648381590396164,1.590993764925003,-1.1580131937276572
1746476329239596500,9.928596435546876,-2.097204334440827,1.3172750234663486,-0.8287045208636671
1746476329249592600,9.938592529296875,-2.5354841080248356,1.179999692347273,-0.6156506029218435
1746476329259588400,9.94858837890625,-2.567220139503479,1.1017604144994169,-0.5462218965824693
1746476329269585700,9.958585693359375,-2.3044015622437,1.0361205059837548,-0.5058005274102092
1746476329279581400,9.96858154296875,-1.8960884723782538,0.8860738830316811,-0.5129208808094263
1746476329289577500,9.978577392578124,-1.4842080454200506,0.6599937486477195,-0.5468361560232937
1746476329299573800,9.98857373046875,-1.1339993539988993,0.37335206845831126,-0.609104396148771
1746476329309570600,9.998570556640624,-0.9370306747436523,0.07072532202117145,-0.5816460419893265
1746476329319566600,10.008566650390625,-0.9346136767297982,-0.21697057992890476,-0.48364291000738735
1746476329329562600,10.018562744140626,-1.033092171138525,-0.4555332888649776,-0.2838910297743976
1746476329339558700,10.02855859375,-1.2056728435903787,-0.6428392732944339,0.014716507616639136
1746476329349555500,10.038555419921876,-1.3694395104676484,-0.7908532944403588,0.33873496511802076
1746476329359551700,10.0485517578125,-1.4896896917015314,-0.9270462371502071,0.6135130063712596
1746476329369547500,10.058547607421875,-1.5088497347235679,-1.141492778494209,0.9022054450780153
1746476329379543600,10.06854345703125,-1.3406395324409006,-1.4111321416847407,1.158679621747136
1746476329389540600,10.07854052734375,-1.1421627867102622,-1.6497190717466175,1.2974902726747095
1746476329399536600,10.08853662109375,-1.039524250012636,-1.8487929065875708,1.4485066174417733
1746476329409532700,10.09853271484375,-0.8949994592219591,-2.0819750549964606,1.6580067153595386
1746476329419528400,10.108528564453126,-0.5968050326764583,-2.3351149726763367,1.8339580332882701
1746476329429525500,10.118525390625,-0.11151099446117878,-2.5507211323842407,1.9725442278102039
1746476329439521500,10.128521484375,0.3858142578095197,-2.7478093463659286,2.0255694232940673
1746476329449517600,10.138517578125,0.7002040323525667,-2.923561050069332,2.0426471070840955
1746476329459513600,10.148513671875,0.8347042727351188,-3.0302292806744573,2.0791348631344735
1746476329469510700,10.1585107421875,0.8965683159738779,-3.1401167655870315,2.065660610663891
1746476329479506400,10.16850634765625,0.8664706993520259,-3.205934222626686,1.9780827188454566
1746476329489502700,10.178502685546874,0.7235889995932578,-3.243008984784782,1.922964496605098
1746476329499498500,10.18849853515625,0.42617315620481966,-3.2579858969032762,1.9568653049021958
1746476329509495600,10.19849560546875,0.010041501542925834,-3.2600150646433232,2.06723735846132
1746476329519491600,10.20849169921875,-0.45277416288256644,-3.2653596405416727,2.2029991432122884
1746476329529487600,10.218487548828126,-0.9933575421214104,-3.2327403964877126,2.319968549209833
1746476329539483600,10.228483642578125,-1.5145295339256524,-3.1643361378252504,2.355154575011879
1746476329549480700,10.238480712890626,-1.8781798907220362,-3.0873125193774698,2.366266043873876
1746476329559476700,10.248476806640625,-2.038611860218644,-3.058456719510257,2.351510957812518
1746476329569472500,10.258472412109375,-2.063112095224857,-3.059478756034374,2.2934715874284506
1746476329579468500,10.268468505859374,-2.0732441976606846,-3.0306337698221206,2.258182539643347
1746476329589465600,10.278465576171875,-2.2228023064434526,-3.0141245335698126,2.221303884579241
1746476329599461600,10.288461669921874,-2.4606816727578638,-3.0276556307941673,2.22262592696324
1746476329609457400,10.29845751953125,-2.677994051861763,-3.0053298172175884,2.203868473392725
1746476329619453700,10.30845361328125,-2.805729620414972,-2.9400951285019516,2.1681479023225605
1746476329629450500,10.318450439453125,-2.851866517689824,-2.7804610313847657,2.1483421087428924
1746476329639446500,10.328446533203126,-2.9393139149963856,-2.561957104408741,2.0551333714306352
1746476329649442600,10.338442626953125,-3.1475901702076197,-2.332721063277125,1.9125949321515856
1746476329659438600,10.3484384765625,-3.5756221060216427,-2.085235079705715,1.7502986300878225
1746476329669435400,10.358435302734375,-4.311523474699259,-1.8439736697375773,1.6628377887777983
1746476329679431700,10.368431640625,-5.319768204829097,-1.710863130147755,1.7030102246902883
1746476329689427700,10.378427734375,-6.366212024971842,-1.590007091975212,1.8102404730923474
1746476329699423500,10.388423583984375,-7.033802658489346,-1.5518465804070234,1.997716809120029
1746476329709420800,10.3984208984375,-7.0244427094697945,-1.5889970381498335,2.161939256940782
1746476329719416600,10.40841650390625,-6.124916128212213,-1.3927141492016613,2.0924504179120063
1746476329729412600,10.41841259765625,-5.049852947306633,-0.9920663332670926,1.8388826302088797
1746476329739408400,10.428408447265625,-4.463831174451112,-0.8318561898276209,1.660605353550613
1746476329749405700,10.43840576171875,-4.593148459237813,-0.7964487763598561,1.4607657950341701
1746476329759401500,10.4484013671875,-5.632621271324157,-0.6387138639274984,1.223257307858765
1746476329769397500,10.4583974609375,-6.953090706917643,-0.3715343515118584,1.067415223435685
1746476329779394600,10.46839453125,-7.9454563153922555,-0.0028393881443887947,1.0061083756882696
1746476329789390600,10.478390625,-8.272965099227427,0.5787202907357365,0.8276830688614398
1746476329799386600,10.48838671875,-7.679134113925695,1.347134739679098,0.4737160843526944
1746476329809382700,10.498382568359375,-6.298524390146136,2.049272808834165,-0.02387815758511424
1746476329819379500,10.50837939453125,-4.610658396965265,2.554081548728049,-0.5075422199783847
1746476329829375500,10.51837548828125,-3.0376971323370934,2.8012027906402945,-0.885392476638779
1746476329839371800,10.528371826171876,-1.7289608046352862,2.8561194989591834,-1.1363821574822068
1746476329849367600,10.538367431640625,-0.7839408847033977,2.924426434727013,-1.3743413110345601
1746476329859364600,10.548364501953126,-0.25350480546951293,3.0861867302179333,-1.560854208857566
1746476329869360600,10.558360595703125,-0.08779811044037342,3.3567987378329036,-1.6800623336926102
1746476329879356700,10.568356689453125,-0.14884206946790218,3.6234313204228874,-1.768392212922126
1746476329889352400,10.5783525390625,-0.22157120559215546,3.82580828846246,-1.7712927566692231
1746476329899349800,10.588349853515625,-0.08869125988781451,3.9798397432669996,-1.764457211560756
1746476329909345500,10.598345458984374,0.2014905405938625,4.08416754822582,-1.761521450369805
1746476329919341600,10.608341552734375,0.6488958699196576,4.098175030790269,-1.6272878980994223
1746476329929337600,10.618337646484376,1.155910157033801,4.052686076030135,-1.4111379869036376
1746476329939334700,10.628334716796875,1.67613697694242,4.034345532697439,-1.2005512627929449
1746476329949330700,10.63833056640625,2.202842637476325,4.0378164236783975,-1.0375938664719462
1746476329959326700,10.64832666015625,2.666379017391801,4.0592780216410755,-0.8887200136262923
1746476329969322800,10.65832275390625,3.0932214511603116,4.04796752307564,-0.7414351835377514
1746476329979319800,10.66831982421875,3.468312070381641,4.061258966325223,-0.6361898984078318
1746476329989315800,10.67831591796875,3.7954321471601724,4.051618739059567,-0.575641212083958
1746476329999311600,10.6883115234375,4.1317905924052,4.059596001549065,-0.5787788159899413
1746476330009307600,10.6983076171875,4.500625073841214,4.091937013183534,-0.6684926969237626
1746476330019304700,10.7083046875,4.853180036127567,4.111099686554074,-0.8341360443931073
1746476330029300700,10.71830078125,5.182386856052279,4.090426316359639,-0.9771043264567851
1746476330039296500,10.728296630859376,5.432510786911845,4.005136389347911,-1.096873446175456
1746476330049292800,10.738292724609375,5.555034173774719,3.88842548815608,-1.1753415643431246
1746476330059289600,10.74828955078125,5.510343383654952,3.7922014946758744,-1.255437137582153
1746476330069285600,10.75828564453125,5.373915974602103,3.7059669802904125,-1.322089730271697
1746476330079282000,10.768281982421875,5.317929883486032,3.6617929075211286,-1.3185612638846038
1746476330089277700,10.778277587890624,5.404221681016684,3.665036419486999,-1.24711076939404
1746476330099274800,10.788274658203125,5.601528798446059,3.670013038855791,-1.1830024543598294
1746476330109270800,10.798270751953124,5.890349247446656,3.6363200280904766,-1.1175650826789438
1746476330119266800,10.808266845703125,6.156518888700008,3.6244495575547218,-1.1041763165347278
1746476330129262600,10.8182626953125,6.396359910476208,3.6312738506168123,-1.1088320333860815
1746476330139260000,10.828260009765625,6.506846238064766,3.6264041987538334,-1.2282051395244895
1746476330149255700,10.838255615234376,6.434968750333786,3.5829864973098036,-1.370537680967897
1746476330159251700,10.848251708984375,6.053056760659813,3.4738346331954,-1.4495774615436792
1746476330169247700,10.858247802734375,5.372795446139574,3.3764947874277826,-1.6011065781384706
1746476330179244800,10.868244873046875,4.477236599469185,3.3875419588819145,-1.8110466749086975
1746476330189240600,10.878240478515625,3.487646300926804,3.419868941991031,-2.0011084973849353
1746476330199236600,10.888236572265624,2.51895207541883,3.37710590506345,-2.061070360264182
1746476330209233000,10.89823291015625,1.5604957508087158,3.2517864577412605,-2.048172007985413
1746476330219229700,10.908229736328124,0.5626806447565555,3.115915805788338,-1.9411659237280487
1746476330229225700,10.918225830078125,-0.5046148247569799,3.0607316787049172,-1.729047021614015
1746476330239221800,10.9282216796875,-1.5172627582818268,2.993310293599963,-1.5881274157084524
1746476330249217800,10.9382177734375,-2.001903301024437,2.8350784644961355,-1.6985096984006463
1746476330259214600,10.948214599609376,-1.7696961351275442,2.6473656893640753,-2.159011094534397
1746476330269211000,10.9582109375,-0.95322310013175,2.496821492153406,-2.7003517218813298
1746476330279206700,10.96820654296875,-0.1811538550078869,2.305482635478675,-3.0439892182186243
1746476330289202700,10.97820263671875,-0.047042321681976314,2.0498308811083437,-3.2567858734637496
1746476330299199700,10.98819970703125,-0.7918418670862912,1.9051962002024054,-3.5678748528957365
1746476330309195800,10.99819580078125,-2.2302964615911245,1.9404965000338852,-3.8473359373986717
1746476330319191800,11.00819189453125,-3.940000777092576,1.8014353814765809,-3.787793615105748
1746476330329187600,11.0181875,-5.543042122685909,1.3578224301710724,-3.380681133201718
1746476330339184600,11.0281845703125,-6.677998923540115,0.8292061137102544,-2.8138617812052367
1746476330349180700,11.0381806640625,-7.097401562696695,0.4638501220397651,-2.208981140231341
1746476330359176700,11.0481767578125,-7.0604831601440905,0.10264145930707454,-1.5986621075958012
1746476330369173800,11.058173828125,-6.67539721660912,-0.31937954565435644,-1.0026197298549115
1746476330379169800,11.068169677734375,-6.208427939635515,-0.6742883775904774,-0.620100421937555
1746476330389165600,11.07816552734375,-5.818904890435934,-0.841813227957487,-0.4206484014339745
1746476330399161900,11.088161865234374,-5.364024695184827,-0.8335957269713282,-0.2865921054266393
1746476330409158700,11.09815869140625,-4.721572594577074,-0.8328469544306397,-0.020944442220777272
1746476330419154700,11.10815478515625,-3.935617447441816,-0.93634020826146,0.4677224334284663
1746476330429150700,11.118150634765625,-3.1791958533048628,-1.133873827923089,1.0272269323669374
1746476330439146800,11.128146728515626,-2.4334774394899603,-1.3877774234518407,1.5029450407244265
1746476330449143600,11.1381435546875,-1.6751497194707392,-1.5736578685902058,1.7992948623165488
1746476330459139800,11.148139892578126,-0.8757961615800857,-1.7016639246478675,1.914695265431702
1746476330469136000,11.158135986328125,-0.0924871450394392,-1.8520117225036024,1.925547060444206
1746476330479131600,11.168131591796875,0.5460299542069434,-2.061543384603411,1.864422291265428
1746476330489128700,11.178128662109375,0.9873919117152691,-2.328956157785654,1.762151857227832
1746476330499124700,11.188124755859375,1.20518535233438,-2.6165391739457844,1.66967903297469
1746476330509120800,11.198120849609374,1.2492740849077701,-2.8739366029396654,1.6554285354346037
1746476330519116500,11.208116455078125,1.2224299171239137,-3.0051816409185528,1.732890837560594
1746476330529113900,11.21811376953125,1.2638748571902512,-3.038705140335858,1.7958816928721963
1746476330539109600,11.228109619140625,1.2743033122241496,-2.953723256359994,1.9191295946173368
1746476330549105700,11.238105712890626,1.289192838320136,-2.8370404122188684,2.0885747455224393
1746476330559101700,11.248101806640625,1.363977737930417,-2.7946842025265095,2.3011485517971217
1746476330569098800,11.2580986328125,1.3742945492833851,-2.8608804297506807,2.421378128634393
1746476330579094500,11.268094482421875,1.275934712818265,-2.8237586135804653,2.5050658811464905
1746476330589090800,11.2780908203125,1.0271814857900141,-2.7409274778977033,2.5310642457559704
1746476330599086800,11.2880869140625,0.6357371131390332,-2.6283935701295733,2.5686136396884915
1746476330609083600,11.298083740234375,0.1347673668861389,-2.5334751062899827,2.709130363881588
1746476330619080000,11.308079833984374,-0.526804444733262,-2.3968264557018877,2.8409555398359894
1746476330629075700,11.31807568359375,-1.1258639783382416,-2.337823939374089,2.864334077335894
1746476330639071700,11.32807177734375,-1.6008552337259052,-2.30570197731778,2.662756735241413
1746476330649068800,11.33806884765625,-1.9773229865193367,-2.2963782686553893,2.322811079159379
1746476330659064800,11.34806494140625,-2.3298136513978243,-2.367034690158814,1.9737977350026368
1746476330669060600,11.358060546875,-2.7114824799656865,-2.4868448725402352,1.6469176044598222
1746476330679056600,11.368056640625,-3.145153882971406,-2.495566231395304,1.352068104428053
1746476330689053700,11.3780537109375,-3.6437118919074534,-2.34432236148268,1.1093360373854637
1746476330699049700,11.3880498046875,-4.153717762053013,-2.1336554117426276,1.0045561047449707
1746476330709045800,11.398045654296874,-4.551113152062893,-1.86702925889343,0.9958113650143146
1746476330719041800,11.408041748046875,-4.752962004575133,-1.578160586836934,0.9964666140526532
1746476330729038600,11.41803857421875,-4.793515548759698,-1.291285426685214,0.958719359460473
1746476330739034600,11.42803466796875,-4.730916176983714,-1.1028690333284437,0.8942343200683593
1746476330749031000,11.438031005859376,-4.558818904134631,-0.9898232305154204,0.8151675053551792
1746476330759026700,11.448026611328125,-4.215366701236367,-1.021096612918377,0.7584865638427436
1746476330769023700,11.458023681640626,-3.468099304413795,-1.2220482973951845,0.6898170783728361
1746476330779019800,11.468019775390625,-2.44375450335443,-1.3357500068336725,0.6194697228185833
1746476330789015800,11.478015869140625,-1.7086825712382792,-1.3333655959151685,0.6354793389856815
1746476330799011600,11.488011474609374,-1.6128297491580248,-1.3221709788143634,0.6733861680537462
1746476330809008600,11.498008544921875,-2.355416879209876,-1.2138477475438267,0.6604696955963969
1746476330819004700,11.508004638671874,-3.5504520089298484,-1.0230988926514983,0.7244225278079509
1746476330829000700,11.518000732421875,-4.671463286539912,-0.8175595881234854,0.7744505873024463
1746476330838996700,11.527996826171876,-5.473036858567595,-0.5148967109270394,0.7071212643951177
1746476330848993800,11.537993896484375,-5.673051481389999,0.016148367050662634,0.4543650853358209
1746476330858989800,11.54798974609375,-5.276596002578735,0.6398564580913633,0.11377528613135218
1746476330868985600,11.557985595703125,-4.465651375615597,1.141160770060867,-0.2272375607907772
1746476330878982000,11.56798193359375,-3.7320413327455517,1.4476970546245573,-0.5928010577321052
1746476330888978700,11.577978759765625,-3.325008930340409,1.6566573465771972,-1.087658458584547
1746476330898974700,11.587974609375,-3.2015304347097873,1.8344997389495372,-1.5148049898661673
1746476330908970800,11.597970703125,-3.2379087390363215,1.9583917838171123,-1.7400041766971348
1746476330918966800,11.607966796875,-3.1702590981334446,2.0671986338861283,-1.7923522035717963
1746476330928963600,11.617963623046874,-2.8549744205772876,2.17098824031502,-1.7599014479525386
1746476330938960000,11.6279599609375,-2.3072557826310396,2.2804088383682073,-1.6488567558288574
1746476330948956000,11.637955810546876,-1.6116180352807044,2.353984069927782,-1.5472767882734537
1746476330958952000,11.647951904296875,-0.8679162219852209,2.4058970663860437,-1.4408711541272698
1746476330968948700,11.65794873046875,-0.1567225935846567,2.5058716445714233,-1.3785551293373106
1746476330978945000,11.667945068359375,0.4382032012164592,2.638961725895107,-1.3689604947790504
1746476330988941000,11.677941162109375,0.8990607173115015,2.7640742524683475,-1.398598531065136
1746476330998936800,11.687936767578124,1.2959399744927882,2.9443694448202846,-1.5104349580883978
1746476331008934100,11.69793408203125,1.6798603813797235,3.1455852601259946,-1.549083983825892
1746476331018930000,11.707929931640624,2.0503473061978816,3.343021849153936,-1.5228974031679332
1746476331028926000,11.717926025390625,2.401523965868354,3.4982539119198917,-1.4167705859631299
1746476331038921700,11.727921630859376,2.7156337544262406,3.5997421095386146,-1.348526194037497
1746476331048919000,11.7379189453125,3.0646266403168436,3.6354327238619324,-1.292318569125235
1746476331058914800,11.747914794921876,3.4111581045299766,3.603003157161176,-1.227714871789515
1746476331068910800,11.757910888671875,3.7145243807554245,3.503144606570899,-1.2527528669342398
1746476331078907100,11.7679072265625,3.986571974131465,3.3997537902012467,-1.215112214521691
1746476331088904000,11.777904052734375,4.255316434308886,3.2872730739250775,-1.1032390356846153
1746476331098900000,11.78789990234375,4.545694634145498,3.230134305642545,-0.939862391038239
1746476331108896000,11.79789599609375,4.8424657498896115,3.2436212714642285,-0.8457587507128715
1746476331118892800,11.807892822265625,5.1131449775218965,3.307711174058914,-0.7573879549510777
1746476331128888800,11.817888916015624,5.332687892156839,3.398402083331346,-0.6772898244287818
1746476331138885000,11.827885009765625,5.470682988917828,3.4803798170551654,-0.6189654265582561
1746476331148881000,11.837880859375,5.620725081825256,3.594793254959583,-0.6148576259132474
1746476331158878000,11.8478779296875,5.85197830799818,3.7074043196171518,-0.6590616554293781
1746476331168874000,11.8578740234375,6.2284641809701915,3.8757834487259384,-0.8065230111286044
1746476331178870000,11.8678701171875,6.673795626631379,4.161792347437143,-1.0395676507629454
1746476331188865800,11.87786572265625,7.076346499708294,4.49099039953351,-1.3847934392049908
1746476331198863000,11.887863037109375,7.4070216386198995,4.6945904796272515,-1.8264912045389412
1746476331208859000,11.89785888671875,7.566330741566419,4.765691722288728,-2.205080041139573
1746476331218855000,11.90785498046875,7.34950293110907,4.619863447684049,-2.3442288379803298
1746476331228851000,11.917850830078125,6.542454727062583,4.275212682650983,-2.082910582280904
1746476331238848000,11.927847900390624,4.998747029447555,3.8979131552085278,-1.441420166312158
1746476331248844000,11.937843994140625,2.772622885105014,3.786607327930629,-1.000039650233835
1746476331258839800,11.94783984375,0.30471652179062364,3.8226179679885504,-0.8149350117735564
1746476331268836000,11.957836181640625,-2.095440247377753,3.6521713849559423,-0.7523169352971016
1746476331278833000,11.9678330078125,-3.905313494592905,3.2056030909761786,-0.89842461136505
1746476331288829000,11.977828857421875,-4.538578080138564,2.7956656147792933,-1.394547794369608
1746476331298825000,11.987824951171875,-3.9926837350100275,2.516177642269432,-1.9328822256378828
1746476331308821000,11.997821044921874,-2.822158192646503,2.2793685355350375,-2.431133798973262
1746476331318817800,12.00781787109375,-1.6885837860614061,1.966773827715218,-2.8840985159918664
1746476331328814000,12.01781396484375,-1.2380062564402818,1.7040908595338462,-3.3686452429711817
1746476331338809900,12.027809814453125,-1.7144751831650733,1.5879434374436736,-3.65249287199527
1746476331348806000,12.037805908203126,-3.112558604314923,1.4724664619609713,-3.4935452958375213
1746476331358803000,12.047802978515625,-4.835488896614313,1.1725500339284538,-2.879116343665123
1746476331368799000,12.057799072265626,-6.159156835988163,0.6495626632653176,-1.9907374716266988
1746476331378795000,12.067794921875,-6.624637920230627,0.05518880325853824,-1.0567734909772872
1746476331388790800,12.077790771484375,-6.300524624052644,-0.4225495588801801,-0.2367562075033784
1746476331398788000,12.0877880859375,-5.460600570842623,-0.7724883473187685,0.36059506087899207
1746476331408784000,12.097783935546875,-4.4222634847879405,-0.8442568217173219,0.5644125831156969
1746476331418780000,12.10777978515625,-3.354817208626866,-0.5918996519129723,0.3077656802281737
1746476331428776000,12.11777587890625,-2.5302783560752866,-0.21658706050403415,-0.1016946799762547
1746476331438773000,12.12777294921875,-2.086113616105914,-0.010732187220826745,-0.4859634619094431
1746476331448768800,12.137768798828125,-1.8901152431875465,-0.049462315370514987,-0.6416724945373833
1746476331458765000,12.14776513671875,-1.7936720539987085,-0.12442688239663839,-0.69402928924039
1746476331468761000,12.157760986328125,-1.7549305276721714,-0.24199651930965482,-0.8022887345597147
1746476331478758000,12.1677578125,-1.7002543501108884,-0.38597894685193895,-0.7501441213026643
1746476331488754000,12.17775390625,-1.4351643207877873,-0.526625946361199,-0.48499023296311494
1746476331498750000,12.18775,-0.9618646717488765,-0.7108680497080088,-0.10954495508521794
1746476331508746000,12.19774609375,-0.23354046032726763,-0.8434512044228613,0.3437687215015292
1746476331518743000,12.207742919921875,0.46897301801145075,-0.9513733075466007,0.7599342784330249
1746476331528739000,12.217739013671874,1.0214122547388076,-1.0967903710018843,1.0761427928358316
1746476331538734800,12.22773486328125,1.422837338656187,-1.2847059021644294,1.25036085723117
1746476331548731000,12.23773095703125,1.6764041034460067,-1.4237452472813426,1.3593071157708763
1746476331558728000,12.24772802734375,1.8030495386749505,-1.5709357501499355,1.476297710686922
1746476331568724000,12.257723876953126,1.811446780142188,-1.7852086154274642,1.5880762700431048
1746476331578719700,12.2677197265625,1.726936020809412,-1.9596277553528547,1.739434121724218
1746476331588716000,12.277716064453125,1.55330730060935,-2.0609052328303457,1.939372902831435
1746476331598712800,12.287712890625,1.4148077614575623,-2.070466257379949,2.1493676523983476
1746476331608708900,12.297708984375,1.2927104910522698,-2.080073166897893,2.279551052495092
1746476331618705200,12.307705078125,1.1529729345381259,-2.1314979414477944,2.3230092320799827
1746476331628701000,12.317700927734375,0.9463257418334483,-2.1737927763417364,2.303150539269298
1746476331638698000,12.327697998046874,0.6910469124287366,-2.308306460727751,2.244378909087926
1746476331648694000,12.337694091796875,0.34311902542114253,-2.515848848706484,2.2056778609022496
1746476331658690000,12.34768994140625,-0.07588789241611957,-2.6782500724494454,2.165510977947712
1746476331668685800,12.357685791015625,-0.5340256281584501,-2.8294653007894754,2.101078253264725
1746476331678683100,12.36768310546875,-0.9280985957473515,-2.918760371789336,2.0627295256480576
1746476331688679000,12.377678955078125,-1.3558745109736918,-2.8927240132570264,2.0417384678065775
1746476331698675000,12.387675048828125,-1.868038435935974,-2.7371377302259203,2.0160843865901232
1746476331708671000,12.3976708984375,-2.436059857198596,-2.529546242408454,2.0224039450004696
1746476331718668000,12.40766796875,-2.862183329042792,-2.3429966658368704,2.0197183591783046
1746476331728663800,12.417663818359374,-3.1087235561966895,-2.1914427070617672,1.8926826094575224
1746476331738659800,12.427659912109375,-3.2519740892678497,-2.085936798234284,1.541341553005576
1746476331748656000,12.43765625,-3.3468992751091715,-2.070067028929293,0.9190640792898833
1746476331758653000,12.44765283203125,-3.513001691457629,-1.9870695967689156,0.16671426463648675
1746476331768649000,12.45764892578125,-3.888001709786057,-1.9448804142065346,-0.31894100810661913
1746476331778645000,12.46764501953125,-4.434661778590083,-2.0222350181743503,-0.3590603986576199
1746476331788641000,12.47764111328125,-4.962116211664676,-2.129328634584695,-0.11341755873486399
1746476331798637800,12.487637939453125,-5.112608970949053,-2.0185019691258668,0.07524258024990559
1746476331808634000,12.497634033203125,-4.984239780667424,-1.5888129137545823,0.08932634292095899
1746476331818630000,12.5076298828125,-4.903662853652238,-1.0650828349653632,0.03970525679215789
1746476331828626000,12.5176259765625,-5.080261529573798,-0.594071150733158,-0.1824057547651231
1746476331838622700,12.527622802734374,-5.762443583023548,-0.20989479632377622,-0.42755445449538526
1746476331848619000,12.537618896484375,-6.8915212627112865,0.02908255782779306,-0.5127387291755527
1746476331858615000,12.547614990234376,-8.150590180924535,0.18989452135162427,-0.49320086581706996
1746476331868610800,12.55761083984375,-8.991637100684642,0.5238466909062117,-0.48070334942415355
1746476331878608000,12.56760791015625,-9.101021604511141,1.0982366973526776,-0.4463507057063281
1746476331888604000,12.57760400390625,-8.28392488465905,1.8104950323753057,-0.4936587656524032
1746476331898600000,12.587599853515625,-6.800529324665665,2.420285657222569,-0.7149107492275536
1746476331908596000,12.597595947265624,-4.987127903324366,2.9114111780703067,-1.0776214870862661
1746476331918593000,12.607593017578125,-3.2528660696715113,3.2243104217946525,-1.4353417231813073
1746476331928588800,12.6175888671875,-1.985742439818382,3.3769521758064625,-1.7672659853711723
1746476331938585300,12.62758544921875,-1.2253694777071475,3.4225001672774553,-2.1001725365966557
1746476331948582100,12.63758203125,-0.8930582620263099,3.4458787047773596,-2.4145852536238728
1746476331958578200,12.647578125,-0.7986012782186269,3.4292002494379874,-2.6949492783159017
1746476331968574200,12.65757421875,-0.718957832661271,3.42766646399945,-2.8740380174875257
1746476331978570200,12.6675703125,-0.5494751262247562,3.465747772851586,-2.9182582674860953
1746476331988567000,12.677567138671876,-0.49034313829839227,3.532757362285256,-2.9336013825684786
1746476331998563300,12.687563232421875,-0.6562889027804136,3.738102240219712,-2.9457144296884534
1746476332008559000,12.69755908203125,-0.8567781573772429,4.024651237156987,-2.810504287470877
1746476332018555100,12.70755517578125,-0.9894447525918483,4.1303237347230315,-2.629562906169891
1746476332028551200,12.71755126953125,-1.0728203704148531,4.145575664390623,-2.4518720510974523
1746476332038548200,12.72754833984375,-1.0445698429644108,4.115435962192714,-2.2455654885239897
1746476332048544300,12.737544189453125,-0.8934621666520833,4.0847675599455835,-2.1948739966847
1746476332058540000,12.7475400390625,-0.6174520993858575,4.138867398923635,-2.296794009849429
1746476332068537300,12.757537353515625,-0.34559506014585495,4.178955079162121,-2.3518768685154616
1746476332078533000,12.767533203125,-0.03769230953454971,4.2066400816842915,-2.3897752220161257
1746476332088529200,12.777529052734375,0.29335633886456486,4.297029962183535,-2.452052083839476
1746476332098525200,12.787525146484375,0.644984249433875,4.418763659973442,-2.4452900423586366
1746476332108522200,12.797522216796875,1.079554647105932,4.575845734520256,-2.4182106045141816
1746476332118518000,12.80751806640625,1.5910896265149115,4.735298629851639,-2.4462699933066965
1746476332128514300,12.817514404296874,2.109202230748534,4.8911131686806675,-2.4274366980209945
1746476332138510300,12.82751025390625,2.6197856085211035,5.07561224246323,-2.36584869524464
1746476332148507100,12.837507080078124,3.1616239562571047,5.2145057493686675,-2.35347465910092
1746476332158503200,12.847503173828125,3.6432267387390134,5.236636332634091,-2.3074629956409334
1746476332168499200,12.857499267578126,4.06002474835515,5.137060690638423,-2.2534639866888524
1746476332178495200,12.8674951171875,4.393029206997156,4.994528534969687,-2.3162246865063905
1746476332188492000,12.877491943359376,4.678958610731363,4.838709612226486,-2.405079612523317
1746476332198488300,12.88748828125,4.899698626196384,4.694707968527078,-2.4925521442711354
1746476332208484000,12.897484130859375,5.125966465172171,4.582174060758948,-2.6050615021198986
1746476332218480000,12.907480224609374,5.360646743184327,4.519512729662656,-2.7557617666751146
1746476332228477200,12.917477294921875,5.543875066378712,4.453257173466683,-2.976737344461679
1746476332238473200,12.92747314453125,5.585400670465827,4.378711343309283,-3.2504525787889955
1746476332248469000,12.937468994140625,5.465945439001917,4.260616294282674,-3.3538501171603796
1746476332258465300,12.94746533203125,5.234235116711258,4.142418953925371,-3.3605200964435933
1746476332268462000,12.957462158203125,4.862826400873065,3.952074076724052,-3.215038443319499
1746476332278458000,12.9674580078125,4.384969819182158,3.7577415911912917,-3.038266456657648
1746476332288454400,12.977454345703125,3.8045162018477914,3.604392857953906,-2.9203984943851826
1746476332298450200,12.9874501953125,2.983889554303884,3.533647589123249,-2.964279429426789
1746476332308447200,12.997447265625,2.053716490370035,3.5344273413240908,-3.120160896012187
1746476332318443000,13.007443115234375,1.0940829386740922,3.600425707888603,-3.345246539466083
1746476332328439300,13.017439208984374,0.1628016212373972,3.6268256390362974,-3.5157419300764796
1746476332338435000,13.02743505859375,-0.7821119157105684,3.494129525466263,-3.4514185109868643
1746476332348432100,13.03743212890625,-1.6586515891343354,3.3133377817690373,-3.2550127263113855
1746476332358428200,13.04742822265625,-2.1906255454599854,3.2345459846049547,-3.113853612561524
1746476332368424200,13.057424072265626,-2.4213491948008534,3.2543744284078477,-3.101407972486317
1746476332378420200,13.067420166015625,-2.579648243921995,3.313093743880093,-3.000378916811943
1746476332388417300,13.077417236328126,-2.845225179979205,3.3043419898867605,-2.7534678105190395
1746476332398413000,13.0874130859375,-3.2605250599920748,3.302072583650052,-2.5934055511176584
1746476332408409000,13.0974091796875,-3.734214000609517,3.3582980364799497,-2.564412388606369
1746476332418405400,13.1074052734375,-4.2440234714001415,3.4206866881147024,-2.473281334351003
1746476332428402200,13.117402099609375,-4.765644376015663,3.4127865825146433,-2.2574000109635293
1746476332438398200,13.127398193359374,-5.159033452993631,3.38423911794424,-1.9818078768484293
1746476332448394000,13.13739404296875,-5.3476475608795875,3.4244501323014496,-1.6552964334875344
1746476332458390300,13.147390380859376,-5.2716801734864704,3.4198476069420574,-1.1891039861053228
1746476332468387000,13.157386962890625,-4.849624389472604,3.3383711007386445,-0.6988814054466783
1746476332478383000,13.167383056640626,-4.043696129366755,3.2778608101963993,-0.3713724754810333
1746476332488379100,13.177379150390625,-3.0245278541624545,3.1823224608927965,-0.21394240948045626
1746476332498375200,13.187375244140625,-2.0818547896176574,2.9989520988792178,-0.14402745399409905
1746476332508372000,13.1973720703125,-1.483664440062642,2.7034283528476952,-0.1320250093754381
1746476332518368300,13.2073681640625,-1.3558885394990443,2.358028084621578,-0.24311900226725264
1746476332528364300,13.2173642578125,-1.6669377714425324,2.0898516335904596,-0.48431105505991723
1746476332538360000,13.227360107421875,-2.0807114648014307,1.9517516151502727,-0.7525516208358108
1746476332548357400,13.237357421875,-2.4287737918436525,1.9670038370788097,-0.8711090266771614
1746476332558353200,13.247353271484375,-2.786887557300925,2.1492850886814296,-0.9217608440931886
1746476332568349200,13.25734912109375,-3.1202485742956396,2.4494457007333637,-0.9011663843538612
1746476332578345000,13.267344970703125,-3.241078016722202,2.6650457229614255,-0.8635678175173699
1746476332588342300,13.27734228515625,-3.1886008105099197,2.711281988957524,-0.7892810766875743
1746476332598338000,13.287338134765625,-3.0554537383019924,2.680892111390829,-0.7287646486654877
1746476332608334000,13.297333984375,-2.9010826762795445,2.6585814953833817,-0.7110892912432552
1746476332618330400,13.307330322265624,-2.7424527877688405,2.6507027248322963,-0.6722042647927999
1746476332628327200,13.3173271484375,-2.442965398803353,2.757042161874473,-0.6740875943213701
1746476332638323000,13.327322998046874,-2.0093641384243965,2.905278374403715,-0.6918092020381241
1746476332648319200,13.3373193359375,-1.5013134939998387,3.046733256229758,-0.7251726155228913
1746476332658315300,13.347315185546876,-0.9633113634258508,3.2071807155564427,-0.8068107420288025
1746476332668312000,13.35731201171875,-0.4306844961494207,3.3607962830364704,-0.8523301649924367
1746476332678308400,13.367308349609376,0.011724924585223197,3.4694355214536188,-0.8754462521638721
1746476332688304000,13.37730419921875,0.3026747868299484,3.5694194519892335,-0.9400462231725454
1746476332698300200,13.387300048828125,0.4448451234489679,3.6893197968721387,-1.0478048793628811
1746476332708297200,13.397297119140624,0.4631669620811939,3.7089176467895504,-1.182195521891117
1746476332718293200,13.407293212890625,0.44595513051748276,3.6712127700343724,-1.2428899368286133
1746476332728289000,13.4172890625,0.46537353221476074,3.5972651980310677,-1.253736909535527
1746476332738285000,13.42728515625,0.5436258156746625,3.51466904014796,-1.2047277447599918
1746476332748282000,13.4372822265625,0.6539151593863963,3.4423294878631827,-1.0445878900777548
1746476332758278100,13.447278076171875,0.7036299151480198,3.3420585570797323,-0.9234288503706455
1746476332768274200,13.457274169921876,0.6381529421091079,3.2368998542547223,-0.8758157430633902
1746476332778270200,13.467270263671875,0.48642976424694057,3.1458243295788764,-0.8651017490863799
1746476332788267000,13.47726708984375,0.35954058338999745,2.9981846216380594,-0.8585504277467727
1746476332798263000,13.487262939453124,0.3938637087523937,2.775451386529207,-0.8945699817635119
1746476332808259300,13.49725927734375,0.5779571243435144,2.478037296706438,-0.9389831239856778
1746476332818255000,13.507255126953124,0.7198375381052493,2.1306734733223913,-0.9800497322589159
1746476332828252200,13.517252197265625,0.8219488360583782,1.8478424739949404,-1.0176279138945044
1746476332838248200,13.527248291015624,0.87379242054224,1.6768699673920868,-0.9648291475776583
1746476332848244200,13.537244140625,0.7973048086673021,1.5495748360827564,-0.8654801539447158
1746476332858240000,13.547239990234376,0.5629886877924204,1.476420021892339,-0.5994724252548068
