time,seconds_elapsed,z,y,x
1745463324539819500,0.037819580078125,3.646097910261154,1.2853539908096194,-0.6963736604094505
1745463324549791200,0.047791259765625,3.7138171092689034,1.716464018894732,-1.0226678077578544
1745463324559762400,0.057762451171875,4.297016225919127,2.2520219711869953,-1.4420941200509667
1745463324569734400,0.067734375,5.5273430337727065,2.4692066322579977,-1.8652698480054735
1745463324579705600,0.07770556640625,6.6296835131824015,2.2102564208641646,-1.8626292703688143
1745463324589677300,0.08767724609375,7.543342664688825,2.147179202443361,-1.2855647109508515
1745463324599648500,0.0976484375,8.042317437732219,2.6763760952711104,-0.4425567202508449
1745463324609620200,0.1076201171875,8.017105839586257,3.4929186883717773,0.3999070805698633
1745463324619591000,0.1175908203125,7.870710578748583,4.121917140905559,1.077262736776471
1745463324629563100,0.127563232421875,7.563539065021276,4.3240266901806,1.778795971906185
1745463324639534000,0.1375341796875,7.193353753498196,4.249026101993024,2.8822277536839245
1745463324649506000,0.147506103515625,6.620008506864309,3.9914515628665685,3.8336084408193822
1745463324659477000,0.15747705078125,6.099807990440726,3.990924616383016,4.549288274723291
1745463324669449200,0.16744921875,6.257033272850513,4.318014882545173,4.900630354088545
1745463324679421200,0.177421142578125,6.513982081294059,4.925318220621347,5.206683092918992
1745463324689392000,0.18739208984375,6.645400722274184,5.273035095226764,5.563061997407674
1745463324699364000,0.197364013671875,6.551919890022277,4.971184484261274,5.066070507135987
1745463324709335000,0.2073349609375,6.00658727042973,5.085215937110782,4.23486927408576
1745463324719307300,0.217307373046875,5.364322216826677,5.4871676752507685,3.3003806850403548
1745463324729278200,0.2272783203125,4.820011049236357,5.300940170240402,2.3852877013385294
1745463324739250200,0.237250244140625,4.432724088525772,4.711983220715821,1.6124708527177571
1745463324749221000,0.24722119140625,4.176725128152966,4.374862558926642,0.8753168536305427
1745463324759193000,0.257193115234375,3.89303268969059,4.353708127216994,0.4455950650334358
1745463324769164000,0.2671640625,3.2177538397580383,4.6552901503741735,-0.48437400076091286
1745463324779136300,0.27713623046875,1.0197153876930474,4.617471876372397,-2.0484090316116808
1745463324789107200,0.287107177734375,-1.4347680149465798,4.513246655005216,-2.907370962768793
1745463324799079200,0.2970791015625,-3.1092288753703237,4.809352292577922,-3.4644501342564817
1745463324809050000,0.307050048828125,-4.578258348619937,4.289093616226316,-4.012002767986059
1745463324819022000,0.31702197265625,-5.906171670478582,3.467387356752157,-4.9829894883453845
1745463324828993000,0.326992919921875,-7.082467028415203,2.501232294332981,-6.215837339109182
1745463324838965200,0.33696533203125,-8.005988233244418,1.596197909439355,-7.125527002462745
1745463324848936200,0.346936279296875,-8.529384915360808,0.8927458350762725,-7.427896668866277
1745463324858908200,0.356908203125,-8.634356863442063,0.5335878212630748,-7.553421575632691
1745463324868879000,0.366879150390625,-8.193574167126418,0.24162498258352277,-7.80667328312397
1745463324878851000,0.37685107421875,-7.175149988287687,-0.08481704880297183,-7.418878080630302
1745463324888823000,0.386822998046875,-6.17412176540792,-0.3841761352136731,-7.444913854640721
1745463324898794200,0.396794189453125,-5.295475475093722,-1.062853687673807,-6.995306631356478
1745463324908766000,0.406765869140625,-4.214720512287318,-0.9372519162788987,-6.096753279045224
1745463324918737200,0.416737060546875,-3.3652862879320975,-0.35880057867765425,-5.279783984965086
1745463324928709000,0.426709228515625,-3.082172526140511,-0.04260053984224796,-4.797917583110928
1745463324938680000,0.43668017578125,-2.939313038213551,0.12040917118787765,-5.225069813480973
1745463324948652000,0.446652099609375,-3.1982442526459693,0.003115501672029495,-6.904126477262377
1745463324958623200,0.456623291015625,-3.963385744333267,-0.39442368072271344,-9.308554932400584
1745463324968595000,0.466594970703125,-4.8222564900755875,-0.9573352116256951,-11.723292600107193
1745463324978566100,0.476566162109375,-5.640508809703588,-1.7172598454475403,-13.43977152431011
1745463324988538000,0.4865380859375,-5.903437277078628,-2.4192104292064904,-14.10267078514099
1745463324998509000,0.496509033203125,-5.6554228857189415,-3.2048885129660367,-13.56086692419648
1745463325008481000,0.50648095703125,-5.100643807867169,-3.8020185398131607,-12.477681227111816
1745463325018452200,0.5164521484375,-4.540564870041608,-4.140501137605309,-11.423750850605964
1745463325028424000,0.526423828125,-4.519505715399981,-4.376071057933569,-10.712181959152222
1745463325038395100,0.53639501953125,-5.217206825020909,-4.435287801533937,-10.520962637203931
1745463325048367000,0.5463671875,-6.113352531668544,-4.34326359783113,-10.593839657366274
1745463325058338000,0.556338134765625,-6.975180958172679,-4.25771531214416,-10.067952327477931
1745463325068310000,0.56631005859375,-7.480327697849273,-4.0286949595898385,-8.94585559271872
1745463325078281200,0.57628125,-7.591630602517723,-3.5871681669086217,-7.582077761274576
1745463325088253000,0.5862529296875,-7.563992654007673,-3.2695202673524615,-6.041645724329352
1745463325098224000,0.59622412109375,-7.121433595669269,-3.2296079436808824,-4.3776311468571425
1745463325108196000,0.606196044921875,-6.2087833289444445,-3.29289179058969,-2.731713367089629
1745463325118167000,0.6161669921875,-5.185251013311744,-3.5047646089881654,-1.5708470489531754
1745463325128139000,0.626138916015625,-4.419534352084994,-3.4797938338607546,-0.9881570508688687
1745463325138111200,0.636111328125,-4.11457700727582,-3.6602035925030707,-0.5085100786298513
1745463325148082000,0.64608203125,-3.67902227474153,-3.7487054672986266,0.16055121196210384
1745463325158054100,0.65605419921875,-2.968986584204435,-3.555269638344645,1.1849772615641354
1745463325168025000,0.666025146484375,-2.1056997755855322,-3.218774414977431,2.160101812380552
1745463325177997000,0.6759970703125,-1.0270353553175926,-2.803504930102825,3.2747289419114587
1745463325187968000,0.685968017578125,0.015294161374121904,-2.212004725836217,4.746594807630777
1745463325197940200,0.695940185546875,0.9309412718273699,-1.7463184744104743,5.523166624870896
1745463325207911000,0.705910888671875,1.4492314245849847,-1.2146288879841565,5.739021206381917
1745463325217883100,0.715883056640625,1.3802164866782725,-0.3534676932170987,6.286157076004147
1745463325227854000,0.72585400390625,1.2279127324491739,0.40280601688176393,6.334943611004948
1745463325237826000,0.735825927734375,1.4099328488975762,0.7054097843021154,5.369491143897175
1745463325247797000,0.745796875,1.4817708814010022,1.0944456345066427,4.1831461011111735
1745463325257769200,0.755769287109375,1.5200176099479197,2.1058999743327496,3.3460715921133755
1745463325267740000,0.765739990234375,1.4642127206176518,3.1571693149358033,2.9949352644532916
1745463325277712100,0.775712158203125,1.4740382413223385,4.218031244270503,3.017872487926483
1745463325287683000,0.78568310546875,1.6335668322384356,4.99006687938571,2.915224014356732
1745463325297655000,0.795655029296875,1.6647990058481692,5.471509502869844,2.6401801617741585
1745463325307626000,0.8056259765625,1.594186423486471,5.939952944049239,2.2117320463746784
1745463325317598200,0.81559814453125,1.4103716787062583,6.298990838614106,1.7166642176419495
1745463325327569000,0.82556884765625,1.2835212224245072,6.571493190020322,1.3159364683389663
1745463325337541000,0.835541015625,1.257412529308349,6.709197194880247,1.0449503667145967
1745463325347512000,0.845511962890625,1.2643687781870365,6.672571053272486,0.9438689963310957
1745463325357484000,0.855484130859375,1.0363386057138442,6.375061101859807,1.3069745787262916
1745463325367455000,0.865455078125,0.7423528829045594,6.048145023220777,1.750576424115896
1745463325377427200,0.87542724609375,0.620633067509532,5.86831627933681,2.1864245866388083
1745463325387399200,0.885399169921875,0.694532489522174,5.978301671665907,2.461347443190217
1745463325397370000,0.8953701171875,1.035173653587699,7.029640278112888,2.3594775527775287
1745463325407342000,0.905342041015625,1.0637801548689603,8.271196335989236,1.989797268167138
1745463325417313000,0.91531298828125,0.19286124393641949,8.839957761964202,2.4491946485817433
1745463325427285200,0.92528515625,0.20918752483725547,9.332180722659826,2.9684318729311228
1745463325437256200,0.935256103515625,1.793845072478056,9.048513418638706,2.8362819950670004
1745463325447228200,0.945228271484375,0.9316718511242419,8.88278158916831,3.114045043480396
1745463325457199000,0.95519921875,0.4265571870863437,9.314788858354092,3.033006928694248
1745463325467171000,0.965171142578125,-0.23029870192706584,9.265466901302338,2.6193086386591196
1745463325477142000,0.97514208984375,-0.4263052581518888,8.616161281538009,2.580774617603421
1745463325487114200,0.9851142578125,-0.5361160245664417,8.481310912543535,2.6146961764276027
1745463325497085200,0.995085205078125,-0.47875031566023823,8.04434806677699,2.3459844494760036
1745463325507057200,1.00505712890625,-0.48165144392922515,7.264074472409487,2.3187907376021144
1745463325517028000,1.015028076171875,-0.42003268068842586,7.079660154300928,2.631183200848102
1745463325527000000,1.025,-0.7813029374152421,6.086190383976698,2.611002582606673
1745463325536971000,1.034970947265625,-1.1356950520008802,4.886016430063545,2.4974264723092316
1745463325546943200,1.044943115234375,-1.245478784278035,3.836017547787726,2.409083002945781
1745463325556914200,1.0549140625,-1.077135822461173,2.7238702523738145,2.4517671294182537
1745463325566886100,1.06488623046875,-0.711123558839038,1.6922762108385563,2.589886729341745
1745463325576857000,1.074857177734375,-0.20462832716293633,0.7034639109313487,2.654513223031163
1745463325586829300,1.084829345703125,0.4599818292390555,-0.07945347594320773,2.6331606384009123
1745463325596801000,1.094801025390625,0.975019994463399,-0.7171791325509548,2.5911498811453577
1745463325606772200,1.104772216796875,1.2239602684963493,-1.2996803300648927,2.452247606411576
1745463325616744000,1.114743896484375,1.2659873192995785,-1.7004501649439334,2.29658708910048
1745463325626715100,1.124715087890625,1.0906097096055745,-1.8766835146844385,2.0442653559356927
1745463325636687000,1.13468701171875,0.8449567136149853,-1.9302754041403531,1.882199647757411
1745463325646658300,1.144658203125,0.602920885208249,-1.9186428340137003,1.702664918383956
1745463325656630000,1.154630126953125,0.5686177066553384,-1.8400094422817228,1.1685644714236259
1745463325666601200,1.164601318359375,0.5985778875678778,-1.6215911477625369,0.45753976984918115
1745463325676573000,1.174572998046875,0.40643436344675715,-1.437119546508789,-0.11526420951485633
1745463325686544100,1.184544189453125,0.003057707070186734,-1.413724642395973,-0.7302437813073396
1745463325696516000,1.19451611328125,-0.7122667375247925,-1.5705974581062794,-1.435548936191201
1745463325706487300,1.2044873046875,-1.483728152948618,-1.942953683927655,-2.055464210820198
1745463325716459000,1.214458984375,-1.8169219966828822,-2.275839484626055,-2.9213971500337124
1745463325726430200,1.22443017578125,-1.938053783056885,-2.5654151359081268,-3.8698558122426268
1745463325736402000,1.23440185546875,-1.704675089162588,-2.85011996628344,-5.164279536953568
1745463325746373000,1.244373046875,-1.3637497743934393,-2.957275103622675,-6.755843210721015
1745463325756345000,1.254344970703125,-1.1581463916532695,-3.011473142278194,-7.914497698026895
1745463325766316300,1.26431640625,-0.9406447735875845,-2.8895903914064167,-8.543546127182244
1745463325776288000,1.2742880859375,-0.553725038754195,-2.498479196232557,-8.699508842310308
1745463325786259200,1.28425927734375,-0.2894071628473699,-2.12041920581162,-8.508962305057048
1745463325796231000,1.29423095703125,-0.45197979763448237,-2.089729468515515,-8.483674719065426
1745463325806202000,1.3042021484375,-1.017493035468459,-2.349196981781721,-8.672012348097562
1745463325816174000,1.314174072265625,-1.6903467040807008,-2.715316359040141,-9.127234488654135
1745463325826145300,1.324145263671875,-2.1024907504111527,-2.9467531250864267,-9.793730897194147
1745463325836117000,1.334116943359375,-2.31406677782014,-3.1335850257307287,-10.351723676395416
1745463325846088200,1.344088134765625,-2.6105747125834227,-3.273190480297804,-10.813320612680911
1745463325856060000,1.354059814453125,-2.7792174610644578,-3.0577123308837413,-11.274947944104671
1745463325866032000,1.3640322265625,-2.7935984531164166,-2.346459665772319,-11.580220346212386
1745463325876003000,1.374003173828125,-3.0470255171746015,-1.634832322129607,-11.270793162512778
1745463325885975000,1.38397509765625,-3.5962077979326246,-1.4504238492399453,-10.407533826422691
1745463325895946000,1.393946044921875,-3.883089387825131,-1.273420684170723,-9.515530041885375
1745463325905918200,1.403918212890625,-3.9181227072834965,-1.3323936821430922,-8.711405616331099
1745463325915889200,1.41388916015625,-3.8434932904958723,-1.8509762419760225,-7.959661950877308
1745463325925861000,1.423861083984375,-3.628521921560168,-2.2645172956228254,-7.480287950360775
1745463325935832000,1.43383203125,-3.2098049265801905,-2.4784745190799233,-7.167195229890942
1745463325945804000,1.443803955078125,-2.6995763535946606,-2.394701426371932,-6.8581497389853
1745463325955775000,1.45377490234375,-1.8140514096826315,-1.6352999396413563,-6.145327632600068
1745463325965747200,1.463747314453125,-0.5913181256979704,-0.11910159572064875,-4.982936296853423
1745463325975718100,1.47371826171875,0.22560382210910318,1.6862725865095853,-3.7850685740560293
1745463325985690000,1.483690185546875,0.363158627756685,3.131814508926868,-2.484042090079188
1745463325995661000,1.4936611328125,-0.13670315725430845,3.2916338994830845,-1.5682207921028137
1745463326005633000,1.503633056640625,-0.9665034374654292,2.740932446333766,-1.7553595667392015
1745463326015604000,1.51360400390625,-1.9533599271297453,1.6040367863714695,-2.493007486823201
1745463326025576200,1.523576171875,-2.8584955804407595,0.7135679563164711,-3.0884301252305506
1745463326035547100,1.533547119140625,-3.7903713566392656,0.3050485302239656,-3.282695975267887
1745463326045519000,1.54351904296875,-4.688884961462021,0.3483797224283218,-2.8345915577620264
1745463326055490000,1.553489990234375,-5.318527264857292,0.7404705762892961,-2.0814017851531506
1745463326065462000,1.5634619140625,-5.476593089744449,0.8609721019357442,-0.8805173448830842
1745463326075433000,1.573432861328125,-5.058344881319999,0.7755424741923809,0.38046471347510813
1745463326085405200,1.5834052734375,-4.339055040225387,0.5952940435916185,1.606668888440728
1745463326095376100,1.593376220703125,-3.3472172550171613,0.4006616983294487,2.728849794352054
1745463326105348000,1.60334814453125,-2.2843255734205243,0.2513233697772026,3.522690726301074
1745463326115319000,1.613319091796875,-1.4443376611940562,0.20487842946648596,3.9784816066563127
1745463326125291000,1.623291015625,-0.751513363829255,0.2804325598835945,4.271155223953723
1745463326135262000,1.633261962890625,0.03934007674157619,0.4098801930516958,4.506804639258981
1745463326145234200,1.643234130859375,0.8025066150940954,0.6891250044554471,4.8441480038881295
1745463326155205000,1.653205078125,1.248894876331836,0.8108756533801555,5.171607687884569
1745463326165177000,1.663177001953125,1.4975610095985232,0.9098042296439409,5.415480741655826
1745463326175148000,1.67314794921875,1.5879272169612346,0.9813649065107106,5.672991860157251
1745463326185120000,1.6831201171875,1.6402771435320376,1.1199667369931936,5.899490000757575
1745463326195092000,1.693092041015625,1.745768731573224,1.3002268580317498,5.9322641431123015
1745463326205063200,1.703063232421875,1.586841467551142,1.4032669612675905,5.798832408744096
1745463326215035000,1.713034912109375,1.2827584213584662,1.6963427296251057,5.632706026998162
1745463326225006000,1.723006103515625,0.8404125673793256,2.1432190666407345,5.401169892230629
1745463326234978000,1.73297802734375,0.37037878826856613,2.5851860043048855,5.134042219600081
1745463326244949000,1.742948974609375,-0.1433902338027954,3.06854995124042,5.0074353628158565
1745463326254921200,1.752921142578125,-0.520662142585963,3.5132542049139737,4.89066133325994
1745463326264892200,1.76289208984375,-0.5932143147081136,3.9761037716090675,4.761859012258053
1745463326274864000,1.772864013671875,-0.4838650283254683,4.71227343583405,4.523766295453906
1745463326284835000,1.7828349609375,-0.3363409095883369,5.604511613649129,4.426596545556188
1745463326294807300,1.792807373046875,-0.3625619770377874,6.409315838161111,4.377618871897459
1745463326304778000,1.802778076171875,-0.33272914883196353,7.126264669087528,4.134536091721058
1745463326314750200,1.812750244140625,-0.28002989736683664,7.533251478785276,3.843760416999459
1745463326324721200,1.82272119140625,-0.4389321000128984,7.8120485464215275,3.816885269555449
1745463326334693000,1.832693115234375,-0.9295646497119218,8.035780729439853,4.1423277685105795
1745463326344664000,1.8426640625,-1.4175328025072813,8.027568196889758,4.562849767085909
1745463326354636300,1.85263623046875,-1.5953624815285206,8.048104788962005,4.928697341665625
1745463326364607000,1.86260693359375,-1.433302034047246,8.35147632588446,4.966236506465077
1745463326374579200,1.8725791015625,-1.1936749472826718,8.580002757441997,4.74731786120832
1745463326384550100,1.882550048828125,-1.0210965398531406,8.230044241389631,4.6280157744795085
1745463326394522000,1.892522216796875,-0.8371160100519657,7.43234838757813,4.79966764164865
1745463326404493000,1.9024931640625,-0.39743860809709874,7.100518817934393,4.627137822601199
1745463326414465300,1.91246533203125,-0.06875961143877357,7.305854928040504,4.136868334060907
1745463326424436000,1.92243603515625,-0.08258651327192783,7.479565481305122,3.8743607224464416
1745463326434408200,1.932408203125,-0.45183067148737605,7.405007960709929,3.739689801672101
1745463326444379100,1.942379150390625,-1.059981931629777,7.041500811776518,3.7133056526154276
1745463326454351000,1.95235107421875,-1.661665968519449,6.544150425064563,3.6488252893984314
1745463326464322000,1.962322021484375,-2.0744015510022638,5.958498070043325,3.303808905923366
1745463326474294300,1.972294189453125,-2.3007097219884396,5.421261078622937,2.6557155845582483
1745463326484265200,1.98226513671875,-2.23492996661067,4.774898526573181,2.119260098904371
1745463326494237200,1.9922373046875,-1.9818536156862974,4.208905396267771,1.6767518939703703
1745463326504208100,2.0022080078125,-1.6595915003329516,3.6024376322329044,1.4109656990766524
1745463326514180000,2.01218017578125,-1.1844915238738059,2.9166970095187423,1.2917203109711408
1745463326524151000,2.022151123046875,-0.6194184310227632,2.2625480413764714,1.2856085500925778
1745463326534123300,2.032123291015625,-0.11858425731565803,1.6479630218595265,1.1627590000152588
1745463326544094200,2.04209423828125,0.1625187126427889,0.8917594543874263,0.9551818329840898
1745463326554066200,2.052066162109375,0.49888413561787454,0.27110125243663785,0.6730085669130087
1745463326564037000,2.062037109375,1.2100339614093303,-0.19834756639301776,0.7595791813850402
1745463326574009000,2.072009033203125,2.24643628000915,-0.5941746841728687,1.0311807845592498
1745463326583980000,2.08197998046875,3.506804005861282,-1.0563011972904204,1.3307196114510298
1745463326593952300,2.0919521484375,4.505136413785815,-1.4272019636064768,1.7671558029949663
1745463326603923200,2.101923095703125,5.399352029153705,-1.684277613300085,1.9589841967523096
1745463326613895200,2.111895263671875,6.125410633730888,-2.142731575384736,1.8458213434308766
1745463326623867400,2.121867431640625,5.711005072209239,-2.2678315347373483,1.1507523358792067
1745463326633838300,2.13183837890625,4.40549822794795,-2.4011790979534386,-0.17737609003484248
1745463326643810300,2.141810302734375,2.933323734670877,-2.1851222718685865,-0.8537874511286616
1745463326653781500,2.151781494140625,1.4285188914239406,-2.2114128974229095,-1.8894798678934572
1745463326663753200,2.161753173828125,0.026886271626222875,-2.5912404820382595,-3.173128808350861
1745463326673724400,2.171724365234375,-0.8380214344590902,-2.7349761682778597,-4.005602545554936
1745463326683696400,2.1816962890625,-1.068251162803173,-2.72042800296545,-4.626213108971715
1745463326693667300,2.191667236328125,-1.2231143922567367,-2.734003523853421,-5.67028903093934
1745463326703639300,2.201639404296875,-1.7297124997854232,-2.4709546449691056,-7.055142383638024
1745463326713610500,2.211610595703125,-2.414171265995502,-2.089713101902604,-8.737697995451093
1745463326723582200,2.221582275390625,-2.670847687238455,-1.995069655612111,-10.349912827581166
1745463326733553400,2.231553466796875,-2.863123824763298,-2.261197795811295,-11.330493890237808
1745463326743525400,2.241525390625,-2.6188988888144493,-2.186825568655133,-11.992784079259634
1745463326753496300,2.251496337890625,-2.232549793475866,-2.1657617378383875,-12.380998968470095
1745463326763468300,2.26146826171875,-1.7965315350830553,-2.5052760167658326,-11.748651497769355
1745463326773439500,2.271439453125,-1.15344990440011,-2.63991595788002,-10.510788449192047
1745463326783411200,2.2814111328125,-0.8736100497126579,-2.8057921642571686,-9.513280801653861
1745463326793382400,2.29138232421875,-1.2061843002438544,-2.7114883251845834,-8.689359788739681
1745463326803354400,2.301354248046875,-1.274604925519228,-2.682678994807601,-8.131139630523323
1745463326813325300,2.3113251953125,-1.152732111519575,-3.202708246317506,-8.821865055912733
1745463326823297300,2.32129736328125,-1.1062076762318611,-3.664371233576536,-9.886353066790104
1745463326833268500,2.3312685546875,-1.0470435396015643,-3.988076533475518,-10.488466727268696
1745463326843240200,2.341240234375,-0.9801227974951267,-3.7789988987535237,-10.220592035663127
1745463326853211400,2.35121142578125,-1.0354255825221539,-3.705496440169215,-9.496633033713698
1745463326863183400,2.361183349609375,-1.0754454582214354,-4.032470970997214,-8.83052299414277
1745463326873154300,2.371154296875,-0.6677192283332347,-4.290910310259461,-8.300568560945987
1745463326883126300,2.381126220703125,-0.20014670650316402,-4.4109249291718005,-7.785632248660922
1745463326893097500,2.391097412109375,0.2726683556228876,-4.4721915910393,-7.236456397643685
1745463326903069200,2.401069091796875,0.9188906224191188,-4.417380973443389,-6.784039377635717
1745463326913040400,2.411040283203125,1.7374948242247104,-4.123418485379219,-6.323799701178073
1745463326923012400,2.421012451171875,2.3360382250010967,-3.6523499563932416,-6.031119069617986
1745463326932983300,2.4309833984375,2.6632383812785148,-2.9263053803414105,-6.1376972838521
1745463326942955300,2.440955322265625,2.801863592636585,-1.8689461984306572,-6.462516097950935
1745463326952926500,2.450926513671875,2.662978269037604,-0.6293161401808262,-7.239870005479455
1745463326962898200,2.460898193359375,2.211685869145393,0.3693254798233509,-7.89044871391952
1745463326972869400,2.470869384765625,1.782488981205225,0.7984405346989631,-7.415895849949121
1745463326982841300,2.48084130859375,1.6361001501083372,0.5713935280442237,-5.803696799910068
1745463326992812300,2.490812255859375,1.6843606154084205,0.07904021896719932,-3.859367151454091
1745463327002784300,2.5007841796875,1.467623405843973,-0.22833821550905703,-2.2960393920898436
1745463327012755500,2.51075537109375,0.7005465621799231,-0.35218086827695366,-1.1918594222933054
1745463327022727200,2.52072705078125,-0.21704760895418002,-0.30858956383168695,-0.4690741402983665
1745463327032698400,2.530698486328125,-0.8871253648459911,-0.24598200874924658,-0.06991583226919174
1745463327042670300,2.54067041015625,-1.4067904592186211,-0.28217735772430896,0.08950959053337573
1745463327052641300,2.550641357421875,-1.7948609715223312,-0.3408592637956142,0.32693478333950043
1745463327062613200,2.56061328125,-2.06006673617959,-0.44874096184372897,0.661836600035429
1745463327072584400,2.57058447265625,-1.978519502827525,-0.6355944897979497,1.188348199301958
1745463327082556200,2.58055615234375,-1.2480138557136058,-0.4503776231348514,1.9066069437831639
1745463327092527400,2.59052734375,-0.5586451056301593,-0.031221067693829534,2.5597663163661957
1745463327102499300,2.600499267578125,-0.25001462526619433,0.3545148641824722,3.2398470136225224
1745463327112470300,2.61047021484375,-0.040063203384354706,0.7451695477604866,3.9393075341314074
1745463327122442200,2.620442138671875,0.32634967692792416,1.1222066248744726,4.364093035370111
1745463327132413400,2.630413330078125,0.6733370682150125,1.4086305341273546,4.515312355363369
1745463327142385200,2.64038525390625,0.8887941748410463,1.878232497692108,4.332607179260254
1745463327152356400,2.6503564453125,0.9012380613505839,2.688262932419777,3.688064243853092
1745463327162328300,2.660328369140625,0.6191963127046823,3.7474148429661986,2.6880565961927174
1745463327172300300,2.67030029296875,-0.10443243437707424,4.5026305684447285,1.9012129757851362
1745463327182271200,2.680271240234375,-0.7717185319900512,5.105024214908481,1.3198837446600198
1745463327192243500,2.690243408203125,-1.3307634505927561,5.771863153275847,0.9777911396771669
1745463327202214100,2.700214111328125,-1.8014952949702738,6.420164564433693,1.057400682964921
1745463327212186400,2.710186279296875,-2.1568799277246,7.275134795606136,1.1860136188745498
1745463327222157300,2.7201572265625,-2.454438978976011,8.123018867909908,1.4353916998028755
1745463327232129300,2.73012939453125,-2.8828502694964406,8.90534997932911,1.6772411387920378
1745463327242100200,2.740100341796875,-3.425915528678894,9.392906117257475,2.0161200424253938
1745463327252072400,2.750072509765625,-3.926662572091818,9.419027815985679,2.3480688545346258
1745463327262043100,2.760043212890625,-4.2250773633897305,8.962838876223564,3.0023657067149876
1745463327272015400,2.770015380859375,-4.362167620265484,8.736447703129052,3.7244811266243456
1745463327281986300,2.779986328125,-4.161334082275629,9.205496708986162,4.324657681560516
1745463327291958300,2.789958251953125,-3.3345068265259266,10.550369933474062,4.683976146632433
1745463327301929200,2.79992919921875,-2.265799736648798,11.804114441794157,5.166547481885552
1745463327311901400,2.8099013671875,-1.5280278979241848,12.093297294366359,5.998371230748296
1745463327321872100,2.8198720703125,-1.0756675765395163,11.744417221200466,6.951145418068767
1745463327331844400,2.82984423828125,-0.5762531699698418,11.429072337889671,7.493581731697916
1745463327341815300,2.839815185546875,-0.4840169309515506,10.990763922733068,7.418723182329535
1745463327351787300,2.849787353515625,-0.217817332951352,9.998976406407357,6.668730159935355
1745463327361758200,2.85975830078125,0.1757458584845066,8.880941514259577,6.141797120386362
1745463327371730400,2.86973046875,0.6893605667769909,8.022164292019605,5.88385228664279
1745463327381701000,2.879701171875,1.2349275796473025,7.734331100490689,5.398326193237304
1745463327391673300,2.88967333984375,1.4303519520699977,7.8209625052392475,4.392098063626885
1745463327401644300,2.899644287109375,1.7322236058235168,7.966694333732128,3.447937390872836
1745463327411616300,2.9096162109375,1.4932289717435836,7.803440877074003,2.9954350306689737
1745463327421587200,2.919587158203125,0.927850247009471,7.525425899726152,2.2240976069509983
1745463327431559400,2.929559326171875,0.3086731504619121,7.208062077808379,1.478050691834092
1745463327441530000,2.939530029296875,-0.43304296890906985,5.905042374187707,0.9073808018893003
1745463327451502300,2.94950244140625,-0.7824514498632401,4.434940011009574,0.5925339312285185
1745463327461473300,2.959473388671875,-0.1675484504383057,2.95679871828258,0.910728943273425
1745463327471445200,2.9694453125,0.7567045757967978,1.386154498425126,1.4388777883529662
1745463327481416200,2.979416259765625,1.4008335966408252,0.16708032146990298,2.139376419737935
1745463327491388400,2.989388427734375,2.1649054132699965,-0.7042255429536104,2.671783506783843
1745463327501359000,2.999359130859375,2.812088049530983,-1.3850807317137717,2.9807465801030397
1745463327511331300,3.009331298828125,2.916089691275358,-1.9890987645089626,3.1194881113171578
1745463327521302300,3.01930224609375,2.6394495094120503,-2.421394787508249,3.044684507006407
1745463327531274200,3.029274169921875,2.0329203705787657,-2.5816163291245697,2.6027380276083947
1745463327541245200,3.0392451171875,1.1099684900701046,-2.736118908572197,1.9276935709536074
1745463327551217400,3.049217529296875,0.22310499103069303,-2.996980506545305,1.3488883053481577
1745463327561188000,3.05918798828125,-0.39221535702347754,-2.9909295359432697,0.6994996834754943
1745463327571160300,3.069160400390625,-0.7273779435474426,-2.6292992867976426,-0.022441548910737037
1745463327581131300,3.07913134765625,-1.1016462135352194,-2.2524060020685193,-0.4459773423492908
1745463327591103200,3.089103271484375,-1.5307003320038317,-1.7865718666046857,-0.7755833907246589
1745463327601074200,3.09907421875,-1.8555331746280193,-1.447024854451418,-1.1352806259810924
1745463327611046400,3.10904638671875,-2.0499897249318657,-1.2116261990368367,-1.7933084813833235
1745463327621017000,3.11901708984375,-2.0397041854999958,-0.7889952454835176,-2.5504975527614353
1745463327630988800,3.12898876953125,-1.984797998575121,-0.44998248633742327,-3.3049498926520346
1745463327640960000,3.1389599609375,-1.945035166376829,-0.13618074081540107,-3.9756449219256638
1745463327650931700,3.148931640625,-1.8256350261010228,0.16317922237813473,-4.581792952486873
1745463327660903000,3.15890283203125,-1.8162663092531264,0.23194354652464388,-5.503586895132065
1745463327670875000,3.168875,-2.090188318198919,0.2040221048980951,-6.957170085185766
1745463327680846000,3.17884619140625,-2.412644640950113,-0.00996200656592846,-8.40953746970892
1745463327690817800,3.18881787109375,-2.479716043573618,0.5360808071225881,-10.110765048766135
1745463327700789000,3.1987890625,-3.0002456458210944,0.5880062246710062,-11.442084964197873
1745463327710760700,3.2087607421875,-3.8560570039927957,-0.21177754133045673,-12.111616210389137
1745463327720732000,3.21873193359375,-4.488840528023243,-1.2124258249819277,-12.722471980249882
1745463327730704000,3.228703857421875,-4.52073671849966,-2.231524542081356,-13.25138947161436
1745463327740675000,3.238675048828125,-4.150174390357733,-3.2710242421746254,-13.410638953328132
1745463327750646800,3.248646728515625,-3.3525101007282734,-3.987272231355309,-13.265908995354176
1745463327760618000,3.258617919921875,-2.0827542226754128,-3.964887381067872,-12.89114512386918
1745463327770590000,3.26858984375,-1.2084218500375747,-3.840824363547563,-11.943224806320666
1745463327780562000,3.27856201171875,-1.0229438482202589,-3.8678158308476207,-10.715083525812625
1745463327790532900,3.288532958984375,-1.1638124545909463,-3.644335576763749,-9.707346160683036
1745463327800504800,3.2985048828125,-1.2274411694146692,-3.38927477402389,-8.884295500862597
1745463327810475800,3.308475830078125,-1.2114813106734306,-3.290998524188995,-8.077704392933844
1745463327820448000,3.318447998046875,-1.240198798048496,-3.289547740858793,-7.364543263852596
1745463327830419000,3.3284189453125,-1.3410370073258877,-3.275124078708887,-6.900058789432048
1745463327840391000,3.338390869140625,-1.4073323110103606,-3.1843080817520617,-6.808035170251131
1745463327850361900,3.34836181640625,-1.390576406520605,-2.7013410251796244,-6.826995306786895
1745463327860333800,3.358333740234375,-1.26853992639184,-1.852439300265908,-6.699574795532226
1745463327870304800,3.3683046875,-1.2052153090812265,-0.8942062630176544,-6.576426554769277
1745463327880277000,3.378277099609375,-1.4370926585018633,0.06322831732928752,-6.334114174443483
1745463327890248000,3.388248046875,-2.0162942299485205,0.68790744535923,-5.81592733592987
1745463327900220000,3.398219970703125,-2.6791268552839753,1.114796056357026,-5.379546673965454
1745463327910190800,3.40819091796875,-3.230419844585657,1.1777286056101322,-5.051468565809726
1745463327920162800,3.418162841796875,-3.6373978864550587,0.8816980791002511,-4.676113742694258
1745463327930133800,3.4281337890625,-3.901915084326267,0.594729979968071,-4.347078187683224
1745463327940106000,3.43810595703125,-3.834808464258909,0.21422084282934664,-3.957233651444316
1745463327950077000,3.448076904296875,-3.489234446901083,-0.25193068802058693,-3.570041091018915
1745463327960049000,3.458048828125,-3.0976807686567303,-0.5533890847980976,-3.2027550080686806
1745463327970019800,3.468019775390625,-2.5523592549800873,-0.5760609353333711,-2.936328761705756
1745463327979991800,3.47799169921875,-2.0067489874899387,-0.5831149454981088,-2.640851777425408
1745463327989962800,3.487962646484375,-1.5786930862784385,-0.7080559148967266,-2.2019681927293537
1745463327999935000,3.49793505859375,-1.1805120988488196,-0.7090186224490403,-1.758974834626913
1745463328009906000,3.507906005859375,-0.8047171307504176,-0.7013906117886305,-1.2014677931159734
1745463328019878000,3.5178779296875,-0.4622644968161359,-0.6027613107323646,-0.7518091319054365
1745463328029848800,3.527848876953125,-0.2873170952329412,-0.17854688737988472,-0.38142625198364255
1745463328039820800,3.53782080078125,-0.39692894154191016,0.1152045882821083,0.1349205116212368
1745463328049791700,3.547791748046875,-0.6487631834506988,0.5215367334634066,0.5310843140095473
1745463328059764000,3.557763916015625,-1.0136590833287686,1.0891530810564756,0.9010130204230546
1745463328069735000,3.56773486328125,-1.4246750754773616,1.7716455156296491,1.34032389062047
1745463328079707000,3.577706787109375,-1.728640486639738,2.429890813174844,1.7651771963983773
1745463328089677800,3.587677734375,-1.6896492233358322,3.001753127774596,2.027403652983904
1745463328099649800,3.59764990234375,-1.7829999994672834,3.510225212481618,2.28097684751451
1745463328109620700,3.607620849609375,-1.782944762148708,4.436032482421398,2.2809476214200255
1745463328119593000,3.617593017578125,-1.7636662073135374,5.702048443293571,2.3931407529264686
1745463328129564000,3.62756396484375,-1.9212232058957217,6.82698478539288,2.78357740983963
1745463328139536000,3.637535888671875,-2.159009779360145,7.702557075089215,3.077431176832318
1745463328149506800,3.6475068359375,-2.350699349168688,8.409172728049755,3.2412586339861154
1745463328159478800,3.657478759765625,-2.4546213498055933,8.904847875025867,3.3905502007871866
1745463328169449700,3.66744970703125,-2.502918055462837,9.194662011238933,3.6442946602314708
1745463328179422000,3.677421875,-2.369032001455873,9.314520562806726,4.002991778534651
1745463328189393000,3.687392822265625,-2.1195032600104806,9.512342644020915,4.348964439821243
1745463328199364900,3.69736474609375,-1.9071594630993902,9.732434424710274,4.677510750010609
1745463328209335800,3.707335693359375,-1.9298935652159153,9.699434656906128,5.292687890201806
1745463328219307800,3.717307861328125,-2.151665846338123,9.443139928457141,5.862658107444644
1745463328229278700,3.72727880859375,-2.3577007523633537,9.312014717465638,6.114762982988357
1745463328239251000,3.7372509765625,-2.3267982490994035,9.573974047547578,6.186324244377016
1745463328249223000,3.747222900390625,-2.0110861399114133,9.778678874012828,6.4517720010966055
1745463328259193900,3.75719384765625,-1.5684055010199547,9.890103359234333,6.854136996212601
1745463328269166000,3.767166015625,-1.258885816731304,9.922836585056782,7.4811045274406665
1745463328279137000,3.777136962890625,-0.9809680161476134,9.761250184828043,7.9696543525815
1745463328289109000,3.78710888671875,-0.6745254742819815,9.485838667976855,7.84641492640376
1745463328299080000,3.797079833984375,-0.344194582230784,8.9728400457561,7.232579263949394
1745463328309052000,3.807052001953125,0.04257891253232956,8.18515705191493,6.658357819002866
1745463328319022800,3.81702294921875,0.7197977906167506,7.4734116348505015,5.980684767410159
1745463328328995000,3.8269951171875,1.5786626911401749,6.941542892464995,5.157117974761128
1745463328338966000,3.836966064453125,2.2320178785562512,6.51938890877366,4.550940133583546
1745463328348938000,3.84693798828125,2.58575649766922,6.397064843875169,4.070985118308663
1745463328358909000,3.856908935546875,2.1886136211156844,6.123073715215921,3.6627497698545453
1745463328368881000,3.866880859375,1.6453110460460185,5.77806785313487,3.3918332263350486
1745463328378851800,3.876851806640625,0.5787245650520548,5.6951639444768425,3.0926269923985004
1745463328388824000,3.886823974609375,1.1877192537486552,5.2606140050709245,2.667359260600805
1745463328398795000,3.896794921875,0.9412134403210133,4.618783251231909,2.4823458075553178
1745463328408767000,3.90676708984375,0.4751519989073276,3.55703197184205,2.282476146161556
1745463328418738000,3.916738037109375,0.30747941063269973,2.573867322432995,2.147142377564311
1745463328428710000,3.9267099609375,0.3970002532124519,1.7696926279962062,2.1175269915014505
1745463328438680800,3.936680908203125,0.6671041651748121,1.0776520283550024,2.08337922270596
1745463328448653000,3.946653076171875,0.960260889814049,0.5295768320560456,2.0761428417116403
1745463328458624000,3.9566240234375,1.1905762506149709,0.1909165396094322,2.2669892386943102
1745463328468596000,3.966595947265625,1.1889596091985701,-0.05402034400105476,2.5023504847079514
1745463328478567000,3.97656689453125,0.9202782773852348,-0.20581015735864638,2.3649323110520837
1745463328488539000,3.986538818359375,0.3966168068528175,-0.230352477940917,1.6972925776958465
1745463328498509800,3.996509765625,-0.2911434851206839,-0.3460100706875324,0.9500345332235097
1745463328508482000,4.00648193359375,-0.8157892905153333,-0.46561260166764257,0.3236860106766224
1745463328518453000,4.016452880859375,-1.1599112093687056,-0.4121101440608501,-0.2666512872904539
1745463328528425000,4.026425048828125,-1.3836333093844353,-0.2895639608442783,-1.0954308461517095
1745463328538396000,4.03639599609375,-1.483107536832243,-0.1475251416504383,-2.282778928500414
1745463328548368000,4.046367919921875,-1.5989210507929323,-0.19019173246622084,-3.188388044542074
1745463328558338800,4.0563388671875,-1.560465355670452,-0.2796247506320476,-3.64893079559952
1745463328568311000,4.06631103515625,-1.379119777482748,-0.13495616745650768,-3.9257583167284724
1745463328578282000,4.076281982421875,-1.1315465540193022,0.15198329010307787,-4.0108682109981775
1745463328588254000,4.08625390625,-0.718471948840469,0.4349234488934278,-4.24217024474889
1745463328598225000,4.096224853515625,-0.322053879430145,0.7409656663298606,-4.728497717665135
1745463328608196900,4.10619677734375,-0.11088277956023812,1.0958020175516605,-5.363112256515026
1745463328618167800,4.116167724609375,-0.05333426143303513,1.6206570817828176,-6.169497028216719
1745463328628140500,4.126140625,-0.059541737771034234,2.160275415381789,-6.883750044187903
1745463328638111200,4.136111328125,0.01674202209487557,2.7824124577134848,-7.941054865562915
1745463328648083500,4.14608349609375,-0.23555180014967916,3.118821171841025,-9.201745832020043
1745463328658054400,4.156054443359375,-0.7673126982465386,2.743342430084944,-10.23643959313631
1745463328668026400,4.1660263671875,-1.1843350181378423,1.7657389219343662,-11.107074426430463
1745463328677997300,4.175997314453125,-1.253342503390461,0.7335247026741504,-11.957978138816356
1745463328687969500,4.185969482421875,-1.1247829051032663,-0.1322720429390669,-12.786374251317977
1745463328697941500,4.19594140625,-1.0383800484135746,-1.0347872846186161,-13.123086916828155
1745463328707912400,4.205912353515625,-1.2090930272974074,-1.5951012002438305,-13.392256908941269
1745463328717884400,4.215884521484375,-1.8268226284503937,-1.6569260805159807,-13.920494016826153
1745463328727855400,4.22585546875,-2.1677768770530816,-1.6469003610640762,-14.513908822542428
1745463328737827600,4.23582763671875,-2.2197652768351137,-2.7489222760438916,-14.599983177930115
1745463328747798500,4.245798583984375,-2.1798178818501532,-3.582876022672653,-14.601507611018418
1745463328757770500,4.2557705078125,-1.6947592598259449,-3.5353257514685392,-14.180808502310514
1745463328767741400,4.265741455078125,-0.7907738725285977,-3.2555946178525685,-13.046547282505035
1745463328777713700,4.275713623046875,0.25713702449202536,-2.9354858811408278,-11.60274080557823
1745463328787684400,4.285684326171875,1.2235808407247066,-2.5293483817487954,-10.344819303834438
1745463328797656600,4.295656494140625,2.0528315242290494,-1.9679940171599386,-9.553989244139194
1745463328807627500,4.30562744140625,2.7091362091004845,-0.9872995572566986,-8.990807079601288
1745463328817599500,4.315599609375,3.0799031199038027,0.19145020809471605,-8.49528799996972
1745463328827570400,4.3255703125,3.229091810852289,1.133780158290267,-7.873912005138397
1745463328837542700,4.335542724609375,2.7209575797975063,1.2564648731946944,-7.1132461975604295
1745463328847513300,4.345513427734375,1.566881067931652,0.6135147599369287,-6.1914686215281485
1745463328857485600,4.355485595703125,0.6350678355753422,-0.10344809951484203,-5.35611085332036
1745463328867456500,4.36545654296875,-0.07077504291441292,-0.7618652464956045,-4.827385085135698
1745463328877428500,4.375428466796875,-0.6583259615659713,-1.4904817188620567,-4.388043235278129
1745463328887399400,4.3853994140625,-1.1329343551158904,-2.204508524861932,-3.940368149100244
1745463328897371600,4.39537158203125,-1.4104139104127884,-2.6526795778632164,-3.428400915753841
1745463328907342300,4.40534228515625,-1.6006348689734935,-2.7811598273038864,-2.8481238240301607
1745463328917314600,4.415314453125,-1.7795301313996315,-2.6223931606709954,-2.219137646456063
1745463328927285500,4.425285400390625,-1.93251938367486,-2.3845354216665027,-1.5007149435847997
1745463328937257500,4.435257568359375,-1.9831050770521164,-2.068371623188257,-0.7374614576011895
1745463328947228400,4.445228515625,-2.016774706941843,-1.618519485232234,0.012711013013124465
1745463328957200600,4.45520068359375,-1.9925264008700847,-1.1847492980271577,0.7303583475977182
1745463328967171300,4.46517138671875,-1.9932184747874735,-0.5388105243474245,1.296155078548193
1745463328977143600,4.4751435546875,-1.944423756480217,0.2044412070930004,1.7057535320490598
1745463328987114500,4.485114501953125,-1.79596337980628,1.137498886552453,1.8173124573051929
1745463328997086500,4.49508642578125,-1.6471933526612816,2.217113154891133,1.712580747720599
1745463329007057400,4.505057373046875,-1.4465959615148603,3.125501672518253,1.396749542197585
1745463329017029600,4.515029541015625,-1.171988673718646,3.9845840151846406,0.9651660513818263
1745463329027000300,4.525000244140625,-1.1395455899491906,4.967637605434656,0.5689923121213912
1745463329036972500,4.53497265625,-1.4602398714639246,6.126906425246596,0.07964110746979713
1745463329046943500,4.544943603515625,-2.204780327540636,6.911136648285389,0.6249135213077068
1745463329056915500,4.55491552734375,-2.727752062243223,7.580213136446475,0.9792319861352443
1745463329066886400,4.564886474609375,-3.226177384710312,8.342192949232459,0.41307226709127426
1745463329076858600,4.574858642578125,-4.05172570656538,8.766568116104603,0.6110860714852809
1745463329086829300,4.584829345703125,-4.355545864038169,9.381059612119197,0.5570873547941446
1745463329096801500,4.594801513671875,-3.824546890224516,9.399915703758596,1.319859194740653
1745463329106772500,4.6047724609375,-3.4370483325898644,9.227295868340134,2.671718040332198
1745463329116744400,4.614744384765625,-3.3570541738986965,10.354821642410755,3.5326118163347244
1745463329126715400,4.62471533203125,-3.1333366039276123,11.182697530430554,5.222070047143101
1745463329136687600,4.6346875,-2.752301689349115,11.217459047210216,7.1319351159393785
1745463329146658300,4.644658203125,-2.4003216043412685,11.271042168837784,8.457962770181894
1745463329156630500,4.654630615234375,-1.922657038091123,11.869596091008185,8.97681537912786
1745463329166601500,4.6646015625,-1.4796931983441113,12.052547935348748,9.096680360436439
1745463329176573400,4.674573486328125,-1.4668568053856492,11.084218451499938,9.410438851338624
1745463329186544400,4.68454443359375,-1.8139260297372937,9.77468249785304,9.583190204182266
1745463329196516600,4.6945166015625,-2.3176225706055757,9.003311171865462,8.713806247732043
1745463329206487300,4.7044873046875,-2.7111712220594284,8.502602122375368,7.122466445848345
1745463329216459500,4.71445947265625,-2.907100329133868,8.048363732159137,5.7471285249918695
1745463329226430500,4.724430419921875,-2.769331150083244,7.6788278244554995,4.8206315192222595
1745463329236402400,4.73440234375,-2.280364853096008,7.405202606499195,4.274561817526817
1745463329246373400,4.744373291015625,-1.5298096667744219,7.244175593718886,3.9235131681501865
1745463329256345600,4.754345703125,-1.5456874732553958,7.058986784106493,3.6966385954529044
1745463329266316300,4.76431640625,-0.33518618659526106,6.439397088170051,4.062478571248055
1745463329276288500,4.77428857421875,0.3446361519858241,6.065691201305389,4.764644259062409
1745463329286259500,4.784259521484375,0.4878901921883225,5.7788394220292565,5.062639363643527
1745463329296231400,4.7942314453125,0.4618799910105765,5.620149912285805,4.751368013381958
1745463329306202400,4.804202392578125,0.39492037819847464,5.061840906742215,4.3454076241225
1745463329316174600,4.814174560546875,1.7331870440281927,3.876878842747211,3.218567494228482
1745463329326145500,4.8241455078125,2.0889539540983737,2.8247169372186063,1.8175579564988613
1745463329336117500,4.834117431640625,2.0557659702457487,1.7721224854916333,1.0569079310119152
1745463329346088400,4.84408837890625,1.771338787768036,1.1701742447078227,0.8318161500781774
1745463329356060400,4.854060302734375,1.521642434670776,0.8299486026406288,1.4745722020685672
1745463329366031400,4.86403125,1.1194961968719959,0.7288473585128784,3.221908036828041
1745463329376003600,4.874003662109375,0.9994869847871363,0.2815869906157255,4.6147506347149605
1745463329385975300,4.883975341796875,0.8721674496889114,-0.12347265041172503,4.974212892171741
1745463329395946500,4.893946533203125,0.6611315205059946,-0.5234329224735498,4.3691602556318045
1745463329405918500,4.90391845703125,0.37155835344195365,-0.9680278705537319,3.344012906017899
1745463329415889400,4.913889404296875,0.13565934728980064,-1.0744774899721146,1.8861147753745315
1745463329425861400,4.923861328125,-0.11227364939674735,-1.0870891342639923,0.6428045673072338
1745463329435832600,4.93383251953125,-0.3400494087174535,-1.0452619168817996,-0.18840426452755926
1745463329445803500,4.943803466796875,-0.586863192115724,-0.8377145604670048,-0.9781488670736551
1745463329455775500,4.953775390625,-0.9090028501331806,-0.5876227783113718,-1.5521423484832046
1745463329465747500,4.96374755859375,-1.312067225690186,-0.5169195950567722,-1.4790437945246695
1745463329475718400,4.973718505859375,-1.6636685405135154,-0.6335305430054664,-1.1726175462067125
1745463329485690400,4.9836904296875,-1.8034709789574146,-0.7678682863026857,-0.8788158016622066
1745463329495661600,4.99366162109375,-1.662115758113563,-0.4918628952115774,-1.2211398773133755
1745463329505633300,5.00363330078125,-1.4496829677447676,-0.36264731723368165,-2.188224329537153
1745463329515604500,5.0136044921875,-1.4822913981437682,-0.7232569911599159,-3.0965859591573475
1745463329525576400,5.023576416015625,-1.4781000839337706,-1.060524367943406,-4.215801585522294
1745463329535547400,5.03354736328125,-1.255663055292517,-1.0692273143589497,-5.553690357950329
1745463329545519400,5.043519287109375,-1.0563184406861663,-0.7563274861127137,-6.764992731860279
1745463329555490600,5.053490478515625,-0.9422434409558772,-0.20131635307073592,-7.822950464186072
1745463329565462300,5.063462158203125,-1.1061863411828874,0.2551578333735466,-8.694933204957842
1745463329575433500,5.07343359375,-1.5234417391777038,0.15252631093859673,-9.243816795030236
1745463329585405400,5.083405517578125,-1.929505296550691,-0.42899522788822647,-9.622116439425945
1745463329595376400,5.09337646484375,-2.133475379000604,-1.2568489040762185,-9.811899006569385
1745463329605348400,5.103348388671875,-2.10126559253037,-2.117820421490073,-9.938681804442405
1745463329615319600,5.113319580078125,-1.9598028196588158,-2.6512451611459253,-9.994594830322265
1745463329625291300,5.123291259765625,-1.8234467222765087,-2.4723726950734854,-10.13572997867465
1745463329635262200,5.13326220703125,-2.045452812154591,-1.8610148209095,-9.957650708806515
1745463329645234400,5.143234375,-2.7473744620800016,-1.679132067105174,-9.046531889432668
1745463329655205400,5.153205322265625,-3.5845202827483416,-2.1332991456508634,-7.656112134778499
1745463329665177300,5.16317724609375,-4.249968351279199,-2.6181787578463553,-6.347642349058389
1745463329675148300,5.173148193359375,-4.571816625134646,-2.5558050115197894,-5.6787482317268845
1745463329685120300,5.183120361328125,-4.617482397766411,-1.9217355393320321,-5.758254314640164
1745463329695091200,5.19309130859375,-5.351584315806627,-0.9535217908173799,-5.909332764858007
1745463329705063400,5.2030634765625,-4.792315525320172,-0.33121523713767526,-6.546235999166965
1745463329715034400,5.213034423828125,-4.027791873270273,0.44803369035720825,-7.856234894150495
1745463329725006300,5.22300634765625,-3.7677602963805197,1.1725059025257825,-9.66132675230801
1745463329734977300,5.232977294921875,-3.365830185550451,1.5815519828408955,-11.867497657424211
1745463329744949200,5.24294921875,-2.996053747089207,1.7647037336677311,-13.17119423739314
1745463329754920200,5.252920166015625,-2.4652795219421386,0.8036082927256822,-12.420144399422407
1745463329764892400,5.262892333984375,-2.085874692783505,-0.6249228736579417,-10.232835431164503
1745463329774863400,5.27286328125,-1.993495538163185,-1.1952438040345907,-8.413817338985204
1745463329784835300,5.28283544921875,-1.69984109313488,-1.1760188790827988,-7.083936516445875
1745463329794806300,5.29280615234375,-1.1785177832264453,-1.4263666818261145,-5.652828193050623
1745463329804778200,5.3027783203125,-0.8230232603568584,-1.9905349347919226,-4.2336800643011925
1745463329814749200,5.312749267578125,-0.666661243712902,-2.6430139238953587,-3.174234431505203
1745463329824720400,5.322720458984375,-0.699636461597681,-3.0969466091632842,-2.5714187602370977
1745463329834692400,5.3326923828125,-0.7793442045629024,-3.4172178429603575,-2.0849150539711117
1745463329844663300,5.342663330078125,-0.7319312960028648,-3.7031267884284254,-1.522465879882872
1745463329854635300,5.35263525390625,-0.6284650763094425,-3.952176952576637,-1.0200196313366294
1745463329864607200,5.362607177734375,-0.5135492418408394,-3.9586908645153045,-0.6446472725644707
1745463329874578200,5.372578125,-0.3709165484070778,-3.6745641262888906,-0.27476152850985525
1745463329884550400,5.38255029296875,-0.32462066117823124,-3.2979689477235077,0.08270517121553421
1745463329894521300,5.392521240234375,-0.3241559662759304,-2.9302170008271933,0.3446972345232963
1745463329904493300,5.402493408203125,-0.27648820617198944,-2.216423419061303,0.507296611186862
1745463329914464300,5.41246435546875,-0.0019078429153189063,-0.7887848176032304,0.5346306083142757
1745463329924435500,5.422435546875,0.42922315489258617,0.8928665388464927,0.7146458146810531
1745463329934407200,5.4324072265625,0.8301759816557168,2.080682823228836,1.10065179567039
1745463329944379400,5.44237939453125,1.0543716174673288,2.860596936634183,1.4495382985770702
1745463329954350300,5.452350341796875,1.1524370010305196,3.5090053152978418,1.7976053017944096
1745463329964322300,5.462322265625,1.3450152633070944,4.177291529864073,1.9828765289932488
1745463329974293200,5.472293212890625,1.5817144799262284,5.0502708804577585,1.938106828418374
1745463329984264400,5.482264404296875,1.7486344962678848,5.980997486621141,2.130603330695629
1745463329994236200,5.492236083984375,1.8713732794471083,6.78082567628622,2.418227847909927
1745463330004208400,5.50220849609375,1.8593823974020778,7.548335066148638,2.544134447470307
1745463330014179300,5.512179443359375,1.6686182718753815,8.349718668562174,2.515462479737401
1745463330024150300,5.522150390625,1.3891807143785058,8.866589748302102,2.7542075229704377
1745463330034122200,5.532122314453125,1.4046318198800085,9.274754954129456,3.261339883506298
1745463330044093400,5.542093505859375,1.7957155425250528,9.872319865262508,3.8912446372300384
1745463330054065200,5.552065185546875,2.337844982162118,10.418829127418995,4.7122465478271245
1745463330064037400,5.562037353515625,2.8203748163610696,10.64381394084692,5.716451647177339
1745463330074008300,5.57200830078125,3.104352501505613,10.638501805913448,6.533427955520152
1745463330083980300,5.581980224609375,3.1821050187498328,10.717717381447553,6.887922945958375
1745463330093951200,5.591951171875,2.919325019934773,10.781035130625963,6.843054461184144
1745463330103923200,5.601923095703125,2.3114421284049746,10.421337895369529,6.828155582737923
1745463330113894100,5.61189404296875,1.4938270837672054,9.568390694457293,7.071687860247493
1745463330123865300,5.621865234375,0.7358879977393895,8.731049058955907,6.978271909925342
1745463330133837300,5.63183740234375,-0.08769165439121425,8.219949548354744,6.563953442165255
1745463330143808300,5.641808349609375,-0.5241040266681463,7.724629790687561,6.002253040617704
1745463330153780200,5.6517802734375,-0.4046750256240368,7.061319026446342,5.498201110440492
1745463330163751400,5.66175146484375,0.2553086582873948,6.5373524354875086,5.218395742544532
1745463330173723100,5.67172314453125,1.0380986011236906,6.470478455132246,4.430133487510681
1745463330183694300,5.6816943359375,1.9147364742249249,6.553759380409121,3.2898551993727683
1745463330193666300,5.691666259765625,2.8661726909399032,6.432367043402791,2.648991244739294
1745463330203638300,5.70163818359375,2.994721913963556,6.75413757584691,2.0683891588449477
1745463330213609200,5.711609130859375,1.2532581861078738,7.1199980099081985,1.9793769964396952
1745463330223580400,5.721580322265625,-1.4715946475625037,6.4226283241987225,3.4362335090756413
1745463330233552100,5.73155224609375,-2.862237689578533,6.289643749076127,3.6400118683457374
1745463330243523300,5.7415234375,-3.1128537878692146,5.38574669764936,3.468578612363338
1745463330253495300,5.751495361328125,-3.032549832576513,3.177752084237337,3.4089217237800358
1745463330263466200,5.76146630859375,-2.2041244939804074,1.3607768960624933,3.1314637957930564
1745463330273438200,5.771438232421875,-0.6399941860616207,0.27636194944381715,2.7342770800977942
1745463330283409400,5.781409423828125,1.06094580822587,-0.571850039640069,2.532153502297401
1745463330293381000,5.791381103515625,2.5409698459595442,-1.366978673312068,2.323850943601131
1745463330303352300,5.801352294921875,3.6586890962868925,-2.1892244464904067,2.0728753643482922
1745463330313324300,5.81132421875,4.269195906579494,-2.72413971696496,1.753544041749835
1745463330323295200,5.821295166015625,4.331864836460352,-2.9624896234005687,1.8213918355733154
1745463330333267200,5.83126708984375,3.9139918910890814,-3.115122901844978,1.969722448387742
1745463330343238400,5.84123828125,2.9983541329860683,-3.135912591895461,1.943733436128497
1745463330353210000,5.851210205078125,2.0030349354028703,-2.9108517906218765,1.5186457370728252
1745463330363181300,5.861181396484375,1.1113263344198465,-2.7040345020473002,0.8583984520554542
1745463330373153300,5.8711533203125,0.39371757827997206,-2.6575427999854084,0.004293313279747963
1745463330383124200,5.881124267578125,-0.0509773230433464,-2.7067963679760694,-1.1259335364431142
1745463330393096400,5.891096435546875,-0.14922200869619845,-2.857733948418498,-1.9710832153469322
1745463330403067400,5.9010673828125,-0.03617605518612545,-2.716905089536309,-2.185199428758025
1745463330413039400,5.911039306640625,0.16284898577677084,-2.2720056055516005,-2.2148609920501707
1745463330423010300,5.92101025390625,0.2949812914515845,-1.7397516632407903,-2.673644624480605
1745463330432982500,5.930982421875,0.06266662832591682,-1.2309160059183835,-3.735751293179393
1745463330442953500,5.940953369140625,-0.4333481624007225,-0.8027566443324089,-5.105988676026463
1745463330452925400,5.950925537109375,-1.0837046794574707,-0.45710897721648214,-6.6294403520762915
1745463330462896400,5.960896484375,-1.6614438502013682,-0.1460568226635456,-7.991447666716575
1745463330472868400,5.970868408203125,-1.8677263012468814,0.14856500609219073,-8.833547310400009
1745463330482839300,5.98083935546875,-1.8776853852033615,0.7550269249081611,-9.542164950832724
1745463330492811500,5.9908115234375,-2.000142721092701,1.647654394301772,-10.37700307908058
1745463330502782500,6.000782470703125,-2.531736153668165,2.2891835348457095,-10.990699625325203
1745463330512754400,6.01075439453125,-3.3666625447213647,2.344596209987998,-11.417985126686096
1745463330522725400,6.020725341796875,-3.7972389043211936,2.1406191132754087,-12.018449266391992
1745463330532697300,6.030697265625,-3.5949919924020763,2.1893366746932266,-12.73573595097065
1745463330542668300,6.040668212890625,-3.278789030957222,2.094232040631771,-13.006159158015251
1745463330552640500,6.050640625,-3.2305905249774454,1.1649006882190704,-12.244068870592116
1745463330562611500,6.060611572265625,-3.164678667652607,-0.32090719361305237,-11.050021582865714
1745463330572583400,6.07058349609375,-2.935308771008253,-1.5671259826034307,-10.202458997601271
1745463330582554400,6.080554443359375,-2.628691968554258,-2.372369767576456,-9.54138929028511
1745463330592526300,6.0905263671875,-2.411360738619417,-2.938137856954336,-8.910955544251204
1745463330602497300,6.100497314453125,-2.396278028038889,-3.3202947613000866,-8.313361407023669
1745463330612469500,6.110469482421875,-2.249795527309179,-3.4373873552858827,-7.919397160506248
1745463330622440700,6.120440673828125,-1.8973487015724182,-3.2136972578436134,-7.72295104382038
1745463330632412700,6.13041259765625,-1.3507713426157832,-2.5982033067882058,-7.532018137598037
1745463330642384000,6.1403837890625,-0.8880557775638998,-1.8469810348600149,-7.129220596283674
1745463330652355600,6.15035546875,-0.6968048914335667,-1.22530868743062,-6.519750143301486
1745463330662326800,6.160326904296875,-0.84746336267367,-0.6561994709312915,-5.846053594124317
1745463330672298800,6.170298828125,-1.221151567751169,-0.4293313279747963,-5.102046075880527
1745463330682269700,6.180269775390625,-1.683426403298229,-0.7336760938435792,-4.330186966376006
1745463330692241700,6.19024169921875,-2.1741643861331044,-1.4402794718444347,-3.5606402254670857
1745463330702212900,6.200212890625,-2.572045952224731,-2.308236025840044,-2.833388027191162
1745463330712184600,6.2101845703125,-2.831791113388538,-3.023852731379866,-2.2851573480695486
1745463330722155800,6.22015576171875,-2.9678070190310475,-3.4233483085393903,-1.8939894542723894
1745463330732127700,6.230127685546875,-3.0515047084152696,-3.537703586515784,-1.42229081068933
1745463330742098700,6.2400986328125,-3.126059306401014,-3.3871938760966063,-0.8772831852674484
1745463330752070700,6.250070556640625,-3.1808336836397646,-3.06810279199481,-0.2605786893785
1745463330762041900,6.260041748046875,-3.131346891415119,-2.7933897788017985,0.27416531618237494
1745463330772013600,6.270013671875,-2.9301263999342915,-2.520397598052025,0.6878443169951438
1745463330781984800,6.27998486328125,-2.5469559346318245,-2.1184125421643256,1.0029507153749466
1745463330791956700,6.289956787109375,-1.9367478150248527,-1.5567951427251099,1.2306208223640918
1745463330801927700,6.299927734375,-1.395582251983881,-0.8449649699866771,1.2720762838244437
1745463330811899600,6.309899658203125,-0.9961212346810847,0.053580783540010446,1.1847364385455845
1745463330821870800,6.319870849609375,-0.7207809564352035,1.12538174777925,1.0156056142866612
1745463330831842600,6.329842529296875,-0.5380921469449996,2.246182012987137,1.0223387219339608
1745463330841813800,6.339813720703125,-0.34530166668985035,3.3554280340015885,1.1438801120221613
1745463330851785700,6.34978564453125,0.03693827629685402,4.548251332890987,1.3089128533124923
1745463330861757000,6.3597568359375,0.4571451810410246,5.711946736973524,1.4946657265484333
1745463330871728600,6.369728759765625,0.7737701307576149,6.606663287600875,1.7131506565630434
1745463330881699800,6.379699951171875,0.924788302155584,7.255186817076802,1.8243670519918203
1745463330891671600,6.389671630859375,0.9189934982717036,7.8901704815000295,1.9285417122155426
1745463330901642800,6.399642822265625,0.8062135798532515,8.541358846271038,2.278359943014383
1745463330911614700,6.40961474609375,0.8120189781963825,9.276955094522238,2.8706401917427775
1745463330921586000,6.4195859375,0.8412883273005485,9.863022460085153,3.663275839555263
1745463330931557600,6.4295576171875,0.896313975886628,10.240381608760357,4.462280437877774
1745463330941528800,6.43952880859375,0.9800070621609688,10.402252086627483,5.434484132811427
1745463330951500500,6.44950048828125,1.0509376974958926,10.115797782236337,6.282617795962095
1745463330961471700,6.4594716796875,1.1630875013172626,9.679980599373579,6.619121787157654
1745463330971443700,6.469443603515625,1.4943465775966644,9.826363585251569,6.456055962026118
1745463330981415000,6.479414794921875,1.9061036704361438,10.40205218014121,6.168866329097748
1745463330991386600,6.48938671875,2.1113456725180146,10.31201125921011,6.405390773671865
1745463331001357800,6.49935791015625,2.0763982777774332,9.63704395944476,7.011797747430205
1745463331011329500,6.50932958984375,1.9778958179712294,8.878382477426529,7.345670805600285
1745463331021300700,6.51930078125,1.5881880598545073,8.339732112076877,7.331383337050676
1745463331031272700,6.529272705078125,0.9493710278134793,7.967240277177095,7.289945411247015
1745463331041244000,6.539243896484375,0.33813889892101284,7.761188127756118,6.89142189399004
1745463331051215600,6.549215576171875,-0.2609060947019607,7.373023507428169,6.206726396414637
1745463331061186800,6.559186767578125,-0.809232050891593,6.967691479200124,5.3444332750082015
1745463331071158500,6.569158447265625,-1.0333645583391189,6.766174635121226,4.488502674371004
1745463331081129700,6.579129638671875,-0.9076737204212695,7.001742217361927,3.3920845707476137
1745463331091101700,6.589101806640625,-0.7110486669719219,7.072434879222512,2.5795272478908298
1745463331101073000,6.599072998046875,-0.7121756251752376,6.7388529129534955,2.0823452034831047
1745463331111044600,6.609044677734375,-0.8431739949166774,6.061706515583396,1.8494062161803244
1745463331121015800,6.619015869140625,-1.1776502796769142,5.05787784833014,1.9062755198717116
1745463331130987500,6.628987548828125,-1.5088124714531004,3.7029736436933276,2.1538474281609057
1745463331140958700,6.638958740234375,-1.5452442595325409,2.3150421987235545,2.4221704480558635
1745463331150930700,6.6489306640625,-1.0960533619642256,1.679799591103196,2.5179583882063628
1745463331160902000,6.65890185546875,-0.38061595851406455,1.3976514594733713,2.550677585503459
1745463331170873600,6.66887353515625,0.25077406533136964,1.0819582011163233,2.697121361657977
1745463331180844800,6.6788447265625,0.645070174151659,0.7508195363461971,3.0622306850910186
1745463331190816800,6.688816650390625,0.8157224358242005,0.13734160128831863,3.2370173431545495
1745463331200787700,6.69878759765625,1.0184674334585666,-0.6468652408748865,3.1795453973948953
1745463331210759700,6.708759765625,1.6994097159802912,-1.4839865116238593,2.750913157600164
1745463331220731000,6.71873095703125,1.3243325407624245,-2.1568127077072856,3.8224738833427425
1745463331230702600,6.72870263671875,1.7172329574406147,-2.260807335188985,1.8919138170421121
1745463331240673800,6.738673828125,1.8099439743638037,-2.5826199532091616,0.42129181390404696
1745463331250645800,6.748645751953125,1.7088719563305377,-3.0587709000259635,-0.7667313912272453
1745463331260616700,6.75861669921875,1.796426321142912,-3.3647166713505983,-2.167574924740195
1745463331270588700,6.768588623046875,1.7202864997923373,-3.3081203393816945,-3.2775252946317193
1745463331280559900,6.778559814453125,1.3158628185808658,-3.1899352739840743,-4.022768492150306
1745463331290531600,6.788531494140625,0.7276045919101685,-3.144161364802718,-4.33907520623058
1745463331300502800,6.798502685546875,0.22743626170065254,-2.9435739105284213,-4.567311422669888
1745463331310474800,6.808474853515625,-0.20021979000568388,-2.435075522336364,-4.921088620227575
1745463331320445700,6.81844580078125,-0.5449742346089334,-1.7344056260377168,-5.392252426281571
1745463331330417700,6.828417724609375,-0.7776970218777656,-1.3690478808015585,-6.030267421224713
1745463331340388900,6.838388916015625,-0.8231482749760151,-1.1192115347117184,-6.8097139171183105
1745463331350360600,6.848360595703125,-0.566014830680564,-0.6219131704479456,-7.641078231775761
1745463331360331800,6.858331787109375,-0.00427526616640389,0.10914660341739654,-8.435872518926859
1745463331370303700,6.8683037109375,0.6407154130082577,1.0029150595396756,-9.16325681914985
1745463331380274700,6.878274658203125,1.1341584170181302,1.7309020018309353,-9.621644145739078
1745463331390246700,6.88824658203125,1.3246084350943566,1.9837392833024263,-9.741302790820598
1745463331400217900,6.8982177734375,1.27135615285635,1.9299252755284309,-9.679313075375557
1745463331410189600,6.908189453125,0.964055532856658,1.393782509085536,-9.359656174084543
1745463331420160800,6.918160888671875,0.4638614471513778,0.27593115681111813,-9.038632660615443
1745463331430132700,6.9281328125,0.07949724201969802,-0.7156915243417025,-9.033498804858326
1745463331440103700,6.938103759765625,0.10448679491281508,-0.7896282826900481,-9.661928809854388
1745463331450075600,6.94807568359375,0.1483446413397789,-0.30934418159127236,-10.298679483950137
1745463331460046800,6.958046875,-0.41056576416306195,-0.5247124408900737,-10.045527729701995
1745463331470018600,6.9680185546875,-1.2280080095171928,-1.163023203909397,-9.404269222792983
1745463331479989800,6.97798974609375,-1.683779600650072,-1.2403402523458003,-9.234840292370318
1745463331489961700,6.987961669921875,-1.7140005513906478,-1.0032716178923844,-9.25725436875224
1745463331499932700,6.9979326171875,-1.6212603083729742,-0.9774474408060312,-9.05240224277079
1745463331509904600,7.007904541015625,-1.3847032767035066,-1.1781015305757523,-8.728065659230946
1745463331519875800,7.017875732421875,-0.9743851306259631,-1.3310410984903573,-8.502085989546776
1745463331529847600,7.02784765625,-0.4918974550683051,-1.1087170287042856,-8.335118480801581
1745463331539818800,7.03781884765625,-0.1377531777638942,-0.5941665008664131,-8.033816151368617
1745463331549790700,7.047790771484375,0.015244257817789911,0.07527823608517646,-7.728112372106313
1745463331559761700,7.05776171875,-0.1383716019231826,0.7512702027231455,-7.270356913679838
1745463331569733600,7.067733642578125,-0.49299518717713653,1.2203507727622984,-6.432678593569993
1745463331579704800,7.077704833984375,-0.9796494078297168,1.2463006220549344,-5.473413875186443
1745463331589676500,7.087676513671875,-1.45153867861405,0.9067460111171006,-4.4561441270798445
1745463331599647700,7.097647705078125,-1.823703619647026,0.34556115787625313,-3.4806752928704023
1745463331609619700,7.10761962890625,-2.1504560321569444,-0.43144671269357204,-2.5555089511826634
1745463331619590700,7.117590576171875,-2.402537088433653,-1.2324082903027533,-1.8866770854324102
1745463331629562600,7.127562744140625,-2.6214626018226146,-1.9908371326088905,-1.260906070512533
1745463331639533600,7.137533447265625,-2.809590972018242,-2.668814135584235,-0.5523679250568151
1745463331649505500,7.147505615234375,-2.910498154878616,-3.019495120692253,0.02353109771311283
1745463331659476500,7.1574765625,-2.9375884063780306,-3.092110275048017,0.4751800559580326
1745463331669448700,7.16744873046875,-2.8429414529561994,-3.0286878964513537,0.8833522760480642
1745463331679419400,7.17741943359375,-2.6449393389999867,-2.78447172833085,1.1846937684476375
1745463331689391600,7.1873916015625,-2.3993980597555638,-2.4996540852308273,1.601598161047697
1745463331699362600,7.197362548828125,-2.126858883470297,-2.084555865269899,2.11239898096323
1745463331709334500,7.20733447265625,-1.890972736799717,-1.427949567103386,2.547874803042412
1745463331719305500,7.217305419921875,-1.5800924316823481,-0.6339455535471439,2.8965765970319506
1745463331729277700,7.227277587890625,-1.1742437591690569,0.6256570331513881,2.7589748835027215
1745463331739248600,7.23724853515625,-0.7553929086763411,2.1540794833511114,2.4229250658154484
1745463331749220600,7.247220703125,-0.4997872584700584,3.4896395205706354,2.2572867598474025
1745463331759191600,7.257191650390625,-0.35565818899869917,4.749300559458137,2.256375490221381
1745463331769163500,7.26716357421875,-0.26662264571785926,5.997234920194745,2.3773703523427248
1745463331779134500,7.277134521484375,-0.23383096770644188,7.22850222376883,2.659326760792732
1745463331789106700,7.287106689453125,-0.3320026246557012,8.188248588189483,3.0577170070588586
1745463331799077600,7.29707763671875,-0.5639829595267772,9.000525340539216,3.384344331884384
1745463331809049600,7.307049560546875,-0.9062170188069343,9.132812581047416,3.75435077970922
1745463331819020500,7.3170205078125,-1.2566928367316723,8.86213569150269,4.0607355269730085
1745463331828992500,7.326992431640625,-1.2031962243437766,8.484474345010518,3.953667483395338
1745463331838963500,7.33696337890625,-0.8610697170913219,7.583154450595378,3.5465140849590298
1745463331848935700,7.346935791015625,-0.1115536645591259,6.406730497843027,2.6682874813616273
1745463331858906600,7.35690673828125,-0.27077976539731025,5.249620901891589,4.172113834965229
1745463331868878600,7.366878662109375,-0.13293196815252303,4.9032425824135535,3.9160043999552725
1745463331878849500,7.376849609375,0.18237550575733183,5.007800104475021,3.805717978852987
1745463331888821500,7.386821533203125,0.11044771261122077,5.643634832769632,4.466268630731106
1745463331898792400,7.39679248046875,0.32409751408696175,6.529513996946811,4.76281470554769
1745463331908764700,7.4067646484375,0.644496246721223,6.950612918627262,5.6046068907171485
1745463331918735600,7.416735595703125,0.8322668164551258,6.960741513931751,6.429415207859873
1745463331928707600,7.42670751953125,0.9062778090834617,7.108536120173334,6.931465735086798
1745463331938678500,7.436678466796875,0.7773229278683662,7.439484815329313,7.369115394073725
1745463331948650500,7.446650390625,0.3096107235729694,7.54348294994235,7.752886747878789
1745463331958621400,7.456621337890625,-0.4442231921583414,7.385064658355712,7.788333908835053
1745463331968593700,7.46659375,-1.1670716025173664,7.092451831334829,7.328457220470905
1745463331978564600,7.476564697265625,-1.67494338324368,6.840438141205906,6.363078987643123
1745463331988536600,7.48653662109375,-1.7549843036860227,6.579393003359437,5.566909320485592
1745463331998507500,7.496507568359375,-1.4174544765740633,6.355051748532056,5.121285029357671
1745463332008479500,7.5064794921875,-0.8518921389013528,6.220844938138127,4.948225633478164
1745463332018450400,7.516450439453125,-0.1873655691295862,5.9878007368952035,4.945221775487065
1745463332028422700,7.526422607421875,0.12494564557373523,5.308523757237196,5.205035910233855
1745463332038393600,7.5363935546875,0.10931728380918503,4.254953446215391,5.465364424243569
1745463332048365600,7.546365478515625,0.0073310644072946156,3.0872534826666116,5.476112028229236
1745463332058336500,7.55633642578125,-0.16921674897670744,2.0409978785723446,5.228378207376599
1745463332068308500,7.56630859375,-0.3301519918203354,1.0475906520903109,5.0819765167981386
1745463332078279400,7.576279541015625,-0.3341337549328804,0.15516601179242134,5.0401738493353125
1745463332088251600,7.586251708984375,-0.2140635881747119,-0.4156254587054252,5.004784556046128
1745463332098222600,7.59622265625,0.015174188256263732,-0.7285194417327642,4.974204708865285
1745463332108193500,7.606193603515625,0.357834948515892,-0.9022551294386386,4.849214055106043
1745463332118165500,7.61616552734375,0.6703343792676926,-1.0542787515521048,4.459249107357859
1745463332128136700,7.62613671875,0.9535247134268283,-1.160438448113203,4.120239855343103
1745463332138108400,7.6361083984375,1.1923930907785891,-1.2205687994271517,3.724519705069065
1745463332148080600,7.64608056640625,1.2917933762073517,-1.0250251845389604,3.082011490359902
1745463332158051600,7.656051513671875,1.2879133199036121,-0.44055122564733024,2.3224556898504494
1745463332168022500,7.6660224609375,1.2189186941325665,0.18201894740462302,1.5124796156585216
1745463332177994500,7.675994384765625,1.0834195058405398,0.7965273945540189,0.5466466248005628
1745463332187965700,7.685965576171875,0.8857494003176689,1.151497601288557,-0.2766273223817348
1745463332197937400,7.6959375,0.6527882011830807,1.0394663823455572,-1.1508943746984004
1745463332207908600,7.70590869140625,0.4485094911754131,0.840433171775937,-2.3127929584920404
1745463332217880600,7.715880615234375,0.3028945670604706,0.8643833716839552,-3.282839475391805
1745463332227851500,7.7258515625,0.3818681505322456,0.9517296467036008,-4.1103684496700765
1745463332237823500,7.735823486328125,0.5651403128683566,1.1831459544837475,-4.974332719159126
1745463332247794700,7.745794677734375,0.9826116917014122,1.7031138311952352,-5.702127353748679
1745463332257766400,7.755766357421875,1.6111539249002933,2.321221764141321,-6.621485009157658
1745463332267737600,7.765737548828125,2.2210253598988055,2.918012183770537,-7.590157022833823
1745463332277709600,7.77570947265625,2.808328404736519,3.240702169147134,-8.460071725159883
1745463332287680500,7.785680419921875,3.152902305141091,3.353314987370372,-9.420209134724736
1745463332297652500,7.795652587890625,3.032753830716014,3.4372125832408664,-10.389131908291578
1745463332307623700,7.805623779296875,2.726015447708964,3.0364462554931637,-10.870368780070542
1745463332317595400,7.815595458984375,2.588149530285597,2.1380922251462935,-10.810791970986127
1745463332327566600,7.825566650390625,2.5204040277928113,1.2853373319357633,-10.697729070907831
1745463332337538600,7.83553857421875,2.3159932158380747,0.8954594779491424,-10.493578955715893
1745463332347509500,7.845509521484375,1.8428893816322087,1.1793448086351155,-10.33858596240282
1745463332357481500,7.8554814453125,0.7556453490674495,1.570355466043949,-9.990603714859486
1745463332367452700,7.86545263671875,-0.7947265556771308,1.7745915059536694,-9.779861361795664
1745463332377424400,7.87542431640625,-2.332713464492559,1.6274427964001894,-10.258799893504381
1745463332387395600,7.8853955078125,-3.6730280027627944,1.1230290471732616,-11.5922802018404
1745463332397367600,7.895367431640625,-4.505695801234245,0.25669220333397386,-13.040790910935401
1745463332407338500,7.90533837890625,-4.638488653177022,-0.8653472482800483,-14.104956265729665
1745463332417310500,7.915310546875,-4.1440111915528774,-2.0217285299569365,-14.793257678842544
1745463332427281700,7.92528173828125,-3.1547534859657285,-2.6840251487195492,-15.067936205244063
1745463332437253400,7.93525341796875,-1.969696144902706,-2.8598680378377437,-14.752933851760625
1745463332447224600,7.945224609375,-0.902237593781948,-2.604040342378616,-13.736287788510321
1745463332457196500,7.955196533203125,0.010785616174805909,-2.0318799216151238,-12.21857085672021
1745463332467167500,7.96516748046875,0.5607447082579136,-1.3406944774985312,-10.997124689936637
1745463332477139500,7.975139404296875,0.6003729542911053,-0.6210328804820776,-9.95542017327547
1745463332487110700,7.985110595703125,0.31348727274537086,-0.12050853990912437,-8.792249669849872
1745463332497082400,7.995082275390625,-0.0247229469793383,0.2882283283263445,-7.585772524139284
1745463332507053600,8.005053466796875,-0.3323766821324825,0.5431237113714218,-6.35866234024465
1745463332517025500,8.015025634765625,-0.684367580795288,0.465292868193984,-5.1692941502451895
1745463332526996700,8.024996826171876,-1.1113245808541774,0.16865911509394646,-4.133383999076486
1745463332536968400,8.034968505859375,-1.6583938149809836,-0.2746411170005798,-3.121351859362423
1745463332546939600,8.044939697265624,-2.2170938656687733,-0.8615624690443277,-2.233499641546607
1745463332556911400,8.054911376953125,-2.5259073013842106,-1.1375041472494603,-1.5132213739365339
1745463332566882600,8.064882568359375,-2.5552245812833307,-1.2497060465842484,-0.7662623124107718
1745463332576854500,8.0748544921875,-2.375154429858923,-1.197268587860465,0.006510697068274021
1745463332586825700,8.08482568359375,-1.915894412088394,-0.9270067088574171,0.8996183511942625
1745463332596797400,8.09479736328125,-1.3848983608841896,-0.5262631774634122,1.8454595243811607
1745463332606768600,8.1047685546875,-1.0251263068258762,0.11010638836026192,2.707199103558063
1745463332616740400,8.114740234375,-0.9053273764908313,0.7339946582734584,3.443524250605702
1745463332626711300,8.124711181640626,-0.8747837696671485,1.1325684444129467,4.160092557781934
1745463332636683300,8.134683349609375,-0.8070891205787658,1.7612971400946378,4.567308500060439
1745463332646654500,8.144654541015624,-0.6097790805399418,2.8788170684576033,4.682725269788503
1745463332656626200,8.154626220703125,-0.3811795837461948,3.773285197281837,4.823525487098098
1745463332666597400,8.164597412109375,0.046055064210295676,4.4009921487003565,4.893978494983911
1745463332676569300,8.1745693359375,0.4536760801583528,5.09583085462749,4.71777495585978
1745463332686540300,8.184540283203125,0.6562777968645096,6.065963588505983,4.554206441903114
1745463332696512300,8.19451220703125,0.4539432066619396,6.975440485891699,4.4877977409720415
1745463332706483500,8.2044833984375,-0.10695581537485122,7.825427083432674,4.168981382158399
1745463332716455200,8.214455078125,-0.7546668594241142,8.69145179258287,3.6754952696591614
1745463332726426400,8.22442626953125,-1.1188263347864151,9.645371058285235,3.7285020527034995
1745463332736398300,8.2343984375,-1.1178010833919048,10.474845029151439,4.575106606590747
1745463332746369300,8.244369384765625,-0.7419897486805915,10.458903948175907,5.596095667481422
1745463332756341200,8.25434130859375,-0.31744682402610774,10.162579407155514,6.680113139215111
1745463332766312400,8.2643125,-0.33297990872263905,9.398598775941133,7.187143792942166
1745463332776284200,8.2742841796875,0.36028526427745816,8.348244504356384,7.794629209586978
1745463332786255400,8.28425537109375,0.1856885758280754,7.903627928966284,7.910755004367232
1745463332796227300,8.294227294921875,-0.5358429067134857,8.147112860202789,7.3056047526717185
1745463332806198300,8.3041982421875,0.8792974476993084,8.844465010255576,6.594053396874666
1745463332816170200,8.314170166015625,0.6711059481620788,9.462571189635991,6.4032251200705765
1745463332826141400,8.324141357421874,0.05726560953259468,9.049104370269179,6.5727499120831485
1745463332836113200,8.334113037109375,-0.034247137516736983,8.799998092019557,6.307813027495145
1745463332846084400,8.34408447265625,0.18126721572186796,8.403097207528353,6.2240299979150295
1745463332856056300,8.354056396484374,0.5906804123163223,7.74315095128417,6.438679295289516
1745463332866027300,8.36402734375,1.098303771239519,6.836886001682281,6.4590662497580045
1745463332875999200,8.373999267578125,1.5111375533998013,5.746749754807353,5.231914564809203
1745463332885970400,8.383970458984376,0.6819266173839569,6.406571507889032,3.948775619700551
1745463332895942100,8.393942138671875,-0.17393968584537506,6.19512071429491,3.755821436783671
1745463332905913300,8.403913330078124,-0.3570902676284313,5.311044215625524,3.097545159578323
1745463332915885300,8.41388525390625,-0.4382535066315904,5.716662075057625,2.1943916199952365
1745463332925856300,8.423856201171875,-0.27444471764564515,5.298029835751652,1.7902520164221525
1745463332935828500,8.433828369140626,-0.4982452897250652,4.3062990180492395,1.7443284696370362
1745463332945799400,8.44379931640625,-0.4917957482594996,3.7022166878461835,2.1669699445843693
1745463332955771400,8.453771484375,-0.39516719256639476,2.725108269736171,2.8802023853361605
1745463332965742300,8.463742431640625,-0.34200499976463616,1.4756728567868471,3.787825179287791
1745463332975714600,8.473714599609375,-0.29128008057978,0.561959929266572,4.019947004988789
1745463332985685200,8.483685302734376,-0.17593056740164756,-0.08818974010646342,4.193362374699116
1745463332995657500,8.493657470703125,-0.17433482264280317,-0.5966407820254563,4.336425860765576
1745463333005628400,8.50362841796875,-0.20835980530884116,-1.0871312198400498,4.067510720196366
1745463333015600400,8.513600341796876,-0.13619360029697417,-1.5885452027291058,3.5534383312642572
1745463333025571300,8.5235712890625,0.009362889895308762,-2.018704798221588,3.0690649150252343
1745463333035543600,8.53354345703125,0.26368483870029447,-2.3766128119736907,2.6134780328094958
1745463333045514200,8.54351416015625,0.6702467009842396,-2.5554092902004717,2.381945989695191
1745463333055486500,8.553486572265625,1.2940572294861077,-2.406394786775112,2.1859908713966605
1745463333065457400,8.56345751953125,1.8301783686190842,-2.2121125701248645,1.8862474618434906
1745463333075429400,8.573429443359375,2.15885678075552,-1.9981348884016275,1.4009025702238083
1745463333085400300,8.583400390625,2.2621745318889617,-1.6699807924002408,0.7754314150333405
1745463333095372500,8.59337255859375,2.137037163135409,-1.230635435411334,-0.0025870938837528226
1745463333105343200,8.60334326171875,1.7906342937380075,-0.8314894023418427,-0.8330532906576991
1745463333115315500,8.6133154296875,1.2836825504660605,-0.5763987889856099,-1.8397683270022271
1745463333125286400,8.623286376953125,0.8268231640964746,-0.25008301432728763,-2.8713565233185885
1745463333135258400,8.63325830078125,0.4177396743804216,0.08766016327440738,-3.723952718836069
1745463333145229300,8.643229248046875,0.13277765437364578,0.24845921251773834,-4.426213099196553
1745463333155201500,8.653201416015625,0.05195581268668174,0.35926644262373447,-5.100684139877558
1745463333165172200,8.663172119140626,0.22260230220556257,0.5470131200253963,-5.836631101262569
1745463333175144400,8.67314453125,0.5144143342375755,0.8857575836241245,-6.507718929246067
1745463333185115400,8.683115478515624,0.8021008107721805,1.3999837018132208,-7.0873092077493665
1745463333195087400,8.69308740234375,0.8771522523641586,2.1849936770528555,-7.762340220400691
1745463333205058300,8.703058349609375,0.6349789882481098,3.064234426128864,-8.148076152276992
1745463333215030500,8.713030517578124,0.04777527559902519,3.4490701942950484,-8.442083648526667
1745463333225001200,8.723001220703125,-0.8329437658686191,3.33761472941339,-8.843643172478675
1745463333234973400,8.732973388671875,-1.7982932840585708,2.630701554811001,-9.256320887294411
1745463333244944400,8.7429443359375,-2.5815818423330783,1.712121898037195,-10.145851559716462
1745463333254916400,8.752916259765625,-3.2411727092683313,1.155492223882675,-11.471740097749233
1745463333264887300,8.76288720703125,-3.854043910604715,0.945170142057538,-12.629454673856497
1745463333274859500,8.772859619140625,-4.6081695027589795,0.6510369736015796,-13.093472699809073
1745463333284830200,8.782830322265625,-5.413195261067152,0.09546937572062016,-12.937607599836587
1745463333294802400,8.792802490234376,-5.850554412674904,-0.8535504275023936,-12.487620437324047
1745463333304773400,8.8027734375,-5.6366182320058345,-1.6981775438368318,-11.965997779142857
1745463333314745300,8.812745361328124,-4.92287024294734,-1.9256044897198676,-11.631402251917123
1745463333324716300,8.82271630859375,-3.9713375801205633,-1.9373130476921796,-11.007496446347236
1745463333334688500,8.8326884765625,-2.996238163745403,-1.803544628715515,-10.226401014202832
1745463333344659500,8.842659423828126,-2.0900082854568955,-1.4725298825860023,-9.59494903103709
1745463333354631400,8.85263134765625,-1.1349861730791628,-0.9042764061331748,-9.036034460815786
1745463333364602400,8.862602294921874,-0.3210404646039009,-0.20387422086000442,-8.382284721124172
1745463333374574300,8.87257421875,0.18914193115234373,0.3267389685064554,-7.565003876876831
1745463333384545300,8.882545166015625,0.27949031059741974,0.5809411085903644,-6.6084045783102505
1745463333394517500,8.892517578125,0.12096567255947738,0.5950035362124443,-5.577119164332747
1745463333404488400,8.902488525390625,-0.15324994903802872,0.24085458273291585,-4.561400445060432
1745463333414460400,8.91246044921875,-0.5310486947068944,-0.3160872261106968,-3.7734035629644986
1745463333424431400,8.922431396484376,-0.8984650895059109,-0.9080904114633798,-3.259550369741022
1745463333434403300,8.9324033203125,-1.2306254985392093,-1.5402514196813106,-2.7652549866855143
1745463333444374300,8.942374267578124,-1.5088357061982154,-1.9537749376714229,-2.201158337651193
1745463333454346500,8.952346435546875,-1.6129343785762786,-2.201928445240855,-1.6970663677245377
1745463333464317400,8.9623173828125,-1.6024796200573443,-2.4760890852481126,-1.253558045837283
1745463333474289400,8.972289306640626,-1.5576070436298846,-2.5219687928915024,-0.567049361360073
1745463333484260400,8.98226025390625,-1.3937211342871187,-2.4625977355122566,0.23553017283976077
1745463333494232300,8.992232421875,-1.1332803920745849,-2.3536229815304277,0.9154431123137473
1745463333504203300,9.002203369140625,-1.0314765526354313,-2.2317454913556576,1.3977373841911553
1745463333514175500,9.012175537109375,-0.885909559315443,-2.1435101585417984,1.7050602890878914
1745463333524146400,9.022146484375,-0.6760638628304004,-2.0296628300875423,1.76847331533432
1745463333534118400,9.032118408203125,-0.5251958404928445,-1.7750556163340805,1.5365379521161318
1745463333544089300,9.04208935546875,-0.3716799339950084,-1.067781207203865,1.4375059154778718
1745463333554061300,9.052061279296876,-0.2662216637015343,-0.4303185854464769,1.2770306913614273
1745463333564032300,9.0620322265625,-0.25946459065675737,0.01149170035123825,0.859702520391345
1745463333574004500,9.07200439453125,-0.2980506341606378,0.5890273844122886,0.4666606494158506
1745463333583975400,9.081975341796875,-0.3538175295680761,1.3818454030543565,-0.019587328523397445
1745463333593947400,9.091947509765625,-0.6254980431973933,2.236975793224573,-0.4584089538991451
1745463333603918300,9.10191845703125,-1.115581069254875,3.248525410118699,-0.5718412718117237
1745463333613890300,9.111890380859375,-1.636089628714323,4.035094305238127,0.07879062812030314
1745463333623862300,9.1218623046875,-2.172614087951183,5.460920888838172,0.8181921138733625
1745463333633834200,9.131834228515626,-2.5364707809746263,6.959596435549855,2.0272055000633
1745463333643805200,9.14180517578125,-2.3377169718682764,8.163314053419231,2.9993969200372694
1745463333653777200,9.151777099609374,-1.7177958520203829,9.3753862426579,3.638106911507249
1745463333663748400,9.161748291015625,-0.7201128479152917,10.021389313745498,4.504743615075945
1745463333673720000,9.171719970703125,0.491277752267383,9.745226101744175,5.431145343777537
1745463333683691300,9.181691162109376,1.639556428042054,9.091040893244744,6.4515300090342755
1745463333693663200,9.191663330078125,2.187038919144869,8.088277809396386,7.231633507531881
1745463333703634200,9.20163427734375,2.0311340716838835,7.427202256861329,7.9248396438211195
1745463333713606100,9.211606201171875,1.303293844386935,7.708954667171835,8.573438576620816
1745463333723577300,9.221577392578125,0.4413806622087955,8.60950065460503,8.794070455536247
1745463333733549000,9.231549072265626,-0.20695585679505019,9.213584738373756,9.230990046682953
1745463333743520300,9.241520263671875,-0.645491614434123,9.274034238639473,10.083708699536324
1745463333753492200,9.2514921875,-1.059051372781396,9.048218819606303,10.961931796002387
1745463333763463200,9.261463134765625,-1.2741928375869989,8.79156461019516,11.380996581506729
1745463333773435100,9.27143505859375,-1.1815747596442698,8.76198546448946,10.82039215850234
1745463333783406300,9.28140625,-0.9210422474950551,8.521924662482737,9.686417938944697
1745463333793378000,9.2913779296875,-0.7780179243952036,7.942759331393241,8.393933073341845
1745463333803349200,9.301349365234374,-0.6642845777094364,7.1921350253581995,6.8757257276862855
1745463333813321200,9.3113212890625,-0.6967611984223127,6.385602369618415,6.165684191930294
1745463333823292200,9.321292236328125,-0.4100619793593883,6.426833374673127,5.210063383007049
1745463333833264000,9.33126416015625,-0.2534066057920456,6.5220905689477915,4.544581119945645
1745463333843235300,9.3412353515625,-0.4074129261553287,6.196176360827684,4.056191453802585
1745463333853207000,9.35120703125,-0.5455424629509449,5.730732685986161,3.8620471843183037
1745463333863178200,9.36117822265625,-0.6497872658014298,5.0277936757117505,4.09984354852438
1745463333873150200,9.371150146484375,-0.5312719455361365,4.039040997037291,4.677402028939127
1745463333883121200,9.38112109375,-0.18597031537890432,2.781486575040221,5.0395373049974435
1745463333893093000,9.391093017578125,0.2775134575664997,1.539853360274434,4.98236404992342
1745463333903064300,9.401064208984375,1.0550678561031819,0.5090145210206508,4.714419215691089
1745463333913036000,9.4110361328125,1.328714116847515,-0.4847866732150316,4.42717054605186
1745463333923007200,9.42100732421875,1.1529431239217518,-1.0274065267175436,4.025797484582663
1745463333932979200,9.430979248046874,0.9670037882030009,-1.5100088416308164,3.5627199543505905
1745463333942950100,9.4409501953125,0.9788181446373462,-1.9143962824851273,3.1359798119127746
1745463333952922000,9.450922119140625,0.815350752967596,-2.3206354886859653,2.8456781844437122
1745463333962893300,9.460893310546876,0.8600228383868932,-2.5343244165956973,2.6593203310519455
1745463333972865000,9.470864990234375,0.8402139760673045,-2.6423896545171734,2.1238415814757348
1745463333982836200,9.480836181640624,1.0229811114907263,-2.4795173061311244,1.4433295070648193
1745463333992808200,9.49080810546875,1.3797218350291252,-2.213772027769685,0.8498433896780013
1745463334002779100,9.500779052734375,1.6710709257245062,-1.8967676868140697,0.020773323437571524
1745463334012751000,9.510751220703124,1.870237407284975,-1.3448375686526297,-0.7467676306068897
1745463334022722300,9.520722412109375,1.8817437206834553,-0.5909814410895109,-1.4532655024066568
1745463334032694000,9.530694091796875,1.5874848800212145,0.05300269139111042,-2.045346721431613
1745463334042665200,9.540665283203126,1.0612561893492936,0.33504034838378427,-2.836893989485502
1745463334052637200,9.55063720703125,0.5038596224755049,0.7404810976833105,-3.804992294926941
1745463334062608100,9.560608154296874,0.020405074647068977,1.0809691900789737,-4.639288863644004
1745463334072580000,9.570580078125,-0.33733225871324535,1.302785310342908,-5.4897617833971974
1745463334082551300,9.58055126953125,-0.4105588229656219,1.403198572206497,-6.38195670659244
1745463334092523000,9.59052294921875,-0.212343943041563,1.5706997494369743,-7.320566174960136
1745463334102494200,9.600494140625,0.11920271800756453,1.9905565621018408,-8.215110876151918
1745463334112466200,9.610466064453124,0.3879015854775905,2.505238607364893,-8.978280775505304
1745463334122437000,9.62043701171875,0.36782797127459194,2.9710096144646405,-9.585418986147642
1745463334132409000,9.6304091796875,-0.0047439796566963194,3.1606448820918795,-10.08371454475522
1745463334142380300,9.64038037109375,-0.7326490888834,2.859465886777639,-10.547913772493601
1745463334152352000,9.65035205078125,-1.648549297314882,1.9853432113677263,-11.106627851706742
1745463334162323200,9.6603232421875,-2.4328911640346047,1.0540911200255154,-11.866501632124185
1745463334172295200,9.670295166015626,-3.146080350166559,0.14004150789678096,-12.5210901607275
1745463334182266000,9.68026611328125,-3.7109412615716457,-0.6204162098884582,-13.175350188028812
1745463334192238000,9.690238037109374,-3.9535505790174006,-0.7224550271272658,-13.629049064540862
1745463334202209300,9.700209228515625,-4.105000200635194,-0.719924047344923,-13.05414606707096
1745463334212181000,9.710180908203125,-4.1238451863586905,-1.3866267921119928,-10.836029288095235
1745463334222152200,9.720152099609376,-3.7564942214787003,-2.339976733493805,-8.605029646670818
1745463334232124200,9.730124267578125,-3.352240051615238,-2.6340257307976485,-7.928842449721693
1745463334242095400,9.740095458984374,-3.1753754182338714,-2.4471412231832743,-8.615427122044563
1745463334252067000,9.750067138671875,-3.0701930422723294,-2.3889631749808786,-9.425435344940423
1745463334262038300,9.760038330078125,-2.5623919886946678,-2.598180510434508,-9.892807357496023
1745463334272010000,9.770010009765626,-1.2555717237472535,-2.5348031400233504,-10.156182399594783
1745463334281981200,9.779981201171875,0.35412148095071316,-2.060611510580778,-10.02390392691493
1745463334291953200,9.789953125,1.9079075049877166,-1.3958458713561295,-9.314097953480482
1745463334301924400,9.79992431640625,2.937636337172985,-0.4634919562518596,-8.101257702478765
1745463334311896000,9.80989599609375,3.429683941301703,0.38379064302742477,-6.532768030306697
1745463334321867300,9.8198671875,3.5859675589472055,1.037922660034895,-5.042041981294751
1745463334331839000,9.8298388671875,3.378486838027835,1.277784724599123,-4.272948537111282
1745463334341810200,9.83981005859375,2.2711153787136076,0.8109855434954166,-4.676770745298266
1745463334351782100,9.8497822265625,0.19176113720741123,0.028669629645347593,-5.9263657327234744
1745463334361753300,9.85975341796875,-2.300281267443299,-1.0970634157896042,-6.345037719517946
1745463334371725000,9.86972509765625,-4.365887517571449,-2.1956763991087676,-5.6116883734107015
1745463334381696300,9.8796962890625,-5.510788204813003,-2.8380589416116475,-4.283891371408105
1745463334391668000,9.88966796875,-5.289568881398439,-2.641618670144677,-2.809394864924252
1745463334401639200,9.89963916015625,-4.2093455412507055,-1.8744786981165409,-1.4573042564034462
1745463334411611100,9.909611083984375,-2.9507553464651104,-1.1899532964110373,0.04067161760628223
1745463334421582300,9.919582275390624,-2.0214906295478343,-0.8456225571125745,1.1681529680132865
1745463334431554000,9.929553955078125,-1.579869144320488,-0.7702186488211155,1.766878739619255
1745463334441525200,9.939525146484375,-1.4041080882668495,-0.9109913936018943,2.139857481253147
1745463334451497000,9.9494970703125,-1.2590379385530948,-0.998759108904004,2.3213421756505963
1745463334461468200,9.95946826171875,-0.9050041358858346,-0.8258248007088899,2.5364649357557294
1745463334471440100,9.969440185546874,-0.41613523485846815,-0.3328898923516273,2.70728035210073
1745463334481411300,9.979411376953125,0.010628215389698744,0.12331249141395091,2.881146388188004
1745463334491383000,9.989383056640625,0.6571848287068307,0.6841957313597202,2.7404128063738344
1745463334501354200,9.999354248046876,1.4277541906617581,1.5348597897708416,2.393335983237624
1745463334511326000,10.009325927734375,1.753568007147312,2.638793675851822,1.8889736719369887
1745463334521297200,10.019297119140624,1.6889543729394674,3.5651503963679074,1.666056312432885
1745463334531269000,10.02926904296875,1.3284651105225085,3.9803544147908685,1.8376263465374707
1745463334541240300,10.039240234375,0.9775169258456676,4.415778214421868,2.3857985734701157
1745463334551212000,10.0492119140625,0.6024351475179195,5.117971374765038,3.1414953604638574
1745463334561183200,10.059183349609375,0.30501002484448253,6.125438106259703,3.9750563083827495
1745463334571155000,10.069155029296875,-0.05978614098615944,7.446936300379037,4.439752964249253
1745463334581126100,10.079126220703126,-0.7250093877851963,8.77379105309546,4.749614447712898
1745463334591098000,10.08909814453125,-1.645517382273078,9.711973235961795,4.760411736059188
1745463334601069300,10.0990693359375,-2.758149538594484,9.888511121606825,4.640447970551252
1745463334611041000,10.109041015625,-3.583991290438175,9.53627998444736,4.978098209172487
1745463334621012200,10.11901220703125,-3.7412826238214967,9.298598771053552,5.972764495804905
1745463334630984000,10.12898388671875,-2.859143815216422,9.159857239839434,7.524826764789223
1745463334640954600,10.13895458984375,-1.6839795071363448,9.654449852275848,8.915266393187641
1745463334650926800,10.1489267578125,-0.7698164977610111,10.43605148037672,9.309836204382776
1745463334660897800,10.158897705078125,-0.34999534093141554,11.043702901238202,9.172223384937643
1745463334670869800,10.168869873046875,-0.6794178494334221,10.534641618466377,9.240792478772997
1745463334680841700,10.178841796875,-1.156218200069666,9.47939899031818,9.246510271897911
1745463334690813000,10.18881298828125,-1.43618548052907,8.738123527386785,9.107203508016466
1745463334700783600,10.19878369140625,-1.5943980204105377,8.290984740042687,8.65957489132881
1745463334710755800,10.208755859375,-1.710439644038677,7.926354724559188,7.881190471708774
1745463334720727800,10.218727783203125,-1.7143278836488722,7.648713841220736,7.14713210054934
1745463334730698800,10.22869873046875,-1.838819355714321,7.211369887182116,6.2639201097548005
1745463334740670700,10.238670654296875,-1.8573498686611651,6.248558289971947,5.250765980273485
1745463334750642000,10.248641845703125,-1.558908189356327,5.215913278079032,4.227845659059286
1745463334760612600,10.258612548828125,-0.9206208072125911,4.5476919454425575,3.538818854281306
1745463334770584800,10.268584716796875,-0.04872103201653808,4.183437193012237,3.2586119198471306
1745463334780556800,10.278556884765624,0.7272060210466385,3.8809874471098182,3.091161596021056
1745463334790527700,10.28852783203125,1.118240643852949,3.5397745475709437,2.9165906265348194
1745463334800499700,10.298499755859375,1.2228197201590985,3.181726248565316,2.6168781966418027
1745463334810471000,10.308470947265626,1.0679951422154903,2.911232898893952,2.309581595230102
1745463334820442600,10.318442626953125,0.5045827125856652,2.4740824216008184,1.9249159229338169
1745463334830413800,10.328413818359374,-0.5312590860545635,1.2792425221920012,1.9596336005717514
1745463334840385800,10.3383857421875,-1.3732932632863522,-0.21888240489959715,2.6762399016708134
1745463334850356700,10.348356689453125,-1.8013444883227347,-0.9642167878329754,3.3279899919778106
1745463334860328700,10.35832861328125,-1.8415712847709655,-1.028183356308937,4.013890773689747
1745463334870300000,10.3682998046875,-1.5549989069581032,-0.9909925665557384,4.605756011876464
1745463334880271600,10.378271728515625,-0.9277952288866043,-1.0445406168699265,4.902533557361364
1745463334890242800,10.388242919921876,-0.19902853439450263,-1.1295271770209074,4.8355777439415455
1745463334900214800,10.39821484375,0.32116438324451446,-1.3605045088618992,4.2071565067738295
1745463334910185700,10.408185791015624,0.5100256342919544,-1.6853823596715927,3.0969097842842337
1745463334920157700,10.41815771484375,0.45746082286145534,-1.8504934268951414,1.7195362659469247
1745463334930129000,10.42812890625,0.4654898886034265,-1.7672142551839352,0.3767886553108692
1745463334940100600,10.4381005859375,0.46643794657588,-1.4651847805202007,-0.8022165461063384
1745463334950071800,10.44807177734375,0.4790180266857147,-0.9205717073738574,-1.892962741573155
1745463334960043800,10.458043701171874,0.4516635712921619,-0.21805881355702875,-2.803959980393946
1745463334970014700,10.4680146484375,0.4037187478125095,0.39668051973879337,-3.4910873812913894
1745463334979987000,10.477987060546875,0.41132337759733195,0.8851520189464092,-4.249289136843383
1745463334989958000,10.4879580078125,0.47564416633844375,1.3027163367599248,-5.151279185605049
1745463334999929900,10.497929931640625,0.44599955418109893,1.5306781201720236,-6.099636725527048
1745463335009900800,10.50790087890625,0.40479667924232776,1.501024155664444,-6.943880980023741
1745463335019873000,10.517873046875,0.39549912793450054,1.1420932286053895,-7.788855302360654
1745463335029843700,10.52784375,0.3979553619801998,0.7817401597887277,-8.867174270191787
1745463335039816000,10.53781591796875,0.40006899313330646,0.7663239794701338,-10.067527964586018
1745463335049787000,10.547786865234375,0.39967853251099583,0.9864151756376027,-11.178009664875269
1745463335059758800,10.5577587890625,0.049422494816780085,1.0270248339235781,-12.468534628582
1745463335069729800,10.567729736328126,-0.5989058043479919,0.7417226221770048,-14.004024532949924
1745463335079702000,10.577701904296875,-1.2100139415346085,0.2004723034620285,-15.234177737802266
1745463335089672700,10.587672607421876,-2.0662005627594886,-0.6515811634808778,-15.822221956396103
1745463335099645000,10.59764501953125,-2.942328878903389,-1.7358856354624033,-16.3965755032897
1745463335109615900,10.607615966796875,-3.4956314544618126,-2.921576598253846,-16.71332791531086
1745463335119587800,10.617587890625,-3.5191584605216977,-3.360984499084949,-16.71136392176151
1745463335129558800,10.627558837890625,-3.0737936971127984,-2.7462404896140096,-16.32948875696659
1745463335139531000,10.637531005859374,-2.363128476500511,-2.2380565741986036,-15.128025055503844
1745463335149501700,10.647501708984375,-1.4548983643054962,-1.803997633180022,-14.190530270379782
1745463335159474000,10.657473876953125,-0.3324725437223911,-1.1585282305777072,-13.567643870985506
1745463335169444900,10.66744482421875,0.801704504930973,-0.3469558271050453,-13.078511277520656
1745463335179416800,10.677416748046875,1.8579028263688087,0.3888280526727438,-12.123888831984996
1745463335189387800,10.6873876953125,2.8244132780969142,0.7824152825713158,-11.077760653662681
1745463335199360000,10.697360107421876,3.6105081259638068,1.1992483635008335,-10.332539667975903
1745463335209330700,10.70733056640625,3.9609880355417726,1.5191010796248912,-9.679497784292698
1745463335219303000,10.717302978515624,3.679666417863965,1.6741589548677205,-9.10335676946044
1745463335229273900,10.72727392578125,3.0522043811172246,1.8538520896732806,-8.491731768792867
1745463335239245800,10.737245849609375,2.130760567083955,2.221162138020992,-7.905904641726613
1745463335249216800,10.747216796875,1.0188462036430834,2.6151258000165223,-7.232938744911551
1745463335259189000,10.75718896484375,-0.07887304570674895,2.6556144622713327,-6.556542873647809
1745463335269159700,10.76715966796875,-1.2140391053974628,2.340423308217525,-5.492033819982409
1745463335279132000,10.7771318359375,-2.044656401079893,1.9219325232088564,-4.3899204273268575
1745463335289102800,10.787102783203125,-2.834365347790718,1.2852373786926268,-3.53148193552196
1745463335299074800,10.79707470703125,-3.551295474016666,0.4678454752862453,-2.9000425195768473
1745463335309045800,10.807045654296875,-4.07487043530941,-0.18777648801803587,-2.3474556910723448
1745463335319018000,10.81701806640625,-4.231111967378855,-0.4463859231501817,-1.5164832983419299
1745463335328988700,10.82698876953125,-4.088743477839231,-0.4184025222033262,-0.5205711033016442
1745463335338961000,10.8369609375,-3.876953661549091,-0.41680210126936434,0.384741367881
1745463335348931800,10.846931884765626,-3.6168589562952516,-0.49010523788928984,1.0778770692825317
1745463335358903800,10.85690380859375,-3.3076468766510483,-0.5655804578512906,1.5846476107686758
1745463335368874800,10.866874755859374,-2.988799538177252,-0.4553764543354511,2.022563811737299
1745463335378847000,10.876846923828126,-2.6117361575782296,-0.003845569512248039,2.307859009221196
1745463335388817700,10.886817626953125,-2.327587207520008,0.7227770986884832,2.448036126196384
1745463335398790000,10.896789794921874,-1.9027637123584746,1.8056044838547705,2.7301275592029093
1745463335408760800,10.9067607421875,-1.4160557156920432,3.2685400241434572,2.7183663942605256
1745463335418732800,10.91673291015625,-1.0655296288847922,4.656034831261635,2.4936060372382403
1745463335428703700,10.926703857421876,-0.8894295501351356,5.850316512265801,2.281389519968629
1745463335438676000,10.936676025390625,-0.8909471881564706,6.913877471426129,2.200391737192869
1745463335448646700,10.946646728515624,-1.0444203514911234,7.379986916700005,2.246353277900815
1745463335458619000,10.956618896484375,-1.342863199839741,7.692126866489648,2.509391635391116
1745463335468589800,10.96658984375,-1.7257928421236575,8.03118112668991,2.924599745467305
1745463335478561800,10.976561767578126,-2.2914928347013888,8.436451780119539,3.4759278060823675
1745463335488532700,10.98653271484375,-2.908743420165777,8.959621667742729,4.058693207490444
1745463335498505000,10.9965048828125,-3.472888876777887,9.495494385072588,4.581362159854174
1745463335508476000,11.006475830078125,-4.006113125425577,9.912534971272946,5.063205180832743
1745463335518447900,11.01644775390625,-5.031348153322935,10.10973278310895,5.625942524212599
1745463335528418800,11.026418701171876,-5.388597410905361,9.913778833854197,6.388050347292423
1745463335538390800,11.036390869140625,-5.214318702363967,9.855182852500677,7.889975251188874
1745463335548361700,11.04636181640625,-5.265730909693241,8.907288838437198,9.170020906457305
1745463335558334000,11.056333984375,-4.89381365981102,8.188077907797693,10.327178433203697
1745463335568305000,11.066304931640625,-4.76311339623332,7.987161952221393,10.825927580797671
1745463335578276900,11.07627685546875,-4.399508047622442,8.064987534701825,10.996720200788975
1745463335588247800,11.086247802734375,-3.793922619380057,8.10117411584854,11.345188770544528
1745463335598219800,11.0962197265625,-3.350414005231857,8.089981690704821,11.763920378571749
1745463335608190700,11.106190673828126,-2.4921581765174863,8.126843979156018,12.32077334008813
1745463335618163000,11.116162841796875,-1.9585050349332391,8.306948032850027,12.002401802432537
1745463335628134000,11.1261337890625,-2.0867500143133104,8.350693066552282,10.656265426141022
1745463335638105900,11.13610595703125,-2.3229250609278678,7.8997239072650665,9.081171241137385
1745463335648076800,11.146076904296875,-1.8475556198775767,7.123425061747431,7.396392108055949
1745463335658048800,11.156048828125,-0.7402502115368843,6.203992587536573,5.644365485131741
1745463335668019700,11.166019775390625,0.5909119560498743,5.438548313510418,4.34287079912126
1745463335677992000,11.175991943359374,1.7244658313035963,4.949323365586996,3.5358372081220146
1745463335687963000,11.185962890625,2.7015912005484104,4.849316346436739,3.173844555404782
1745463335697934800,11.195934814453125,3.2678900358021257,4.771303716951609,3.069140902870893
1745463335707905800,11.20590576171875,3.178412593972683,4.54080452401638,3.1051486203193663
1745463335717877800,11.215877685546875,2.5054887827336785,4.1808349015593524,3.13863704842329
1745463335727848700,11.2258486328125,1.4047101458132265,3.5765292839944363,3.244724264270067
1745463335737821000,11.235821044921876,0.2652162129860371,2.7590122929036616,3.6442262711703775
1745463335747792000,11.2457919921875,-0.6175999103587121,2.123027342483401,3.8222283841490743
1745463335757763800,11.255763916015624,-1.3208978901386261,1.6095383063971995,3.837799462768435
1745463335767734800,11.26573486328125,-1.649526617914438,1.1173463253617286,3.9639357794314622
1745463335777706800,11.275706787109375,-1.6787585576176642,0.8659224178195,3.8776539187729355
1745463335787677700,11.285677734375,-1.5016402417361736,0.6952426105529069,3.614411563143134
1745463335797650000,11.29564990234375,-1.1880325574815274,0.4714888002246618,3.385642555001378
1745463335807620900,11.305620849609374,-0.7690332384288311,0.22333821526467798,3.252005653449893
1745463335817592800,11.3155927734375,-0.32836920005679127,0.015014029258489608,2.9527146638393402
1745463335827563800,11.325563720703125,-0.022515746658109126,-0.3206143481463194,2.540503397491574
1745463335837535700,11.33553564453125,0.1367243461728096,-0.6251140123158693,1.932213094204664
1745463335847506700,11.345506591796875,0.26004208001745865,-0.8537176007628441,1.2669406745016574
1745463335857479000,11.35547900390625,0.3747311382591724,-1.0080296260744332,0.4883323829978704
1745463335867449900,11.365449951171875,0.38660394688248634,-1.100769284570217,-0.19586802453696728
1745463335877421800,11.375421875,0.4104465947628021,-0.9536012857943773,-0.872656694510579
1745463335887392800,11.385392822265626,0.24919921723008154,-0.59948740362823,-1.4132926807194948
1745463335897364700,11.39536474609375,0.012319383347034453,-0.18938626130223274,-1.6781895255580543
1745463335907335700,11.405335693359374,-0.11200549997985362,0.17916297345161436,-2.004392487491667
1745463335917308000,11.415307861328126,-0.16617022088766098,0.6255044729381799,-2.759927361921966
1745463335927278800,11.42527880859375,-0.15781915664970875,0.913556275653839,-3.6901202996000646
1745463335937250800,11.435250732421874,-0.09316868842965922,0.8850807072758674,-4.731999880567193
1745463335947221800,11.4452216796875,0.13561665892554448,0.8490636374771594,-5.905125376296043
1745463335957193700,11.45519384765625,0.5441781888604164,0.8138450245797634,-7.07635409849286
1745463335967164700,11.46516455078125,1.260210489463806,0.9810042565047741,-7.950488464340567
1745463335977137000,11.475136962890625,1.998029089939594,1.3797697658240795,-8.412309857031703
1745463335987107800,11.48510791015625,2.47721312084198,1.9482798473864793,-8.744214245477318
1745463335997079800,11.495079833984375,2.418504326763749,2.4896383026510476,-8.962551291453838
1745463336007050800,11.50505078125,1.979244894492626,2.7942069404035803,-9.080292704737186
1745463336017023000,11.51502294921875,1.2265753463655709,2.7803292216986417,-9.297602745753526
1745463336026993700,11.52499365234375,0.2630430336654186,2.273845095938444,-9.441588607361911
1745463336036966000,11.5349658203125,-0.6466939759612083,1.4598574480175972,-9.775479785710573
1745463336046936800,11.544936767578125,-1.1674456965267657,0.8651637084066868,-10.493345146960019
1745463336056908800,11.55490869140625,-1.2567618103146552,0.6925368587255477,-11.28455631492734
1745463336066879700,11.564879638671876,-1.3012217142879963,0.31197043844163413,-11.29410506451726
1745463336076852000,11.57485205078125,-1.2259165901958942,-0.4336182115137577,-10.858651454269886
1745463336086822700,11.58482275390625,-0.8829355119407176,-0.9296838191121816,-10.671915415215492
1745463336096795000,11.594794921875,-0.37362405380010605,-1.200976210206747,-10.499579657435417
1745463336106766600,11.6047666015625,0.051801498907804486,-1.4179010512977839,-10.276171884065866
1745463336116737800,11.61473779296875,0.3083177611529827,-1.616508729931712,-10.250078826910256
1745463336126708700,11.624708740234375,0.6362918244123459,-1.6754115852773188,-10.404958422976732
1745463336136681000,11.634680908203125,0.9221516700416803,-1.6947727038294076,-10.669460423278808
1745463336146652700,11.644652587890626,1.1890344280004501,-1.622064610493183,-10.859491996747254
1745463336156624000,11.654623779296875,1.3620564144790173,-1.3374059573471546,-10.953872408187388
1745463336166595600,11.664595703125,1.4596926128447054,-0.6697001730173826,-10.776682780635356
1745463336176566800,11.67456689453125,1.2543752074390648,0.046533787637948985,-10.226342562013864
1745463336186538800,11.684538818359375,0.702531013995409,0.6475158137381076,-9.264743263202906
1745463336196510000,11.694510009765626,-0.06331074404888785,0.7040361578613519,-8.147649451297521
1745463336206481700,11.704481689453125,-0.8315478545308113,0.25554887851774694,-6.947621335595846
1745463336216452900,11.714452880859374,-1.5357377416491507,-0.49166065063774583,-5.8614095686882735
1745463336226424600,11.724424560546876,-2.1183996826827527,-1.3955331521451473,-4.979178405624628
1745463336236395800,11.734395751953125,-2.4622400081157685,-2.2651251983880996,-4.384852622543275
1745463336246367700,11.74436767578125,-2.669636557883024,-2.8814561847895384,-3.9529879766985774
1745463336256339000,11.7543388671875,-2.796775914108753,-3.25863179359138,-3.519357490225136
1745463336266310700,11.764310546875,-2.7250305283248424,-3.440259111329913,-2.994208996005356
1745463336276281900,11.77428173828125,-2.449589785379171,-3.3736358908653257,-2.3533812817290425
1745463336286253600,11.784253662109375,-2.065996126228571,-3.0694682351291176,-1.5064225075766444
1745463336296224800,11.794224853515624,-1.641584134477377,-2.6043413711518046,-0.5204483537048101
1745463336306196700,11.80419677734375,-1.2742939598739147,-1.9233873981922864,0.4113578643888235
1745463336316168000,11.81416796875,-1.0164461567640304,-1.0785101064890623,1.3119020982563494
1745463336326139600,11.8241396484375,-0.875922418308258,-0.2569195823490619,2.242201418918371
1745463336336110800,11.83411083984375,-0.8355623508691787,0.7271908234775066,2.9869758298814295
1745463336346082600,11.84408251953125,-0.8480290337324142,1.5156880563110113,3.6028754391282796
1745463336356053800,11.8540537109375,-0.87660864700675,2.2096961566329,3.7879327313154936
1745463336366025700,11.864025634765625,-0.8644926772773265,2.991056961715221,3.5029631125241516
1745463336375997000,11.873996826171876,-0.9482629204411059,3.7786791652798652,3.2843513412594794
1745463336385968600,11.88396875,-1.1194448320109396,4.537291547459364,3.1895752085000275
1745463336395939800,11.89393994140625,-1.247256315344572,5.595393072170019,3.1385148833483454
1745463336405911800,11.903911865234376,-1.19788167825751,6.668597473466396,3.7844805450350045
1745463336415882800,11.9138828125,-1.2815081290364265,7.548204133245348,4.676083932077884
1745463336425854700,11.923854736328124,-1.565987918484211,8.082044467964767,5.778020506861806
1745463336435826000,11.933825927734375,-1.696890426635742,8.167779216134548,6.249969325813651
1745463336445797600,11.943797607421875,-1.989431941986084,7.979115423887968,5.752980173629522
1745463336455768800,11.953768798828126,-2.3131565311074254,7.702717818608879,4.638052599847317
1745463336465740800,11.96374072265625,-2.5401111833035945,6.816814689034223,3.6436411647588014
1745463336475711700,11.973711669921874,-2.1884598918586966,5.955186169016361,3.443693177431822
1745463336485683700,11.98368359375,-1.2906085503369569,5.647587369787693,4.342017397162318
1745463336495655700,11.99365576171875,-0.2336941895842552,5.998843524435162,6.103369482314586
1745463336505626600,12.003626708984376,0.6832873843431473,6.779958245801925,7.787323855009674
1745463336515598800,12.013598876953125,0.7913385937392711,7.77026692174673,8.567554194757342
1745463336525569800,12.02356982421875,-0.007107786178588866,8.52566910970807,8.649909237360953
1745463336535541800,12.033541748046876,1.7234657143503427,7.966240744745731,10.673605852520465
1745463336545512700,12.0435126953125,0.715591571098566,8.113128173014521,11.442542060315608
1745463336555484700,12.053484619140624,0.16328385179638863,7.5667065891414875,11.50526125907898
1745463336565455600,12.06345556640625,-0.4121230035424232,7.203038696688413,11.042022985327243
1745463336575427800,12.073427734375,-1.2134388014167548,6.982033308285474,9.985565136170386
1745463336585398800,12.083398681640626,-1.5911463251382112,6.906999986872076,8.477672263780235
1745463336595370800,12.093370849609375,-1.6090701043635607,6.699539724218845,7.043832469594478
1745463336605341700,12.103341796875,-1.3182073358803987,6.504108337533474,5.661704742467403
1745463336615313700,12.113313720703125,-0.6620172172993422,5.9417830820858475,4.509478242382407
1745463336625284600,12.12328466796875,0.11728371437741443,5.372380435597896,3.5552351515531537
1745463336635256600,12.133256591796876,0.9758704007476567,5.248371194091439,3.1420266908615826
1745463336645227500,12.1432275390625,1.4725111778855322,5.152834013831615,2.9731764371097085
1745463336655199500,12.153199462890624,1.7823171317696571,4.860262103343009,3.0158745921075343
1745463336665170400,12.16317041015625,1.5643793142437934,4.261583678010106,3.387930958199501
1745463336675142400,12.173142333984375,1.5461743799895047,3.414575219497084,3.701415892857313
1745463336685113300,12.18311328125,1.127748476910591,2.5466081441074606,3.9433571017831563
1745463336695085600,12.19308544921875,0.7367074243634939,1.700174855133891,4.283837010872364
1745463336705056500,12.203056396484374,0.4155938945233822,0.6500871255308389,4.077772001969814
1745463336715028500,12.213028564453126,0.18336977749168873,-0.07744096707701682,3.8637785381555556
1745463336724999400,12.22299951171875,0.34931554197371006,-0.5275666612774134,3.5190474013626574
1745463336734971600,12.2329716796875,0.4834784766932949,-1.0775222644954918,2.9822300966590642
1745463336744943400,12.242943359375,0.6686947953671216,-1.5465192479044199,2.4927882911145685
1745463336754914600,12.25291455078125,0.9305424817681311,-1.829065438941121,2.1218536225289104
1745463336764886300,12.26288623046875,1.2098901690244674,-2.179037983518839,1.4392881227195262
1745463336774857500,12.272857421875,1.3153297346174717,-2.507527010563016,0.5630839648604392
1745463336784829400,12.282829345703124,1.199790215292573,-2.645764683908224,-0.19503157371282576
1745463336794800600,12.292800537109375,1.1275018086731434,-2.6921049948006868,-0.7576409067988396
1745463336804772400,12.3027724609375,1.1236264285445212,-2.490428576245904,-1.1577926097795366
1745463336814743600,12.31274365234375,0.9906658188194036,-2.0329156944036484,-1.5794982651814817
1745463336824715300,12.32271533203125,0.5683294642984866,-1.4438175828427076,-2.247566453082859
1745463336834686500,12.3326865234375,0.08541150756478309,-1.0311293466329574,-2.794994875910878
1745463336844658400,12.342658447265626,-0.05140051689147949,-0.5778051486521959,-3.292320712703466
1745463336854629600,12.352629638671875,-0.22232176823113112,0.3326864787340164,-3.8342420625478026
1745463336864601300,12.362601318359374,-0.6654197192192077,1.2667770083725451,-4.432305278591811
1745463336874572500,12.372572509765625,-1.070341340015456,1.7207698993951082,-4.9663458120584485
1745463336884544300,12.382544189453125,-1.287564944857359,1.8774024766087531,-5.46254644421339
1745463336894515500,12.392515380859376,-1.2309797188043594,1.9328338564515113,-6.051262862980366
1745463336904487400,12.4024873046875,-1.058308372394368,2.022464443016052,-6.743954035484791
1745463336914458600,12.412458740234374,-0.8339208672724664,2.220862278291583,-7.452913621222972
1745463336924430300,12.422430419921875,-0.5992847206629812,2.669371769466996,-8.209636828655004
1745463336934401500,12.432401611328125,-0.5205657695394009,3.2846780889958143,-9.024082741737365
1745463336944373200,12.442373291015626,-0.7222761634290218,3.734156132942438,-9.747046887430548
1745463336954344400,12.452344482421875,-1.2554476589761674,3.6555133888602254,-10.438515824663638
1745463336964316400,12.46231640625,-1.893646193792671,3.0926018579572436,-11.14156238696575
1745463336974288400,12.472288330078126,-2.4229367562532422,2.1085019735246897,-11.697699893689155
1745463336984259300,12.48225927734375,-2.7668413790941235,1.2185247263789176,-12.423061163651942
1745463336994231600,12.4922314453125,-2.9403274759531017,0.8235469189047813,-13.250561788618564
1745463337004202200,12.5022021484375,-3.169616708576679,0.3931938466668129,-13.359315593326091
1745463337014174500,12.512174560546875,-3.5180735878944396,-0.6718792706221342,-12.66163728005886
1745463337024145400,12.5221455078125,-3.616214813172817,-1.870422116202116,-11.77094866977334
1745463337034117400,12.532117431640625,-3.1770003890872,-2.502842067617178,-11.076749430793523
1745463337044088300,12.54208837890625,-2.5358769067347047,-2.672633401611447,-10.608923829251527
1745463337054060500,12.552060546875,-2.069035640054941,-2.7368746953755614,-10.012337407761812
1745463337064031500,12.562031494140625,-1.6389759978055953,-2.781110142943263,-9.371424937811494
1745463337074003500,12.57200341796875,-1.0358090288817883,-2.5372873580545185,-8.936302751475573
1745463337083974400,12.581974365234375,-0.3850630741160363,-1.9064999762773513,-8.70586434881687
1745463337093946400,12.5919462890625,0.1346446172893047,-1.1953507715404033,-8.57289029508829
1745463337103917300,12.601917236328125,0.42857846378087994,-0.4226975890487432,-8.333224629878996
1745463337113889500,12.6118896484375,0.4398924694776535,0.3868792566925287,-8.040894711452722
1745463337123860500,12.621860595703126,0.1209820391723886,1.1248135925024747,-7.443390590596199
1745463337133832400,12.63183251953125,-0.5639175296077504,1.4749609091252087,-6.636257630875706
1745463337143803400,12.641803466796874,-1.42810972610116,1.3600567650943993,-5.841001571431756
1745463337153775400,12.651775390625,-2.2538217140853405,0.9216372907787561,-5.071854351234435
1745463337163746300,12.661746337890625,-2.9788930611908433,0.3150333331435919,-4.343051708646119
1745463337173718500,12.671718505859374,-3.5358921531796454,-0.37403614173233507,-3.8039784417092797
