time,seconds_elapsed,z,y,x
2025-04-11 20:12:51.182728200,0.143728271484375,3.552794772663712,-1.089965274222195,0.4608705217070877
2025-04-11 20:12:51.192702200,0.1537021484375,3.366100819185376,-1.3061053946763277,0.5935420853577554
2025-04-11 20:12:51.202676200,0.16367626953125,3.002847937273979,-1.2112833769485354,0.7083304940544068
2025-04-11 20:12:51.212650200,0.173650146484375,2.41341138753891,-1.0059501894518732,1.1347705575671043
2025-04-11 20:12:51.222623200,0.183623291015625,1.763924565988779,-0.832958305850625,1.7678382323011754
2025-04-11 20:12:51.232597000,0.193596923828125,0.7182756956160068,-0.8137605611667037,2.336118158369511
2025-04-11 20:12:51.242571000,0.203571044921875,-0.4416320066213607,-0.8143608651474118,2.323369589824974
2025-04-11 20:12:51.252545000,0.213544921875,-1.698863772535324,-0.7187962123587727,1.914752110185474
2025-04-11 20:12:51.262519000,0.22351904296875,-2.777131886962056,-0.6783771082088351,1.463952462246269
2025-04-11 20:12:51.272492300,0.2334921875,-3.239114607694745,-0.6464344482421874,1.004157972272858
2025-04-11 20:12:51.282466000,0.243466064453125,-2.9965953066200015,-0.7380766668900847,0.5935452271629125
2025-04-11 20:12:51.292440000,0.253440185546875,-2.4400568178802726,-0.9842878082200884,0.4789223842915147
2025-04-11 20:12:51.302414000,0.2634140625,-1.9261176999390124,-1.0271344317778943,0.3983128336483612
2025-04-11 20:12:51.312387300,0.27338720703125,-1.8061562725186344,-0.700022538305819,0.1928309949286282
2025-04-11 20:12:51.322361300,0.283361328125,-2.2602111228615045,-0.1445937643736601,7.54763890057e-05
2025-04-11 20:12:51.332335400,0.29333544921875,-2.7922949693024157,0.5276558008655905,0.0928124680036678
2025-04-11 20:12:51.342309000,0.30330908203125,-3.1962925340563055,0.8728190454654395,0.3677135145820677
2025-04-11 20:12:51.352283100,0.313283203125,-3.3313246893584725,0.5806295584231614,0.6711811322901398
2025-04-11 20:12:51.362256400,0.32325634765625,-3.421691188982129,-0.2250659158401191,0.5732039384670555
2025-04-11 20:12:51.372230400,0.33323046875,-3.5787925527513025,-0.9895696941457688,0.0821465874847024
2025-04-11 20:12:51.382204400,0.343204345703125,-3.56370954990983,-1.3773184271492065,-0.5104392931267618
2025-04-11 20:12:51.392178200,0.35317822265625,-3.2878222322404382,-1.421446907211095,-0.7563856460407375
2025-04-11 20:12:51.402151200,0.363151123046875,-2.8537796578347683,-1.3648688415512442,-0.6575511047359556
2025-04-11 20:12:51.412125200,0.373125244140625,-2.2870786715209483,-1.0652385369837285,-0.5011108352240174
2025-04-11 20:12:51.422099200,0.38309912109375,-1.5679636024713517,-0.4231235593758523,-0.1554453401904553
2025-04-11 20:12:51.432073200,0.3930732421875,-0.7187292846024036,0.2233447911359369,0.4573794647209346
2025-04-11 20:12:51.442047200,0.403047119140625,0.0712052875578403,0.8274073937252163,1.0277212917551397
2025-04-11 20:12:51.452020200,0.413020263671875,0.6484276678860187,1.3344975225545466,1.2109192198112606
2025-04-11 20:12:51.461994200,0.422994140625,1.0348597653329372,1.6387033183440565,1.0310586194843052
2025-04-11 20:12:51.471968300,0.43296826171875,1.3394851017087697,1.776411560987681,0.6407233771190047
2025-04-11 20:12:51.481942300,0.4429423828125,1.4270640164405106,1.683524895236641,0.1615232718646526
2025-04-11 20:12:51.491915300,0.452915283203125,1.2595868046075105,1.3281269646093248,-0.2464880951078608
2025-04-11 20:12:51.501889300,0.46288916015625,0.9875585004538298,0.960844534920901,-0.5331474936170503
2025-04-11 20:12:51.511863300,0.47286328125,0.9136907156884668,0.8017534586392343,-0.7038493300523608
2025-04-11 20:12:51.521837300,0.48283740234375,0.9765689044058322,0.6733562113068997,-0.5391284311901777
2025-04-11 20:12:51.531811300,0.492811279296875,1.4187655591726305,0.4519583164550363,-0.2231599726209417
2025-04-11 20:12:51.541784000,0.5027841796875,1.6284885060608385,0.1583279829546809,-0.1697914435921236
2025-04-11 20:12:51.551758000,0.512758056640625,1.691713316258788,-0.0619650193952023,-0.4950150390995666
2025-04-11 20:12:51.561732000,0.522732177734375,1.469281694445014,-0.3280744548939168,-0.5705418796509504
2025-04-11 20:12:51.571706000,0.5327060546875,1.1224287431925537,-0.6200573134481907,-0.4806340835802257
2025-04-11 20:12:51.581679000,0.54267919921875,0.8847621428459882,-0.7832854895345867,-0.5477730715472251
2025-04-11 20:12:51.591653000,0.552653076171875,0.8990940350592136,-0.913100494710356,-0.814179663361609
2025-04-11 20:12:51.601627100,0.562627197265625,1.1322194848448035,-1.0579079018346964,-1.166193066117167
2025-04-11 20:12:51.611601200,0.57260107421875,1.5343582699894904,-1.1766092461913824,-1.371916275844723
2025-04-11 20:12:51.621575200,0.5825751953125,1.9098054475635289,-1.2664638507701456,-1.4152218952164053
2025-04-11 20:12:51.631548200,0.592548095703125,2.0518249775350093,-1.1290237575434148,-1.338834821106493
2025-04-11 20:12:51.641522200,0.602522216796875,1.9076935699760913,-0.686097619458288,-1.0674620582520962
2025-04-11 20:12:51.651496200,0.61249609375,1.6710954756438732,-0.1889098759621381,-0.4717908884437754
2025-04-11 20:12:51.661470200,0.62247021484375,1.5972089861780403,-0.001993511904776,0.0748970638810191
2025-04-11 20:12:51.671443200,0.632443115234375,1.4113222574293611,-0.1518932737320661,0.0112758565103169
2025-04-11 20:12:51.681417200,0.642417236328125,1.102941952434182,-0.4650558445677161,-0.6222483937516808
2025-04-11 20:12:51.691391200,0.65239111328125,0.7602747624337672,-1.0162480038434267,-1.3581816188722848
2025-04-11 20:12:51.701365200,0.662365234375,0.3967980086386203,-1.5916156962156296,-1.7966519465923307
2025-04-11 20:12:51.711339300,0.67233935546875,0.0087222356379032,-1.83376674849987,-2.0715178122594953
2025-04-11 20:12:51.721312000,0.68231201171875,-0.304376330050826,-1.6228788494855164,-2.1676522277601062
2025-04-11 20:12:51.731286000,0.6922861328125,-0.6725234137445688,-1.1801710303261876,-1.8588652416601776
2025-04-11 20:12:51.741260000,0.702260009765625,-1.0478466726779938,-0.7501853300958872,-1.1921642504587768
2025-04-11 20:12:51.751234000,0.712234130859375,-1.4440356095075606,-0.3225257347255945,-0.460574644033052
2025-04-11 20:12:51.761207000,0.72220703125,-1.8088725457400083,0.0781876937910914,0.1210578443549573
2025-04-11 20:12:51.771181000,0.73218115234375,-2.195449020093679,0.208082486204803,0.8016904764056205
2025-04-11 20:12:51.781155000,0.742155029296875,-2.489514384010434,-0.0664107467576861,1.4614337574236094
2025-04-11 20:12:51.791129000,0.752129150390625,-2.458630000925064,-0.3908423151046037,1.560887818866223
2025-04-11 20:12:51.801103000,0.76210302734375,-2.1221149038136,-0.5706111454948782,0.8639376737430691
2025-04-11 20:12:51.811076000,0.772076171875,-1.9109440962046385,-0.7879659024357796,-0.0254174503158312
2025-04-11 20:12:51.821050000,0.782050048828125,-2.213306163823604,-1.097186457647383,-0.6214418996743858
2025-04-11 20:12:51.831024000,0.792024169921875,-2.6675299409925937,-0.887358589079976,-1.3871845721252265
2025-04-11 20:12:51.840998100,0.801998046875,-3.110814975517988,-0.1022311249405145,-2.154553822864592
2025-04-11 20:12:51.850971100,0.81197119140625,-3.27163097589612,0.5919619765594601,-2.1051776514075695
2025-04-11 20:12:51.860945200,0.821945068359375,-3.2127117539376018,1.1952353284671902,-1.532085941143334
2025-04-11 20:12:51.870919200,0.831919189453125,-2.8098148439019917,2.042280611859262,-1.1371885784942657
2025-04-11 20:12:51.880893200,0.84189306640625,-2.254585099673271,2.7604578155368564,-0.9841659354060888
2025-04-11 20:12:51.890866000,0.851865966796875,-1.6557359939485787,3.011188187856972,-0.8993634996503591
2025-04-11 20:12:51.900840000,0.86183984375,-0.975849357959628,2.818500839182734,-1.0367330118589102
2025-04-11 20:12:51.910814000,0.87181396484375,-0.2972802343100309,2.373893323881924,-1.3298333301357923
2025-04-11 20:12:51.920788000,0.8817880859375,0.498855530577898,1.9915826902791856,-1.536300343967974
2025-04-11 20:12:51.930762000,0.891761962890625,1.3325959267169236,1.7961019114941357,-1.4921660186871886
2025-04-11 20:12:51.940735000,0.90173486328125,2.081395355412364,1.57579970292449,-1.1030328455880285
2025-04-11 20:12:51.950709000,0.911708984375,2.68646669665277,1.436916425152123,-0.5065360020779073
2025-04-11 20:12:51.960683000,0.92168310546875,3.0529478929609057,1.362575469917059,0.0527988576483912
2025-04-11 20:12:51.970657000,0.931656982421875,3.112745651319623,1.2244035552844403,0.6688667909331619
2025-04-11 20:12:51.980630300,0.94163037109375,3.0918185986250637,0.7457415024295448,1.259293374618888
2025-04-11 20:12:51.990604300,0.951604248046875,2.9410283176988363,0.3772548115178942,1.131559413500875
2025-04-11 20:12:52.000578000,0.961578125,2.614919463789463,0.1655053272381424,0.6919920843243599
2025-04-11 20:12:52.010552000,0.971552001953125,2.19649239166677,-0.3390361400216817,0.4547155427413061
2025-04-11 20:12:52.020526000,0.981526123046875,1.836792233800888,-0.8670080210991203,0.2756853288238868
2025-04-11 20:12:52.030499300,0.991499267578125,1.6680694058209655,-1.325605337177217,0.2203485684620216
2025-04-11 20:12:52.040473300,1.001473388671875,1.7468197019308804,-1.8070241413943469,0.1527972003018483
2025-04-11 20:12:52.050447000,1.011447021484375,2.09863524402678,-2.0339409457981583,-0.0208561794154346
2025-04-11 20:12:52.060421000,1.021421142578125,2.5537837348252532,-1.8979907988682387,-0.0743480060303583
2025-04-11 20:12:52.070394000,1.03139404296875,2.999492197105288,-1.474686183837056,-0.0155598631056025
2025-04-11 20:12:52.080368000,1.0413681640625,3.2343431555092335,-0.9114441058054564,0.1426267020843923
2025-04-11 20:12:52.090342100,1.051342041015625,3.2580355812638997,-0.6044146308973432,0.5182544238571077
2025-04-11 20:12:52.100316200,1.061316162109375,2.84452550727725,-0.6265265094622969,0.849988497237116
2025-04-11 20:12:52.110290200,1.071290283203125,2.231849536252022,-0.8545134273156523,0.8455359017424285
2025-04-11 20:12:52.120263200,1.08126318359375,1.4667512991845606,-1.1537237529054285,0.4523714273005724
2025-04-11 20:12:52.130237200,1.0912373046875,0.6462047311395407,-1.4320140400633214,-0.0782189291795715
2025-04-11 20:12:52.140211200,1.101211181640625,-0.1311374859511852,-1.5326961819961666,-0.4830351899052038
2025-04-11 20:12:52.150185200,1.111185302734375,-0.6807938139617443,-1.3063035475969311,-0.7010812535785138
2025-04-11 20:12:52.160158200,1.121158203125,-0.9977794502168892,-0.7928647803932428,-0.4406348122775554
2025-04-11 20:12:52.170132200,1.13113232421875,-1.0941706169575451,-0.0677633304104208,0.043518969861418
2025-04-11 20:12:52.180106200,1.141106201171875,-0.9940794266551732,0.5984145136997103,0.223621744913794
2025-04-11 20:12:52.190080300,1.151080322265625,-0.8489905722409486,0.885603854367137,0.0514652526907622
2025-04-11 20:12:52.200054300,1.16105419921875,-0.5135597632348538,1.070491050684452,-0.3240773115491494
2025-04-11 20:12:52.210027300,1.17102734375,-0.4386982912570238,0.8701549408227205,-0.8378266425393521
2025-04-11 20:12:52.220001300,1.181001220703125,-0.6892308029174804,0.5928045648634434,-1.056225136379525
2025-04-11 20:12:52.229975300,1.190975341796875,-1.385736565274,-0.1033367480948567,-0.744698715378344
2025-04-11 20:12:52.239949300,1.20094921875,-1.6642571540564297,-0.1691121195584535,0.1387832697303034
2025-04-11 20:12:52.249922000,1.210922119140625,-1.8160674256801603,-0.0956894482120871,0.7451539117999374
2025-04-11 20:12:52.259896000,1.22089599609375,-1.905848234370351,0.1295017014428973,1.1060282280117273
2025-04-11 20:12:52.269870000,1.2308701171875,-4.330483026713132,0.3634823067530989,0.8999841157667339
2025-04-11 20:12:52.279844000,1.240843994140625,-5.301338229647278,0.372033277477324,0.4765547418447211
2025-04-11 20:12:52.289818000,1.250818115234375,-4.887819387832284,0.2236728540465235,0.5409841055268422
2025-04-11 20:12:52.299791000,1.260791015625,-4.423486304581165,0.014386545009911,0.4558080141531303
2025-04-11 20:12:52.309765000,1.27076513671875,-4.515340412414074,-0.0683253482073545,-0.3470420075511559
2025-04-11 20:12:52.319739100,1.2807392578125,-4.210876988601684,-0.1807417670756578,-0.2805777405079454
2025-04-11 20:12:52.329713200,1.290713134765625,-2.897956653213501,0.0640963323354721,0.658350438420102
2025-04-11 20:12:52.339686100,1.30068603515625,-1.163571485441923,0.6902595614433288,1.359431765063852
2025-04-11 20:12:52.349660200,1.31066015625,0.1068242979496717,1.259266778872907,1.4022092689082026
2025-04-11 20:12:52.359634200,1.32063427734375,0.0812350986629724,1.392586869560182,0.6581513356514275
2025-04-11 20:12:52.369608200,1.330608154296875,0.0660942281544208,1.1801903195485473,-0.2797519937409088
2025-04-11 20:12:52.379581200,1.340581298828125,0.5363409193634987,1.0102335658594963,-1.5742906135357917
2025-04-11 20:12:52.389555200,1.35055517578125,1.6084084255844353,0.2855465418964624,-3.86481606450975
2025-04-11 20:12:52.399529200,1.360529296875,2.0819114882409573,-0.7971522484540939,-2.1539323299653828
2025-04-11 20:12:52.409503200,1.370503173828125,1.4034230286121367,0.0312342194363474,1.164348168902844
2025-04-11 20:12:52.419477200,1.380477294921875,0.0704886637210845,0.5199006566941737,1.2250620191931725
2025-04-11 20:12:52.429450000,1.390449951171875,-1.575704425856471,0.1655745930820703,-0.2413894202619791
2025-04-11 20:12:52.439424000,1.400424072265625,-1.2364520127356051,-0.5183423213362693,-0.7714938563887029
2025-04-11 20:12:52.449398000,1.41039794921875,-0.038965398210287,0.059325756932795,-0.2976354409558698
2025-04-11 20:12:52.459372500,1.42037255859375,0.7662555904090405,1.3009528342187404,-1.5114797909662128
2025-04-11 20:12:52.469345500,1.430345458984375,1.4662369199216363,1.4293340071991083,-2.1802932442769407
2025-04-11 20:12:52.479319600,1.440319580078125,2.982370381912589,1.5406284363001583,-2.0571292214229704
2025-04-11 20:12:52.489293600,1.45029345703125,3.994061453104019,1.2314122650027275,-1.9589188764311372
2025-04-11 20:12:52.499267600,1.460267578125,4.915239309677482,1.0543357424363493,-1.6869886258244513
2025-04-11 20:12:52.509241600,1.47024169921875,5.227032053464651,0.5920543310180306,-1.3145723403789102
2025-04-11 20:12:52.519214600,1.480214599609375,5.445494187125563,-0.0188026078864932,-0.9785010415121912
2025-04-11 20:12:52.529188600,1.490188720703125,4.665508177527785,-0.2592836811318993,-0.453749291525036
2025-04-11 20:12:52.539162400,1.500162353515625,2.9757448262929915,-0.6690297264099121,-0.1572696878070943
2025-04-11 20:12:52.549136400,1.510136474609375,1.1379431231886148,-1.004676808515191,-0.3336009266978129
2025-04-11 20:12:52.559109400,1.520109375,-1.4461936643242834,-1.7354992664933204,0.3369275869024917
2025-04-11 20:12:52.569083400,1.53008349609375,-4.016767790430784,-2.955126108895242,2.155466407664865
2025-04-11 20:12:52.579057400,1.540057373046875,-2.3835049095749854,-2.7470272560775277,1.291687723875791
2025-04-11 20:12:52.589031400,1.550031494140625,-0.0848532891601324,-1.0160092266514895,-0.7880584760900586
2025-04-11 20:12:52.599004400,1.56000439453125,1.5281903950095177,0.0375146148800849,-1.1267449258912354
2025-04-11 20:12:52.608978400,1.569978515625,2.533612468934059,-0.285569630511105,-0.9668199560686944
2025-04-11 20:12:52.618952400,1.579952392578125,2.817662050271034,-0.6456029658541083,-0.5116431524911895
2025-04-11 20:12:52.628926500,1.589926513671875,1.8616250617623329,-1.0740583877772092,0.5735604968197643
2025-04-11 20:12:52.638900500,1.599900390625,-0.0542635051071643,-1.8433815490633247,1.1369498743675648
2025-04-11 20:12:52.648873500,1.60987353515625,-1.8071107967644928,-1.7729998528480528,1.081632257097587
2025-04-11 20:12:52.658847500,1.619847412109375,-2.478450553682446,-1.2314943903282285,0.2789095881000161
2025-04-11 20:12:52.668821500,1.629821533203125,-2.2856682202011345,-0.4653472287297248,-1.1556326552666722
2025-04-11 20:12:52.678795500,1.63979541015625,-1.5392448729872703,0.6930299029394984,-2.27621153280884
2025-04-11 20:12:52.688768500,1.6497685546875,-0.2524246090173721,0.8237567622631787,-2.207131420711428
2025-04-11 20:12:52.698742500,1.659742431640625,-0.9492220477968454,-0.8559507666423917,-0.1443619283791631
2025-04-11 20:12:52.708716500,1.669716552734375,-2.354379937377572,-1.404103412091732,0.1664327442813664
2025-04-11 20:12:52.718690600,1.679690673828125,-2.3317098404079672,-0.3693839320123195,-1.1227760953254995
2025-04-11 20:12:52.728664300,1.689664306640625,-2.425690438875556,0.5235059877097606,-1.733026300508529
2025-04-11 20:12:52.738637600,1.699637451171875,-4.319541945981979,0.3414534302964806,-1.1152731723494826
2025-04-11 20:12:52.748611300,1.709611328125,-5.071231835421919,0.3009007628947496,-1.8667428431674835
2025-04-11 20:12:52.758585300,1.71958544921875,-5.379761778020859,0.8824471439018845,-1.8638640728607776
2025-04-11 20:12:52.768559400,1.729559326171875,-4.959657128074765,0.7872606767758726,-2.1204634833447633
2025-04-11 20:12:52.778532600,1.73953271484375,-4.3988311712741845,0.8218100121095776,-2.0920199175402523
2025-04-11 20:12:52.788506600,1.749506591796875,-3.782316644999385,0.0018269231662154,-1.6563459425404667
2025-04-11 20:12:52.798480400,1.75948046875,-2.6949650604069233,-1.5904852308809756,-0.530636497176811
2025-04-11 20:12:52.808454400,1.769454345703125,-0.6371744524657726,1.522122765533626,-3.02862067643404
2025-04-11 20:12:52.818427600,1.779427734375,-0.6291109729975461,2.260532609900832,-3.5392893944025037
2025-04-11 20:12:52.828401700,1.789401611328125,0.2631055775076151,0.9804030757412314,-2.1956889663293957
2025-04-11 20:12:52.838375700,1.799375732421875,1.014997711521387,1.1480313864827156,-1.7674356428496538
2025-04-11 20:12:52.848349700,1.809349609375,1.6571078668236732,1.644967347174883,-1.8150901050806043
2025-04-11 20:12:52.858323500,1.819323486328125,2.086515767166018,1.4174240814357997,-1.307363870304823
2025-04-11 20:12:52.868296700,1.829296630859375,2.4345026908844707,1.027487482999265,-0.7659904366668313
2025-04-11 20:12:52.878270700,1.839270751953125,2.928599044236541,0.9657757077127694,-0.671631068014726
2025-04-11 20:12:52.888244700,1.84924462890625,3.644796180012822,1.001466906557977,-0.5677094327040016
2025-04-11 20:12:52.898218800,1.85921875,4.131377335429192,0.7957379977419972,-0.4661941278826445
2025-04-11 20:12:52.908191500,1.86919140625,4.69282113186717,0.2848322561472654,-0.3870456262353807
2025-04-11 20:12:52.918165500,1.87916552734375,5.533774528124928,-0.1725152060002088,-0.124567459911108
2025-04-11 20:12:52.928139500,1.889139404296875,6.371389719870686,-0.352943084821105,-0.3016069018701091
2025-04-11 20:12:52.938113500,1.899113525390625,6.858351399037241,-0.5723433761149644,-0.1642919693930074
2025-04-11 20:12:52.948086500,1.90908642578125,6.048076634159684,-0.7929600574612617,0.4019584601417184
2025-04-11 20:12:52.958060500,1.919060546875,4.466187966710328,-0.8788488271489739,0.0361523135509341
2025-04-11 20:12:52.968034600,1.92903466796875,2.671391877117753,-1.1988976503670217,-0.6107888055717572
2025-04-11 20:12:52.978008600,1.939008544921875,0.759648739489913,-1.5799334417283537,-1.2908464507460593
2025-04-11 20:12:52.987982600,1.948982666015625,-1.6646791788607835,-1.4663538242995735,-1.9587647087827325
2025-04-11 20:12:52.997955600,1.95895556640625,-2.741231137019396,-1.1377142828688025,-2.0798523637540636
2025-04-11 20:12:53.007929600,1.9689296875,-2.245088372531533,-0.8493763566881418,-1.52066993637681
2025-04-11 20:12:53.017903600,1.978903564453125,-1.3784458237439394,-1.2316074953138827,-0.2236171783365309
2025-04-11 20:12:53.027877600,1.988877685546875,-0.8813637325793504,-1.7710127706840633,0.7918461779352277
2025-04-11 20:12:53.037850600,1.9988505859375,-1.8270020766705273,-1.8281407253116368,1.886479517033696
2025-04-11 20:12:53.047824600,2.00882470703125,-2.1061112789958716,-1.3776058657884598,1.7899561022154986
2025-04-11 20:12:53.057798700,2.018798583984375,-1.538486163574457,-1.1100842254042624,1.440067874920368
2025-04-11 20:12:53.067772700,2.028772705078125,-1.3591332205086946,-0.7991165342643857,1.3308613580092787
2025-04-11 20:12:53.077745400,2.038745361328125,-1.9093366610080005,-0.1402411221221089,0.9981552977919578
2025-04-11 20:12:53.087719400,2.048719482421875,-2.444171851983666,0.3158054865598678,0.756749364786595
2025-04-11 20:12:53.097693400,2.058693359375,-2.122275647333264,0.4237207946166396,0.4723611260797828
2025-04-11 20:12:53.107667500,2.06866748046875,-1.4147230057835578,0.5188011710196733,-0.0171517536732368
2025-04-11 20:12:53.117641500,2.078641357421875,-0.9979793567031622,0.3472270452618599,-0.4157528844773769
2025-04-11 20:12:53.127614500,2.088614501953125,-1.3059265309780836,-0.5282485060617328,-0.3856295123597607
2025-04-11 20:12:53.137588500,2.09858837890625,-3.810658357864618,-2.8629961067304013,1.2754245713390409
2025-04-11 20:12:53.147562500,2.1085625,-4.310683516743779,-4.619281848403811,1.970416714262217
2025-04-11 20:12:53.157536500,2.11853662109375,-1.97933023468852,-3.5435531893268224,1.2994623034000397
2025-04-11 20:12:53.167509500,2.128509521484375,-1.5658493867963552,-2.320114095160365,0.6980040380902588
2025-04-11 20:12:53.177483500,2.1384833984375,-2.7703029177248477,-1.5017147682771086,0.2976965600259602
2025-04-11 20:12:53.187457500,2.14845751953125,-4.250719169646501,-0.3550274898797273,0.4157583278374746
2025-04-11 20:12:53.197431600,2.158431640625,-4.93741665469408,0.5186828053370118,0.3693993853097781
2025-04-11 20:12:53.207404500,2.168404541015625,-4.134607987913489,1.1271505110174418,0.4224340427417308
2025-04-11 20:12:53.217378600,2.178378662109375,-2.7670301796644923,1.5752961373165248,0.6465089747831225
2025-04-11 20:12:53.227352600,2.1883525390625,-0.945229763290286,1.772951045270264,0.902198723076284
2025-04-11 20:12:53.237326600,2.19832666015625,1.0371960993260143,1.5863415552049875,1.1113993996560574
2025-04-11 20:12:53.247300600,2.208300537109375,2.542020231795311,1.2951353801116348,1.4010498697400091
2025-04-11 20:12:53.257273300,2.2182734375,3.1010271564751863,1.180376782031357,1.577002648973465
2025-04-11 20:12:53.267247400,2.228247314453125,2.74685482212007,1.3043074053436516,1.6298822985067962
2025-04-11 20:12:53.277221400,2.238221435546875,1.7384698067367077,1.6186977644085885,1.5722238902643322
2025-04-11 20:12:53.287195400,2.2481953125,0.5836433532863855,1.876019497817755,1.3626771767258643
2025-04-11 20:12:53.297168400,2.25816845703125,-0.11231062040627,1.968230164003372,0.9045555153355002
2025-04-11 20:12:53.307142400,2.268142333984375,-0.1519482187896967,1.924068950715661,0.5037945578826591
2025-04-11 20:12:53.317116400,2.278116455078125,0.4383271198570728,1.7348597995460031,0.138134687894769
2025-04-11 20:12:53.327090400,2.28809033203125,1.452584242144227,1.4479282330319283,-0.2327280114332214
2025-04-11 20:12:53.337063400,2.2980634765625,2.554097623080015,1.2130495098382237,-0.5904594995746388
2025-04-11 20:12:53.347037400,2.308037353515625,3.555609245562553,0.9619301382005214,-0.6341942676112056
2025-04-11 20:12:53.357011500,2.318011474609375,4.092973662754893,0.6966051310777663,-0.4443003855803981
2025-04-11 20:12:53.366985500,2.3279853515625,4.195049889394641,0.5068152574107051,0.0462065649775788
2025-04-11 20:12:53.376959500,2.33795947265625,4.0557004554152485,0.7223197103098035,0.460066219586879
2025-04-11 20:12:53.386932700,2.3479326171875,3.8945734893918034,0.8087289967402815,0.5960860707521438
2025-04-11 20:12:53.396906500,2.357906494140625,3.53334714487195,0.8422641865953803,0.4535721083272248
2025-04-11 20:12:53.406880500,2.367880615234375,3.312610636538267,0.8322899050697684,0.2134017084661871
2025-04-11 20:12:53.416854500,2.3778544921875,3.412821069306135,0.6702300421103835,-0.2237359093453735
2025-04-11 20:12:53.426827500,2.38782763671875,3.7069337794959543,0.5922501458510756,-0.909711729054898
2025-04-11 20:12:53.436801500,2.397801513671875,4.0840187874048945,0.3352686041817069,-1.5375529743775724
2025-04-11 20:12:53.446775600,2.407775634765625,3.990431572169065,-0.0928366891294717,-2.1297075508996843
2025-04-11 20:12:53.456749000,2.4177490234375,2.354562308207154,-0.592404167369008,-2.7351553242370485
2025-04-11 20:12:53.466723000,2.42772314453125,1.4238848018825054,-1.1831529687464235,-1.522385800383985
2025-04-11 20:12:53.476695800,2.43769580078125,1.2501052750349044,-2.400612988503277,-1.0542186919279397
2025-04-11 20:12:53.486669800,2.447669921875,1.0521996071904898,-2.6999162530735132,-0.7587775096133351
2025-04-11 20:12:53.496643800,2.457643798828125,0.1839882016509771,-2.679973827502131,-0.7849385174386203
2025-04-11 20:12:53.506617900,2.467617919921875,-1.1992033553153276,-2.511273503614962,-1.0163415273457763
2025-04-11 20:12:53.516590800,2.4775908203125,-2.522758481964469,-2.071736131185293,-1.2975211062043903
2025-04-11 20:12:53.526564900,2.48756494140625,-3.4718729777336117,-1.7086939694151282,-1.496610284744948
2025-04-11 20:12:53.536539000,2.497538818359375,-3.7679607873886822,-1.566976344999671,-1.0174384557370095
2025-04-11 20:12:53.546513000,2.507512939453125,-3.3066999511897563,-1.7725997476145623,-0.3817198281027376
2025-04-11 20:12:53.556486000,2.51748583984375,-2.4143892926603554,-1.8360262178644535,0.0636986382547765
2025-04-11 20:12:53.566460000,2.5274599609375,-2.14259304369688,-1.5119628983080386,0.0167141842398792
2025-04-11 20:12:53.576434000,2.537433837890625,-2.9382670362919567,-1.069653430816531,-0.0792654790904372
2025-04-11 20:12:53.586408000,2.547407958984375,-3.731248136541247,-0.6465437538355588,-0.5138471288088708
2025-04-11 20:12:53.596382000,2.5573818359375,-3.63995049354732,-0.1766302401036024,-1.085898536239937
2025-04-11 20:12:53.606355000,2.56735498046875,-3.1654514055907725,0.2593316119268536,-1.2631515113517642
2025-04-11 20:12:53.616329000,2.577328857421875,-2.2963117792904377,0.4717284541994333,-1.3646002537429331
2025-04-11 20:12:53.626303000,2.587302978515625,-1.3635790940016508,0.2596393627017736,-1.37433225094527
2025-04-11 20:12:53.636277000,2.597277099609375,-1.8120383162945508,0.0458332381531596,-0.8464225483838468
2025-04-11 20:12:53.646250000,2.60725,-2.9991631112813946,0.3161027159407735,-0.2862535941872746
2025-04-11 20:12:53.656223700,2.6172236328125,-4.131523465901613,1.1036465935721993,-0.2452265872720629
2025-04-11 20:12:53.666197800,2.62719775390625,-4.64227869310975,1.9837661713093515,-0.7139716417465358
2025-04-11 20:12:53.676171800,2.637171875,-4.466543356019258,2.662294086165726,-1.1987279198233038
2025-04-11 20:12:53.686145800,2.647145751953125,-4.372558665898442,2.8851415953040123,-1.2453870143413543
2025-04-11 20:12:53.696118800,2.657118896484375,-3.6173330035477873,2.617504511846602,-1.3946093152984975
2025-04-11 20:12:53.706092800,2.6670927734375,-1.140018175897002,2.269156061339378,-1.598285675498843
2025-04-11 20:12:53.716066800,2.67706689453125,1.0345780257821082,2.184265362778306,-1.1944115909941493
2025-04-11 20:12:53.726040800,2.687040771484375,0.6727244892746209,1.9801430123761297,-1.2851117064863442
2025-04-11 20:12:53.736013800,2.697013916015625,0.1712310114085674,1.9488687531903384,-1.2628214026145637
2025-04-11 20:12:53.745987800,2.70698779296875,-0.0405512060970068,1.767880025616288,-0.7729530422210693
2025-04-11 20:12:53.755961900,2.7169619140625,0.1787380260378122,1.0530135539218783,0.0785749943419359
2025-04-11 20:12:53.765935900,2.726935791015625,0.6348708516985178,0.3982131361335516,0.4933156878357753
2025-04-11 20:12:53.775908900,2.736908935546875,1.52768244548738,0.1270595689877867,0.6435999554686248
2025-04-11 20:12:53.785883000,2.7468828125,2.4702444508731363,-0.1762941400170326,0.7394597187463193
2025-04-11 20:12:53.795857000,2.75685693359375,3.6510464725792406,-0.3719321551904082,0.7877480949666351
2025-04-11 20:12:53.805831000,2.766830810546875,4.833261283692718,-0.3035372488781809,0.6842256881065666
2025-04-11 20:12:53.815805000,2.776804931640625,5.796227194681763,-0.2826736168086529,0.5305634319406003
2025-04-11 20:12:53.825778000,2.78677783203125,6.481178712844848,-0.6028317456200718,0.689930037228018
2025-04-11 20:12:53.835751700,2.796751708984375,6.514462558287382,-0.812870334328711,0.8629954975221306
2025-04-11 20:12:53.845725700,2.8067255859375,6.21584143076241,-0.9808172095000744,0.7491186507124453
2025-04-11 20:12:53.855699700,2.81669970703125,5.604184281390905,-1.0735501459941268,0.4985620275240391
2025-04-11 20:12:53.865672700,2.826672607421875,4.609705626285076,-1.4829951624989508,0.6100031716194003
2025-04-11 20:12:53.875646700,2.836646728515625,3.7209991297274825,-1.1273413574144244,0.5563682467393577
2025-04-11 20:12:53.885620700,2.846620849609375,3.2315374504387377,-0.7115621694520116,0.03476597375907
2025-04-11 20:12:53.895594800,2.8565947265625,2.792318934699893,-0.1063514197409152,-0.2119210231880657
2025-04-11 20:12:53.905568800,2.86656884765625,1.7319763530641794,0.262810978475213,-0.5381159296793863
2025-04-11 20:12:53.915541800,2.876541748046875,1.19966512760818,-0.2112967720761895,-0.3780232386071234
2025-04-11 20:12:53.925515800,2.886515869140625,0.5250444493234158,-0.9806006441399454,0.8490637836076319
2025-04-11 20:12:53.935489800,2.89648974609375,0.3993237277239561,-2.07028651689887,1.2174128926794976
2025-04-11 20:12:53.945463800,2.9064638671875,-0.3669102353751659,-2.144382557462156,0.7596964510891586
2025-04-11 20:12:53.955437000,2.91643701171875,-1.6716092703849077,-1.375257549096644,0.1009763939053751
2025-04-11 20:12:53.965411000,2.9264111328125,-3.314076617437601,-0.6379512820571661,-0.4425062321726232
2025-04-11 20:12:53.975384800,2.936384765625,-4.642375139221548,-0.2738315541833639,-0.6140080964118242
2025-04-11 20:12:53.985358800,2.94635888671875,-5.183125107198953,-0.3097951402291655,-0.6307595439221709
2025-04-11 20:12:53.995332000,2.95633203125,-5.234882766965032,-0.4117340042248368,-0.7568091321498155
2025-04-11 20:12:54.005306000,2.96630615234375,-5.172113299319148,-0.5347589108690619,-0.897185936415568
2025-04-11 20:12:54.015280000,2.976280029296875,-5.074335062134265,-0.7653726700946688,-0.9546305557768792
2025-04-11 20:12:54.025254000,2.98625390625,-4.56441570122838,-1.2663617055699228,-0.9246353035509586
2025-04-11 20:12:54.035227600,2.9962275390625,-3.584692132183909,-1.6539155005231498,-0.755109707820788
2025-04-11 20:12:54.045201000,3.006200927734375,-2.996702858647704,-1.7482269383803009,-0.131696106214635
2025-04-11 20:12:54.055175000,3.0161748046875,-3.1266052498459813,-1.6456661430940032,0.3791750024581328
2025-04-11 20:12:54.065149000,3.02614892578125,-3.240585849291086,-1.689093196888268,0.247747958975844
2025-04-11 20:12:54.075123000,3.036123046875,-3.858497967404127,-1.2675836485803127,0.339568201071769
2025-04-11 20:12:54.085096000,3.046095947265625,-4.36864587636888,-0.3710515729635953,0.7547564374037087
2025-04-11 20:12:54.095070000,3.056070068359375,-3.976545085635781,0.6881856777787209,0.8501412035807967
2025-04-11 20:12:54.105044000,3.0660439453125,-3.191180305609107,1.736618918173015,0.930233561949432
2025-04-11 20:12:54.115018000,3.07601806640625,-2.2027298247516156,2.1668638538613916,1.1656843128774317
2025-04-11 20:12:54.124991000,3.085990966796875,-1.0329711751073598,2.08468562912941,1.3788055969670414
2025-04-11 20:12:54.134965000,3.095965087890625,0.3160194215714931,1.9937112267404793,1.5913297188811004
2025-04-11 20:12:54.144939000,3.10593896484375,1.5127742146909235,1.7801394954696297,1.6714542259536682
2025-04-11 20:12:54.154913000,3.1159130859375,2.0625445244699714,1.5269111688539383,1.658215828065574
2025-04-11 20:12:54.164886000,3.125885986328125,1.887467943549156,1.4313041382282972,1.6384905523762106
2025-04-11 20:12:54.174860000,3.135860107421875,1.262137073612213,1.2721926036804914,1.4078430370114745
2025-04-11 20:12:54.184834000,3.145833984375,0.7525082200855017,1.3304217975482344,0.8695547829724848
2025-04-11 20:12:54.194808000,3.15580810546875,0.5143921224057674,1.6187492023348808,0.073247013385361
2025-04-11 20:12:54.204782000,3.165781982421875,0.7388917826652527,1.9381261176407336,-0.8091212109282613
2025-04-11 20:12:54.214754800,3.1757548828125,1.344051971232891,2.0647949337452647,-1.5969290001928806
2025-04-11 20:12:54.224728800,3.185728759765625,2.1005109747707844,1.8509727348446845,-1.7847618945732713
2025-04-11 20:12:54.234702800,3.195702880859375,3.046212447226047,1.1642267344802617,-1.4243093109048903
2025-04-11 20:12:54.244676900,3.2056767578125,4.045141067478061,0.4432078776359557,-0.830253650001809
2025-04-11 20:12:54.254649900,3.21564990234375,4.696556226742267,0.1016404655709862,-0.5533718779349699
2025-04-11 20:12:54.264623900,3.225623779296875,4.730861816447973,-0.2087353971555829,-0.3697749771565198
2025-04-11 20:12:54.274598000,3.235597900390625,4.292145405012369,-0.2883651064485311,-0.3690730394322425
2025-04-11 20:12:54.284572000,3.245572021484375,3.6018700614780186,-0.1738163517266512,-0.7002475061681122
2025-04-11 20:12:54.294545000,3.255544921875,3.008946838670969,0.1301870533585548,-1.038141344286874
2025-04-11 20:12:54.304519000,3.265518798828125,2.6093694284468887,0.6365668419614434,-1.5191232914566992
2025-04-11 20:12:54.314493000,3.275492919921875,2.9036463892877102,0.9105039023458956,-1.8689979286178944
2025-04-11 20:12:54.324467000,3.285467041015625,3.497244150355458,0.899531549693644,-2.0543505504898727
2025-04-11 20:12:54.334440000,3.29543994140625,3.780170865142346,0.5881307278335094,-1.7701437327645717
2025-04-11 20:12:54.344414000,3.3054140625,3.7260698571205135,-0.1885857585743069,-1.3036080249026416
2025-04-11 20:12:54.354388000,3.315387939453125,3.036662528592348,-1.2428247626379132,-0.7397898274835198
2025-04-11 20:12:54.364362000,3.325362060546875,0.9038590575039386,-2.4379408486396072,0.411213195221126
2025-04-11 20:12:54.374336000,3.3353359375,-2.456910337525606,-3.150901486712694,1.5185726718366146
2025-04-11 20:12:54.384308700,3.345308837890625,-2.6062352220743894,-2.654770997184515,0.4342530022859573
2025-04-11 20:12:54.394282800,3.35528271484375,-1.8065479021847248,-1.838106531269848,-0.9107179104227572
2025-04-11 20:12:54.404256800,3.3652568359375,-1.1836276005208493,-1.259969666445255,-1.1340714693870395
2025-04-11 20:12:54.414230800,3.375230712890625,-0.9823942495584488,-1.5251801072776316,-0.7003668947640806
2025-04-11 20:12:54.424203800,3.385203857421875,0.0139607208132743,-1.7726643372833728,0.0858819015555083
2025-04-11 20:12:54.434177800,3.395177734375,-2.074306273934245,-1.541731136845052,-0.0004223170652985
2025-04-11 20:12:54.444151800,3.40515185546875,-3.0931063003480435,-0.7595043625831603,-0.3342437181133776
2025-04-11 20:12:54.454126300,3.415126220703125,-3.216887578317523,0.0892567848160862,-0.9770059075836092
2025-04-11 20:12:54.464099300,3.425099365234375,-3.2127082468062635,0.1450324480518698,-1.0115904603611676
2025-04-11 20:12:54.474073300,3.4350732421875,-2.7352409566938873,-0.5844093692228197,-1.0334833624131976
2025-04-11 20:12:54.484047400,3.44504736328125,-2.4822002616047856,-1.2091107090845703,-1.3761670651569962
2025-04-11 20:12:54.494021400,3.455021484375,-2.295595155453682,-1.0613888758182526,-1.2914831412144006
2025-04-11 20:12:54.503994400,3.464994384765625,-2.510019996422529,-0.9808911515191197,-0.7532567734304815
2025-04-11 20:12:54.513968400,3.474968505859375,-2.9022213249206543,-1.000217783279717,-0.7340254918031394
2025-04-11 20:12:54.523942400,3.4849423828125,-2.5964696148633957,-0.797288149793446,-0.4391290108244866
2025-04-11 20:12:54.533916400,3.49491650390625,-2.172754373204708,-2.030686912438273,0.7594037517528981
2025-04-11 20:12:54.543889400,3.504889404296875,-4.179163753476739,-0.5292123826578259,1.5941016678124664
2025-04-11 20:12:54.553863200,3.51486328125,-4.523718364658952,1.2884028569862245,0.1391094146784394
2025-04-11 20:12:54.563837200,3.524837158203125,-2.706177943816781,2.2956740659087895,-1.1983184622395784
2025-04-11 20:12:54.573811200,3.534811279296875,-2.465010057350993,3.5358319474250077,-2.220962816056609
2025-04-11 20:12:54.583784400,3.544784423828125,-2.2144909896939993,3.957359908172488,-2.845522117099166
2025-04-11 20:12:54.593758500,3.554758544921875,-0.9456219774782656,3.290451996222138,-2.31838858654201
2025-04-11 20:12:54.603732200,3.564732177734375,-0.0707557902246713,2.411494740262627,-1.5751711957626044
2025-04-11 20:12:54.613706200,3.574706298828125,-0.630375878366828,2.002632199820876,-0.8483473059013485
2025-04-11 20:12:54.623680300,3.58468017578125,-0.924873203960061,1.846547611878812,-0.7576119729653
2025-04-11 20:12:54.633653500,3.594653564453125,-0.7911533003002404,1.749880843067169,-0.8531361476130783
2025-04-11 20:12:54.643627500,3.60462744140625,-0.4855582421094179,1.5503591183282437,-0.8583664494819938
2025-04-11 20:12:54.653601500,3.6146015625,-0.4264958122879266,1.0859611531473696,-0.615055705768615
2025-04-11 20:12:54.663575300,3.6245751953125,0.7246645198702811,0.6077950671158731,-0.1460112664887681
2025-04-11 20:12:54.673548500,3.634548583984375,2.786727982825041,-0.0721314624920487,0.0517111720095388
2025-04-11 20:12:54.683522600,3.6445224609375,5.109655381840467,-0.6072103990957141,0.3343789618656039
2025-04-11 20:12:54.693496600,3.65449658203125,6.680628687521815,-0.9384564697630704,0.5653396713653579
2025-04-11 20:12:54.703470600,3.664470703125,6.858079596358538,-1.1567694042116403,0.717373632209748
2025-04-11 20:12:54.713443300,3.674443359375,5.988788578888774,-1.1783750868201257,0.8391068916082381
2025-04-11 20:12:54.723417300,3.684417236328125,5.403830051350593,-1.0782676760353147,0.9931409767612814
2025-04-11 20:12:54.733391400,3.694391357421875,4.717226089805364,-1.0041831797793508,0.7754130756590515
2025-04-11 20:12:54.743365400,3.704365478515625,3.68857160885334,-0.7959612851038574,0.66559032654576
2025-04-11 20:12:54.753338400,3.71433837890625,3.2658407020568845,-0.4607081707522272,0.1369101328021846
2025-04-11 20:12:54.763312400,3.7243125,3.0075679515331983,-0.6535346356362104,-0.0935275300709996
2025-04-11 20:12:54.773286400,3.734286376953125,2.4788135417759416,-1.1379629969328642,-0.1624103203648701
2025-04-11 20:12:54.783260400,3.744260498046875,2.458840428805351,-1.5313333692103623,-0.0728471730133518
2025-04-11 20:12:54.793233400,3.7542333984375,2.6274247250974176,-2.065552327983826,0.0873099250646308
2025-04-11 20:12:54.803207400,3.76420751953125,2.4613614717155694,-2.327085395477712,0.3404970063544809
2025-04-11 20:12:54.813181400,3.774181396484375,0.8127987303972244,-2.011594089433551,-0.1583701415959745
2025-04-11 20:12:54.823155500,3.784155517578125,-1.6382237181335686,-1.3006765014953912,-1.2619402358658611
2025-04-11 20:12:54.833128400,3.79412841796875,-2.622091547375917,-1.037946917693317,-1.7354129033841192
2025-04-11 20:12:54.843102500,3.8041025390625,-3.00183846797049,-1.2115014036133884,-1.3915645407751205
2025-04-11 20:12:54.853076500,3.814076416015625,-2.8339485836833713,-1.313103144609183,-0.6778050074093044
2025-04-11 20:12:54.863050500,3.824050537109375,-2.78790462538898,-1.2480351907625793,-0.4191674421612173
2025-04-11 20:12:54.873023500,3.8340234375,-2.9344869332313537,-0.7257181205764413,-0.134056953594461
2025-04-11 20:12:54.882997200,3.843997314453125,-2.807960155946016,-0.1451880770049989,0.1552835372248664
2025-04-11 20:12:54.892971300,3.85397119140625,-2.759434902229905,0.2299865672379732,0.1355051431087777
2025-04-11 20:12:54.902945300,3.8639453125,-2.788718279859423,0.3030914048068225,-0.0382473861340433
2025-04-11 20:12:54.912918300,3.873918212890625,-2.7444892620325088,-0.2323991813376545,-0.2281685214979573
2025-04-11 20:12:54.922892300,3.883892333984375,-2.25772047508955,-0.6918311946742236,-0.0745894866360351
2025-04-11 20:12:54.932866300,3.8938662109375,-1.7517232560634612,-0.7783245061263442,0.3710258905330673
2025-04-11 20:12:54.942840300,3.90384033203125,-1.5313976666182278,-0.792796245201677,0.7543227221615612
2025-04-11 20:12:54.952813300,3.913813232421875,-2.065178964626789,-0.8576841663062572,1.0585082058154045
2025-04-11 20:12:54.962787300,3.923787353515625,-3.179958069849014,-0.6402538599111139,1.427354962211102
2025-04-11 20:12:54.972761300,3.93376123046875,-4.60803740081191,-0.1273566522382199,1.8196628198236229
2025-04-11 20:12:54.982735400,3.9437353515625,-5.3179409894019365,0.5897540912516415,1.7818518523454665
2025-04-11 20:12:54.992708400,3.953708251953125,-4.724015896075963,1.1637697844929993,1.4933724718675017
2025-04-11 20:12:55.002682400,3.963682373046875,-3.446200776338577,1.617448933391273,1.3823176967412232
2025-04-11 20:12:55.012656400,3.973656494140625,-1.9605746808141469,1.8909920260220765,1.4726460563115775
2025-04-11 20:12:55.022630400,3.98363037109375,-0.4063613712757825,1.803533815060556,1.666223631823808
2025-04-11 20:12:55.032603400,3.993603271484375,0.8718412864744662,1.6185592327207323,2.0389976446658373
2025-04-11 20:12:55.042577400,4.003577392578125,1.4593682031959294,1.5627943831399085,2.198545232543349
2025-04-11 20:12:55.052551400,4.013551513671875,1.0281856943964958,1.7080141704574223,1.9551897729054093
2025-04-11 20:12:55.062525200,4.023525146484375,-0.021434417694807,2.0069839652895927,1.3961495304778218
2025-04-11 20:12:55.072498400,4.03349853515625,-0.8568243346065282,2.2787980421707035,0.7479694076120853
2025-04-11 20:12:55.082472400,4.043472412109375,-1.2061170802265404,2.3909590249732133,0.1449599673375487
2025-04-11 20:12:55.092446200,4.0534462890625,-0.9382979182004928,2.4676310535043475,-0.1258123819382861
2025-04-11 20:12:55.102420200,4.063420166015625,-0.1111310552328825,2.4248186244770884,-0.2493838530819863
2025-04-11 20:12:55.112393500,4.0733935546875,1.0261743545740842,2.0372771044835445,-0.243832721760869
2025-04-11 20:12:55.122367500,4.083367431640625,2.2672078498810526,1.320828624294698,-0.1940614865716546
2025-04-11 20:12:55.132341500,4.093341552734375,3.5059582026869056,0.6361243588909506,-0.1962978490552865
2025-04-11 20:12:55.142315300,4.103315185546875,4.4998698715597385,0.172783501547575,-0.036795159765426
2025-04-11 20:12:55.152288500,4.11328857421875,5.1178948023974895,-0.109679102858901,0.057302470944263
2025-04-11 20:12:55.162262500,4.123262451171875,5.01708932634592,-0.2094718947365879,0.0657810340194031
2025-04-11 20:12:55.172236500,4.133236572265625,4.294591629120707,-0.3316068668037653,-0.0993350107733625
2025-04-11 20:12:55.182210600,4.14321044921875,3.5002176132082936,-0.3911789997130632,-0.3749490187935531
2025-04-11 20:12:55.192183600,4.15318359375,2.7940783455878493,-0.4624035764932632,-0.3671458342293277
2025-04-11 20:12:55.202157600,4.163157470703125,2.3899837502002717,-0.730491034066677,-0.3331931861471384
2025-04-11 20:12:55.212131600,4.173131591796875,2.096630333945155,-1.024425172819197,-0.4335674677072093
2025-04-11 20:12:55.222105600,4.183105712890625,2.018324858993292,-1.209928455208242,-0.703283074471727
2025-04-11 20:12:55.232078300,4.193078369140625,1.8763930073052644,-1.250887365323305,-0.9657746847994624
2025-04-11 20:12:55.242052400,4.20305224609375,1.5642378599464892,-1.2667203097492457,-1.1581454418051986
2025-04-11 20:12:55.252026400,4.2130263671875,1.0921312200844286,-1.1943281504943966,-1.1843332645721734
2025-04-11 20:12:55.262000400,4.22300048828125,0.1979120975852012,-1.1734946213021873,-0.951650370922312
2025-04-11 20:12:55.271973400,4.232973388671875,-1.0044593663722277,-1.293262279716134,-0.649465413435921
2025-04-11 20:12:55.281947400,4.242947509765625,-2.0888316428929565,-1.3989756938144564,-0.521990906971693
2025-04-11 20:12:55.291921400,4.25292138671875,-2.6940894466161724,-1.069997129687667,-0.4145343024678528
2025-04-11 20:12:55.301895400,4.2628955078125,-2.78340848301351,-0.576335368360579,0.0601872326003387
2025-04-11 20:12:55.311868400,4.272868408203125,-2.3012825534403323,-0.7485039528802037,1.3648055670566857
2025-04-11 20:12:55.321842400,4.282842529296875,-1.8162836987793445,-0.8967337356686591,0.3983805651223286
2025-04-11 20:12:55.331816400,4.29281640625,-1.0261053809911012,-0.7134931375145912,1.5190524181775749
2025-04-11 20:12:55.341790500,4.30279052734375,-0.6930600058168173,-1.1303303100973368,1.581218805363774
2025-04-11 20:12:55.351763500,4.312763427734375,-1.0879396136134862,-1.15674163942188,1.7108192910060285
2025-04-11 20:12:55.361737500,4.322737548828125,-1.6087760898530483,-1.0299293231934308,1.8271261414416131
2025-04-11 20:12:55.371711500,4.33271142578125,-2.3235054911643265,-1.1678259280160068,1.977207689576596
2025-04-11 20:12:55.381685500,4.342685546875,-3.2608693433851004,-1.0906026953428982,1.089961474829912
2025-04-11 20:12:55.391658200,4.352658203125,-3.5402187842071053,-0.4511503610730171,-0.3843384861685335
2025-04-11 20:12:55.401632300,4.36263232421875,-2.624132697814703,-0.022197218760848,-1.1403652357690035
2025-04-11 20:12:55.411606300,4.372606201171875,-1.2832915053218603,-0.0335834129109978,-1.3718746286600827
2025-04-11 20:12:55.421580300,4.382580322265625,-0.5568985542237759,0.1448351719141006,-1.720255520132184
2025-04-11 20:12:55.431553300,4.39255322265625,-0.1884621321946382,0.6700155225768685,-1.9669196659266948
2025-04-11 20:12:55.441527300,4.40252734375,-0.1925467711597681,1.4206690547063945,-1.9961584737621247
2025-04-11 20:12:55.451501300,4.412501220703125,-0.7748030540019273,2.240580831979215,-2.148722778623551
2025-04-11 20:12:55.461475000,4.42247509765625,-1.5385025301873685,2.793039942450821,-2.4512112491011617
2025-04-11 20:12:55.471448000,4.432447998046875,-2.323901212483644,2.9627123262405393,-2.5240961603090164
2025-04-11 20:12:55.481422000,4.442422119140625,-2.957975360846519,3.016464666955173,-2.501017774799466
2025-04-11 20:12:55.491396000,4.45239599609375,-3.0955490173250433,3.0346935666069386,-2.4242672742046416
2025-04-11 20:12:55.501370000,4.4623701171875,-3.1376994753122327,2.8436984088033435,-2.407014672239125
2025-04-11 20:12:55.511343400,4.47234326171875,-2.3274691340982914,2.538912913429737,-2.2892010705024
2025-04-11 20:12:55.521317000,4.482317138671875,-1.1153116046637297,2.109863032744825,-2.037209446074814
2025-04-11 20:12:55.531291100,4.492291015625,-0.0638432343572378,1.65186382869035,-1.88209399542585
2025-04-11 20:12:55.541265200,4.50226513671875,1.0409224263727663,1.46310651294142,-1.8771254132330415
2025-04-11 20:12:55.551238100,4.512238037109375,1.7993956923425196,1.23221861294955,-1.648706095311791
2025-04-11 20:12:55.561212200,4.522212158203125,2.247604154744744,0.8664356280386447,-1.0304399761293084
2025-04-11 20:12:55.571186200,4.532186279296875,2.624270644980669,0.4914163204878568,-0.4713575019951909
2025-04-11 20:12:55.581160200,4.54216015625,3.208494428503513,0.2825564201697707,-0.0075305142358411
2025-04-11 20:12:55.591133200,4.55213330078125,4.567698960682749,0.3873974353477358,-0.0336214798990637
2025-04-11 20:12:55.601107200,4.562107177734375,5.663485196143388,0.6917538916543126,-0.1849382323848083
2025-04-11 20:12:55.611081200,4.572081298828125,6.369083781015872,1.0596405708462,-0.3840743188070133
2025-04-11 20:12:55.621055200,4.58205517578125,6.199755972880125,1.205126607884467,-0.7306020932257175
2025-04-11 20:12:55.631028200,4.5920283203125,5.322501429185271,1.2114806530863047,-0.6429525974757969
2025-04-11 20:12:55.641002200,4.602002197265625,4.00148078944981,0.9831582196682692,-0.5598231729662045
2025-04-11 20:12:55.650976300,4.611976318359375,2.949158432662487,0.329182854527235,-0.5072367342257872
2025-04-11 20:12:55.660950300,4.6219501953125,2.5223691903859375,-0.561450810700655,-0.1075326654147356
2025-04-11 20:12:55.670923300,4.63192333984375,2.1670184599012137,-0.9002455431818962,0.0357367915526032
2025-04-11 20:12:55.680897300,4.641897216796875,1.3152555003374815,-1.3047215391024949,-0.1363295747015625
2025-04-11 20:12:55.690871300,4.651871337890625,0.5316062920570374,-1.8808073166161776,0.5536371412750333
2025-04-11 20:12:55.700844000,4.661843994140625,0.7308522685945034,-2.271905360047519,1.1238234124213455
2025-04-11 20:12:55.710818000,4.671818115234375,2.3996166709423066,-1.903516576552391,1.0056309674348682
2025-04-11 20:12:55.720792000,4.6817919921875,2.610931270936131,-1.4438257661491631,0.8745567559782416
2025-04-11 20:12:55.730766000,4.69176611328125,-1.4241694640427829,-1.451019477045536,2.1256468773320316
2025-04-11 20:12:55.740739000,4.701739013671875,-2.356568971854448,-1.6810688803866505,1.866235185906291
2025-04-11 20:12:55.750713000,4.711713134765625,-2.8148054917961356,-1.3372516435682773,1.4395342064350842
2025-04-11 20:12:55.760687000,4.72168701171875,-1.8770020791143176,-1.6587167633250357,1.657302220351994
2025-04-11 20:12:55.770661000,4.7316611328125,-1.673650420823693,-2.0583233996435997,1.9638978338874875
2025-04-11 20:12:55.780634000,4.741634033203125,-2.563071787652373,-1.1430597355499863,1.027650345410779
2025-04-11 20:12:55.790608100,4.751608154296875,-2.5816245124310253,-1.3884563456267118,0.7817292730685323
2025-04-11 20:12:55.800582100,4.76158203125,-1.958352913111448,-1.471465760485828,0.3667736033834516
2025-04-11 20:12:55.810556200,4.77155615234375,-1.943300889930129,-1.134882274313271,-0.237808273839578
2025-04-11 20:12:55.820529200,4.781529052734375,-2.280564759582281,-0.4770291909560561,-0.989353859438002
2025-04-11 20:12:55.830503200,4.791503173828125,-3.3852760597765443,0.1240641865640878,-0.9514490031313152
2025-04-11 20:12:55.840477200,4.801477294921875,-4.039880954992771,-0.1324851011678576,-0.9084673550169916
2025-04-11 20:12:55.850451200,4.811451171875,-4.2482805443227285,0.001185994914174,-0.6659691697955131
2025-04-11 20:12:55.860424000,4.821423828125,-4.188826484835148,0.705968294967711,-0.1669889899246394
2025-04-11 20:12:55.870398000,4.83139794921875,-3.943658130556345,1.1452514003753662,0.4070892471589147
2025-04-11 20:12:55.880372000,4.8413720703125,-3.402306105032563,1.4264049680098891,0.8753859733439981
2025-04-11 20:12:55.890346000,4.851345947265625,-3.047912236881256,2.1313094331383704,0.9365846845418214
2025-04-11 20:12:55.900319000,4.861319091796875,-2.8193413816601036,2.461690265278518,1.113139082930237
2025-04-11 20:12:55.910293000,4.87129296875,-2.7600498192578553,2.954536910830438,1.0522647813811898
2025-04-11 20:12:55.920267000,4.88126708984375,-2.6018074687600135,3.2345462768658995,0.8423049569971859
2025-04-11 20:12:55.930241000,4.891240966796875,-2.174290496730804,2.4820444865211844,1.1543531368501485
2025-04-11 20:12:55.940214300,4.90121435546875,-1.905918376997113,2.284675702032447,1.107476088732481
2025-04-11 20:12:55.950188000,4.91118798828125,-1.6467483853727578,2.453314358860254,0.5939595801174641
2025-04-11 20:12:55.960162000,4.921162109375,-1.002248704585433,1.9331690797552463,0.5182837230168282
2025-04-11 20:12:55.970136000,4.931135986328125,-0.5172428356617689,1.1131105874881149,1.0070382769495247
2025-04-11 20:12:55.980109300,4.941109375,-1.0328431648135186,0.2715314605474472,1.6441823342770336
2025-04-11 20:12:55.990083300,4.951083251953125,-0.7073644255012274,-0.3123150140956044,1.5427920440748333
2025-04-11 20:12:56.000057300,4.961057373046875,0.8339023087024688,0.2427311902597546,0.6675283819362521
2025-04-11 20:12:56.010030000,4.971030029296875,1.9553104766756295,0.6996884840458631,-0.0897341930694878
2025-04-11 20:12:56.020004000,4.981004150390625,3.4266467655628916,0.4268038553237915,-0.3647254386819898
2025-04-11 20:12:56.029978000,4.99097802734375,4.2724476018518205,0.2145025823801755,-0.5719435631424188
2025-04-11 20:12:56.039952100,5.0009521484375,4.43155212213695,-0.0120204004004597,-0.6810878284722566
2025-04-11 20:12:56.049925000,5.010925048828125,4.197110329055786,-0.1812839111283421,-0.7451169407904148
2025-04-11 20:12:56.059899100,5.020899169921875,3.91049002044797,0.0110156072720885,-0.995393870254606
2025-04-11 20:12:56.069873200,5.030873046875,3.777424196782708,0.2449336687400937,-1.1342156270980834
2025-04-11 20:12:56.079847200,5.04084716796875,3.768192842578887,0.3606199030593037,-0.984141458551958
2025-04-11 20:12:56.089820200,5.050820068359375,3.797234812667966,0.2151338660210371,-0.6232889157805591
2025-04-11 20:12:56.099794200,5.060794189453125,3.773469321677089,-0.189488260371983,-0.160168313591741
2025-04-11 20:12:56.109768200,5.070768310546875,3.1612603836417197,-0.3378410850182175,0.0890338536472525
2025-04-11 20:12:56.119742200,5.0807421875,2.065895588463545,-0.5390384878844022,0.1208617737935855
2025-04-11 20:12:56.129715200,5.090715087890625,1.0343214206725355,-0.7882517336398362,0.2429649442167021
2025-04-11 20:12:56.139689200,5.100689208984375,1.6123077711105345,-0.8590136613443493,-0.0255683071957202
2025-04-11 20:12:56.149663200,5.110663330078125,2.185106489777565,-0.5630816267728805,-0.7087604829695076
2025-04-11 20:12:56.159637200,5.12063720703125,2.2015625345379113,-0.5012105692714452,-0.7302732265975326
2025-04-11 20:12:56.169610000,5.13060986328125,1.5186001443654298,-0.9638561378270388,-0.3297800897680222
2025-04-11 20:12:56.179584000,5.140583984375,0.2169511445760726,-1.2812062234804034,0.0126820883127395
2025-04-11 20:12:56.189558000,5.15055810546875,-1.089782611131668,-1.3670806723818183,0.2557449125465005
2025-04-11 20:12:56.199532000,5.160531982421875,-2.444114568838477,-1.3277563777312635,0.4018326418049633
2025-04-11 20:12:56.209505000,5.170505126953125,-3.7775644820362326,-1.0631763437569142,0.3293094035163522
2025-04-11 20:12:56.219479000,5.18047900390625,-4.675437450867891,-0.6100146428614854,0.0361342116386629
2025-04-11 20:12:56.229453000,5.190453125,-4.83068178859353,-0.4968494514524936,-0.2764933572711422
2025-04-11 20:12:56.239426000,5.200426025390625,-4.097220214283466,-0.5933171905606984,-0.2169236537809483
2025-04-11 20:12:56.249400000,5.210400146484375,-2.9201152935296295,-0.8938330457910895,0.0611432181509211
2025-04-11 20:12:56.259374000,5.2203740234375,-1.974645876264572,-1.211474223345518,0.2935049900876358
2025-04-11 20:12:56.269348000,5.23034814453125,-1.8285533977657555,-1.1267045208156108,0.3070364891707897
2025-04-11 20:12:56.279321000,5.240321044921875,-2.349003505036235,-0.8343032907187938,-0.0059494555894751
2025-04-11 20:12:56.289295000,5.250295166015625,-3.106435737520456,-0.6419234005585313,-0.5212317957000807
2025-04-11 20:12:56.299269000,5.26026904296875,-4.054623181572556,-0.3271177386909723,-0.7245764762606471
2025-04-11 20:12:56.309243100,5.2702431640625,-4.9318958454459905,0.1664633586153387,-0.8276378414802252
2025-04-11 20:12:56.319216000,5.280216064453125,-4.44742364500761,0.6114268477469682,-1.0528861281499269
2025-04-11 20:12:56.329190100,5.290190185546875,-3.5224966650336977,1.2065317985072732,-0.8621757055718451
2025-04-11 20:12:56.339164200,5.3001640625,-2.5287773038625714,1.3737863075003027,-0.9494813563201576
2025-04-11 20:12:56.349138200,5.31013818359375,-1.8115975867897272,1.5596943712979554,-0.9264208717934788
2025-04-11 20:12:56.359111200,5.320111083984375,-1.6095891598016023,1.6691706450611352,-1.2915326794445514
2025-04-11 20:12:56.369085200,5.330085205078125,-1.416750127696991,2.02676740090698,-1.8283496918872
2025-04-11 20:12:56.379059200,5.34005908203125,-1.0940373459666968,2.1529057633966207,-2.3426452220506966
2025-04-11 20:12:56.389033000,5.350032958984375,-0.3610749533504247,2.1033003132283685,-2.6866744941845533
2025-04-11 20:12:56.399006200,5.360006103515625,0.5625462047219276,1.9463959333360197,-2.584204299791157
2025-04-11 20:12:56.408980200,5.369980224609375,0.7808096009403467,1.616561336901784,-2.5140920681670305
2025-04-11 20:12:56.418954200,5.379954345703125,0.5305313563019037,1.4652292041838169,-2.023117353966832
2025-04-11 20:12:56.428928300,5.38992822265625,0.4483446560025215,1.270237962481379,-1.3602854592837392
2025-04-11 20:12:56.438901200,5.3999013671875,0.9176789085417986,1.0127531474649905,-0.5753863240074366
2025-04-11 20:12:56.448875300,5.409875244140625,2.407504209321737,1.0577116486102345,-0.0283421512566506
2025-04-11 20:12:56.458849800,5.419849853515625,3.840480080154538,1.3322440445393322,0.2451141398735344
2025-04-11 20:12:56.468822800,5.42982275390625,4.245111851158738,1.682714309506118,0.2897452722279355
2025-04-11 20:12:56.478796800,5.439796875,3.374220997276902,1.9659765398576856,0.1755760000766255
2025-04-11 20:12:56.488770800,5.449770751953125,4.343583331304789,1.9633117045626045,-0.0942457522097975
2025-04-11 20:12:56.498744800,5.459744873046875,6.908588717368245,1.1807160969883204,0.2823348498409613
2025-04-11 20:12:56.508717800,5.4697177734375,3.557133678650856,0.6782900144472718,1.3704120087616145
2025-04-11 20:12:56.518691800,5.47969189453125,2.816237570425868,0.6329726168617605,0.7176343289725482
2025-04-11 20:12:56.528665900,5.489665771484375,2.9840123039007187,0.7521911169603467,1.0570291462387889
2025-04-11 20:12:56.538640000,5.499639892578125,3.543384554761648,0.3107964262261986,1.3958657451003789
2025-04-11 20:12:56.548612900,5.50961279296875,3.5030899537742135,-0.3738707220375538,1.6628541553907097
2025-04-11 20:12:56.558587000,5.5195869140625,3.9094033942550417,-0.1365694478720426,0.8991774755589663
2025-04-11 20:12:56.568561000,5.529560791015625,3.2819191456764933,0.6118091250628233,-0.5884174358204006
2025-04-11 20:12:56.578535000,5.539534912109375,2.6267349892675873,0.5829091937929392,-0.9966513229697942
2025-04-11 20:12:56.588507600,5.549507568359375,1.3840736004978418,-0.1274725337028503,-0.4244220016885549
2025-04-11 20:12:56.598481700,5.559481689453125,-0.0119341834217309,-0.8831719510450958,-0.0728308337999042
2025-04-11 20:12:56.608455700,5.56945556640625,-0.7162567570090294,-1.0648656120181084,-0.0132347811589017
2025-04-11 20:12:56.618429700,5.5794296875,-0.9119476714134216,-1.1221008264124392,-0.2806963619189336
2025-04-11 20:12:56.628402700,5.589402587890625,-0.8740583780020474,-1.1098328809916973,-0.5617682426193729
2025-04-11 20:12:56.638376700,5.599376708984375,-0.5815525184869766,-1.1133733300775288,-0.6002204671431333
2025-04-11 20:12:56.648350700,5.609350830078125,-0.143693016141653,-1.2732298377737403,-0.5255647103378549
2025-04-11 20:12:56.658324700,5.61932470703125,0.2500140407443046,-1.4389754035085438,-0.3017439722532406
2025-04-11 20:12:56.668297700,5.629297607421875,0.104740477412939,-1.661177600480616,0.0631256606724113
2025-04-11 20:12:56.678271700,5.639271728515625,-1.0746709667176009,-1.8778467132449148,0.3944941886756569
2025-04-11 20:12:56.688245800,5.649245849609375,-2.725146263659,-2.0783383059293032,0.3721470035174861
2025-04-11 20:12:56.698218800,5.65921875,-3.992171109312773,-1.6508347779035568,-0.0722135512849315
2025-04-11 20:12:56.708192800,5.66919287109375,-4.651986432653665,-1.3184794308200478,-0.1987137328242883
2025-04-11 20:12:56.718166800,5.679166748046875,-4.587985377386212,-1.813861732329428,0.1124930643010884
2025-04-11 20:12:56.728140800,5.689140869140625,-4.042450513219833,-2.13368814496845,0.2946110881660133
2025-04-11 20:12:56.738113800,5.69911376953125,-3.1805098585128784,-1.8431880723178389,0.6722218004494905
2025-04-11 20:12:56.748087800,5.709087890625,-2.256229944270849,-1.5766627494946122,0.7265526717044413
2025-04-11 20:12:56.758061600,5.7190615234375,-1.5518927576363086,-1.2536945316985248,0.6282022606547921
2025-04-11 20:12:56.768035600,5.72903564453125,-1.3136276068747044,-0.9358782898381351,0.9134800686124712
2025-04-11 20:12:56.778008600,5.739008544921875,-1.499244286510348,-0.6065624565809965,1.4286891334243117
2025-04-11 20:12:56.787982600,5.748982666015625,-2.5681851851433515,0.263288532859087,1.5074074269607662
2025-04-11 20:12:56.797956600,5.75895654296875,-4.250280778229237,1.598397611440718,0.9876447174325584
2025-04-11 20:12:56.807930600,5.7689306640625,-4.360559016025066,1.9168726094707849,1.4543550512090324
2025-04-11 20:12:56.817903900,5.77890380859375,-3.5618133608996865,1.9080995204284783,1.927509446558356
2025-04-11 20:12:56.827877600,5.788877685546875,-2.65496739653945,2.114493907415867,2.0791697883173823
2025-04-11 20:12:56.837851600,5.7988515625,-1.653040763515234,2.393411971083283,1.8916051894843575
2025-04-11 20:12:56.847825000,5.808824951171875,-0.450132123941183,2.499386081944406,1.5989733655020593
2025-04-11 20:12:56.857799000,5.818798828125,0.6740040076911449,2.437270109771192,1.3930816673398017
2025-04-11 20:12:56.867773000,5.82877294921875,1.1646207022339106,2.3564073515519497,1.1799232661101966
2025-04-11 20:12:56.877747000,5.838746826171875,1.1747171488344668,2.172811948610842,1.0057956564772874
2025-04-11 20:12:56.887720000,5.848719970703125,0.8879963024616241,1.968991211503744,0.8659036400537937
2025-04-11 20:12:56.897694000,5.85869384765625,0.2463479194521904,1.759601734353602,0.5421032822825014
2025-04-11 20:12:56.907668000,5.86866796875,-0.1798082856178283,1.576763579520583,0.1202710048262029
2025-04-11 20:12:56.917642000,5.87864208984375,0.1388151809722185,1.2883768457621336,-0.0876998376976698
2025-04-11 20:12:56.927614700,5.88861474609375,0.8655880712985992,0.9842615047350524,-0.4622013319194316
2025-04-11 20:12:56.937588700,5.898588623046875,1.7513409787476062,0.900719590434432,-0.7567372359573841
2025-04-11 20:12:56.947562800,5.908562744140625,2.641715700778365,0.7585796489536761,-0.9295461642071604
2025-04-11 20:12:56.957536800,5.918536865234375,3.3580653967678544,0.5722641733989119,-1.0226792059347032
2025-04-11 20:12:56.967509800,5.928509765625,3.874794437688589,0.3969637205943465,-1.06714247090891
2025-04-11 20:12:56.977483800,5.93848388671875,4.025670058810711,0.1363067052826285,-0.937307153597474
2025-04-11 20:12:56.987457800,5.948457763671875,3.8546301860600702,-0.0444487980574369,-0.72170581619516
2025-04-11 20:12:56.997430800,5.9584306640625,3.654769877016544,-0.1516954130724072,-0.4414115688037127
2025-04-11 20:12:57.007404800,5.96840478515625,3.526128299534321,-0.3654425009101629,-0.1771878557200543
2025-04-11 20:12:57.017378800,5.97837890625,3.3169565567880865,-0.4922904729738831,-0.0353348596882075
2025-04-11 20:12:57.027352800,5.988352783203125,2.961993364316225,-0.5036445184201002,-0.0237437358167953
2025-04-11 20:12:57.037325800,5.998325927734375,2.263746311250329,-0.2331260343074798,0.0354332146293017
2025-04-11 20:12:57.047299800,6.0082998046875,1.2865975611299276,-0.1376712716341018,0.0946251343156676
2025-04-11 20:12:57.057273900,6.01827392578125,0.8148971639811993,-0.3120753601208329,-0.107140643023001
2025-04-11 20:12:57.067247900,6.028247802734375,0.5290846646249294,-0.4167369270786643,-0.0562501625794684
2025-04-11 20:12:57.077220600,6.038220703125,0.1032113681495189,-0.7130383794844151,-0.0587868734162766
2025-04-11 20:12:57.087194600,6.048194580078125,-0.5249070866793394,-1.0284572048142553,0.1490120466067921
2025-04-11 20:12:57.097168600,6.058168701171875,-1.2636655983537437,-1.466083190664649,0.5733539048643782
2025-04-11 20:12:57.107142700,6.068142578125,-1.915389385175705,-1.9846862087637185,1.1755844331882894
2025-04-11 20:12:57.117115600,6.07811572265625,-2.268198029962182,-2.4695173056423663,1.7001656489141284
2025-04-11 20:12:57.127089700,6.088089599609375,-2.2227771720021963,-2.665118495936692,2.0313233106456696
2025-04-11 20:12:57.137063700,6.098063720703125,-1.9574965885430573,-2.8063047899544236,2.1931746454209087
2025-04-11 20:12:57.147036700,6.10803662109375,-1.5471891099900006,-2.865967816017568,2.0765872244782746
2025-04-11 20:12:57.157010700,6.1180107421875,-1.3308341777414083,-2.4807944864600895,1.2124619922738522
2025-04-11 20:12:57.166984700,6.127984619140625,-2.067185628274083,-1.1862711007669566,-0.0058820620422251
2025-04-11 20:12:57.176958700,6.137958740234375,-3.640340954169631,0.3767179281622171,-1.5774512695237994
2025-04-11 20:12:57.186932000,6.147931884765625,-4.525633258369565,0.2904053801044821,-2.2125863251164555
2025-04-11 20:12:57.196905700,6.15790576171875,-4.121273874565959,-0.2227680141612887,-1.7683309842541812
2025-04-11 20:12:57.206879700,6.167879638671875,-3.203865599659085,-0.8727329746171831,-1.158037670581788
2025-04-11 20:12:57.216853800,6.177853759765625,-2.2412755362451073,-1.1704302652955054,-1.0785768881149589
2025-04-11 20:12:57.226826800,6.18782666015625,-1.1925789687395094,-1.1432117112413047,-1.5883873818188905
2025-04-11 20:12:57.236800800,6.19780078125,-0.1658814670741558,-0.801965786215663,-2.0500458390332756
2025-04-11 20:12:57.246774800,6.20777490234375,0.3930079687058925,-0.0871659500166773,-2.4737781779572368
2025-04-11 20:12:57.256748800,6.217748779296875,0.3872767315775156,1.195062017726898,-2.304005840924382
2025-04-11 20:12:57.266721800,6.2277216796875,-0.1275502751141786,1.897236181108653,-1.7570329067789017
2025-04-11 20:12:57.276695800,6.23769580078125,-0.5161275678962469,0.4183662818461656,1.1481804395645856
2025-04-11 20:12:57.286669800,6.247669921875,-2.1334499522984025,-0.6773261378511786,3.040629094135761
2025-04-11 20:12:57.296642800,6.257642822265625,-3.223687321460247,1.3236185472741722,0.3344841027405112
2025-04-11 20:12:57.306616800,6.267616943359375,-2.668716520428658,3.0930574927702543,-1.6145657791703938
2025-04-11 20:12:57.316590800,6.2775908203125,-1.6947832252234218,3.2721894865617154,-1.923948100814968
2025-04-11 20:12:57.326564900,6.28756494140625,-0.702590635228157,3.0262749900907275,-1.7793392850026488
2025-04-11 20:12:57.336537900,6.297537841796875,0.4559340882182121,2.6173230177998543,-1.4301150745742022
2025-04-11 20:12:57.346512000,6.307511962890625,1.3633587292492388,2.509003220595419,-1.2281257906779646
2025-04-11 20:12:57.356486000,6.31748583984375,1.700596295416355,2.3254995875909925,-1.0301735072128475
2025-04-11 20:12:57.366460000,6.3274599609375,2.039792009913921,1.831141660693288,-0.5004937993042171
2025-04-11 20:12:57.376432600,6.3374326171875,2.4105916539430616,1.4454647655278443,-0.3278719911243766
2025-04-11 20:12:57.386406700,6.34740673828125,2.436719782412052,1.3104995379820463,-0.347116534092091
2025-04-11 20:12:57.396380700,6.357380615234375,2.2102976296573877,1.3798872547239065,-0.2853588007720187
2025-04-11 20:12:57.406353700,6.367353759765625,2.358790155035257,1.202499766512215,-0.2849418722678907
2025-04-11 20:12:57.416327700,6.37732763671875,2.2305343620002267,1.1739452876791356,-0.2080861212003044
2025-04-11 20:12:57.426301700,6.3873017578125,1.9671417842447756,0.9488985149309038,0.252177484122198
2025-04-11 20:12:57.436275700,6.397275634765625,1.967370332303643,0.5975619885236024,0.4495007307024672
2025-04-11 20:12:57.446248700,6.407248779296875,2.1730741066783663,0.4398860397368669,0.3430312740724534
2025-04-11 20:12:57.456221700,6.4172216796875,2.476737904545665,0.2169634195357561,0.3702989279653876
2025-04-11 20:12:57.466195700,6.42719580078125,3.132982383662462,-0.1091992103874683,0.4380490335680544
2025-04-11 20:12:57.476169700,6.437169677734375,3.631649698191881,-0.2795008319914341,0.4115497336991131
2025-04-11 20:12:57.486143000,6.44714306640625,3.896994579058885,-0.4628521970435976,0.4220381752919405
2025-04-11 20:12:57.496117000,6.457116943359375,4.282583211418986,-0.7029998005509376,-0.0848441742719151
2025-04-11 20:12:57.506090800,6.4670908203125,4.570494728881121,-0.5315288429066538,-1.0483661665074526
2025-04-11 20:12:57.516064000,6.47706396484375,3.800240424224734,0.6443439057037234,-1.7176533748097718
2025-04-11 20:12:57.526038000,6.4870380859375,2.145543710196018,-0.0879372266501188,-1.3491747210741043
2025-04-11 20:12:57.536012000,6.497011962890625,0.0265922388494014,-0.7941147804543376,-0.8283706127341837
2025-04-11 20:12:57.545986000,6.506986083984375,-1.6951631644517182,-1.273796824006736,-0.5321878913372755
2025-04-11 20:12:57.555959000,6.516958984375,-1.7066975349009037,-1.510788886092603,-0.4611352370578795
2025-04-11 20:12:57.565933000,6.52693310546875,-0.7312766314864159,-1.6369646579831838,-1.0122595917943864
2025-04-11 20:12:57.575907000,6.536906982421875,-0.0113981768488883,-1.6067577357679603,-1.0627591412581503
2025-04-11 20:12:57.585881000,6.546881103515625,-0.6134188983470201,-1.7056792977690696,-0.9775148069538176
2025-04-11 20:12:57.595853800,6.556853759765625,-1.7795032433927058,-1.5985960566222668,-0.6880049143843352
2025-04-11 20:12:57.605827800,6.566827880859375,-2.414888474354148,-1.1951789221048357,-0.656260991860181
2025-04-11 20:12:57.615801900,6.5768017578125,-2.6901100215911864,-0.8929907497480511,-0.5052893630176782
2025-04-11 20:12:57.625774800,6.58677490234375,-3.291694105237722,-0.8400131927981972,-0.1683986375268548
2025-04-11 20:12:57.635748900,6.596748779296875,-5.047362884056568,-0.8044307150244713,0.1550278454307466
2025-04-11 20:12:57.645723000,6.606722900390625,-5.991857318809628,-0.6114075585246086,0.2286659861586988
2025-04-11 20:12:57.655697000,6.61669677734375,-5.7764504810661075,-0.6192497964575886,0.3516953132497146
2025-04-11 20:12:57.665670000,6.626669921875,-4.844104164746404,-0.9805825239613652,0.281619066254422
2025-04-11 20:12:57.675644000,6.636643798828125,-3.696334644070267,-1.467336697857082,0.0241225060013122
2025-04-11 20:12:57.685618000,6.646617919921875,-2.82430923320055,-1.8020403616324063,0.2345718674679286
2025-04-11 20:12:57.695592000,6.656592041015625,-2.446175008499622,-1.470148540407419,0.5572236579922959
2025-04-11 20:12:57.705565000,6.66656494140625,-2.544083594065905,-1.4520873985379934,0.2665836106154136
2025-04-11 20:12:57.715539000,6.6765390625,-2.095263721767068,-1.260962476874888,0.0708524189995601
2025-04-11 20:12:57.725513000,6.686512939453125,-1.6326193222552536,-0.7897171300172805,0.7412338888119906
2025-04-11 20:12:57.735485700,6.696485595703125,-0.9439455686986444,-0.3824956347808241,1.4575656838186084
2025-04-11 20:12:57.745459700,6.706459716796875,-0.2293371634185314,0.4253475190356373,1.4622048879265783
2025-04-11 20:12:57.755433700,6.716433837890625,-0.1517903978794813,0.7873138682678341,2.3054456644691523
2025-04-11 20:12:57.765407700,6.72640771484375,-0.3844061445772647,0.9841633050575852,3.2913167963579295
2025-04-11 20:12:57.775380700,6.736380615234375,-0.2421253333210945,1.293472999857366,3.064176558461785
2025-04-11 20:12:57.785354800,6.746354736328125,0.3608978432178497,1.7512708361208438,2.732045667783916
2025-04-11 20:12:57.795328800,6.756328857421875,1.1764876656383276,2.1249974735125896,2.2751678689748047
2025-04-11 20:12:57.805302800,6.766302734375,2.079755771511793,2.240546345187723,2.137528892175108
2025-04-11 20:12:57.815276000,6.776276123046875,2.5295997261613605,2.508636725370586,1.564253057515621
2025-04-11 20:12:57.825249800,6.786249755859375,2.8737551088929174,2.7141186736881733,0.8649418823495507
2025-04-11 20:12:57.835223800,6.796223876953125,2.774701444944739,2.508475981850922,0.6092121308395638
2025-04-11 20:12:57.845197000,6.806197021484375,2.148485024344921,2.1047493429929016,0.4642593969604
2025-04-11 20:12:57.855171000,6.816171142578125,1.0836123980641363,1.577330565753579,0.2548153218124993
2025-04-11 20:12:57.865145000,6.82614501953125,-0.1459299814134836,1.3649565198346971,-0.243812281761039
2025-04-11 20:12:57.875118800,6.836118896484375,-1.0155074146091938,1.4839894342333078,-1.0133426377907395
2025-04-11 20:12:57.885091800,6.846091796875,-1.1741782196521755,1.5480083174183965,-1.728142473989725
2025-04-11 20:12:57.895065900,6.85606591796875,-0.5244131656825542,1.25781570328176,-2.026336316013336
2025-04-11 20:12:57.905040000,6.866039794921875,0.6960381448447704,0.5702417276605963,-1.7302298016577955
2025-04-11 20:12:57.915014000,6.876013916015625,1.915225719046593,-0.1839668666020035,-1.2795512958802282
2025-04-11 20:12:57.924987000,6.88598681640625,2.893152467802167,-0.5628837661132217,-1.0286536041691898
2025-04-11 20:12:57.934961000,6.8959609375,3.5497160958707332,-0.6085580143123864,-1.0283880851007998
2025-04-11 20:12:57.944935000,6.905934814453125,3.7554818295657633,-0.5602770907461643,-0.9386600295111536
2025-04-11 20:12:57.954908000,6.915907958984375,3.731268010285497,-0.4995975811168551,-0.8227855791434645
2025-04-11 20:12:57.964882000,6.9258818359375,3.596449205473065,-0.3265384774982929,-0.7608887296136468
2025-04-11 20:12:57.974856000,6.93585595703125,3.3675954416573046,-0.1412345170736312,-0.7122421876054257
2025-04-11 20:12:57.984830000,6.945829833984375,2.865322211590409,0.0002285480588674,-0.6389773371692746
2025-04-11 20:12:57.994803000,6.955802978515625,2.2803134151697155,0.0027288404420018,-0.4360187333168461
2025-04-11 20:12:58.004777000,6.96577685546875,1.9156804770767688,-0.1482066941738128,-0.2042073252718895
2025-04-11 20:12:58.014751000,6.9757509765625,1.9120722234517336,-0.3143070646956563,0.0497341180492192
2025-04-11 20:12:58.024725000,6.98572509765625,1.913541126960516,-0.6646405515402555,0.4476796892877668
2025-04-11 20:12:58.034698000,6.995697998046875,1.7956582593798636,-1.118990293176472,0.699349826676026
2025-04-11 20:12:58.044671700,7.005671630859375,1.4876637388318776,-1.2548127220734953,0.684984105258435
2025-04-11 20:12:58.054645800,7.015645751953125,0.8275883032500744,-1.227391923445463,0.4301159024812281
2025-04-11 20:12:58.064618800,7.02561865234375,-0.2131651962965726,-1.168614155784249,0.2231251935685053
2025-04-11 20:12:58.074592800,7.0355927734375,-1.174086449715495,-1.1758955449640751,0.1346048241350334
2025-04-11 20:12:58.084566800,7.04556689453125,-1.8732447724074124,-0.9954381477877496,0.0411985823561437
2025-04-11 20:12:58.094540800,7.055540771484375,-2.4870669908583163,-0.8514864807099103,0.0525730130032636
2025-04-11 20:12:58.104513800,7.065513671875,-3.007677841648459,-0.8659943140119314,0.0902211546025238
2025-04-11 20:12:58.114487800,7.07548779296875,-3.3197751213401556,-1.0161606178209186,0.0819504621244035
2025-04-11 20:12:58.124461800,7.0854619140625,-3.472318967935443,-1.0859224285721778,0.0661386244185734
2025-04-11 20:12:58.134434800,7.095434814453125,-3.3192291778951883,-1.1545368228539823,0.014735541110672
2025-04-11 20:12:58.144408800,7.105408935546875,-2.870546083718538,-1.358074359105527,-0.2191618976944126
2025-04-11 20:12:58.154382800,7.1153828125,-2.1846558234006164,-1.519826763550937,-0.3956576064318418
2025-04-11 20:12:58.164356900,7.12535693359375,-1.5292162309259176,-1.435427647899091,-0.5014446702882647
2025-04-11 20:12:58.174330000,7.135330078125,-1.1565630679845809,-1.1410875586941838,-0.5368187660083175
2025-04-11 20:12:58.184303900,7.145303955078125,-1.368142456394434,-0.8475728143975139,-0.7567603976372629
2025-04-11 20:12:58.194278000,7.15527783203125,-1.9435370367735625,-0.6600146453052759,-1.009912151885405
2025-04-11 20:12:58.204252000,7.165251953125,-2.455855275514722,-0.2617567932471633,-0.9597744945365936
2025-04-11 20:12:58.214225000,7.175224853515625,-2.609208684927225,0.2675812616169452,-0.8177154362723231
2025-04-11 20:12:58.224199000,7.185198974609375,-2.6347809330791234,0.8576160695061087,-0.6186036805737763
2025-04-11 20:12:58.234173000,7.1951728515625,-2.248223747947812,1.3690569408908486,-0.5742380307551473
2025-04-11 20:12:58.244146000,7.20514599609375,-1.5685586457550524,1.7302713027119636,-0.7906281073823571
2025-04-11 20:12:58.254120000,7.215119873046875,-0.651605128878355,1.8140449799418448,-0.6544456130012869
2025-04-11 20:12:58.264094000,7.225093994140625,0.177792854142189,1.786547024424374,-0.5352862226787954
2025-04-11 20:12:58.274068000,7.23506787109375,0.576818475702405,1.8240166311189532,-0.5142277256242931
2025-04-11 20:12:58.284041000,7.245041015625,0.5212684379160404,1.86267427855432,-0.39177952288948
2025-04-11 20:12:58.294015000,7.255014892578125,0.1946872903198003,1.9868772890672088,-0.2254523944070562
2025-04-11 20:12:58.303989000,7.264989013671875,-0.3049859863817691,2.0100708253890276,-0.0097912165762856
2025-04-11 20:12:58.313963000,7.274962890625,-0.8435860828489065,1.9240619364529847,0.1204683174965903
2025-04-11 20:12:58.323936000,7.28493603515625,-1.1434054802477358,1.727903404536843,0.2751449748694896
2025-04-11 20:12:58.333910000,7.294909912109375,-1.063439963129163,1.3721990383088587,0.4092670661220327
2025-04-11 20:12:58.343884000,7.304884033203125,-0.5464174922198057,0.97139793150872,0.329605317723006
2025-04-11 20:12:58.353856800,7.314856689453125,0.2340858192503452,0.6982873850762844,0.1468026360621675
2025-04-11 20:12:58.363830800,7.324830810546875,1.0406120452493428,0.5319260255306959,0.1150157146465033
2025-04-11 20:12:58.373804800,7.3348046875,1.4175935927838086,0.381645447692275,0.3622138942524791
2025-04-11 20:12:58.383778800,7.34477880859375,1.5338058968037367,-0.112135263839364,0.6962202964786439
2025-04-11 20:12:58.393751800,7.354751708984375,1.844759267157316,-0.1879717183291911,0.7172792319245636
2025-04-11 20:12:58.403725800,7.364725830078125,2.36357738931179,-0.0047878187984228,0.6350687123581766
2025-04-11 20:12:58.413699800,7.374699951171875,2.881787024179101,-0.0319762699753046,0.7157301027864217
2025-04-11 20:12:58.423673900,7.384673828125,3.1312597976535557,-0.1303635789692401,0.8291098137289286
2025-04-11 20:12:58.433646800,7.394646728515625,3.267949657034874,-0.1440799696326255,0.7244972004793584
2025-04-11 20:12:58.443620900,7.404620849609375,3.148329590398073,-0.0206494047969579,0.3894637202277779
2025-04-11 20:12:58.453595000,7.414594970703125,3.3196219766050574,-0.2363940961927175,0.2740961234036833
2025-04-11 20:12:58.463568400,7.424568359375,3.526823296061158,-0.2705570625573396,0.0856664321739226
2025-04-11 20:12:58.473542400,7.43454248046875,3.4300177033007144,-0.2439975569337606,-0.317153357504867
2025-04-11 20:12:58.483516400,7.444516357421875,2.965822567215562,-0.3815475402757525,-0.1907916711207479
2025-04-11 20:12:58.493490400,7.454490478515625,2.327009115371108,-0.5396539894342423,-0.2547200630107894
2025-04-11 20:12:58.503463400,7.46446337890625,1.689950982761383,-0.5975123041629791,-0.3011559432322159
2025-04-11 20:12:58.513437400,7.4744375,0.8409522272139787,-0.6441323087796569,-0.2386739142255857
2025-04-11 20:12:58.523411200,7.4844111328125,-0.0611029957383871,-0.5715653774797916,-0.4545033612953498
2025-04-11 20:12:58.533384400,7.494384521484375,-1.032426400706172,-0.473920411285758,-0.5410549057407305
2025-04-11 20:12:58.543358200,7.504358154296875,-1.3329489779382944,-0.3584469429343939,-0.2945564719019457
2025-04-11 20:12:58.553332200,7.514332275390625,-1.015547746619582,-0.457185549584031,-0.4036630355698987
2025-04-11 20:12:58.563306200,7.52430615234375,-0.5664753608644009,-0.5877399749502539,-0.2120544585756957
2025-04-11 20:12:58.573279500,7.534279541015625,-0.2353542317509651,-0.7986226132676005,0.0924838023048825
2025-04-11 20:12:58.583253500,7.54425341796875,-0.3057031947404146,-1.0305112147346138,0.2710983663598075
2025-04-11 20:12:58.593227300,7.554227294921875,-0.7796388035953045,-1.2584551702290772,0.3154008512817323
2025-04-11 20:12:58.603201300,7.564201171875,-1.4986895752370355,-1.5523343639239668,0.2785455040279775
2025-04-11 20:12:58.613174500,7.574174560546875,-2.1535218494683503,-1.849332566422224,0.2247073299271054
2025-04-11 20:12:58.623148500,7.5841484375,-2.731778833541274,-2.132436975863576,0.2674581832265481
2025-04-11 20:12:58.633122600,7.59412255859375,-2.8959558347851035,-2.0981454146832226,0.4100078380193561
2025-04-11 20:12:58.643095600,7.604095458984375,-2.972041880121827,-1.8998171375125643,0.4549916197363287
2025-04-11 20:12:58.653069600,7.614069580078125,-3.048601972711086,-1.7574644300639628,0.5390157645959407
2025-04-11 20:12:58.663043600,7.624043701171875,-3.346148749002814,-1.5090280138999224,0.878541807026416
2025-04-11 20:12:58.673017600,7.634017578125,-3.963726520594954,-1.0497627354323864,1.245130116970837
2025-04-11 20:12:58.682990300,7.643990234375,-4.704819612696767,-0.3252387930765748,1.286497169495374
2025-04-11 20:12:58.692964400,7.65396435546875,-5.513453624629974,0.622001725514233,1.1941187455274165
2025-04-11 20:12:58.702938400,7.6639384765625,-5.890958903777599,1.3175114625707267,1.1869685815118252
2025-04-11 20:12:58.712911400,7.673911376953125,-5.527997698289155,1.7438854020446537,1.466674872947484
2025-04-11 20:12:58.722885400,7.683885498046875,-4.43733538171351,2.0603499370351432,1.9205092124074696
2025-04-11 20:12:58.732859400,7.693859375,-2.9036598332911727,2.2654610062137244,2.1349799383446575
2025-04-11 20:12:58.742833400,7.70383349609375,-1.1631313404589891,2.0958838994920255,2.144735462553054
2025-04-11 20:12:58.752806400,7.713806396484375,0.5792109237968921,1.9798785162210464,2.257500110337138
2025-04-11 20:12:58.762780400,7.723780517578125,1.7626345261782406,1.918382429511845,2.265924239811301
2025-04-11 20:12:58.772754400,7.73375439453125,2.1921441333293914,1.723103310778737,2.387418722017854
2025-04-11 20:12:58.782727400,7.7437275390625,2.109455328726769,1.5230574160352348,2.438441199377179
2025-04-11 20:12:58.792701400,7.753701416015625,1.687884113359451,1.4264271798416972,2.200755602069199
2025-04-11 20:12:58.802675500,7.763675537109375,1.3144254792541266,1.4187506538644432,1.695031062504649
2025-04-11 20:12:58.812649500,7.7736494140625,1.2407441569715738,1.4108330126076936,1.2571323971927166
2025-04-11 20:12:58.822622200,7.783622314453125,1.57527714035511,1.3165572305858135,0.7783993249282241
2025-04-11 20:12:58.832596200,7.79359619140625,2.387107317981124,1.2180229143366217,0.2319554378918372
2025-04-11 20:12:58.842570200,7.8035703125,3.3564129533857106,1.05570498496294,-0.1739072448804974
2025-04-11 20:12:58.852544300,7.813544189453125,4.075073848927021,0.8929799360930919,-0.3829297518817707
2025-04-11 20:12:58.862517200,7.823517333984375,4.208169483208656,0.6292150178939103,-0.417685058116354
2025-04-11 20:12:58.872491300,7.8334912109375,3.949520885109901,0.3412131917998194,-0.3355509282544255
2025-04-11 20:12:58.882465300,7.84346533203125,3.776353352680802,0.2738999432444572,-0.3098157080931589
2025-04-11 20:12:58.892438500,7.8534384765625,3.227422416335344,0.3632458676487207,-0.1333997317947447
2025-04-11 20:12:58.902412300,7.863412353515625,2.414725392746925,0.6624959407269955,0.0474080862544476
2025-04-11 20:12:58.912386300,7.87338623046875,1.8602549424529071,0.5623617880657314,0.0312342925015836
2025-04-11 20:12:58.922360300,7.8833603515625,1.8930916286498307,0.1304053722843527,0.4635864296022802
2025-04-11 20:12:58.932333600,7.89333349609375,2.231865902864933,0.8777087172031403,-0.1886651804860681
2025-04-11 20:12:58.942307600,7.9033076171875,3.024104075792432,0.5101747969716787,0.5858765922311693
2025-04-11 20:12:58.952281600,7.913281494140625,3.638587388500571,-0.1109820021510124,1.1911532467853276
2025-04-11 20:12:58.962254300,7.92325439453125,3.601449790239334,0.1560240899264812,1.07972379312776
2025-04-11 20:12:58.972228400,7.933228271484375,3.077882427731156,-0.4601218952968716,0.8427831689681857
2025-04-11 20:12:58.982202400,7.943202392578125,2.79728503267467,0.3124243196889757,-0.8063748348295688
2025-04-11 20:12:58.992176400,7.95317626953125,1.890563571476936,1.957079239913821,-2.499457101354003
2025-04-11 20:12:59.002149400,7.9631494140625,0.3930652518510818,0.9634411272853612,-1.7637240749806165
2025-04-11 20:12:59.012123400,7.973123291015625,-1.235262510690093,-0.7476151873469352,-0.1780337502259761
2025-04-11 20:12:59.022097400,7.983097412109375,-2.363766189882159,-1.1721055050313471,0.3125116326462477
2025-04-11 20:12:59.032071400,7.993071533203125,-3.029540129366517,-1.518465119808912,0.4158831963261589
2025-04-11 20:12:59.042044400,8.00304443359375,-3.650984513258934,-0.8162041549265384,-0.8232559731341897
2025-04-11 20:12:59.052018400,8.013018310546874,-3.8241473695129153,-0.3880249195963144,-0.4811301965340971
2025-04-11 20:12:59.061992400,8.022992431640626,-4.033814202299713,-0.9814473240971564,-0.3195226804520935
2025-04-11 20:12:59.071965400,8.03296533203125,-4.419828951117396,-0.8756605525016784,-0.5370148731023073
2025-04-11 20:12:59.081939500,8.042939453125,-4.604121104151011,-0.5344634350538253,-0.9054388740412892
2025-04-11 20:12:59.091913500,8.05291357421875,-4.547366366750001,-0.4769055645763874,-1.4582367149479687
2025-04-11 20:12:59.101887500,8.062887451171875,-4.120902703166008,-0.4631619936451315,-1.2073965986430644
2025-04-11 20:12:59.111860200,8.072860107421874,-3.3668197811096903,-0.8144275006428361,-0.6760815446175634
2025-04-11 20:12:59.121834200,8.082834228515624,-2.627286193409562,-1.29546154332608,-0.2516680732953362
2025-04-11 20:12:59.131808300,8.092808349609374,-2.0846277614623308,-1.751266744467616,0.1424668901464901
2025-04-11 20:12:59.141781200,8.10278125,-1.640095357224345,-2.043472159731388,0.2443146600589156
2025-04-11 20:12:59.151755300,8.11275537109375,-1.279828797647357,-1.8840186798781156,0.275168319212459
2025-04-11 20:12:59.161729300,8.122729248046875,-1.4754408015966414,-1.3801868221923708,0.1506169336533173
2025-04-11 20:12:59.171703300,8.132703369140625,-1.9097388120681047,-0.6885910437092184,-0.22052060056068
2025-04-11 20:12:59.181676300,8.14267626953125,-2.3286919538915156,0.1942187960252165,-0.6797013425499201
2025-04-11 20:12:59.191650300,8.152650390625,-2.3851503386944533,0.957700830067694,-1.0336794695071876
2025-04-11 20:12:59.201624300,8.162624267578124,-2.025199420937896,1.347388422179222,-1.2176985046878457
2025-04-11 20:12:59.211598300,8.172598388671876,-1.2424749262869357,1.4039490983128546,-1.165699729642272
2025-04-11 20:12:59.221571300,8.1825712890625,-0.3682791856408119,1.2765598589792846,-0.9259862797684968
2025-04-11 20:12:59.231545300,8.19254541015625,0.3841442787706852,1.0267693978577852,-0.7144094486419111
2025-04-11 20:12:59.241519400,8.202519287109375,0.7824117754399776,0.9049369158685208,-0.4876502824852243
2025-04-11 20:12:59.251492600,8.21249267578125,1.0043564905196427,0.8826321450799703,-0.3826281751193106
2025-04-11 20:12:59.261466600,8.222466552734375,1.129449435609579,0.9777934777647256,-0.30230973464353
2025-04-11 20:12:59.271440400,8.2324404296875,1.1063134746938943,1.2295561157420276,-0.3284136237204074
2025-04-11 20:12:59.281414400,8.242414306640624,0.967758990484476,1.540856692098081,-0.589211874133721
2025-04-11 20:12:59.291387400,8.252387451171876,0.933090412685275,1.7830702882245182,-0.8537958536308258
2025-04-11 20:12:59.301361400,8.262361328125,1.030206971091032,1.8485384934350848,-0.9278826879743486
2025-04-11 20:12:59.311335400,8.27233544921875,1.2601941228508948,1.7151456297725438,-0.7486963336471468
2025-04-11 20:12:59.321308400,8.282308349609375,1.7112889543443917,1.3933616533249615,-0.4931925363801419
2025-04-11 20:12:59.331282400,8.292282470703125,2.2805045538276434,0.9727215813279152,-0.0705999238095246
2025-04-11 20:12:59.341256400,8.30225634765625,2.7484470597475767,0.4527113267794251,0.2979732032765634
2025-04-11 20:12:59.351230500,8.31223046875,3.094320352312922,0.1762754353165626,0.500982459603995
2025-04-11 20:12:59.361203500,8.322203369140626,3.454016418525576,-0.0056774611145257,0.7250909285888075
2025-04-11 20:12:59.371177500,8.332177490234375,3.749595694136619,-0.2369981995657086,0.6856514100607484
2025-04-11 20:12:59.381151500,8.3421513671875,3.1976784354567527,-0.007327566409111,0.3653896016791462
2025-04-11 20:12:59.391124500,8.35212451171875,2.5763760903835293,0.1991483613818883,0.0351572289658244
2025-04-11 20:12:59.401098500,8.362098388671875,1.9035317741215227,0.0686103026285767,-0.4434811050867661
2025-04-11 20:12:59.411072500,8.372072509765625,1.504921747624874,-0.0648728696659207,-0.463209997505322
2025-04-11 20:12:59.421046500,8.382046630859374,1.6687012739837168,-0.5822615435391664,-0.2615340721408836
2025-04-11 20:12:59.431019300,8.392019287109376,1.783790711453557,-1.7299655977636574,0.3461811894707381
2025-04-11 20:12:59.440993300,8.4019931640625,3.257061767795682,-2.2674048337578774,1.1198291551534083
2025-04-11 20:12:59.450967300,8.41196728515625,2.804668713185191,-2.3267861202701923,0.9055272829771042
2025-04-11 20:12:59.460940500,8.4219404296875,1.9357447754621504,-2.222059086860716,0.9028852440357208
2025-04-11 20:12:59.470914600,8.43191455078125,1.027556748843193,-1.892367406028509,0.6683196053791791
2025-04-11 20:12:59.480888600,8.441888671875,0.0295265387356281,-1.453112065410614,0.2670600872870534
2025-04-11 20:12:59.490862600,8.451862548828124,-0.5706704744666814,-0.9416428447142244,-0.3752960421329364
2025-04-11 20:12:59.500835600,8.461835693359374,-1.1219406674146652,-0.5721139512732625,-0.962367725900188
2025-04-11 20:12:59.510809600,8.4718095703125,-1.941290134629607,-0.4100871138006448,-1.1537084822710604
2025-04-11 20:12:59.520783600,8.48178369140625,-2.429817163416743,-0.3839700912475586,-1.142571221380681
2025-04-11 20:12:59.530756400,8.49175634765625,-2.3568518804490566,-0.6549690523535013,-0.9460881336852908
2025-04-11 20:12:59.540730400,8.50173046875,-1.8637749332726,-0.8821692037433385,-0.6675025168426334
2025-04-11 20:12:59.550704400,8.511704345703125,-1.3321294782489537,-1.1516294109746814,-0.6343235930792986
2025-04-11 20:12:59.560678400,8.521678466796875,-1.192875321337581,-1.2543629324793817,-0.6678228348381817
2025-04-11 20:12:59.570651600,8.531651611328124,-1.461439164251089,-1.335970956107974,-0.8026722539845853
2025-04-11 20:12:59.580625400,8.54162548828125,-2.0152496893316507,-1.3691975184053182,-0.7894374362930655
2025-04-11 20:12:59.590599400,8.551599365234376,-2.5790865183860063,-1.3419433085158468,-0.6743544285640121
2025-04-11 20:12:59.600572700,8.56157275390625,-3.035695729386806,-1.182747310554981,-0.3160373590869829
2025-04-11 20:12:59.610546700,8.571546630859375,-3.3253210650295015,-0.9697165542930364,-0.0255992457566782
2025-04-11 20:12:59.620520700,8.581520751953125,-3.714033382368088,-0.887479877372086,0.0037824776807799
2025-04-11 20:12:59.630494700,8.59149462890625,-4.010153340727091,-0.5913152030885219,0.3674645082570612
2025-04-11 20:12:59.640467700,8.6014677734375,-4.225836072802544,-0.2208288627922534,0.8949521860141306
2025-04-11 20:12:59.650441700,8.611441650390624,-4.348763364291191,0.0979921721965074,1.2611585839688777
2025-04-11 20:12:59.660415700,8.621415771484376,-4.511220117613673,0.5321975359484553,1.5057228348746894
2025-04-11 20:12:59.670388500,8.631388427734375,-4.2935710539013145,0.917737652991712,1.4804250197499988
2025-04-11 20:12:59.680362500,8.641362548828125,-3.5316450171291827,1.2807584797129037,1.2459857108868655
2025-04-11 20:12:59.690336500,8.65133642578125,-2.4911738416552542,1.6381889390811324,1.013359442795068
2025-04-11 20:12:59.700310500,8.661310546875,-1.5908862128973007,1.6559569432228802,0.6977813352502882
2025-04-11 20:12:59.710283500,8.671283447265624,-0.9009183278769254,1.483621769964695,0.5831153838895261
2025-04-11 20:12:59.720257500,8.681257568359374,-0.5102653978645801,1.1866951713979244,0.8003243026189506
2025-04-11 20:12:59.730231600,8.6912314453125,-0.3567226033598184,0.8420026130497456,1.060955160576105
2025-04-11 20:12:59.740204500,8.70120458984375,-0.3980740199238061,0.646884822358191,1.2246313726909457
2025-04-11 20:12:59.750178600,8.711178466796875,-0.5832885484993457,0.5980456803873181,1.324700497291982
2025-04-11 20:12:59.760152600,8.721152587890625,-0.8136059551268815,0.6449404102921485,1.2827780028417706
2025-04-11 20:12:59.770126600,8.731126708984375,-0.896239814671874,0.6949988649249076,1.1314074378095569
2025-04-11 20:12:59.780099600,8.741099609375,-0.5615472568124532,0.7043947620406746,1.03266978100799
2025-04-11 20:12:59.790073600,8.751073486328124,-0.0263198516488075,0.6812652308657765,0.8473243925943971
2025-04-11 20:12:59.800047600,8.761047607421874,0.6029694005250931,0.6429387150809168,0.4829308162152766
2025-04-11 20:12:59.810020400,8.771020263671875,1.3854688542485236,0.7097907758653164,0.1470992991874925
2025-04-11 20:12:59.819994400,8.780994384765625,1.93665955221951,0.8508207102775573,-0.1932686008946038
2025-04-11 20:12:59.829968400,8.790968505859375,2.4967870053619143,0.90171152408123,-0.5757064593398943
2025-04-11 20:12:59.839942400,8.8009423828125,3.046538025918603,1.0191858108609917,-0.7102680379882454
2025-04-11 20:12:59.849915400,8.810915283203125,3.6097774736016985,1.0992091956466437,-0.7171074555542319
2025-04-11 20:12:59.859889400,8.820889404296874,4.084820166915655,1.111873739169538,-0.5179969419647008
2025-04-11 20:12:59.869863400,8.830863525390624,4.455539146924019,1.070218955744803,-0.3807736332938075
2025-04-11 20:12:59.879836700,8.840836669921876,4.541878290727734,1.0824702422916888,-0.3352474152632057
2025-04-11 20:12:59.889810700,8.850810791015626,4.2983337382584805,1.222024551193416,-0.2341058939239941
2025-04-11 20:12:59.899784400,8.860784423828125,3.913463483300805,1.1584177559405564,-0.2797998149380087
2025-04-11 20:12:59.909758500,8.870758544921875,3.6207273221611977,0.5988754092097283,0.3492330147894099
2025-04-11 20:12:59.919731700,8.880731689453125,3.277593683692813,-0.523906385204196,1.2242811710137873
2025-04-11 20:12:59.929705700,8.890705810546875,3.3938848981678484,-1.009110114787519,1.1006835059829057
2025-04-11 20:12:59.939679700,8.9006796875,3.6865953403443097,-0.8531932846277952,0.9872177241921424
2025-04-11 20:12:59.949652700,8.91065283203125,3.681538056954741,-0.4930854227438568,0.7446908243328333
2025-04-11 20:12:59.959626800,8.920626708984376,2.8023651124179363,-0.252622469677031,0.5077658726664259
2025-04-11 20:12:59.969600500,8.9306005859375,1.2987334046036003,0.1307160456687212,0.2167049147300422
2025-04-11 20:12:59.979574500,8.940574462890625,-0.3828571615695953,0.2041048147454857,0.060796961996518
2025-04-11 20:12:59.989547500,8.950547607421875,-1.571295377242565,-0.0214247730836272,-0.1901861977745778
2025-04-11 20:12:59.999521500,8.960521484375,-2.0287018761008975,-0.0689873192474246,-0.3345511766273528
2025-04-11 20:13:00.009495600,8.97049560546875,-2.263531791716814,-0.1023465680137276,-0.4502187793113291
2025-04-11 20:13:00.019468500,8.980468505859376,-2.248206796813011,-0.3198845725670456,-0.7981034116990864
2025-04-11 20:13:00.029442600,8.990442626953126,-2.3364088118791577,-0.5678568783506751,-0.6625692982241511
2025-04-11 20:13:00.039416600,9.00041650390625,-3.379485785937309,-1.5482897647082805,0.784544695815444
2025-04-11 20:13:00.049389600,9.0103896484375,-3.647491410446167,-1.9837942283600567,0.6670142949342728
2025-04-11 20:13:00.059363600,9.020363525390623,-3.680194241130352,-1.4707047129854558,0.4293146691009402
2025-04-11 20:13:00.069337600,9.030337646484377,-3.087160543686151,-1.2164528885409236,-0.4090283619953319
2025-04-11 20:13:00.079311600,9.0403115234375,-2.4453017327964304,-1.1620783242747188,-0.9353204367596656
2025-04-11 20:13:00.089284600,9.05028466796875,-1.96920397747159,-0.9154597711876036,-0.6720300042044371
2025-04-11 20:13:00.099258600,9.060258544921876,-1.8217390415757893,-0.6647229691267014,-0.5967237110685557
2025-04-11 20:13:00.109232600,9.070232666015626,-1.5558043781220912,-0.5685527516603469,-0.6407679469130932
2025-04-11 20:13:00.119205400,9.080205322265623,-1.1147948873132467,-1.1131038654863834,-0.1649931764649227
2025-04-11 20:13:00.129179400,9.090179443359377,-1.99122993131876,-1.2876423940077424,-0.5895765061950311
2025-04-11 20:13:00.139153400,9.1001533203125,-2.000550717371702,-0.2782061160057782,-0.7421476426560432
2025-04-11 20:13:00.149126700,9.110126708984374,-2.2971733645558357,0.882354789443314,-1.152161618155241
2025-04-11 20:13:00.159100400,9.120100341796874,-1.8618395812958477,1.988456082691252,-1.2616852381914854
2025-04-11 20:13:00.169074400,9.130074462890626,-0.816415751850605,2.286705746555328,-1.4372538404129445
2025-04-11 20:13:00.179048400,9.14004833984375,0.4086982897907495,2.005938840150833,-1.3263096860542891
2025-04-11 20:13:00.189021700,9.150021728515624,1.5094254887849092,1.672841734789312,-1.0378482796244322
2025-04-11 20:13:00.198995700,9.15999560546875,2.0626631824135777,1.4372098551407455,-0.8758450422231108
2025-04-11 20:13:00.208969500,9.169969482421877,1.8079203595817088,1.3788687253311276,-0.8398146745514125
2025-04-11 20:13:00.218942700,9.179942626953125,1.3022113098472357,1.2779744019523265,-0.927825624024868
2025-04-11 20:13:00.228916700,9.189916748046874,0.902795227664709,1.126364621336758,-0.8555955965291708
2025-04-11 20:13:00.238890800,9.199890869140624,0.8725947351902723,0.984227017943561,-0.6828946586985141
2025-04-11 20:13:00.248863500,9.209863525390626,1.0621370638370513,0.9266828837305306,-0.563229072419554
2025-04-11 20:13:00.258837500,9.21983740234375,1.265986734777689,1.0414479115515949,-0.459034830712527
2025-04-11 20:13:00.268811500,9.2298115234375,1.3185954584151505,1.1580468768015504,-0.2605831463579088
2025-04-11 20:13:00.278785500,9.23978564453125,1.1981015315532684,1.1464239512860774,-0.1280601425987668
2025-04-11 20:13:00.288758500,9.249758544921876,0.956434463393688,1.0499793007925151,-0.104784828011319
2025-04-11 20:13:00.298732500,9.259732666015625,1.0678694700092075,0.7865043054506182,-0.1858956427074968
2025-04-11 20:13:00.308706600,9.26970654296875,1.3446639656513928,0.5703481106445193,-0.0863711829097941
2025-04-11 20:13:00.318679600,9.279679443359376,1.5997382123947144,0.4411415927559137,-0.1088213717847131
2025-04-11 20:13:00.328653600,9.289653564453126,1.8618471800804135,0.3505851235181093,-0.1040525956134777
2025-04-11 20:13:00.338627600,9.299627685546875,2.1341589773505927,0.3933373467907309,0.0356286732693202
2025-04-11 20:13:00.348600600,9.3096005859375,2.3611399330317973,0.5255994528576732,0.1607572559282183
2025-04-11 20:13:00.358574600,9.31957470703125,2.489179452967643,0.4927803023174404,0.2385018638606183
2025-04-11 20:13:00.368548600,9.329548583984376,2.862425905627012,0.4984577634319663,0.1806225611427798
2025-04-11 20:13:00.378521300,9.339521240234374,3.1369296599835157,0.5505863023370504,0.2122793899053707
2025-04-11 20:13:00.388495400,9.349495361328126,3.0902433121323583,0.580690056438744,0.0536251706710085
2025-04-11 20:13:00.398469400,9.359469482421876,2.685153860488534,0.3453825864389538,-0.387213822409138
2025-04-11 20:13:00.408443400,9.369443359375,2.35867383517921,0.1345940561458468,-0.6364066829636693
2025-04-11 20:13:00.418416400,9.37941650390625,2.6490724932819605,0.2234925290435552,0.1030829194642603
2025-04-11 20:13:00.428390400,9.389390380859377,3.078516633981466,-0.2758765040144324,0.3980980218539014
2025-04-11 20:13:00.438364400,9.399364501953125,2.85155672108829,-0.4878364161744714,0.8121540758181363
2025-04-11 20:13:00.448337700,9.409337646484374,2.715581147456169,-0.3204576962798833,2.7193922301769256
2025-04-11 20:13:00.458311700,9.419311767578124,2.6092969477325676,0.690361852774024,3.79814871264249
2025-04-11 20:13:00.468285400,9.429285400390626,2.8464754723012446,1.0446835324719548,3.5711198261663317
2025-04-11 20:13:00.478258400,9.439258544921875,2.6798352958142755,0.833894417656958,-0.0680125102653633
2025-04-11 20:13:00.488232400,9.449232421875,2.069962691771984,-1.4076377236977218,-1.1688994755316524
2025-04-11 20:13:00.498206500,9.45920654296875,0.3970955302804708,-1.1953171615317464,-2.7315824341863393
2025-04-11 20:13:00.508180500,9.469180419921877,0.2092185044974088,-0.1646308824911713,-1.1228411233857274
2025-04-11 20:13:00.518153500,9.479153564453124,-0.0611018266946077,1.7660715148895978,0.4454081641592085
2025-04-11 20:13:00.528127500,9.48912744140625,-0.9985942737311124,2.4052467857837674,-0.9236090292431414
2025-04-11 20:13:00.538101500,9.4991015625,-1.0310247172147036,0.6986898283973336,-0.3328451764270663
2025-04-11 20:13:00.548074500,9.509074462890624,-2.6430758832156656,-1.8614353844091296,-2.9229914334878324
2025-04-11 20:13:00.558048500,9.519048583984375,-4.723624266409874,-5.06526328240633,-4.812147183993458
2025-04-11 20:13:00.568022500,9.5290224609375,-5.0404018128722905,-5.21753941797614,-2.786301866367459
2025-04-11 20:13:00.577995500,9.53899560546875,-3.5247704551845787,-3.332756767988205,-1.2888045696549115
2025-04-11 20:13:00.587969500,9.548969482421874,-1.24332482111454,-1.7989160921320315,0.3361372037097812
2025-04-11 20:13:00.597943600,9.558943603515624,-0.4444365426480769,-1.2072393622547388,1.1422399435997008
2025-04-11 20:13:00.607917600,9.56891748046875,-0.6027905368268489,-1.3525252005457875,0.4660987412167712
2025-04-11 20:13:00.617890300,9.578890380859375,-1.4303291557162998,-1.2775351337522267,-0.0398752430642023
2025-04-11 20:13:00.627864300,9.5888642578125,-3.283369344484806,-0.5660854847639799,-0.6158826581120491
2025-04-11 20:13:00.637838300,9.59883837890625,-5.168384634184837,0.0027943068936467,-0.4047404190104454
2025-04-11 20:13:00.647811300,9.608811279296877,-5.823731872200965,0.4254183923147618,0.7245304451618343
2025-04-11 20:13:00.657785300,9.618785400390625,-6.053257251667976,1.251397214541584,2.03167212408334
2025-04-11 20:13:00.667759400,9.62875927734375,-5.063594472411275,1.6429976545371114,1.81065036906749
2025-04-11 20:13:00.677732400,9.638732421875,-3.206751384228468,1.4599671920023858,0.4504611366998404
2025-04-11 20:13:00.687706400,9.648706298828126,-1.5141151079058646,1.7261130139887333,0.8695667656712234
2025-04-11 20:13:00.697680400,9.658680419921875,-0.5634767635703086,1.9575382357276976,1.9155045359879732
2025-04-11 20:13:00.707653600,9.668653564453123,-0.1917997521847486,1.6098589166536923,2.016390383799374
2025-04-11 20:13:00.717627600,9.678627685546877,0.2282528753131628,1.517960385157168,2.6237977667719123
2025-04-11 20:13:00.727601400,9.688601318359376,0.1503764394283294,2.420818741185963,3.45475583871603
2025-04-11 20:13:00.737575400,9.698575439453125,0.1616489440709352,2.404155191154778,2.30737648640126
2025-04-11 20:13:00.747548400,9.70854833984375,0.3318547040849924,1.6156871844157576,0.8493277683060616
2025-04-11 20:13:00.757522400,9.7185224609375,0.3856874165594577,1.7047583835318685,0.8310814060628414
2025-04-11 20:13:00.767496400,9.728496337890626,0.5959726735055446,1.1804428330048915,0.8797993328068405
2025-04-11 20:13:00.777469400,9.738469482421875,0.3906909239351749,0.5946428862065076,1.229900399135053
2025-04-11 20:13:00.787443500,9.748443359375,-0.0918079306036233,0.5556434395961463,0.7886123105805367
2025-04-11 20:13:00.797417500,9.75841748046875,-0.3052273939222097,0.4610588838860392,0.0325416122404858
2025-04-11 20:13:00.807390500,9.768390380859374,-0.3943272346109152,0.4961822197154164,-0.0781442930407822
2025-04-11 20:13:00.817364500,9.778364501953124,-0.5673971518844366,0.2402417115315794,0.1388901824371889
2025-04-11 20:13:00.827338500,9.78833837890625,-0.2650514508783817,0.0518991140633821,-0.1074318536550737
2025-04-11 20:13:00.837311500,9.7983115234375,0.6472445955812931,0.0819695504173636,-0.3947968248840421
2025-04-11 20:13:00.847285500,9.808285400390623,1.92011699821949,-0.3396469653964042,-0.8367049450330436
2025-04-11 20:13:00.857259500,9.818259521484377,2.7831273279845714,-0.6525321805953979,-1.295483462896943
2025-04-11 20:13:00.867233500,9.828233642578123,3.569579903247952,-0.3946571972176432,-1.4769345472857356
2025-04-11 20:13:00.877206300,9.838206298828124,4.547564519670606,-0.7084086738571524,-1.1884935991220176
2025-04-11 20:13:00.887180300,9.84818017578125,4.6329567380130285,-1.1399281595259905,-0.6882578662320971
2025-04-11 20:13:00.897154300,9.858154296875,4.084949930775165,-0.9552093055129052,-0.0908255959022324
2025-04-11 20:13:00.907127300,9.868127197265624,2.7701334063768384,-0.1485994928836822,0.0821562960279639
2025-04-11 20:13:00.917101300,9.878101318359375,1.4417121349960564,0.3030637861475348,0.1036827211214695
2025-04-11 20:13:00.927075300,9.888075439453123,0.6004699849247932,0.5784525066450238,0.0216692767634522
2025-04-11 20:13:00.937048300,9.89804833984375,0.4784872808098793,0.2258510748684406,-0.1352662654521409
2025-04-11 20:13:00.947022300,9.908022216796876,1.0475912366122009,-0.6210548000529408,0.1539648375754244
2025-04-11 20:13:00.956996400,9.917996337890624,1.7050106047272682,-1.215519407083094,0.347379240148887
2025-04-11 20:13:00.966969600,9.927969482421876,1.672169826877117,-1.4281857139468193,0.0635720162004232
2025-04-11 20:13:00.976943600,9.937943603515626,0.8361188157081604,-1.4821177951425313,-0.4226267888348549
2025-04-11 20:13:00.986917400,9.94791748046875,-0.6394271998286247,-1.2373077527821064,-0.2982013312103226
2025-04-11 20:13:00.996891400,9.957891357421875,-2.0405261694073675,-1.0986977389931678,-0.1138638046650215
2025-04-11 20:13:01.006864600,9.96786474609375,-2.625655961859226,-1.370059103670716,-0.2582293863059953
2025-04-11 20:13:01.016838700,9.977838623046877,-2.651611656370759,-1.5451377304181455,-0.2361578397514298
2025-04-11 20:13:01.026812400,9.9878125,-2.5234470487505196,-1.4234849889099597,0.0666451217691414
2025-04-11 20:13:01.036785400,9.997785400390624,-2.6331208909124135,-1.1534975429341197,0.12632252341751
2025-04-11 20:13:01.046759400,10.007759521484376,-3.0203871010959147,-0.9346993091866374,-0.2094533544328995
2025-04-11 20:13:01.056733400,10.0177333984375,-3.5197090801417827,-0.7228869888037442,-0.5324189601467922
2025-04-11 20:13:01.066706400,10.02770654296875,-3.95901527416408,-0.6080120708674192,-0.5921328761469572
2025-04-11 20:13:01.076680400,10.037680419921877,-3.942464536857605,-0.8626602011531591,-0.6234916718110441
2025-04-11 20:13:01.086654500,10.047654541015625,-3.4817601654976604,-1.1669111512586474,-0.4199521627981215
2025-04-11 20:13:01.096627500,10.05762744140625,-2.6551427531063556,-1.233882454508543,-0.1167505664819385
2025-04-11 20:13:01.106601500,10.0676015625,-1.8505641540437936,-1.2568670242547988,0.1211674878750462
2025-04-11 20:13:01.116575500,10.077575439453126,-1.3183844460129737,-1.421906779807806,-0.0772418643083423
2025-04-11 20:13:01.126549500,10.087549560546876,-1.1159084015130996,-1.231858839726448,-0.4820039836939424
2025-04-11 20:13:01.136522500,10.0975224609375,-1.1353975303590298,-0.3948383990034461,-0.6078021909764036
2025-04-11 20:13:01.146496500,10.10749658203125,-1.2091343822211027,0.6833022896513342,-0.4889818964151665
2025-04-11 20:13:01.156470500,10.117470458984377,-1.205890285733342,1.3511267319247129,-0.5767081471957266
2025-04-11 20:13:01.166443300,10.127443359375,-0.905501564013958,1.699084137287736,-0.633163024867326
2025-04-11 20:13:01.176417300,10.137417236328124,-0.1506698694169521,1.9383686942249536,-0.7035829342011362
2025-04-11 20:13:01.186391300,10.147391357421874,0.8009802823096513,1.8761244194969533,-0.8767872184440493
2025-04-11 20:13:01.196364300,10.1573642578125,1.6124141540944574,1.748855299411714,-1.0083204257145524
2025-04-11 20:13:01.206338300,10.16733837890625,2.188407284888625,1.6858379944846034,-1.1190780445251614
2025-04-11 20:13:01.216312300,10.177312255859375,2.3357827889353033,1.6092910536378622,-1.1073507087871433
2025-04-11 20:13:01.226285600,10.18728564453125,1.9267092360913751,1.5697896488547325,-0.9683376671552656
2025-04-11 20:13:01.236259600,10.197259521484376,1.3548960213303565,1.573264923749864,-0.83694006896317
2025-04-11 20:13:01.246233300,10.2072333984375,0.7718231614083051,1.79281163777709,-0.7622023694954813
2025-04-11 20:13:01.256206600,10.21720654296875,0.3712386199682951,1.8636361093237992,-0.8005260357361287
2025-04-11 20:13:01.266180600,10.2271806640625,0.3393056046128272,1.7260618683233857,-0.6034009968753904
2025-04-11 20:13:01.276154600,10.237154541015624,0.7525280938297509,1.4230734854996203,-0.3714304527459666
2025-04-11 20:13:01.286128600,10.247128662109375,1.5655150402754543,0.9953642057687044,-0.1624636031883768
2025-04-11 20:13:01.296101400,10.257101318359377,2.405128712362051,0.6543304621890187,-0.1038338839620351
2025-04-11 20:13:01.306075400,10.267075439453125,2.837048887786269,0.3116322925284505,0.0081787718443898
2025-04-11 20:13:01.316049400,10.27704931640625,2.808932800370455,0.1947787679955363,-0.0377095620634499
2025-04-11 20:13:01.326022400,10.2870224609375,2.408112696608901,0.3356315922752022,-0.2510696142118424
2025-04-11 20:13:01.335996400,10.296996337890626,1.7108599152773618,0.686933924151957,-0.2624337609269656
2025-04-11 20:13:01.345970400,10.306970458984376,1.19828507142663,0.8795511301994323,-0.2584891880196519
2025-04-11 20:13:01.355943400,10.316943359375,1.0023439816534518,0.9215601338893176,-0.3139431267540902
2025-04-11 20:13:01.365917400,10.32691748046875,1.1878005022913216,0.7401213244602084,-0.2219219004596583
2025-04-11 20:13:01.375891500,10.336891357421877,1.6330565446287393,0.3208338361158966,0.0062575260248035
2025-04-11 20:13:01.385865500,10.346865478515625,2.1002198828697205,-0.0436450804591178,0.1397053347449749
2025-04-11 20:13:01.395838500,10.35683837890625,2.1903893986165524,-0.3913672157615423,0.0994260774571448
2025-04-11 20:13:01.405812500,10.3668125,1.9166981296867132,-0.5343655276373028,-0.2408793153153732
2025-04-11 20:13:01.415786500,10.376786376953126,1.6700971122562884,-0.501570927016437,-0.5320516977369785
2025-04-11 20:13:01.425759200,10.38675927734375,1.4363257657825943,-0.3168845139682292,-0.5824905299894512
2025-04-11 20:13:01.435733200,10.396733154296877,0.9437368943840264,-0.0555675734430551,-0.3971383830415084
2025-04-11 20:13:01.445707300,10.406707275390623,0.3763853352069854,0.1176242166444659,-0.3719193687740713
2025-04-11 20:13:01.455680300,10.41668017578125,-0.1137438680797815,0.055470835070312,-0.4304596013523638
2025-04-11 20:13:01.465654500,10.426654541015624,-0.3497825749635696,-0.0783335320025682,-0.434259139765799
2025-04-11 20:13:01.475628500,10.436628662109374,-0.3675216452717781,-0.2631079155951738,-0.4377159291561692
2025-04-11 20:13:01.485601500,10.4466015625,-0.2247784772008657,-0.4525023602038621,-0.3808585716309026
2025-04-11 20:13:01.495575600,10.456575439453124,-0.0876081408262252,-0.6584171469807625,-0.4827671866187825
2025-04-11 20:13:01.505549300,10.46654931640625,-0.181959326171875,-0.8745037836819887,-0.5356251357769594
2025-04-11 20:13:01.515523300,10.4765234375,-0.5791629930019379,-1.013438791641593,-0.5445223626555875
2025-04-11 20:13:01.525496600,10.48649658203125,-1.0993962426513433,-1.1128887614309788,-0.6068493837635964
2025-04-11 20:13:01.535470600,10.496470703125,-1.6457032602339985,-1.232502398326993,-0.6841540111098439
2025-04-11 20:13:01.545444600,10.506444580078124,-2.186913246938586,-1.394563722591102,-0.7074090683605522
2025-04-11 20:13:01.555417600,10.51641748046875,-2.528994161483645,-1.709414392644167,-0.7586850820895285
2025-04-11 20:13:01.565391600,10.5263916015625,-2.5695851150691507,-1.7532620099380611,-0.4281461367782205
2025-04-11 20:13:01.575365600,10.53636572265625,-2.586229375877976,-1.3519658130973575,0.2158866571497172
2025-04-11 20:13:01.585338600,10.546338623046877,-2.837445778149366,-1.0744663840562103,0.4984682117607444
2025-04-11 20:13:01.595312600,10.556312744140625,-3.0215789412289857,-0.8286103397741913,0.6281882321294396
2025-04-11 20:13:01.605286700,10.56628662109375,-2.9900299567550417,-0.3429936454758048,1.063321159055084
2025-04-11 20:13:01.615259400,10.57625927734375,-2.629327928370237,0.1624076534837484,1.485801744352281
2025-04-11 20:13:01.625233400,10.5862333984375,-2.027694744884968,0.5971510696351527,1.689342057082802
2025-04-11 20:13:01.635207400,10.59620751953125,-1.2458633996814488,0.9720242467135192,1.8934981636241075
2025-04-11 20:13:01.645181400,10.606181396484375,-0.5221171636998653,1.3007660794749856,2.127929143050313
2025-04-11 20:13:01.655154400,10.616154541015623,0.0149205057561397,1.6839327453851698,2.030971282337606
2025-04-11 20:13:01.665128400,10.62612841796875,0.1397510005176067,2.037785930788517,1.7337055149443446
2025-04-11 20:13:01.675102500,10.6361025390625,0.0805389330923557,2.2382409908548,1.6466487243905663
2025-04-11 20:13:01.685075500,10.646075439453124,0.2571791100680828,2.2266554747402667,1.793748041844368
2025-04-11 20:13:01.695049500,10.656049560546874,0.7166086391866207,1.969621618361771,1.849082683314383
2025-04-11 20:13:01.705023500,10.6660234375,1.2857143485546112,1.5798796657145022,1.7559110631421206
2025-04-11 20:13:01.714996500,10.67599658203125,1.7934540273338555,1.171022385969758,1.6306313633084295
2025-04-11 20:13:01.724970500,10.685970458984375,2.0808798071056605,0.8083341522037982,1.4776124465472995
2025-04-11 20:13:01.734944500,10.695944580078123,2.1980729388564826,0.4159241493910551,1.2763275115281345
2025-04-11 20:13:01.744918500,10.70591845703125,2.30220025280714,0.1016223453924059,1.0054707353718575
2025-04-11 20:13:01.754891500,10.7158916015625,2.280294125947356,-0.0679015698373317,0.8124892991218715
2025-04-11 20:13:01.764865300,10.725865234375,1.9445809928685425,-0.0870516759872436,0.4450719179421663
2025-04-11 20:13:01.774839300,10.73583935546875,1.4771546197772023,-0.1008376247555017,-0.1014454544555395
2025-04-11 20:13:01.784812500,10.7458125,0.9271329655855892,-0.0608864303782582,-0.2861079021062702
2025-04-11 20:13:01.794786600,10.75578662109375,0.8633569512456655,-0.0120244920536875,-0.6573471065964549
2025-04-11 20:13:01.804760600,10.765760498046877,0.831354377785325,-0.1337470839276909,-0.6827554694235325
2025-04-11 20:13:01.814733600,10.775733642578125,1.2784621854692697,-0.2089633606925606,-0.6891174056708812
2025-04-11 20:13:01.824707600,10.78570751953125,2.127899332433939,-0.2932566778823733,-0.6152805275004357
2025-04-11 20:13:01.834681600,10.795681640625,2.6416402974545954,-0.2341536237895488,-0.6778064687140286
2025-04-11 20:13:01.844654600,10.805654541015626,2.822561512750387,0.0167822079747915,-0.836363365053758
2025-04-11 20:13:01.854628600,10.815628662109376,2.606516961625218,0.210217744667828,-0.9939068465672432
2025-04-11 20:13:01.864602600,10.8256025390625,2.040531430104375,0.4451625188350677,-1.1086381182491778
2025-04-11 20:13:01.874576600,10.83557666015625,1.239950960767269,0.6674635000064969,-1.20341154759489
2025-04-11 20:13:01.884549600,10.845549560546877,0.5685603504449129,0.7299158645272255,-1.3035638934999705
2025-04-11 20:13:01.894523600,10.855523681640625,0.3134001789838075,0.5926435290828347,-1.2631236004315316
2025-04-11 20:13:01.904497700,10.86549755859375,0.482891068726778,0.3187845023706555,-1.121381645292416
2025-04-11 20:13:01.914470400,10.875470458984376,0.913595438620448,-0.0384174089387059,-0.9389652230028064
2025-04-11 20:13:01.924444400,10.8854443359375,1.2179565711021425,-0.5107312618106603,-0.5775113533373922
2025-04-11 20:13:01.934418400,10.89541845703125,1.2934522493302822,-0.9586156068250536,-0.2455184098254889
2025-04-11 20:13:01.944391400,10.905391357421877,0.8715800051897764,-1.2578113193675875,0.1369697723012417
2025-04-11 20:13:01.954365400,10.915365478515625,0.1662228278577327,-1.5138374600082636,0.0828881265670061
2025-04-11 20:13:01.964339500,10.92533935546875,-0.7725631661206483,-1.604737043595314,-0.0060837768930941
2025-04-11 20:13:01.974312400,10.9353125,-1.6313661073237655,-1.7737988942712544,0.098832130151987
2025-04-11 20:13:01.984286500,10.945286376953124,-1.9052642970025535,-1.922194389015436,-0.0564805235695093
2025-04-11 20:13:01.994260500,10.955260498046876,-1.9065876545608045,-2.0413257953524586,0.0786652481749653
2025-04-11 20:13:02.004233500,10.9652333984375,-1.9373335059583183,-2.286346850115061,0.4286146310728043
2025-04-11 20:13:02.014207500,10.97520751953125,-2.0916998918056486,-2.426448856027424,0.6645047963313758
2025-04-11 20:13:02.024181500,10.985181396484377,-2.6834558243989943,-2.287883265902102,0.9569658668566494
2025-04-11 20:13:02.034155500,10.995155517578125,-2.8586972404927016,-2.239179733009636,1.1156977544371038
2025-04-11 20:13:02.044128500,11.00512841796875,-2.9387884298175573,-2.5350126911208033,0.887464606737718
2025-04-11 20:13:02.054102500,11.0151025390625,-2.9546143599808214,-2.303200662021339,0.5018933639038354
2025-04-11 20:13:02.064076500,11.02507666015625,-2.738673269230127,-1.6223133245572448,0.2709104791048914
2025-04-11 20:13:02.074049500,11.035049560546875,-2.552719320464134,-1.0449117882698773,0.1566529624145478
2025-04-11 20:13:02.084023600,11.0450234375,-2.6685575304746627,-0.874844267682731,0.0445685519795864
2025-04-11 20:13:02.093997600,11.05499755859375,-2.8049977990090844,-0.6294783450052142,0.1434264741599559
2025-04-11 20:13:02.103970600,11.064970458984376,-2.766321739134192,-0.2712555662155151,0.1058722579218447
2025-04-11 20:13:02.113944600,11.074944580078125,-2.770722604441642,0.0838791834309697,-0.0846104203149676
2025-04-11 20:13:02.123918600,11.084918701171874,-2.840737805432081,0.577519609709084,0.0297079962497577
2025-04-11 20:13:02.133891600,11.0948916015625,-2.5416087283849715,1.1031085411727428,0.0547577914301306
2025-04-11 20:13:02.143865600,11.104865478515626,-1.7217419592976568,1.475057647497952,-0.3315993410844355
2025-04-11 20:13:02.153839600,11.114839599609375,-0.6808043353557586,1.553283919733763,-0.650451721059531
2025-04-11 20:13:02.163812400,11.124812255859377,0.4011865989863872,1.3992808142408728,-0.533033694511652
2025-04-11 20:13:02.173786400,11.134786376953125,1.3603671462178228,1.138707677820325,-0.2387254252171143
2025-04-11 20:13:02.183760400,11.144760498046876,2.23675718203783,1.006044005215168,-0.1832365430334583
2025-04-11 20:13:02.193734400,11.154734375,2.831705773192644,0.9651438395500184,-0.2998850099809467
2025-04-11 20:13:02.203707400,11.164707275390626,3.054983782702684,1.0171361848548055,-0.308839118145965
2025-04-11 20:13:02.213681400,11.174681396484376,2.8387252965658902,1.1667372559964655,-0.1639349726488813
2025-04-11 20:13:02.223655400,11.184655517578124,2.2952415197104212,1.3502359205648302,0.0034208412941545
2025-04-11 20:13:02.233628400,11.19462841796875,1.468489082762599,1.6432999984845518,-0.0500384347580373
2025-04-11 20:13:02.243602400,11.2046025390625,0.705223906341195,1.9021461649820208,-0.1713900013625621
2025-04-11 20:13:02.253576400,11.214576416015625,0.2096124722510576,1.926134943334758,-0.2209506625410169
2025-04-11 20:13:02.263549400,11.224549560546874,0.2807435255289077,1.7743530210226772,-0.0897906359644606
2025-04-11 20:13:02.273523500,11.2345234375,0.7963397630274295,1.4053744549408551,0.1509036416402086
2025-04-11 20:13:02.283497500,11.24449755859375,1.4378852701842784,0.8920563915073871,0.2907319451777264
2025-04-11 20:13:02.293470700,11.254470703125,2.1604180387228724,0.4716755549684167,0.4132847773307934
2025-04-11 20:13:02.303444700,11.26444482421875,2.786488913372158,0.1799532470464706,0.388711002164334
2025-04-11 20:13:02.313418800,11.274418701171877,3.4643303072690963,-0.0395171868741512,0.3722004142051562
2025-04-11 20:13:02.323391500,11.2843916015625,4.068003472149372,-0.1984621326833963,0.5100879589384422
2025-04-11 20:13:02.333365500,11.294365478515624,4.362047208756208,-0.3066898676902055,0.5260599830415099
2025-04-11 20:13:02.343339500,11.304339599609374,4.116729801395535,-0.342437472897768,0.3484260823206976
2025-04-11 20:13:02.353312500,11.3143125,3.367411901783943,-0.2785211733043193,0.0246999953620135
2025-04-11 20:13:02.363286500,11.32428662109375,2.6178578553289173,-0.137010761898756,-0.352586124609597
2025-04-11 20:13:02.373260500,11.334260498046875,2.0234762504070996,-0.148663205769658,-0.6517572507001459
2025-04-11 20:13:02.383234600,11.344234619140623,1.6877654554158448,-0.3893929930791258,-0.9795204476878048
2025-04-11 20:13:02.393207600,11.35420751953125,1.6032015045911072,-0.8931661063149571,-1.213285364420712
2025-04-11 20:13:02.403181600,11.364181640625,1.6135884585708378,-1.2908663244903087,-1.1406119040064513
2025-04-11 20:13:02.413155600,11.374155517578124,1.626414037874341,-1.8029799805700777,-1.0323628339506683
2025-04-11 20:13:02.423128600,11.384128662109376,1.2390285852253435,-2.0048060367286205,-0.7244526306852698
2025-04-11 20:13:02.433102600,11.3941025390625,0.2711392463594675,-1.8803946441620587,-0.3951146221289411
2025-04-11 20:13:02.443076600,11.40407666015625,-0.8930997630804777,-1.6061495407417417,-0.2204676282644271
2025-04-11 20:13:02.453049300,11.41404931640625,-1.8453660008788109,-1.3299454122081398,-0.2059306784657761
2025-04-11 20:13:02.463023000,11.424023193359377,-2.35844879425168,-1.081509580565989,-0.1921769149340689
2025-04-11 20:13:02.472997000,11.4339970703125,-2.505476507773995,-0.925764599841833,-0.124996535510756
2025-04-11 20:13:02.482970000,11.44397021484375,-2.3243764287799595,-1.0181970920845866,-0.0836346706179902
2025-04-11 20:13:02.492944100,11.453944091796876,-2.070980928903818,-1.1729846259534358,-0.0569408345576375
2025-04-11 20:13:02.502918100,11.463918212890626,-1.8252882584899663,-1.3694623068213465,-0.0604641133129596
2025-04-11 20:13:02.512891100,11.47389111328125,-1.6634592816770075,-1.6990692319795488,-0.1038319477332755
2025-04-11 20:13:02.522865200,11.483865234375,-1.6863994277596472,-2.019635357069969,-0.0946743894180282
2025-04-11 20:13:02.532839200,11.493839111328125,-2.0575147136092187,-2.4951035823196173,-0.1727235880538821
2025-04-11 20:13:02.542812200,11.503812255859376,-2.570515673917532,-2.738307650788128,-0.0038093291550874
2025-04-11 20:13:02.552786200,11.5137861328125,-3.1994460296511646,-2.511107499398291,0.6996246980946511
2025-04-11 20:13:02.562760200,11.52376025390625,-4.143530130037665,-1.8872531317546963,1.5981953668668865
2025-04-11 20:13:02.572733200,11.533733154296876,-5.212632356712222,-1.234320845925808,2.0741396851956844
2025-04-11 20:13:02.582707200,11.543707275390624,-5.870276181232929,-0.6055509414508938,2.361085426365584
2025-04-11 20:13:02.592681200,11.55368115234375,-5.7584887079179286,0.0351312268748879,2.493713881526887
