time,seconds_elapsed,z,y,x
1745463410139223600,0.0302236328125,9.676164255955815,2.951402119936049,3.1789988694280384
1745463410149195800,0.04019580078125,10.13675756815672,4.082821686574817,3.930268487629294
1745463410159166500,0.05016650390625,10.506405704063177,4.770410275243222,4.153215073227882
1745463410169137400,0.060137451171875,10.00320133062601,4.6057697481408715,3.1449680050104853
1745463410179108600,0.070108642578125,6.631669718563557,3.244165169082582,2.3947522797763345
1745463410189079600,0.08007958984375,3.9104187087774274,2.8168752838075157,1.890983842715621
1745463410199050800,0.09005078125,3.696961836057901,3.7482773050144313,1.180078968128562
1745463410209022500,0.1000224609375,2.643693138331175,5.762087024670839,0.11628478473424911
1745463410218993700,0.10999365234375,1.0495096374541522,8.301908285117149,0.3492699492663145
1745463410228964600,0.119964599609375,-0.6744745478123426,9.338245721787214,0.027199557092785834
1745463410238935600,0.129935546875,-0.5963403377741575,9.40846842804849,-0.37028058859109875
1745463410248906500,0.139906494140625,1.3656155682653188,9.780793089687824,-0.06370820980072021
1745463410258877400,0.14987744140625,3.8031595265418288,9.810071791142224,-0.8069038271397352
1745463410268849700,0.159849609375,5.260176782697439,10.048004933470487,-0.3314163126677275
1745463410278820600,0.169820556640625,5.844660678461194,10.813615211713314,-0.29155016622543334
1745463410288791600,0.17979150390625,5.879647236168384,11.73937279729247,-1.4121405880749225
1745463410298762500,0.189762451171875,5.4293491080105305,12.19230595012903,-2.853960859620571
1745463410308733400,0.1997333984375,4.541331762760877,12.560903115677833,-3.4660639991939064
1745463410318705700,0.20970556640625,3.3526609073758125,13.427104934960603,-3.240726134544611
1745463410328676400,0.21967626953125,2.473061846381426,14.518054251784084,-3.316834391713142
1745463410338647600,0.2296474609375,1.8163076641768217,15.450423948979378,-4.365398272749782
1745463410348618500,0.239618408203125,0.8519383161306381,16.72651472914219,-5.90746229481101
1745463410358589700,0.249589599609375,-0.986030560234189,17.451338238966464,-7.26574620501399
1745463410368560600,0.259560546875,-2.949851675623655,16.823486910641194,-9.127008278682828
1745463410378532600,0.26953271484375,-4.024948758798837,16.830536244630814,-10.582247419250011
1745463410388503600,0.279503662109375,-5.590949536764621,16.52113945606947,-11.62711770646572
1745463410398474500,0.289474609375,-6.6918520923256875,14.276722699189186,-13.101249179029464
1745463410408445700,0.29944580078125,-8.03668264671564,12.388549822241067,-12.842123611068725
1745463410418416400,0.30941650390625,-8.928409367877244,10.456932940363883,-10.839592533534764
1745463410428388600,0.319388671875,-9.59459831790328,8.085183350512384,-10.11437505595684
1745463410438359600,0.329359619140625,-10.139483778250217,5.445354486393928,-11.163610552644728
1745463410448330800,0.339330810546875,-9.849324774122238,2.7702859665900466,-9.566260112169385
1745463410458301400,0.349301513671875,-9.361368238699436,1.3040116372674704,-6.7919076267927885
1745463410468272400,0.3592724609375,-8.644193782323597,0.033385552251338955,-5.419792759636044
1745463410478243600,0.36924365234375,-7.424674199688434,-1.0082868157058953,-4.3629906270861625
1745463410488215600,0.379215576171875,-6.580716945439577,-1.0095277556777,-3.7607220683068037
1745463410498186500,0.3891865234375,-6.498093607288599,-0.9717898534357547,-3.5961820789694783
1745463410508157400,0.399157470703125,-6.859932530748844,-1.375052089652419,-2.4991502273619175
1745463410518128600,0.409128662109375,-7.005271560531854,-1.8775585439532994,-1.2362293098956345
1745463410528099600,0.419099609375,-6.643167264133691,-2.3005437177717685,-0.5171171634554863
1745463410538070500,0.429070556640625,-5.805343982595205,-2.6536393628060817,0.07526479208171367
1745463410548042500,0.43904248046875,-5.113247853374481,-2.8498008173316713,0.5091916311532259
1745463410558013400,0.449013427734375,-4.567918156391382,-3.182336489418149,0.8605565068721771
1745463410567984600,0.458984619140625,-4.120338055020571,-3.331752559381723,0.9159750272333621
1745463410577955600,0.46895556640625,-3.80712053912729,-3.3571699092328546,0.9026140258789062
1745463410587926500,0.478926513671875,-3.748293087105453,-3.3766251358091828,0.8668319338798522
1745463410597898500,0.4888984375,-3.664589552502334,-3.1822721920102834,0.8615829273104667
1745463410607869700,0.49886962890625,-3.4729029053032394,-2.871967640954256,0.5509083738982677
1745463410617840600,0.508840576171875,-3.231652601251006,-2.0489508834034202,-0.21172581114321945
1745463410627811600,0.5188115234375,-3.4287399384498594,-0.7149521041512489,-0.7960819888740778
1745463410637782500,0.528782470703125,-4.041876220463216,0.39715632055699823,-1.0301499802067875
1745463410647753500,0.53875341796875,-4.712296524448693,1.406380124852061,-1.69137370904088
1745463410657725700,0.5487255859375,-5.3041994642972945,2.1288953577339647,-2.4879475730851293
1745463410667696400,0.5586962890625,-5.982913549375533,1.9406798937767742,-3.6959804238051173
1745463410677667600,0.56866748046875,-6.9326558216542,1.5595657764822244,-4.792032032203674
1745463410687638500,0.578638427734375,-8.656401521989702,1.158235969632864,-5.510707540792226
1745463410697609700,0.588609619140625,-9.343641443350911,1.4041075037449597,-6.381855584305525
1745463410707580700,0.59858056640625,-9.105744541379808,1.750074904334545,-7.446514860096573
1745463410717552600,0.608552734375,-8.986057839247584,2.3308576074928045,-8.107202874618768
1745463410727523600,0.618523681640625,-9.089334089326858,2.7974633118510246,-8.46289613493085
1745463410737494800,0.628494873046875,-9.264275061169267,2.606692902714014,-8.908438592994212
1745463410747465700,0.6384658203125,-9.564016717156766,1.8901187503188848,-9.184752611643075
1745463410757436400,0.6484365234375,-9.578822072100639,1.3585761711478233,-9.102561235168576
1745463410767408600,0.65840869140625,-9.419967727184295,1.5839946998178958,-8.759564959344267
1745463410777379600,0.668379638671875,-9.769728090316057,1.5696312434226274,-8.619463830214737
1745463410787350500,0.6783505859375,-10.378308900982141,0.4989262577265501,-8.872481144428253
1745463410797321500,0.688321533203125,-10.20719479395151,-0.20974340515434742,-9.102266051614285
1745463410807292700,0.698292724609375,-9.309617008674143,-0.041674072647094725,-9.091818891879916
1745463410817263600,0.708263671875,-8.209559671765565,0.21560615970790384,-9.261597366392612
1745463410827235600,0.718235595703125,-7.081514257735013,-0.04149813155829906,-8.992233313012122
1745463410837206500,0.72820654296875,-5.86417611079216,-0.006802081230282783,-8.674564370667934
1745463410847177500,0.738177490234375,-4.747399986533821,0.3736374978035688,-8.080545169317721
1745463410857148700,0.748148681640625,-3.6964401502713558,0.8698270240426063,-7.329431033939123
1745463410867119600,0.75811962890625,-2.9818288223817944,1.7574281897068023,-7.084879934775829
1745463410877090800,0.7680908203125,-2.5642966532722116,2.910309938830137,-6.899061595088243
1745463410887062500,0.7780625,-2.64718974827528,4.069878618371487,-6.377313849222659
1745463410897033700,0.78803369140625,-3.2496132053554057,4.428444803771376,-5.51256515135765
1745463410907004700,0.798004638671875,-4.041761069650947,4.213027444633841,-4.2974283138513565
1745463410916975600,0.8079755859375,-4.552844213639199,3.6483383826643228,-3.3313790498942133
1745463410926946600,0.817946533203125,-4.543811304616928,2.8919436765342947,-2.7484824233219025
1745463410936917500,0.82791748046875,-4.467462224429846,2.0983260319471357,-1.9469030060753225
1745463410946889700,0.8378896484375,-4.584680782882869,1.5478963814765214,-0.5879644313558936
1745463410956860400,0.8478603515625,-4.478991041921079,1.042935519760847,0.8194006128802895
1745463410966831600,0.85783154296875,-4.105373125600814,0.5478904873818159,2.0320871346250176
1745463410976802600,0.867802490234375,-3.607048340898752,0.07075052952766418,2.9716777229845524
1745463410986773500,0.8777734375,-3.2658839566767215,-0.38565760594308374,3.117726946863532
1745463410996745500,0.887745361328125,-2.8297967247009277,-0.9222276578873395,2.705987681941688
1745463411006716400,0.89771630859375,-2.2224271895207464,-1.1023363877564667,2.5327842014163733
1745463411016687600,0.9076875,-1.798627776709944,-0.97058632286489,2.570122290685773
1745463411026658600,0.917658447265625,-1.4315164658047257,-0.6482569874942302,3.0352070690870283
1745463411036629800,0.927629638671875,-0.7992436677753925,-0.23475977298915385,4.007808823427558
1745463411046600700,0.9376005859375,-0.058438160443305964,0.354733475369215,4.733541849312186
1745463411056572700,0.94757275390625,0.5659434459447861,1.333121411895752,5.237334836292266
1745463411066543600,0.957543701171875,1.1410087943695484,2.9758810198932886,5.483988460692763
1745463411076514600,0.9675146484375,1.3025228600144385,4.43007912697494,5.171059990873933
1745463411086485500,0.977485595703125,0.8908943619906902,5.121235344997048,4.485460822457075
1745463411096456400,0.98745654296875,0.2731774741888046,5.508352502098679,3.8653438877761364
1745463411106427600,0.997427734375,0.03032046559229493,5.957790798556804,3.66324485989511
1745463411116399600,1.007399658203125,-0.11189853247404098,6.552499735736847,3.98891181525588
1745463411126370600,1.01737060546875,-0.16545461996421218,7.3958537633955475,4.464411604687571
1745463411136341500,1.027341552734375,-0.23562647282108662,8.153436802527308,4.923915368086099
1745463411146312700,1.037312744140625,-0.4142459870457649,8.032612620797753,5.3729632039219135
1745463411156283600,1.04728369140625,-0.21428104858398436,7.257059040689468,5.655934342372417
1745463411166254600,1.057254638671875,0.205339032715559,6.391314317524433,5.97540419665873
1745463411176226600,1.0672265625,0.5695885244488715,5.963627834147214,6.821404354912042
1745463411186197500,1.077197509765625,0.5733806102082133,5.958698561051488,8.033627935320139
1745463411196168700,1.087168701171875,0.27977336532250047,6.23736352674067,9.137033413612842
1745463411206139600,1.0971396484375,-0.005433569356054067,6.587710749849677,9.68042658957541
1745463411216110600,1.107110595703125,-0.10467033478617667,7.128036354935169,9.859441678988933
1745463411226081500,1.11708154296875,-0.3218284001111984,8.273994442275166,9.990033221495151
1745463411236053800,1.1270537109375,-0.26163185169324277,9.207196498641371,9.91942297722101
1745463411246024700,1.137024658203125,-0.5185283454276621,9.10995835968256,10.413486597347259
1745463411255995400,1.146995361328125,-0.7173449906371533,8.464733287230134,10.989170516061781
1745463411265966600,1.156966552734375,-0.4296152594827115,8.339519346109032,11.087586466628313
1745463411275937500,1.1669375,-0.002131166809797287,8.549826814886927,10.675165356922149
1745463411285908700,1.17690869140625,0.31322657598257064,8.478558398965001,9.834871885877847
1745463411295880400,1.18688037109375,0.5595150203324855,8.321649342897533,8.605601309078931
1745463411305851600,1.1968515625,0.9564005611240863,8.6305007725358,6.858922476923465
1745463411315822600,1.206822509765625,1.2350048826672135,9.006836423382163,5.18203205126524
1745463411325793500,1.21679345703125,1.3217128597833216,8.879431109696625,4.0303415577530854
1745463411335764700,1.2267646484375,1.1430839932084083,8.464526951003075,3.824148538556695
1745463411345736400,1.236736328125,0.6910524653866886,7.67283939769566,4.176782411298156
1745463411355707600,1.246707763671875,0.1314938981734216,6.8491188757896415,4.586729239845275
1745463411365678600,1.2566787109375,-0.485425555640459,6.031050680556893,4.817614217227697
1745463411375649800,1.26664990234375,-0.9995441218018531,5.052272283408046,4.969256731069088
1745463411385620500,1.276620361328125,-1.3443034617759286,4.069232721683383,4.791901099300384
1745463411395591400,1.28659130859375,-1.2870051190175116,3.0282243705928322,4.264885057643055
1745463411405563600,1.296563720703125,-0.9385524774834513,2.1309885306209324,3.8229087676286695
1745463411415534600,1.30653466796875,-0.4802199498213827,1.3760656506091355,3.2212668163150546
1745463411425505500,1.316505615234375,-0.02809694432392716,0.6054542030781507,2.4299714771956205
1745463411435476500,1.3264765625,0.4168868569433689,-0.2074567555218935,1.5905933674305677
1745463411445447700,1.33644775390625,1.0539629636012018,-1.0568798739612102,0.6392956824034453
1745463411455418600,1.346418701171875,1.5940191040955483,-1.8330980554580687,-0.25712270370572804
1745463411465390600,1.356390625,1.8237994812369345,-2.368900630161166,-0.9711419109210372
1745463411475361500,1.366361572265625,1.830595278856903,-2.699940510731935,-1.5117080467641353
1745463411485332500,1.37633251953125,1.7154431514143942,-2.96953720382452,-1.886041417877376
1745463411495303700,1.3863037109375,1.544432943149656,-3.0781629982382057,-2.0823785212308166
1745463411505274600,1.396274658203125,1.2658372433044016,-2.9687305636167522,-2.350344105990231
1745463411515245600,1.40624560546875,0.8681750190518795,-2.6113001042485235,-2.7071657858103513
1745463411525217500,1.416217529296875,0.3868621594272554,-2.2740584464281794,-3.1481235464319584
1745463411535188700,1.426188720703125,-0.06363368325978518,-1.9107874443382025,-3.4807506961941717
1745463411545159700,1.43615966796875,-0.34007965772524473,-1.5079910720676182,-3.819176010841131
1745463411555130400,1.44613037109375,-0.5408629268325865,-1.0636451303124428,-4.290576840521395
1745463411565101600,1.4561015625,-0.6273910173371434,-0.32335634033083915,-4.858587740390003
1745463411575072500,1.466072509765625,-0.7963741036884486,0.45523324647247787,-5.433603842845558
1745463411585044700,1.476044677734375,-0.9665490301728248,1.0006506217390299,-5.943257246291637
1745463411595015400,1.486015380859375,-1.0501828605405985,1.3236252692759036,-6.392992479869723
1745463411604986600,1.495986572265625,-1.0834592533290386,1.611374289652705,-6.820209007647633
1745463411614957600,1.50595751953125,-0.9062637805581092,2.042345201528072,-7.0756281223058695
1745463411624928800,1.5159287109375,-0.7605880661666393,2.538267601263523,-7.337838796800375
1745463411634899700,1.525899658203125,-0.8645824013873934,3.041253948035836,-7.73356362324953
1745463411644871700,1.53587158203125,-1.2778522368773817,3.448733509686589,-8.359894610139728
1745463411654842600,1.545842529296875,-1.6683061371862888,3.9917069989323615,-9.297492855638264
1745463411664813600,1.5558134765625,-1.8333694197453558,4.363355368745327,-10.316870974200963
1745463411674784800,1.56578466796875,-2.022413151220232,3.8443975458592172,-11.47416820167899
1745463411684755500,1.57575537109375,-2.1632349958397445,2.9808886189222332,-12.727180888593196
1745463411694727000,1.585726806640625,-2.1493442715227604,2.475873981192708,-14.086162717932462
1745463411704699100,1.59569921875,-2.1605378657102583,2.187723394277692,-14.920747748202084
1745463411714669800,1.605669921875,-2.6877134818434714,1.4788766212642193,-14.94270823559761
1745463411724641000,1.61564111328125,-3.8570024681493638,0.16635259171724318,-13.999790256381035
1745463411734612000,1.625612060546875,-5.416731618499756,-1.0016998385310172,-13.224285191589592
1745463411744583200,1.635583251953125,-6.901676746022701,-1.4880477697134018,-13.481898016899823
1745463411754554000,1.64555419921875,-8.016176449781655,-1.0647200660675764,-14.914700284731387
1745463411764526000,1.655526123046875,-8.777916024070977,-0.29287352378368375,-16.1304707439661
1745463411774497000,1.6654970703125,-8.511747551861404,0.4282926325768232,-15.796989315462111
1745463411784468000,1.675468017578125,-6.98030779966712,1.676703963175416,-13.923980105376243
1745463411794439200,1.685439208984375,-4.802491466897726,3.434610291787982,-11.210448291665315
1745463411804409900,1.695409912109375,-2.702583718717098,4.751927985352277,-8.578746619901061
1745463411814381000,1.705381103515625,-1.1895957151450216,5.424736061257124,-6.645487231513857
1745463411824353000,1.71535302734375,-0.3792459853351116,5.750702291825413,-5.055674200806021
1745463411834324200,1.72532421875,-0.03070128160342574,5.482964378342032,-3.8357869539022444
1745463411844295000,1.735294921875,-0.07251929276585578,4.819445524308085,-3.0767025702968236
1745463411854266000,1.74526611328125,-0.516537244675681,4.050422222751378,-2.615954652056098
1745463411864237000,1.755237060546875,-1.0599929644804447,3.154847593989968,-2.3339621493794023
1745463411874208000,1.7652080078125,-1.595762294501066,2.3064643399924036,-2.077552854640037
1745463411884180000,1.775179931640625,-2.0467782155394554,1.4657523512750863,-1.7662980171218514
1745463411894151000,1.78515087890625,-2.2103905686378478,0.7383949390590191,-1.3845385876610874
1745463411904122000,1.7951220703125,-2.092123085653782,0.23819267004728314,-0.7657271826207638
1745463411914093000,1.805093017578125,-1.9130502747036515,-0.07899871791303158,-0.09145750973075628
1745463411924064300,1.815064208984375,-1.7967197511315345,-0.1467547417998314,0.7407713128015398
1745463411934035000,1.825034912109375,-1.7779098367214201,-0.31458909650743005,1.7029440275862813
1745463411944007200,1.835007080078125,-1.736691691148281,-0.46392684053778643,2.5007608774289487
1745463411953978000,1.84497802734375,-1.6881833885669708,-0.5762941595673561,3.3155507816433905
1745463411963949000,1.854948974609375,-1.5695605162739752,-0.6185556767135858,4.075416671015322
1745463411973920000,1.864919921875,-1.4991712212741375,-0.3883779708176851,4.92868915835917
1745463411983891000,1.874890869140625,-1.68835289991498,-0.2684714884549379,5.667040842798352
1745463411993862100,1.884862060546875,-1.7262895395994184,-0.058256958657503126,6.137779701438546
1745463412003834000,1.894834228515625,-1.4407809916257857,0.36714930482804775,6.237445944327115
1745463412013805000,1.90480517578125,-0.9423322882831097,1.2610656449884174,5.6525639891564845
1745463412023776000,1.91477587890625,-0.2902106612499803,2.509430798357725,4.796411854723096
1745463412033747000,1.924746826171875,0.1582031144659966,3.7079309738397597,3.9114159031212328
1745463412043718100,1.93471826171875,0.47629400854930276,4.552247709050774,3.264536049199104
1745463412053689000,1.944689208984375,0.5105353008471429,4.804202946990728,2.9646166985571383
1745463412063661000,1.9546611328125,0.9390260863445699,4.971917474710941,2.706920286616683
1745463412073632000,1.964632080078125,1.3708195666491985,5.619246825966239,2.842859619891643
1745463412083603200,1.974603271484375,1.2804631500281394,6.617908904236555,3.5626708545118566
1745463412093574100,1.98457421875,0.8499323831357062,7.798611557221412,4.637010397318005
1745463412103544800,1.994544921875,0.22791706748753784,8.933829639360308,5.365805148860812
1745463412113516000,2.00451611328125,-0.7083622043669223,9.416411496007441,5.844916114526987
1745463412123488000,2.014488037109375,-1.779804856687784,9.15835677214861,6.313376506841182
1745463412133459200,2.024459228515625,-2.6925571224823592,8.320489066946505,6.665892890682816
1745463412143430000,2.034429931640625,-3.2844071630999445,7.4947045982480045,7.408117617163062
1745463412153401000,2.044401123046875,-3.5026354880049824,7.047467611226439,8.677039820870757
1745463412163372000,2.0543720703125,-3.2741806603789327,7.077386364150047,9.893124168360233
1745463412173343000,2.064343017578125,-2.728193960791826,7.7001435842067,11.000595580917595
1745463412183315000,2.07431494140625,-2.369562601201236,8.168997359752655,11.686990283626317
1745463412193286000,2.084285888671875,-2.05090961625576,7.869349227267503,11.872170325410366
1745463412203257000,2.094257080078125,-1.4945698649585246,7.478298822370171,11.66493977985978
1745463412213228000,2.10422802734375,-0.840339940534532,7.376794842660427,11.07934587702751
1745463412223199200,2.11419921875,-0.45801498614549635,7.2234408487260335,10.705256543803214
1745463412233170000,2.124169921875,-0.002241349186003208,7.092399808886647,10.46482632396221
1745463412243142100,2.13414208984375,0.502919419015944,7.315041858580708,9.831254864424466
1745463412253113000,2.144113037109375,0.8877648317933082,7.754677722948789,8.874973545765876
1745463412263084000,2.154083984375,1.0711220420643686,7.948386523625254,7.708495232966542
1745463412273055000,2.164054931640625,1.145969047125429,7.811407325908541,6.317123292154073
1745463412283026000,2.17402587890625,1.209306377787143,7.241653966286778,4.85436778460741
1745463412292997000,2.1839970703125,1.1375110153816639,6.094362584516405,3.6400375873088833
1745463412302969000,2.193968994140625,1.018219450046867,4.749463641065359,2.742631066945195
1745463412312940000,2.20393994140625,0.879023891454935,3.6181659472405907,2.2194144175708295
1745463412322911000,2.213910888671875,0.6188116973012685,2.7082079883396624,1.9934072753578422
1745463412332882200,2.223882080078125,0.3418352692209184,1.7331985883355139,1.9045745611727236
1745463412342853000,2.23385302734375,0.3000049830988049,0.7449135271728038,1.9502754051178692
1745463412352824000,2.243823974609375,0.4595053708337247,-0.12444120318293571,2.1161872673302886
1745463412362796000,2.253796142578125,0.8306745788276195,-0.80806994830966,2.1006968527317045
1745463412372767000,2.26376708984375,1.3640195312455297,-1.6176450404852627,1.9718889787718652
1745463412382738200,2.27373828125,1.818548428840935,-2.315636072963476,1.9733041062667964
1745463412392709000,2.283709228515625,2.16352740291506,-2.746418768790364,1.9637845827713607
1745463412402680000,2.29368017578125,2.413838380779326,-3.046910366362333,1.8182941618189215
1745463412412651000,2.303651123046875,2.6055963396489616,-3.202012080746889,1.4914385811954736
1745463412422623200,2.313623291015625,2.6234078906714915,-3.1822511492222545,0.9782295310944318
1745463412432594200,2.32359423828125,2.3718670787513254,-2.9002029708355663,0.482333434844017
1745463412442564900,2.33356494140625,1.9327125681594013,-2.2770997138202187,-0.01507365049123764
1745463412452536000,2.3435361328125,1.3128159982308745,-1.4138187504202127,-0.3950172627016902
1745463412462507000,2.353507080078125,0.3793243112683296,-0.7205512393325567,-0.4799959318071603
1745463412472478200,2.363478271484375,-0.43454555549174545,-0.06899988646805286,-0.7165057633340358
1745463412482449200,2.37344921875,-0.9809285609200596,0.7099550265163183,-0.9854407776474952
1745463412492421000,2.383421142578125,-1.349580087004602,1.1668974149942397,-1.0753171556666492
1745463412502392000,2.39339208984375,-1.538040465633571,1.595693320918083,-1.5274726021289824
1745463412512363000,2.403363037109375,-1.868585256163776,2.275185989153385,-2.4498896451085805
1745463412522334200,2.413334228515625,-2.6747368036314842,2.974410362818837,-4.124387038150429
1745463412532305000,2.423304931640625,-3.979464480213821,3.2367315119504925,-6.543077242875099
1745463412542276000,2.433276123046875,-6.13573913552165,3.823211549967527,-8.676416136014462
1745463412552248000,2.443248046875,-8.938949466592073,5.254750665995478,-8.859121312117576
1745463412562219300,2.45321923828125,-11.245704313963651,6.617644115820527,-7.728778142538666
1745463412572190000,2.46318994140625,-11.338912174493073,6.765940241843461,-6.9831251951754085
1745463412582161000,2.473160888671875,-8.668204772508144,6.375854298064112,-7.943529146721959
1745463412592132000,2.483132080078125,-5.0504772166848175,5.06559821344912,-10.47396824631691
1745463412602103000,2.49310302734375,-2.2541223044671117,2.5710084258705375,-13.13885497932434
1745463412612075000,2.503074951171875,-0.1819932284414768,0.2979348988264799,-15.077040718197821
1745463412622046000,2.5130458984375,1.4746236399948596,-0.5512462275505066,-15.864831264066694
1745463412632017200,2.52301708984375,2.3683517641067504,-0.2334451832592487,-15.732197402077912
1745463412641988000,2.532988037109375,2.3736814346969126,0.13963935683667658,-14.755767613881826
1745463412651959000,2.542958984375,1.7763684524983168,-0.11728431716561316,-13.264662794685362
1745463412661930000,2.552929931640625,1.365969788530469,-0.8720423620045185,-11.95929448211193
1745463412671902000,2.56290185546875,1.2339730554014443,-1.5019740037351845,-10.995770937240122
1745463412681873200,2.572873046875,1.0885212128937243,-1.9125901098459959,-10.15322471883297
1745463412691844000,2.582843994140625,0.9764607678562403,-2.2407851223796604,-9.259014364162088
1745463412701815000,2.59281494140625,1.0733990470856427,-2.3205191688299176,-8.321201599130035
1745463412711786000,2.602785888671875,1.3603180463790894,-2.154962111404538,-7.472337868139148
1745463412721757200,2.612757080078125,1.6441905175834892,-1.7230021884918212,-6.785909847682714
1745463412731728100,2.62272802734375,1.6326567316561937,-1.100443121355772,-6.243922446864843
1745463412741700000,2.6327001953125,1.1791489938020705,-0.490520832952857,-5.958477027255296
1745463412751671000,2.642671142578125,0.2926180877178907,-0.06954232278168201,-5.659032308387756
1745463412761642000,2.65264208984375,-0.8621727098971604,0.3776034788250923,-5.1686827403485776
1745463412771613200,2.66261328125,-2.072759629014134,0.7061568032771348,-4.799846213085949
1745463412781584100,2.672584228515625,-3.0136440565764904,0.6552338407695293,-4.560944517986476
1745463412791555000,2.68255517578125,-3.451337554705143,0.10464812295436858,-4.4918549074083565
1745463412801527000,2.692527099609375,-3.408555228555202,-0.7868249157071113,-4.463791426962614
1745463412811498200,2.702498291015625,-2.9381776044428345,-1.8009218789964914,-3.7824306267678733
1745463412821469200,2.71246923828125,-2.3120751656115055,-2.6170523841649294,-2.8475366717919703
1745463412831440100,2.722440185546875,-1.8150959502995012,-3.21316300483644,-1.8433733657568692
1745463412841411000,2.7324111328125,-1.4106114788115023,-3.490315812397003,-0.8505828098684549
1745463412851382000,2.742382080078125,-1.1532839001834392,-3.7106758886337277,-0.3094531949236989
1745463412861354200,2.752354248046875,-1.0223989276885985,-3.814666424462199,-0.3150254420980811
1745463412871325000,2.762324951171875,-0.8914490732640028,-3.7056098374158144,-0.3645101884961128
1745463412881296100,2.772296142578125,-0.8147527870744466,-3.4518718077123163,-0.35283377922773357
1745463412891267000,2.78226708984375,-0.7314636784911155,-3.031576019108295,-0.31406594941616056
1745463412901238300,2.79223828125,-0.5833434935569762,-2.314562306252122,-0.17289865235984325
1745463412911209200,2.802209228515625,-0.3477016770362854,-1.4320418048530816,0.05378244359195232
1745463412921180000,2.812179931640625,-0.013095628416538238,-0.5155079746931791,0.29770693528950215
1745463412931152100,2.822152099609375,0.328080409710668,0.7148930674403905,0.3619610885351896
1745463412941123000,2.832123046875,0.33634788731839504,2.033708890607953,0.2756365577787161
1745463412951094300,2.84209423828125,-0.06322780587263405,3.1170822192192076,0.2978127337515354
1745463412961065000,2.85206494140625,-0.6545907936256379,4.351512955260277,0.1553892991542816
1745463412971036200,2.8620361328125,-1.4001228180229663,5.695724500969052,0.14930150367319583
1745463412981007000,2.872007080078125,-2.1967441744707523,7.081288632285594,0.6285661985963583
1745463412990979000,2.88197900390625,-2.954641247987747,8.091908274853228,1.7537199828386305
1745463413000950000,2.891949951171875,-3.3416029222667216,9.03020853114128,3.2704549178540705
1745463413010921000,2.9019208984375,-3.345892143893242,9.867405205214023,5.056302561837435
1745463413020892200,2.91189208984375,-2.9810803421020506,10.27051488121748,6.673098292016983
1745463413030863000,2.921863037109375,-2.438794688989967,9.871389306414127,7.656504933488368
1745463413040834300,2.931834228515625,-1.8177099321901797,9.038198945373296,8.456230247300862
1745463413050805000,2.941804931640625,-1.141100125914812,8.202020508432387,9.155338301110268
1745463413060777200,2.951777099609375,-0.5658395471788943,7.568968688854575,9.350202701562642
1745463413070748200,2.961748046875,-0.5110521643280983,7.2258911644876,9.806285258340836
1745463413080719000,2.971718994140625,-0.7371591136537492,7.21033703700304,10.848652622824906
1745463413090690000,2.98168994140625,-1.0108207180976867,7.667265981477499,11.798815166342258
1745463413100661000,2.991660888671875,-1.5426362689912319,7.725524109178781,11.592817961978911
1745463413110632200,3.001632080078125,-2.194836879544705,7.556982482984662,10.497480054807662
1745463413120604200,3.011604248046875,-2.617657364320755,7.644878208580613,8.679108443838357
1745463413130575000,3.0215751953125,-4.328057260870933,7.648039887481928,6.104722650489211
1745463413140546000,3.031546142578125,-5.915232928812504,6.75760554421842,4.059506861960887
1745463413150517000,3.04151708984375,-6.88537910669446,6.140486037787794,3.969380016312003
1745463413160488200,3.05148828125,-6.9601347802102564,6.549511659836769,4.8191900882422924
1745463413170459100,3.061459228515625,-7.425572025310993,7.336972535359859,5.324132829779386
1745463413180431000,3.07143115234375,-7.808639614760875,7.670003297486901,4.602476259553432
1745463413190402000,3.081402099609375,-6.532063096907734,6.973550142100453,3.170330409803986
1745463413200373200,3.091373291015625,-4.037410765486955,5.88101560191214,2.324146127155423
1745463413210344200,3.10134423828125,-1.5296771264359355,4.655312362205982,2.188877240487933
1745463413220315000,3.11131494140625,0.5870259814620018,3.5861551904737947,2.376196632388234
1745463413230286000,3.1212861328125,2.193153894893825,2.5823271077424286,2.6851146975219247
1745463413240257000,3.131257080078125,3.1689754880636927,1.4627408944994211,3.129932932963967
1745463413250229200,3.141229248046875,3.8206428685232994,0.7391127319395542,3.678360595962405
1745463413260200000,3.151199951171875,4.163088816988468,-0.23111878613829612,4.04894688950181
1745463413270171100,3.161171142578125,4.012404919046164,-1.2862509396493433,4.287421299099922
1745463413280142000,3.17114208984375,3.552328908717632,-1.971854199719429,4.30792048177123
1745463413290113300,3.18111328125,2.8433272374033924,-2.312169273635745,4.145533286553621
1745463413300084200,3.191084228515625,2.0975325434818863,-2.6402391984850166,3.883314721013605
1745463413310056200,3.20105615234375,1.443759861306101,-2.819677481746673,3.4901939395830035
1745463413320027100,3.211027099609375,0.8207401909209787,-2.8390093742042777,3.0100325880810614
1745463413329998000,3.220998046875,0.2732546310782432,-2.841916786083579,2.5191841306090352
1745463413339969300,3.23096923828125,-0.12972206619530915,-2.8380361452579494,1.9503885101035237
1745463413349940000,3.24093994140625,-0.42053909584060306,-2.9169945311605927,1.4062261033341288
1745463413359911200,3.2509111328125,-0.7458921629466116,-2.9769740758270022,0.9152449593931437
1745463413369882000,3.260882080078125,-1.006281467232853,-2.861857165828347,0.507397148951888
1745463413379854000,3.27085400390625,-1.3323789229653775,-2.565793321570754,0.43231092830747364
1745463413389825000,3.280824951171875,-1.733049973645061,-1.9466811800181865,0.28260113609433174
1745463413399796000,3.2907958984375,-2.1277179845176635,-1.2545879734069108,-0.2631619838699698
1745463413409767200,3.30076708984375,-2.3429238928616045,-0.7521966699182987,-1.4443199794068933
1745463413419738000,3.310738037109375,-2.2099683977030216,-0.34460546458661556,-3.0122932264894247
1745463413429709300,3.320709228515625,-1.7462836953580378,0.07429156313538551,-3.8020577027797695
1745463413439681000,3.330680908203125,-0.9211747878335416,0.7720499559015035,-2.9627611338183284
1745463413449652200,3.34065234375,0.17538462395668028,1.9537673388868568,-1.530892347444594
1745463413459623200,3.350623046875,1.0539888286948202,2.455554246741533,-1.1795377008587122
1745463413469594000,3.360593994140625,1.696100153040886,2.2713562017321585,-2.3833123096123336
1745463413479565000,3.37056494140625,2.1811106981396673,2.015323923611641,-4.530113034132123
1745463413489536000,3.380535888671875,2.2618802251175043,2.199388697630167,-6.566394405576586
1745463413499508200,3.39050830078125,1.9788534109570084,2.5123861410319805,-8.038592864251136
1745463413509479200,3.400479248046875,1.7165958285808562,2.7741093242704866,-9.105242437076567
1745463413519450000,3.4104501953125,1.4358255611754953,2.9460335786402223,-10.157169072544574
1745463413529421000,3.420421142578125,1.1181050347745418,2.839717814734578,-11.34138119495511
1745463413539392000,3.43039208984375,0.9853978152886033,2.3004478561818598,-12.380144397467374
1745463413549363200,3.44036328125,1.1240334019102156,1.709807775875926,-13.106184881865978
1745463413559334100,3.450334228515625,1.5435644897520542,1.4940361964732407,-13.526331032866239
1745463413569306000,3.46030615234375,1.8119477154016495,1.459756910252571,-13.595868094950914
1745463413579277000,3.470277099609375,1.5940696652390063,0.6380570805191993,-13.35868197159767
1745463413589248300,3.480248291015625,1.0674106203258036,-0.47119127858281135,-12.85916008606553
1745463413599219200,3.49021923828125,0.756106098446995,-1.1385422581255435,-12.30687574763894
1745463413609190000,3.50018994140625,0.7149859333556146,-1.3599620725482702,-11.634808845490216
1745463413619161000,3.5101611328125,0.7444809079091995,-1.382608788642287,-10.867192488121987
1745463413629133000,3.520133056640625,0.6986614790856838,-1.43047820879817,-10.037077881264686
1745463413639104000,3.53010400390625,0.7678793922185897,-1.168040155288577,-9.259988762152194
1745463413649075000,3.540074951171875,1.0744424186587334,-0.6079068569272756,-8.544500651428104
1745463413659046100,3.550046142578125,1.4277788867115973,-0.10881927115917205,-7.976558725142478
1745463413669017000,3.56001708984375,1.5744705001473427,0.3636567865371704,-7.4624360673278565
1745463413678988000,3.569988037109375,1.5060954675793647,0.8658107741385698,-6.954918506866693
1745463413688959200,3.579959228515625,1.0998341226119548,1.3325906660199165,-6.412318527108431
1745463413698930700,3.5899306640625,0.4607985524494201,1.5438485673904419,-5.84684971293807
1745463413708901600,3.599901611328125,-0.26445757663846015,1.385596864542365,-5.351400775933265
1745463413718872800,3.609872802734375,-0.992880572259426,0.9752443778038025,-4.9444391006767745
1745463413728843800,3.61984375,-1.614067181998491,0.24802608179748056,-4.65058854855448
1745463413738814700,3.629814697265625,-2.135373175445944,-0.8221779686391353,-4.480318491132557
1745463413748785700,3.63978564453125,-2.405473580276966,-1.7229729623973369,-4.07475820710659
1745463413758758000,3.6497578125,-2.4450175090275703,-2.195100645047426,-3.4490795466452835
1745463413768728800,3.659728759765625,-2.3619383899331092,-2.423102175948024,-2.6857547489911315
1745463413778699500,3.669699462890625,-2.1601848144888876,-2.5959710176914927,-1.8352710155829786
1745463413788670700,3.679670654296875,-1.9198352586686611,-2.6224586271226404,-0.9714017309010028
1745463413798641700,3.6896416015625,-1.7338649432897566,-2.610463653424382,-0.28995354468375445
1745463413808612900,3.69961279296875,-1.6074667608201503,-2.6580133401066064,0.29604893894940615
1745463413818584600,3.70958447265625,-1.4938311754204332,-2.624982592642307,1.0058931985676287
1745463413828555800,3.7195556640625,-1.3967631323315202,-2.4023007954597473,1.771869387513399
1745463413838526700,3.729526611328125,-1.2988998472116886,-2.0516759244531393,2.555309336957335
1745463413848497700,3.73949755859375,-1.0958568164788185,-1.3373293849796055,3.2313240999490023
1745463413858468900,3.74946875,-0.8347792376674711,-0.0745183576285839,3.850763573759794
1745463413868439600,3.759439453125,-0.7456183144412935,1.6044523814350367,4.274047438263893
1745463413878410800,3.76941064453125,-0.745442081091553,3.944221025136113,3.613326105993986
1745463413888382700,3.7793828125,-1.3084629175879061,5.951884789383411,2.847103248810768
1745463413898354000,3.78935400390625,-2.8382079946935175,6.340979968559742,4.57405738979876
1745463413908324600,3.79932470703125,-3.6444425442695616,6.986357016703486,4.981414786374569
1745463413918295600,3.809295654296875,-3.691147012299299,7.0830024504661555,4.909252051961421
1745463413928266800,3.819266845703125,-3.342490226495266,6.638165510323644,5.130621012979746
1745463413938237700,3.82923779296875,-2.307780244896561,6.496507799401879,5.519002490928769
1745463413948209700,3.839209716796875,-1.3682979392170904,6.431739851415157,6.472499147304892
1745463413958180600,3.8491806640625,-1.0802819384671747,6.811658036923408,7.157094691637158
1745463413968151800,3.85915185546875,-1.3785364246368408,7.121805936113,7.75003369653523
1745463413978122800,3.869122802734375,-1.431257960999012,7.34836603603363,8.120726957580446
1745463413988093700,3.87909375,-1.8081708272114394,7.121933361884951,7.379704592627286
1745463413998064600,3.889064697265625,-2.5721909136533734,6.333028132772445,7.948539083838463
1745463414008035600,3.89903564453125,-3.0051112060308456,5.950437513184547,7.900905810526013
1745463414018007800,3.9090078125,-3.6855624901652333,6.4608297522991895,8.251817097258566
1745463414027978800,3.918978759765625,-3.9196950711667538,7.26718062173128,8.473083182424306
1745463414037949700,3.92894970703125,-3.8531121827125547,7.625918656566738,8.184643841695785
1745463414047920600,3.938920654296875,-3.7304125624999402,7.317017542567848,7.8021221956908695
1745463414057891600,3.9488916015625,-3.526498886412382,6.8151195755541325,7.345902276268601
1745463414067862800,3.95886279296875,-3.168538850212097,6.1354749316275115,6.961216730228066
1745463414077834500,3.96883447265625,-2.5185864569768306,5.831826331329346,6.093947573974728
1745463414087805700,3.9788056640625,-1.8496600448109208,5.554958770450949,5.059349089926481
1745463414097776600,3.988776611328125,-1.277625734645128,4.989672911632061,4.289890319561958
1745463414107747800,3.998747802734375,-0.7378999951489269,4.308475777566433,3.7538364004462954
1745463414117718800,4.00871875,-0.30376199754476546,3.6440813097417353,3.465738420501351
1745463414127689700,4.018689697265625,0.11658405994176864,3.574627249765396,3.182095666399598
1745463414137661700,4.02866162109375,0.42954877011775966,4.042506627321243,2.925812043866515
1745463414147633000,4.0386328125,0.6874244841478765,4.9483968983918425,2.499972649660706
1745463414157603800,4.048603759765625,0.7279040863133966,5.634730226302146,1.8601631725162266
1745463414167574500,4.058574462890625,0.36701398801058527,5.210346876123547,1.2101923668414354
1745463414177545700,4.068545654296875,-0.20424846099987626,4.0003713669031855,0.3690104225248098
1745463414187516700,4.0785166015625,-0.7278397889055311,2.5115268938541413,-0.32922377105951306
1745463414197487900,4.08848779296875,-0.9928548532962799,1.1365975537985562,-0.6407628323465585
1745463414207459600,4.09845947265625,-0.9256675692081451,0.21746318575143814,-0.6770867761373519
1745463414217430800,4.1084306640625,-0.5632113906323909,-0.5538029262959957,-0.31320494867265225
1745463414227401700,4.118401611328125,-0.02178410791531205,-1.1740613152742385,0.13838555738329886
1745463414237372700,4.12837255859375,0.6177868842981755,-1.567697645011544,0.6365437533468008
1745463414247343900,4.13834375,1.272696023157984,-1.9193997898608446,1.0904489660859107
1745463414257314600,4.148314453125,1.9066778170622884,-2.4996885720223188,1.4727122534155845
1745463414267286800,4.158286865234375,2.506875268656015,-2.9973674600362776,1.6396955442517995
1745463414277257700,4.1682578125,2.998739040650427,-3.2368156831026074,1.5836223593741654
1745463414287229000,4.17822900390625,3.297652721381187,-3.564464752191305,1.5690648417115212
1745463414297199600,4.18819970703125,3.265090175950527,-3.7151848904907703,1.7792916464686392
1745463414307170600,4.198170654296875,3.030259675812721,-3.3694828628391025,1.94936004383862
1745463414317141800,4.208141845703125,2.5052187336206435,-2.7884458926588294,1.9574939581945536
1745463414327112700,4.21811279296875,1.7233097931362689,-2.321145776295662,1.9504539765551685
1745463414337084700,4.228084716796875,0.9193465494930744,-2.072820419290662,1.8333575831770896
1745463414347055600,4.2380556640625,0.16017784860506654,-2.033251794490218,1.6318544753625988
1745463414357026800,4.24802685546875,-0.4860976096831262,-1.8978186571717262,0.9043266750156879
1745463414366997800,4.257997802734375,-0.7657225064456462,-1.4180448436826467,-0.12111848850101231
1745463414376968700,4.26796875,-0.7279635614156723,-0.6932353623837232,-1.172531036967039
1745463414386939600,4.277939697265625,-1.2492867982588707,-0.4422007464200258,-1.9413895033508537
1745463414396910600,4.28791064453125,-1.7428771017849445,-0.3749064948260784,-2.556518420486152
1745463414406882800,4.2978828125,-2.215921314758062,0.031948212924599644,-3.567774607391655
1745463414416853800,4.307853759765625,-2.733990372110903,0.5588906048238277,-4.841236500355601
1745463414426824700,4.31782470703125,-3.77786784889698,1.1833406002730131,-6.066580843621492
1745463414436795600,4.327795654296875,-3.224662303972244,2.2904747437000275,-6.633867520868778
1745463414446766600,4.3377666015625,-3.0832804873824116,2.942565025746822,-7.004826739373803
1745463414456737800,4.34773779296875,-3.3275931016147133,2.84260535286963,-7.4928352972447865
1745463414466708700,4.357708740234375,-3.6709225549161433,2.422767829427123,-8.37529442384541
1745463414476680700,4.3676806640625,-4.183184679555893,1.7116618793100118,-9.223598767387866
1745463414486651600,4.377651611328125,-4.522501974606514,0.8891261832743883,-10.073170938909053
1745463414496622800,4.387622802734375,-4.3480444023668765,0.45257016474306583,-10.671650042277573
1745463414506593800,4.39759375,-4.030965827131271,0.4204764058679342,-10.909323656886816
1745463414516564500,4.407564453125,-4.0418963864684105,-0.1164291616410017,-10.763882920295
1745463414526535700,4.41753564453125,-4.308405342678726,-0.8914128329068421,-10.546886183011532
1745463414536507600,4.427507568359375,-4.288921474529802,-1.0598626891642808,-10.222537324512004
1745463414546478800,4.437478759765625,-4.166550355619192,-0.9209750274777412,-9.961543624591826
1745463414556449500,4.447449462890625,-4.115056315225362,-0.7986100460469723,-9.765106275734304
1745463414566420700,4.457420654296875,-4.074832733647525,-0.6540525220304727,-9.505077621454
1745463414576391700,4.4673916015625,-3.9667093357980248,-0.4845008420109749,-9.422750635901092
1745463414586363000,4.47736279296875,-3.5189109155014155,-0.2216729124009609,-9.569134790822863
1745463414596333800,4.487333740234375,-2.9284932457745074,0.1529576880931854,-9.480834576079248
1745463414606305800,4.497305908203125,-2.3057352950654924,0.5510819768995047,-9.100905284655093
1745463414616276700,4.50727685546875,-1.8068984691880643,0.9812836579680442,-8.610160579818487
1745463414626247700,4.51724755859375,-1.526776874949783,1.2964748120218514,-8.04658795465827
1745463414636219000,4.527218994140625,-1.416988612627983,1.524681510105729,-7.435569103190303
1745463414646189600,4.537189453125,-1.4358816752769052,1.4460744218587875,-6.743901428514719
1745463414656160800,4.547160888671875,-1.6410020968057215,0.9536755200743675,-6.01906447468698
1745463414666131700,4.557131591796875,-1.8768973035655914,0.1551233416944742,-5.311075195285677
1745463414676104000,4.56710400390625,-1.910464642124623,-0.5458849927783012,-4.678705512753129
1745463414686074600,4.57707470703125,-1.6863690326213836,-0.9662374800056218,-3.9532635787695645
1745463414696045600,4.587045654296875,-1.3057868302464484,-1.1803273899316786,-3.2337884442359206
1745463414706016300,4.597016357421875,-0.9307672304347157,-1.340465929439664,-2.5022622219026087
1745463414715987500,4.606987548828125,-0.7647790881156921,-1.4049205736935138,-1.7796832761347292
1745463414725958400,4.61695849609375,-1.0113409425795077,-1.3252391342133283,-1.129113920044899
1745463414735929300,4.626929443359375,-1.3268189507506787,-1.1135101081997156,-0.6127168875575065
1745463414745901300,4.6369013671875,-1.4468743400648236,-0.46863691792488094,-0.23544103325158355
1745463414755872300,4.646872314453125,-1.3659635049201548,0.34746319210529325,0.17490940766036508
1745463414765843500,4.656843505859375,-1.100070196390152,0.5555547383993864,0.6796317844450473
1745463414775814400,4.666814453125,-0.519309120541811,0.5038491010814905,1.0755810672998427
1745463414785785300,4.676785400390625,0.11275544156432152,0.6491150656282901,1.4869213960319756
1745463414795756300,4.68675634765625,0.5854278986155986,1.1094698928982019,2.0715835709720847
1745463414805727200,4.696727294921875,0.8266926695846021,1.8581383886903524,2.8943899006426332
1745463414815699500,4.706699462890625,0.8126688204072415,2.401074468535185,3.848335469830036
1745463414825670100,4.716670166015625,0.7906323451660573,2.84980373994112,4.6478673068970435
1745463414835641300,4.726641357421875,0.8552220139764248,3.6660651780128477,5.429096010032296
1745463414845612300,4.7366123046875,0.9833341607570648,4.608351289066672,6.139145144572853
1745463414855583500,4.74658349609375,1.1435261840179562,5.441873074018955,6.296980083313584
1745463414865554400,4.756554443359375,1.0223603492438793,6.265782396495342,6.304027663737535
1745463414875525000,4.766525146484375,0.5143630424417555,6.812464092609286,6.382559348660707
1745463414885497300,4.776497314453125,-0.2259879991210997,7.161540565130114,6.283942907086014
1745463414895468300,4.78646826171875,-0.9639046531438827,7.691473955538869,6.1864908331155775
1745463414905439500,4.796439453125,-1.6809575289666652,8.148580010145903,6.328845294129848
1745463414915410200,4.80641015625,-2.3372366410054264,8.56356541738212,6.803701524960994
1745463414925381400,4.81638134765625,-2.699226224982738,8.761119203048944,7.401516026940941
1745463414935352300,4.826352294921875,-2.534700848692655,8.737435545122622,7.683443209296464
1745463414945323300,4.8363232421875,-2.958881077514589,8.660351720920204,8.420909343072772
1745463414955295200,4.846295166015625,-2.7653236680075524,9.049278557792306,8.267826567295193
1745463414965266200,4.85626611328125,-2.7598157182410357,8.901254234448075,8.274861288237572
1745463414975237400,4.8662373046875,-3.007782763327658,8.462462419688702,8.691847513902188
1745463414985208300,4.876208251953125,-3.025517157460749,7.745825723451375,8.67902953338325
1745463414995179500,4.886179443359375,-2.7556606443881986,7.730415972873568,8.592079564204811
1745463415005150200,4.896150146484375,-2.5872894063249228,8.270506015637517,8.311475154885649
1745463415015121400,4.906121337890625,-2.5808316084876655,8.62940070233941,7.888460754972696
1745463415025093400,4.91609326171875,-2.5100495147779585,8.35686912483871,7.2326669422328465
1745463415035064600,4.926064697265625,-2.2146996640086174,7.628654803532362,6.069189564815163
1745463415045035300,4.93603515625,-1.510961027789116,7.121933361884951,4.558873849192262
1745463415055006200,4.946006103515625,-0.8290507770180702,6.4916708807647225,3.0131121416568756
1745463415064977400,4.955977294921875,-0.271688404674828,5.73875349535644,1.9219547350406645
1745463415074948400,4.9659482421875,0.19152765724509954,5.126954307165741,1.463445827898383
1745463415084919600,4.97591943359375,0.5300733834013343,4.598224447327852,1.5905787543833254
1745463415094891300,4.985891357421875,0.7485843246400355,3.8426211838364597,1.9490397258430718
1745463415104862500,4.995862548828125,0.85067604110986,2.8663655831634998,2.434049101898074
1745463415114833400,5.00583349609375,0.9047259034663439,1.803313158047199,2.802783045569062
1745463415124804400,5.015804443359375,0.9001061347112059,0.6602975538998842,3.1191338910520074
1745463415134775300,5.025775390625,0.7508519773110747,-0.31843232793211934,3.5602772373735903
1745463415144746200,5.035746337890625,0.4555772376045584,-1.223643384566903,3.976588340255618
1745463415154717400,5.045717529296875,0.16343202809542418,-1.9078174886167047,4.354443163493276
1745463415164689400,5.055689453125,-0.06461918716579676,-2.2720956219226123,4.687079373344779
1745463415174660400,5.065660400390625,-0.24259996509552,-2.325790971753001,4.919525608694553
1745463415184631300,5.07563134765625,-0.3578537993468344,-2.2965847510129214,5.080830853894352
1745463415194602200,5.085602294921875,-0.3057376815319061,-2.4791326907277105,5.0572658539116375
1745463415204573400,5.095573486328125,-0.15162044814005493,-2.6517373285770414,4.607562184515595
1745463415214544400,5.10554443359375,0.03667626435980201,-2.695786313661933,3.857426831041276
1745463415224515300,5.115515380859375,0.21352964569479227,-2.6568752759873866,3.087909608487785
1745463415234487300,5.1254873046875,0.3130662708543241,-2.4275989028453826,2.267987017560005
1745463415244458500,5.13545849609375,0.34097836013063787,-1.9474100788146256,1.479899242310226
1745463415254429400,5.145429443359375,0.40887861479371784,-1.3955068486601114,0.6788724905103445
1745463415264400100,5.155400146484375,0.4252762073650956,-0.7172527823090553,-0.07472937003076076
1745463415274371300,5.165371337890625,0.1287549747288227,-0.06575695902407169,-0.6784869983240962
1745463415284342300,5.17534228515625,-0.06408376511484384,0.4341670775681734,-1.2910527869731188
1745463415294313500,5.1853134765625,-0.24152137607857582,0.8817308123260736,-1.9403937703117726
1745463415304285200,5.19528515625,-0.38770050994753835,1.340959850436449,-2.622779821901023
1745463415314256400,5.20525634765625,-0.5114356106877327,1.5190683463990688,-3.3090660957992073
1745463415324227300,5.215227294921875,-0.5846116137966513,1.5322732804089785,-3.918972602111101
1745463415334198300,5.2251982421875,-0.2842217230334878,1.5248282251000402,-4.677159744615852
1745463415344169500,5.23516943359375,0.38799364767521616,1.824800182712078,-5.746573229196668
1745463415354140200,5.24514013671875,1.0898138830527662,2.5325948163241145,-6.983183062842488
1745463415364111400,5.255111328125,1.8345313031315802,3.10517901545763,-8.185036055883765
1745463415374083300,5.265083251953125,2.3709666227802635,3.5510359462976453,-9.041621321037411
1745463415384054500,5.275054443359375,2.690716463051736,4.087852081957459,-9.961557653117179
1745463415394025200,5.285025146484375,2.7283327847406267,4.444813754770159,-11.005248375159502
1745463415403996200,5.29499609375,2.344549155975878,4.151751430416107,-11.89607142547965
1745463415413967400,5.30496728515625,1.7546093328937886,3.3929818118482826,-12.549363484531641
1745463415423938300,5.314938232421875,1.117711359281838,2.817382648807764,-13.020759345775842
1745463415433909500,5.324909423828125,0.48212096113711594,2.87703252312839,-13.31278648186326
1745463415443881200,5.334881103515625,-0.3958499141335487,3.145884535333514,-13.569051399695873
1745463415453852400,5.344852294921875,-1.6012383878245948,2.4362638553380966,-13.498345293831825
1745463415463823400,5.3548232421875,-2.625862005825341,1.0031745872586966,-12.954050200593471
1745463415473794600,5.364794677734375,-3.024784459272027,-0.01989946321249008,-12.367095530802011
1745463415483765200,5.37476513671875,-2.9461504830181595,-0.3657084583699703,-11.717414647984503
1745463415493736200,5.384736083984375,-2.683570390689373,-0.22523381975293158,-10.977791043913363
1745463415503707400,5.394707275390625,-2.5574676840350032,-0.12631050418615342,-10.04186394649744
1745463415513678300,5.40467822265625,-2.469465575455129,-0.18431027321219443,-9.014925621813536
1745463415523650300,5.414650390625,-2.223009519453347,-0.09293021263182162,-8.08257989001572
1745463415533621200,5.424621337890625,-1.8475085658654569,0.26108546985685827,-7.316340666219592
1745463415543592400,5.434592529296875,-1.4843924620762468,0.7337450674265623,-6.583492255371809
1745463415553563400,5.4445634765625,-1.2339797774031758,1.156754791164398,-5.8735933429569
1745463415563534300,5.454534423828125,-1.216957330931723,1.2751608058363197,-5.274530302220582
1745463415573505300,5.46450537109375,-1.4572472655192017,1.0253647917568682,-4.750129119236767
1745463415583476200,5.474476318359375,-1.8283894393756985,0.6135930858701467,-4.375871443708241
1745463415593448400,5.484448486328125,-2.30933405020982,0.15084814859330653,-4.10623938704133
1745463415603419400,5.49441943359375,-2.774669588501751,-0.5491968938052654,-3.804177763673663
1745463415613390300,5.504390380859375,-3.0500729220464824,-1.5282295579761265,-3.5951007134735584
1745463415623361300,5.514361328125,-2.9468238522350787,-2.30322608872354,-3.4474002152562138
1745463415633332200,5.524332275390625,-2.509688280250132,-2.754610258552432,-3.3110894183203574
1745463415643303400,5.534303466796875,-1.9490739203736185,-3.0445015516549345,-3.058738166800141
1745463415653274400,5.5442744140625,-1.3828259385243058,-3.238431301605701,-2.70423966923058
1745463415663246300,5.554246337890625,-0.9089262777656316,-3.389067853274941,-2.540097447039187
1745463415673217300,5.56421728515625,-0.6405836763873696,-3.3157968653589487,-2.564241123692691
1745463415683188500,5.5741884765625,-0.5184545495390892,-2.900603368330002,-2.6820494647324082
1745463415693159400,5.584159423828125,-0.5040300106063484,-2.2703923251360654,-2.9348525516733526
1745463415703130400,5.59413037109375,-0.65957800745368,-1.5070587596535683,-3.1546295673251152
1745463415713101300,5.604101318359375,-1.0544821651697158,-0.7173100654542446,-3.056746992982924
1745463415723072500,5.614072509765625,-1.3925874540820717,0.025541268491744994,-2.5627187364310027
1745463415733044500,5.62404443359375,-1.6672782554432748,0.9418892206907272,-1.5387541668608784
1745463415743015400,5.634015380859375,-1.7419632018104194,1.9503589917480944,-0.07040332352519035
1745463415752986400,5.643986328125,-1.6741949029639362,3.2067128057837486,1.414627144193649
1745463415762957600,5.65395751953125,-1.5209329712271689,4.6807916713774205,2.8408468187645077
1745463415772928500,5.663928466796875,-1.3710752949759364,5.931947916769981,4.478019858801365
1745463415782899500,5.6738994140625,-1.3573635804876685,6.665044164898991,5.8044911651581526
1745463415792870400,5.683870361328125,-1.300742698599398,6.821098065441847,6.826612444949149
1745463415802842400,5.69384228515625,-1.0508271497935056,6.858854087862372,7.457810745614767
1745463415812813600,5.7038134765625,-0.6086942079126835,7.145809912034869,7.525994639524817
1745463415822784500,5.713784423828125,-0.37958208542168137,7.6932023867666715,7.606610729506611
1745463415832755500,5.72375537109375,-0.48125236160904167,8.220791844397782,7.592859852051735
1745463415842726400,5.733726318359375,-0.747818893225491,8.700528833007812,7.456866742762923
1745463415852697300,5.743697265625,-1.019574517917633,8.819456241205334,7.6570064532697195
1745463415862668500,5.75366845703125,-1.4140946447521447,8.46073048132956,8.14231861166358
1745463415872640300,5.76364013671875,-2.1066209820836783,8.051525411060451,8.175862569347023
1745463415882611500,5.773611572265625,-2.5705054447844624,7.170601823464035,8.677620251107216
1745463415892582400,5.78358251953125,-3.0966049561187625,6.722666917306184,10.588723921787738
1745463415902553600,5.7935537109375,-3.478077093070745,7.2540616124391555,10.784013854175805
1745463415912524500,5.803524658203125,-3.845813842397928,8.280415415233373,10.706865148043631
1745463415922495500,5.81349560546875,-4.032575892676413,8.558450266325472,10.32670497047305
1745463415932466400,5.823466552734375,-3.8232144725769754,7.618111197686195,9.992530299007893
1745463415942438400,5.8334384765625,-3.1392183554425834,7.017378762432933,9.349619348716736
1745463415952409600,5.84340966796875,-2.1852003055408598,7.497462372523546,7.849540364947915
1745463415962380300,5.85338037109375,-1.4683815307348966,7.5462401396960015,6.4053708999276155
1745463415972351500,5.8633515625,-0.9575757423833012,6.637520782679319,5.440491264271736
1745463415982322400,5.873322509765625,-0.3739969787657261,5.831229534479975,4.6231654118388885
1745463415992293400,5.88329345703125,0.026822248212993144,5.513767512884736,3.8772581974536178
1745463416002264600,5.8932646484375,0.10942863522917032,5.321210804852843,3.2896202215731143
1745463416012235500,5.903235595703125,-0.039187808789312835,5.074824891477823,2.824032754346728
1745463416022207500,5.91320751953125,-0.1379211547419429,4.890130587384104,2.4211218157857655
1745463416032178400,5.923178466796875,-0.3046630380377173,4.627291551858186,2.1456454170048236
1745463416042149600,5.933149658203125,-0.6129556647494435,3.9918239033102987,1.9478169060498476
1745463416052120300,5.943120361328125,-0.9094684218183159,3.093556382203102,1.8200789994090794
1745463416062091500,5.953091552734375,-1.0951304019004107,1.9749989274859427,1.922267454251647
1745463416072062500,5.9630625,-1.0802131110146642,0.7467652925193309,2.2090929300427438
1745463416082033400,5.973033447265625,-0.869728824365139,-0.638301995190978,2.2299273360177874
1745463416092005400,5.98300537109375,-0.5999301789596676,-1.7845879993110894,2.1161001735687255
1745463416101976300,5.992976318359375,-0.5448454205974936,-2.6710867566913366,2.4392118914887306
1745463416111947500,6.002947509765625,-0.5493532534107566,-3.0324539709866043,2.8793931147798895
1745463416121918500,6.01291845703125,-0.41172231378704305,-3.0470109041273594,2.9165009024247524
1745463416131889700,6.0228896484375,-0.32838907380104065,-3.145718531116843,2.9260949524611233
1745463416141860600,6.032860595703125,-0.27752134861201044,-3.311557328093052,2.8284017632111906
1745463416151831300,6.042831298828125,-0.1987245830118656,-3.284084799277782,2.505144791601598
1745463416161803500,6.052803466796875,-0.054281040763854975,-3.1130963644534346,1.9816168843209743
1745463416171774500,6.0627744140625,0.14406097267121076,-2.880141010537743,1.325394617035985
1745463416181745400,6.072745361328125,0.28418372911065815,-2.4447014288157223,0.7117427867159247
1745463416191716400,6.08271630859375,0.30115532217770813,-1.9156494974166154,0.1928162357509136
1745463416201687600,6.0926875,0.18689912066161632,-1.3116653668910265,-0.14948592032939195
1745463416211658500,6.102658447265625,-0.049532092671096324,-0.6320476109713316,-0.5008206931710243
1745463416221629400,6.11262939453125,-0.5410138796105981,0.12227379601597785,-0.9294166926085948
1745463416231601400,6.122601318359375,-1.1276315725326538,0.7879150490313768,-1.3745494008272885
1745463416241572400,6.132572265625,-1.601318467323482,1.2715057904601097,-1.9030618185222148
1745463416251543600,6.14254345703125,-2.0129247535154224,1.6253589758634566,-2.446804976966232
1745463416261514500,6.152514404296875,-2.4456930702015756,1.874880849176645,-3.171817433491349
1745463416271485400,6.1624853515625,-2.4942490113168954,1.8574053982406853,-4.095480969400704
1745463416281456400,6.172456298828125,-1.9603180757045744,2.0494833828449246,-5.2226621678173535
1745463416291427300,6.18242724609375,-1.1263114298447965,2.4532915625065566,-6.508979742962121
1745463416301398500,6.1923984375,-0.290023395049572,2.8367238936156034,-7.6651067576169964
1745463416311370500,6.20237060546875,0.34146833560466766,3.193979580938816,-8.521970839712024
1745463416321341400,6.212341552734375,0.8986590046428143,3.422923361125588,-9.038518678846955
1745463416331312400,6.2223125,1.2828545752093194,3.3798844298660753,-9.624794134202599
1745463416341283600,6.23228369140625,1.4452802027411757,2.6386422846823927,-10.326471161717176
1745463416351254500,6.242254638671875,1.6121397210672497,1.2142372583180665,-11.107719738596677
1745463416361225500,6.2522255859375,1.7999486500501631,-0.04655424590408802,-12.120409757697582
1745463416371196400,6.262196533203125,1.9595409538522361,-0.5649713860422373,-13.204865036326646
1745463416381168400,6.27216845703125,1.511913798469305,-0.47097675904929637,-14.061719181549549
1745463416391139600,6.2821396484375,0.5240265044525265,-0.667744947296381,-14.389346038806437
1745463416401110500,6.292110595703125,-0.3197323046147823,-1.0248141721367836,-14.091975203603505
1745463416411081500,6.30208154296875,-0.7449497675299644,-0.9324439314752817,-13.782142361712454
1745463416421052400,6.312052490234375,-0.7521507849499582,-0.3824877437353134,-13.17143856754303
1745463416431023400,6.3220234375,-0.7250400751844048,0.13120061431527136,-12.015453007185458
1745463416440994600,6.33199462890625,-0.7481283975660801,0.36144963188171386,-10.73105850905776
1745463416450966300,6.34196630859375,-0.7640437595784664,0.5460334613382816,-9.53516062502861
1745463416460937500,6.3519375,-0.6367363533094524,0.7274842534661292,-8.615343535414338
1745463416470908400,6.361908447265625,-0.5212570397391915,1.0990268248170614,-7.979033590823412
1745463416480879600,6.371879638671875,-0.5911892386212945,1.7789736665606497,-7.501783158332109
1745463416490850600,6.3818505859375,-1.1362909720674157,2.4212638546049594,-7.046308504319191
1745463416500821200,6.3918212890625,-1.9420391994312405,2.8732646950274705,-6.578145049124956
1745463416510792400,6.40179248046875,-2.6939605595394966,3.142186265337467,-6.120687696862221
1745463416520764700,6.4117646484375,-3.325195392823219,3.051535688075423,-5.651651550486683
1745463416530735600,6.421735595703125,-3.873554374499619,2.5779759267956015,-5.2253655815571545
1745463416540706300,6.431706298828125,-4.22908659903109,1.69501060423851,-4.743573998504877
1745463416550677500,6.441677490234375,-4.195039075739682,0.7242635378539561,-4.307547849066555
1745463416560648400,6.4516484375,-3.8445018830165263,-0.053335284346342084,-3.866491011984646
1745463416570619600,6.46161962890625,-3.371078315337002,-0.663384413999319,-3.3912554264470933
1745463416580590600,6.471590576171875,-2.930534688474238,-1.2685253133445977,-2.8562667984753847
1745463416590562600,6.4815625,-2.620870773409307,-1.7218267149716615,-2.2130393295809627
1745463416600533500,6.491533447265625,-2.3774343574896455,-1.9702040944248436,-1.5435513380095363
1745463416610504400,6.50150439453125,-2.2280635879725215,-2.0291297461241484,-0.7020841470107436
1745463416620475600,6.5114755859375,-2.0915303804576397,-1.986367293718457,0.2694569923609495
1745463416630446300,6.5214462890625,-1.8565476123675704,-1.8354694607645272,1.1023492472380398
1745463416640417500,6.53141748046875,-1.5905904448211192,-1.6737842763364315,1.6550930198699234
1745463416650388500,6.541388427734375,-1.4244192010201513,-1.4793734648704528,2.041897457760572
1745463416660360400,6.5513603515625,-1.266819240079075,-1.1744926924288273,2.458594345089793
1745463416670331400,6.561331298828125,-1.122898552661389,-0.585216301691532,3.0548920127660035
1745463416680302300,6.57130224609375,-0.9167105019010603,0.3954226286321878,3.758787300851941
1745463416690273500,6.5812734375,-0.7442214532554149,1.8779250391781328,4.731099132335186
1745463416700245200,6.591245361328125,-0.6440940225958823,3.6681186034113167,5.904195986491441
1745463416710216000,6.6012158203125,-0.5282651649355888,4.8468590164124965,6.5927095810502765
1745463416720187000,6.611186767578125,-0.2822749728798866,5.480210695719719,5.781126071661711
1745463416730158000,6.621157958984375,-0.42913609766364097,6.195154616564512,3.8291456161916253
1745463416740130000,6.631130126953125,-1.0038342202112078,6.80203213044405,2.4224907660514114
1745463416750101000,6.64110107421875,-1.7975459728226064,6.951295055672526,3.194930598053336
1745463416760072000,6.651072021484375,-2.2491486077077685,7.462453602984547,5.83006341331005
1745463416770043100,6.661043212890625,-1.7583046802803872,8.002787391376495,8.067296980687976
1745463416780014000,6.67101416015625,-0.9012462446570396,7.738140429645776,8.457816055187582
1745463416789985000,6.680985107421875,0.05095628025531768,6.4958987275928255,7.638743066826462
1745463416799956000,6.6909560546875,0.632874709445238,4.9425505104511975,6.451918131569028
1745463416809928000,6.700927978515625,0.6581053045526146,4.14012704359591,5.6327890291064975
1745463416819899100,6.710899169921875,0.594364361526072,4.818797289532423,5.719886882323026
1745463416829870000,6.7208701171875,0.6636309361062943,6.850093273779749,5.7591854580104345
1745463416839841000,6.730841064453125,0.21020678488239644,8.374911562007664,5.824609824079275
1745463416849812000,6.74081201171875,-1.4238216735184193,9.001963848909735,6.085398356816172
1745463416859783200,6.750783203125,-2.0529683023512364,10.045644634079933,8.040615309989452
1745463416869754000,6.760754150390625,-3.378661610072851,10.445700767731665,9.288226430121064
1745463416879726000,6.77072607421875,-4.339764065277576,9.577298808056115,9.979529363137482
1745463416889697000,6.780697021484375,-4.396656457583606,8.441672729638219,9.769547473052144
1745463416899668000,6.79066796875,-3.6798911665305494,7.736461098256707,8.419196693935989
1745463416909639200,6.80063916015625,-2.490475045736134,7.272301033484935,6.686765582841634
1745463416919610000,6.810610107421875,-1.2436147439718246,6.649363780686259,5.04057015517652
1745463416929581000,6.8205810546875,-0.09873130012601614,6.102975514560938,3.7381349734455345
1745463416939552000,6.830552001953125,0.7308695119902491,5.911953761011362,3.349397521665692
1745463416949524200,6.840524169921875,1.066395598064363,5.7789463895350695,3.6668157041192053
1745463416959495200,6.8504951171875,1.021228714865446,5.3116211387306445,4.3361277546018355
1745463416969465900,6.8604658203125,0.9046087068274616,4.86083902644813,4.954658881396055
1745463416979437000,6.87043701171875,0.6479416379347444,4.254416270598769,5.530453859269619
1745463416989408000,6.880407958984375,0.1938403181016445,3.278572173336148,6.085746731862425
1745463416999379200,6.890379150390625,-0.22414105608016252,2.287981757840514,6.111815239098668
1745463417009350100,6.90035009765625,-0.265519068390131,1.380230953595042,5.734492330780625
1745463417019322000,6.910322021484375,-0.18176774912253021,0.4151619328469038,5.005464939525723
1745463417029293000,6.92029296875,0.06630538668707013,-0.4899661216795444,4.2335201975643635
1745463417039264000,6.930263916015625,0.5895519928082823,-1.1678577844589948,3.4742426294744013
1745463417049235200,6.940235107421875,1.0705623623549938,-1.7115408832788466,2.6540748316138982
1745463417059206000,6.950205810546875,1.2916440308645367,-1.9821312635838984,2.186129987606406
1745463417069177000,6.960177001953125,1.023546928679943,-2.2355764478206632,1.9382664028942584
1745463417079148000,6.97014794921875,0.33902941801995035,-2.4170517898678776,1.6734180733725428
1745463417089120300,6.980120361328125,-0.465847725597769,-2.5161533846110102,1.346450264546275
1745463417099091000,6.990091064453125,-1.26766314355731,-2.958687893030047,1.1043766614124177
1745463417109062000,7.000061767578125,-1.915085141532123,-3.6002982821166514,0.7762859860360622
1745463417119033000,7.010033203125,-2.242942300413549,-4.04879783641994,0.4471422944754362
1745463417129004000,7.020004150390625,-2.4550059652090073,-3.855304724320769,0.1676353250041604
1745463417138975200,7.029975341796875,-2.5346228150203824,-3.246111919236183,-0.14439648823589085
1745463417148946000,7.03994580078125,-2.3792532434798774,-2.6087971815168856,-0.4970376675009727
1745463417158918100,7.049918212890625,-2.068642987475544,-1.8508868101269005,-0.9929805255025624
1745463417168889000,7.05988916015625,-1.7768311015740037,-1.1239373941898345,-1.4748983652830123
1745463417178860000,7.069860107421875,-1.362012283076346,-0.3622901743590832,-1.9138412789508699
1745463417188831000,7.0798310546875,-0.8051862095668911,0.33732173731923104,-2.5490947002261874
1745463417198802000,7.089802001953125,-0.11939999414533375,1.0081710803717374,-3.414960127161443
1745463417208773000,7.099773193359375,0.5698993439637124,1.5775602828562258,-4.370545572510362
1745463417218744000,7.109744140625,1.1307916439987717,1.9116116202026605,-5.441353434059024
1745463417228716000,7.119716064453125,1.3205309565223753,2.181713924729824,-6.744024178111553
1745463417238687000,7.12968701171875,1.2441172866664827,2.432562078210711,-8.267372393786907
1745463417248658000,7.139657958984375,1.2003352819547057,2.663055425927043,-10.028573087769747
1745463417258629000,7.149629150390625,1.3279507312595844,2.9149264927148817,-11.938666704624891
1745463417268600000,7.15960009765625,1.4282114329099653,3.0455443387061356,-13.558939171004294
1745463417278571000,7.169571044921875,1.2363028135232628,2.786608155837655,-14.74705005441904
1745463417288542000,7.1795419921875,0.8223451418995856,2.3360867403179406,-15.484955164134501
1745463417298513000,7.189512939453125,0.5596035753987729,2.131698140195012,-15.638511402642726
1745463417308485000,7.199485107421875,0.5102713892139494,2.2933926769733426,-15.195573574119805
1745463417318455800,7.209455810546875,0.27422479128465055,1.9098007713884113,-14.439824180155991
1745463417328427000,7.219427001953125,-0.11353665506988764,0.796803288885951,-13.461535612350701
1745463417338398000,7.22939794921875,-0.3831364169023931,-0.14775076709985732,-12.197217103046178
1745463417348369200,7.239369140625,-0.47815644142031666,-0.9424743271023035,-10.916514445173739
1745463417358340000,7.249340087890625,-0.342561537668854,-1.684282873997092,-9.75873557165861
1745463417368311000,7.25931103515625,-0.12431143932342528,-2.136640272772312,-8.77977655724585
1745463417378283000,7.269282958984375,0.16976145031265913,-2.1807582314401865,-7.962059075146913
1745463417388254200,7.279254150390625,0.3544540739059448,-1.8426134873002766,-7.348065007260441
1745463417398225200,7.28922509765625,0.28881686880402263,-1.3069371693253515,-6.9141615490645165
1745463417408196000,7.299196044921875,0.07111753620915115,-0.6889999167710542,-6.614135815438628
1745463417418167000,7.3091669921875,-0.07687865701913833,0.07801789018213748,-6.332322030329704
1745463417428138000,7.319137939453125,-0.3255284236729145,1.0463269157648085,-6.084326343670487
1745463417438109200,7.329109130859375,-0.6737761172194033,1.8282728272587059,-5.797969654434919
1745463417448081000,7.339080810546875,-1.1412018327236175,2.2117712093412876,-5.45212091178894
1745463417458052000,7.349052001953125,-1.7588018161475658,2.1923381945967675,-4.833400692163408
1745463417468023000,7.35902294921875,-2.3443127168715,1.8566922815352678,-3.9033948014900086
1745463417477994000,7.368993896484375,-2.7265105377495287,1.2957634488821028,-3.1016882507324217
1745463417487965200,7.378965087890625,-2.8282570940434932,0.5955664307922125,-2.5314357094168662
1745463417497936100,7.38893603515625,-2.696844882804155,-0.0024199206233024594,-1.9770158202663062
1745463417507907000,7.398906982421875,-2.591815651577711,-0.5434381841480732,-1.429483937063813
1745463417517879000,7.408879150390625,-2.5007109008073805,-0.960194692710042,-0.9983911523744463
1745463417527850200,7.418850341796875,-2.4887632733821867,-1.3031640805274247,-0.5803621396586298
1745463417537821000,7.428821044921875,-2.440175329693407,-1.5547586684614418,-0.2774392232865095
1745463417547792000,7.4387919921875,-2.3234791876792906,-1.5640718557298183,0.010482815569639205
1745463417557763000,7.44876318359375,-2.236705744111538,-1.3089847495049238,0.5650228239685297
1745463417567734000,7.458734130859375,-2.2687315523169933,-0.993272201925516,1.2526380083829163
1745463417577705200,7.468705322265625,-2.3639047215700146,-0.7086509581804276,2.109945158070326
1745463417587676200,7.47867626953125,-2.2886019355654716,-0.4848427873164415,3.0084552557617426
1745463417597648100,7.488648193359375,-1.9521279011167585,-0.1858797144860029,3.696391342693567
1745463417607619000,7.498619140625,-1.5918357687070965,0.1611240434139967,4.209001842379569
1745463417617590000,7.508590087890625,-1.261834145142883,0.6723936498850583,4.436972393620014
1745463417627561200,7.518561279296875,-0.9342086030602454,1.3779033874303102,4.350778211244941
1745463417637532000,7.528531982421875,-0.6691232499122619,2.06789991402328,4.1573605024695395
1745463417647503000,7.538503173828125,-0.4815045828044414,2.999541296944022,4.247403761488199
1745463417657474000,7.54847412109375,-0.4648446860350668,4.030512822666764,4.700341590499877
1745463417667446000,7.558446044921875,-0.5677073868773878,4.892015085956454,5.536634593731165
1745463417677417000,7.5684169921875,-0.5845546229124069,5.388939940732717,6.260107857990264
1745463417687388000,7.578387939453125,-0.5348984654702246,5.790370869868993,6.789362618485093
1745463417697359000,7.588359130859375,-0.3708861532688141,6.482557599982619,7.204877602553367
1745463417707329800,7.598329833984375,-0.15091186147928237,7.2755468835383645,7.346693718907237
1745463417717301000,7.608301025390625,-0.040730800447613,7.873112379193305,7.280671971467137
1745463417727271700,7.618271728515625,-0.14219430201649666,8.344613454377651,7.150531095337867
1745463417737244000,7.628243896484375,-0.47867315877079963,8.321039686566591,7.298971013745665
1745463417747214800,7.63821484375,-0.8408741935417056,7.8284642591714855,7.76711459519565
1745463417757185800,7.648185791015625,-0.9963632998086511,7.441627088055014,8.238623269164561
1745463417767156700,7.65815673828125,-1.070052659267187,7.537360667669772,8.782948173019289
1745463417777127700,7.668127685546875,-1.0649487602569163,8.132870399838685,9.143422822389006
1745463417787099000,7.678098876953125,-1.2267609320655464,8.752885043188929,9.208160375237464
1745463417797069800,7.68806982421875,-1.592722780674696,8.773514574241638,9.203909147533773
1745463417807040800,7.698040771484375,-1.984612266744673,8.511269412955642,9.529308976390958
1745463417817012700,7.7080126953125,-2.0649802271842956,8.19787624823451,9.549132451757789
1745463417826983700,7.717983642578125,-1.8835829188093542,8.130608884647488,8.961328471660613
1745463417836955000,7.727954833984375,-1.7852280507802962,7.960398448458314,7.807522008907794
1745463417846925800,7.73792578125,-1.6734136894583702,7.452812498936057,6.52380906330347
1745463417856896800,7.747896728515625,-1.5517057106316088,6.772799606218934,5.292484476584196
1745463417866867700,7.75786767578125,-1.527397929457575,6.297548238590359,4.308151367917657
1745463417876839000,7.7678388671875,-1.503963131725788,6.011608313462138,3.464710831019282
1745463417886811000,7.777810791015625,-1.4960817308261989,5.761998177343607,2.6806968810796734
1745463417896781800,7.78778173828125,-1.3473347922958432,5.73181638956964,2.204154889118671
1745463417906752800,7.797752685546875,-1.2492553802073,5.513103496018052,1.7000491829276083
1745463417916723700,7.8077236328125,-1.2380141474857926,4.903385790276527,1.207328209581971
1745463417926695000,7.81769482421875,-1.2708397277668118,3.8246062191963195,0.9479308389425277
1745463417936665900,7.827665771484375,-1.2423393172085284,2.373082299759984,0.9943196651518345
1745463417946636800,7.83763671875,-1.1095841669276356,0.7851046677857637,1.3119541207045315
1745463417956608800,7.84760888671875,-0.7859878803610801,-0.3942594300717115,1.560239730221033
1745463417966580000,7.857580078125,-0.33089185040220614,-1.1193792924940587,1.8304560165166854
1745463417976551000,7.867551025390625,0.26203283370956776,-1.579894863283634,2.0016507875680922
1745463417986521600,7.877521484375,0.8181831999145448,-1.9196271688759325,2.02972303584218
1745463417996492800,7.887492919921875,1.2116976568378508,-2.21333305183053,1.9228350250065325
1745463418006463700,7.897463623046875,1.526821298613399,-2.449940498512983,1.6310697547256945
1745463418016435000,7.90743505859375,1.8469545852445064,-2.638542915961146,1.1739239526301621
1745463418026406000,7.917406005859375,2.1704536950469016,-2.561708682605624,0.448131013251841
1745463418036377900,7.9273779296875,2.298194085905701,-2.405810849407315,-0.27733956230431794
1745463418046348800,7.937348876953125,2.126491657593101,-2.40606277834177,-0.7283394089907408
1745463418056319700,7.94731982421875,1.8393056779265402,-2.1406261275380847,-1.2094617144793272
1745463418066291000,7.957291015625,1.311700876595825,-1.4313450547605753,-1.9750611790671944
1745463418076261600,7.96726171875,0.3523918806791305,-0.9815525380373,-2.5378192729741333
1745463418086232800,7.97723291015625,-0.7583528544604777,-0.6274649593561887,-2.807372711446881
1745463418096203800,7.987203857421875,-1.7876945870243013,0.2631704594373703,-3.3760271699160334
1745463418106174700,7.9971748046875,-2.6199054355084894,1.192147591584921,-4.0292461637318135
1745463418116146700,8.007146728515625,-2.9422286333993077,1.7451035456627606,-4.853756082449853
1745463418126117600,8.01711767578125,-3.0322225003182885,2.113104498884082,-5.697044351395964
1745463418136088800,8.0270888671875,-2.8748259529948235,1.8979431603342294,-6.39120676549673
1745463418146059800,8.037059814453125,-2.3977358256317673,1.6236790599524973,-6.999398869106173
1745463418156031000,8.047031005859376,-1.8415328524567185,1.2735609694242476,-7.52393653795123
1745463418166002000,8.057001953125,-0.9463689964532852,1.1558417679727078,-7.989524005177617
1745463418175972600,8.06697265625,-0.034719577334076164,1.1814841587513685,-8.554013745182752
1745463418185944800,8.07694482421875,0.6057587389826774,1.260346683064103,-9.331284066081047
1745463418195915800,8.086915771484374,0.9211283183433115,1.3592699986308812,-10.341863961160183
1745463418205886700,8.09688671875,0.9358313819564879,1.2993670263320207,-11.392413463056087
1745463418215857700,8.106857666015625,0.8150339421033859,0.7109241638094186,-12.18764614162445
1745463418225828900,8.116828857421876,0.6846269623838365,-0.22492226958572864,-12.660171299159526
1745463418235799800,8.1267998046875,0.6842435890894383,-1.162387244093418,-12.733469175082444
1745463418245770800,8.136770751953126,0.7627240552820265,-1.857540422797203,-12.34533144276142
1745463418255742000,8.146741943359375,0.6760301066912711,-2.2674387360274793,-11.346076074773073
1745463418265713700,8.156713623046874,0.1757013617556542,-2.574409758746624,-9.925826999044418
1745463418275684900,8.166684814453125,-0.31658896508775647,-2.843024455064535,-8.777790351864695
1745463418285655800,8.17665576171875,-0.4984301447726786,-2.7243922304213046,-7.871545276007056
1745463418295626800,8.186626708984376,-0.6197955207068473,-2.405150924193859,-7.293041623696684
1745463418305597700,8.19659765625,-0.6961408745668828,-2.0630781929552553,-7.247495093530416
1745463418315568600,8.206568603515626,-0.7047077735126018,-1.750834198269248,-7.348170221200585
1745463418325539800,8.216539794921875,-0.5917548366148024,-1.305509766870737,-7.64850165977478
1745463418335510800,8.2265107421875,-0.34084983838014304,-0.8399410043448209,-8.14543411333561
1745463418345482800,8.236482666015625,0.10281038613319396,-0.5693278276860714,-8.599713420084118
1745463418355453700,8.24645361328125,0.56379123634696,-0.39226679494976996,-9.003734950235485
1745463418365425000,8.2564248046875,0.9269581204753369,-0.01397825646996498,-9.399225383406877
1745463418375395800,8.266395751953125,1.0259680183470248,0.568476179292798,-9.699928577902913
1745463418385367000,8.276366943359376,0.7678910095911473,1.271021806335449,-9.89143256201148
1745463418395337700,8.286337646484375,0.14385427111797033,1.829801936522126,-9.934429992216826
1745463418405308700,8.29630859375,-0.6431130487345159,1.9970196206361055,-9.784547473785281
1745463418415281000,8.306281005859375,-1.3222364452660083,1.7139818466901777,-9.383728539067507
1745463418425251800,8.316251953125,-1.873131959682703,1.193102115830779,-8.754968863725662
1745463418435222800,8.326222900390626,-2.3626104439757762,0.5417331337958574,-7.967673992419242
1745463418445193700,8.33619384765625,-2.8915000244200226,-0.0885568198531866,-7.087874440416694
1745463418455165000,8.3461650390625,-3.345667687487602,-0.5840612864375114,-6.147039112693071
1745463418465135900,8.356135986328125,-3.6280712551832197,-0.8755465707331895,-5.105037658911943
1745463418475106800,8.36610693359375,-3.7733988867893813,-0.9689017307788133,-3.988943671698868
1745463418485077800,8.376077880859375,-3.858229087334871,-0.9643336922109127,-2.935946484389901
1745463418495049700,8.3860498046875,-3.924013518887758,-0.9564911620169877,-1.8142212132915854
1745463418505021000,8.39602099609375,-3.7759190529167648,-0.8504676590561866,-0.6860565567955375
1745463418514991900,8.405991943359375,-3.3902889195024963,-0.4917489134430885,0.19727613776922226
1745463418524962800,8.415962890625,-2.968472204941511,-0.11277706887423991,0.7943506350368261
1745463418534933800,8.425933837890625,-2.637334709215164,0.2359609654724598,1.0072066192537545
1745463418544904700,8.43590478515625,-2.304530157059431,0.8518909698575735,1.2324269950032234
1745463418554876000,8.4458759765625,-2.1354935869552194,2.0841642356038093,1.5982704779297112
1745463418564846800,8.455846923828124,-2.0739698815867302,3.5956671151846646,2.1693962949484584
1745463418574818800,8.46581884765625,-1.8298121656551956,5.22212791481018,2.541678286489844
1745463418584789800,8.475789794921875,-1.460051509284973,7.008907286685705,2.601637957412004
1745463418594761000,8.485760986328126,-1.3302911569058895,8.519323540073632,2.5239824708014726
1745463418604732000,8.49573193359375,-1.3191557226464152,9.655722940951586,2.6884330282896753
1745463418614702600,8.50570263671875,-1.1337795737683773,10.599991165733337,2.4580589230388403
1745463418624673800,8.515673828125,-0.7493852657593786,11.277275510269403,2.0130507179826496
1745463418634644700,8.525644775390624,-0.08864303683191538,11.729390332460403,1.5203233148962259
1745463418644617000,8.535616943359376,0.6955985843837261,12.492074494123457,0.817089121067524
1745463418654587600,8.545587646484375,1.0248284929230809,12.99165132471323,0.5536813457429409
1745463418664558800,8.555558837890626,0.6537959169209003,12.724820589202642,1.0664578496456145
1745463418674529800,8.56552978515625,0.01754953908547759,12.396961092233656,2.74433728634119
1745463418684500700,8.575500732421874,-0.4996202313400805,12.427042926764488,5.830667224422097
1745463418694472000,8.585471923828125,-0.333385713044554,12.106729607391356,9.851256034445763
1745463418704443400,8.595443359375,0.36681437378525733,11.019511878311633,13.227868310773372
1745463418714414600,8.60541455078125,1.1674071180820464,9.827823720932006,15.017397273617982
1745463418724386600,8.615386474609375,1.5931576649606227,8.593022398012875,15.180429781001806
1745463418734357500,8.625357421875,1.9157564649224281,7.691709517860412,14.267065228527784
1745463418744328400,8.635328369140625,2.13045252404809,6.98745065715909,12.994660443401337
1745463418754299600,8.645299560546874,2.0642121654212473,6.54566784389019,11.922240470480919
1745463418764270600,8.6552705078125,1.8499743714570998,6.33919250062108,11.372296557700633
1745463418774241500,8.665241455078124,1.4623743992745875,5.5918853563100095,11.12968373312354
1745463418784212500,8.67521240234375,1.1247347551126032,5.060549113366007,10.96300848532319
1745463418794183400,8.685183349609375,0.7478477539937943,5.024138660335541,10.482857655215263
1745463418804155600,8.69515576171875,0.26047113735079763,5.0950253834635015,9.770770292845368
1745463418814126600,8.705126708984375,-0.14276260342374444,4.925958856612444,8.590416014906763
1745463418824097500,8.71509765625,-0.21840777312517165,4.851278586420417,6.919398865196109
1745463418834068500,8.725068359375,-0.1233515813153237,4.938009944412112,5.333818942013383
1745463418844039400,8.735039306640624,0.26158983918242157,4.8756180779069656,4.18820689163208
1745463418854010600,8.7450107421875,0.8613574479915201,4.543049672594666,3.2987486999243494
1745463418863981600,8.754981689453125,1.4017735078394413,3.9148499692231415,2.5604882008999583
1745463418873952500,8.764952392578126,1.945837130409479,3.0773394068956375,2.0124919150561094
1745463418883924500,8.774924560546875,2.3422353260755537,2.1538708090364933,1.7455664869993923
1745463418893895700,8.784895751953124,2.6409330259680748,1.1292401767730713,1.717293747717142
1745463418903866600,8.79486669921875,2.89290404599905,0.13462298997938632,1.8244202434837817
1745463418913837600,8.804837646484375,2.9569115310072895,-0.7775655044525861,2.189701416352391
1745463418923808500,8.81480859375,2.788950335049629,-1.3710884467184543,2.670300574749708
1745463418933779500,8.824779541015625,2.4236171397328374,-1.7635002030968665,3.0844840179532764
1745463418943750700,8.834750732421876,2.0949134470246733,-1.9767577538520096,3.202074040067196
1745463418953721600,8.8447216796875,1.7830933768391608,-2.1500766774505378,2.8725685294568537
1745463418963693600,8.854693603515624,1.136340948688984,-2.3780045585930347,2.5852409493625164
1745463418973664500,8.86466455078125,0.6053191785216331,-2.4309675024956463,2.1784750889390705
1745463418983635700,8.8746357421875,0.34734847968444227,-2.28744867387712,1.7587369342178105
1745463418993606700,8.884606689453125,0.4557610697388649,-2.0238123504936696,1.3943839821100235
1745463419003577300,8.894577392578125,0.5781272202134132,-1.4181366136193274,1.2753028446555137
1745463419013548500,8.904548583984376,0.46449382677078244,-0.40871407188177106,1.7150959454119203
1745463419023519500,8.91451953125,0.3099427320063114,0.6124538527071476,2.4269424847632646
1745463419033490700,8.92449072265625,0.07667407435774802,1.7676666751265524,3.003886632671952
1745463419043462400,8.93446240234375,-0.2226524249576032,2.718882527089119,2.626672445425391
1745463419053433600,8.94443359375,-0.5316892941653728,3.440001921698451,1.740570870669186
1745463419063404500,8.954404541015625,-0.3007413345493376,3.9190246245592832,1.1992723288983105
1745463419073375500,8.96437548828125,-1.8304370195552706,4.602276353067159,-0.6752499160990119
1745463419083346700,8.9743466796875,-1.5314144716225564,5.045967045783996,-2.268416641148925
1745463419093317600,8.984317626953125,-0.8536123868227005,5.140132937690615,-4.106796436402202
1745463419103288600,8.99428857421875,-0.44339740885868667,5.402759207248687,-5.764045173001289
1745463419113259500,9.004259521484375,-0.15928469915762541,5.899632039576769,-6.966444109487533
1745463419123231700,9.014231689453124,0.16952084648981688,6.0552668379247185,-7.658885106623172
1745463419133202400,9.024202392578125,0.6916017698325216,5.986221943271159,-8.278160329782962
1745463419143173400,9.03417333984375,1.0014671988189219,5.5781946846097705,-9.858768309772014
1745463419153144600,9.04414453125,1.133100213202089,4.628360642394423,-12.130441322368382
1745463419163115500,9.054115478515625,1.626684379248321,3.5069039591044184,-13.844602032756805
1745463419173086700,9.064086669921876,2.3993713178791105,2.4904478654682634,-14.741245752054452
1745463419183057700,9.0740576171875,2.637899357360601,1.4182353978186846,-15.002707069486378
1745463419193028400,9.0840283203125,2.3031192673482,-0.0013794716596603393,-14.583558112829923
1745463419203000600,9.09400048828125,1.9835585199080406,-0.7777449526727199,-13.846813863587379
1745463419212971500,9.103971435546875,1.335492378810793,-1.0811305181205273,-12.978881859511135
1745463419222942500,9.1139423828125,0.6100245797336101,-1.350277129358053,-12.416903810065984
1745463419232913400,9.123913330078125,0.3148457016170025,-1.1504589058905839,-12.297360900318623
1745463419242884600,9.133884521484376,0.4559691595315933,-0.6316027898132801,-12.416534392231702
1745463419252855600,9.14385546875,0.7731297139622271,-0.36822365606129165,-12.675449532312154
1745463419262826500,9.153826416015624,1.1742239584900438,-0.004082885399460792,-12.851135769563912
1745463419272797700,9.163797607421875,1.4001520441174506,0.5070101954609155,-12.742231158208845
1745463419282769400,9.173769287109375,1.2535225361324847,1.2638427084863184,-12.227918530780077
1745463419292740600,9.18374072265625,0.656738546244055,2.073157103899121,-11.363003828698396
1745463419302711600,9.193711669921875,-0.19309812143221497,2.692272168061137,-10.187213497674465
1745463419312682800,9.203682861328126,-1.0125390663228928,2.9269863483428953,-9.027326838225125
1745463419322653400,9.2136533203125,-1.6908394560337066,2.8018577474176882,-8.157483447569609
1745463419332624400,9.223624267578124,-2.2308825909160075,2.2535680315852162,-7.5444368896663185
1745463419342595600,9.233595703125,-2.567616445344686,1.0453811593472957,-6.977329076117277
1745463419352567600,9.243567626953125,-2.48983879365921,-0.22359774298369883,-6.50599868132472
1745463419362538500,9.25353857421875,-2.2535586792349815,-1.2226724937081337,-6.162645847147703
1745463419372509400,9.263509521484375,-2.01540897154659,-2.018877816700935,-5.467543521848321
1745463419382480600,9.273480712890626,-1.8567685616418719,-2.4863474444121123,-4.527091932745278
1745463419392451600,9.28345166015625,-1.7904801260896026,-2.60888193719089,-3.477906120418012
1745463419402422800,9.2934228515625,-1.7253486054874956,-2.5739514935851098,-2.407427929215133
1745463419412393500,9.3033935546875,-1.7255870904184878,-2.5055969192832706,-1.4137138287410138
1745463419422364400,9.313364501953124,-1.6697851236976682,-2.5077169801771637,-0.5871645131498575
1745463419432335600,9.323335693359375,-1.5807459271550177,-2.3923148234963416,0.04752133737057447
1745463419442307600,9.3333076171875,-1.5512719953894614,-2.1027017628133295,0.892621624174714
1745463419452278500,9.343278564453126,-1.5473109828040004,-1.7690695276618003,1.759034455859661
1745463419462249500,9.35324951171875,-1.6424563872672617,-1.1218126571208238,2.6186367307469247
1745463419472220700,9.363220703125,-1.79794505514279,-0.15323124433755875,3.284558554269373
1745463419482191600,9.373191650390625,-1.8230384337365626,0.9565957914352416,3.6355116343170404
1745463419492162600,9.38316259765625,-1.728031560961157,2.296384260004759,3.9898604942828415
1745463419502133500,9.393133544921875,-1.4976106939591467,3.8823558128535747,4.1291427082449195
1745463419512105500,9.40310546875,-1.031760630273819,5.0275008302450175,4.133830573800206
1745463419522076700,9.41307666015625,-0.4736836799204349,5.825636244517565,3.937945013606548
1745463419532047600,9.423047607421875,0.2619499777317047,6.929184346151351,3.6950714922666545
1745463419542018600,9.4330185546875,1.0802756548568606,8.329089722031354,3.5234546964108944
1745463419551989500,9.442989501953125,1.7194269603535532,9.630728200426697,3.4891666423618792
1745463419561960400,9.45296044921875,2.1151506177589297,10.506745895802974,3.7027258064121007
1745463419571931600,9.462931640625,2.0752432625234127,10.658160446107386,4.765958848792314
1745463419581902600,9.472902587890625,1.4659621946334838,10.365251851010322,5.866970709946751
1745463419591874600,9.48287451171875,0.24826632029414175,9.85006828596592,6.694546153715253
1745463419601845500,9.492845458984375,-1.204611059577763,9.383465504217147,7.167804301699996
1745463419611816700,9.502816650390624,-2.450956689818203,9.31231223910749,7.360230076828598
1745463419621787600,9.51278759765625,-3.4583240525916215,9.701542442840337,7.646065957060456
1745463419631758300,9.52275830078125,-4.447078192570805,10.002060343897343,8.795751540490985
1745463419641729500,9.5327294921875,-5.249353775388002,9.93811364916563,11.018487795960903
1745463419651700500,9.542700439453125,-5.4622506761372085,9.520323705902696,13.65229199296236
1745463419661671700,9.552671630859376,-5.351966593122482,8.816369381105899,16.075869385206698
1745463419671643400,9.562643310546875,-5.06942157112956,7.65210056104958,17.77854424046278
1745463419681614600,9.572614501953124,-4.611035705845057,6.33949119130671,17.829825514888764
1745463419691585500,9.58258544921875,-4.010085536187887,5.507060124200582,16.33485700600147
1745463419701555500,9.592555419921876,-2.8768340779468415,5.8229597187846895,13.603955539816617
1745463419711526400,9.6025263671875,-1.732420881961286,6.45771483514905,10.450386295199394
1745463419721497600,9.61249755859375,-0.7247957450345158,7.007449489092826,7.799956542089581
1745463419731468500,9.622468505859375,0.24311405209749937,7.454231718084215,5.563246121802925
1745463419741440500,9.6324404296875,1.019689960990846,7.54676504035294,3.7087054653435945
1745463419751411500,9.642411376953126,1.881578300988674,7.244176762762665,2.2808915073186156
1745463419761382400,9.65238232421875,2.752584597943723,6.597465251144766,1.286210607638955
1745463419771353600,9.662353515625,3.5015383404180405,5.551314276468753,0.369435369938612
1745463419781324300,9.67232421875,3.8480510999307036,4.059712029144167,-0.0006897358298301697
1745463419791295500,9.68229541015625,3.48063233051151,2.180455449101329,0.6072004622235894
1745463419801266400,9.692266357421875,2.7157097422719,0.5662859757721423,1.4170803825646638
1745463419811237400,9.7022373046875,2.1091528386488556,-0.4136053510546684,1.776795153477788
1745463419821208600,9.71220849609375,1.6737822305098176,-1.0239093322515487,1.8462386920601128
1745463419831180300,9.72218017578125,1.3100685992188752,-1.6179676965683698,1.759892241732776
1745463419841151500,9.7321513671875,1.1258252537630498,-2.1480121461361645,1.6086267445102334
1745463419851122400,9.742122314453125,1.0999030231297016,-2.632169289276004,1.305067868322134
1745463419861093600,9.75209375,1.020345648420602,-2.951591797289252,0.8168620343133807
1745463419871064300,9.762064208984375,0.9350584978878498,-3.0845225963979956,0.02900748329758644
1745463419881035300,9.77203515625,0.8074385185383259,-3.1521722373008725,-0.6367956822812557
1745463419891006500,9.78200634765625,0.8800359911069273,-3.19152868065536,-1.1619167039722202
1745463419900978400,9.791978515625,0.9581634791433811,-3.2582939399391413,-1.8476418368563055
1745463419910949400,9.801949462890626,0.9649848495960235,-3.217591927194595,-2.4861475379258393
1745463419920920300,9.81192041015625,0.9145296507306396,-2.8834681091338394,-2.5794126816004512
1745463419930891500,9.8218916015625,0.6129539111837744,-1.986675336754322,-2.644966227006912
1745463419940862500,9.831862548828125,-0.1349880238994956,-1.002647933036089,-2.6307465629965066
1745463419950833400,9.84183349609375,-1.0215189299836753,0.009991232660412788,-2.5008073469191787
1745463419960804400,9.851804443359375,-1.8023183017909525,1.2360960389047861,-2.6830931285664437
1745463419970775300,9.861775390625,-2.4811916690841316,2.3057208281487225,-2.9155723894029855
1745463419980747500,9.87174755859375,-2.8521970648184416,3.0676725838840007,-3.113677963733673
1745463419990718500,9.881718505859375,-2.9989667119264602,3.3227146819233893,-4.014292924749851
1745463420000689400,9.891689453125,-2.903724422959983,3.1067052021116015,-5.51769549998343
1745463420010660400,9.901660400390625,-2.5668051289618012,2.7680817345440385,-7.149304768413304
1745463420020631300,9.91163134765625,-2.119910964028537,2.4841163243591784,-8.443378364512323
1745463420030602500,9.9216025390625,-1.6306141199126838,2.2041712557315827,-9.008191929644346
1745463420040573400,9.931573486328125,-1.4205194171026347,2.2200258274674414,-9.669650928539037
1745463420050544400,9.94154443359375,-1.5748326114580034,2.463245385766029,-10.92082120245695
1745463420060516400,9.951516357421875,-1.9859227648213504,2.4362188471525905,-12.912062824213503
1745463420070487600,9.961487548828124,-2.4482018381521105,1.9886814158797264,-15.351748470693826
1745463420080458500,9.97145849609375,-2.847704137313366,1.135156707340479,-17.414838354086875
1745463420090429400,9.981429443359374,-3.198888688029349,0.33501287585496903,-18.22643998365402
1745463420100400400,9.991400390625,-3.5193256337821484,-0.08020107944011688,-17.34210980248451
1745463420110371300,10.001371337890625,-3.7404379896908995,0.07483399944901466,-15.047973613667487
1745463420120342500,10.011342529296876,-3.9459474105373022,0.6632616644024849,-12.421763525056837
1745463420130313500,10.0213134765625,-4.1195372600316995,0.6673480569332838,-10.313486592459679
1745463420140285400,10.031285400390624,-3.89005776553303,-0.22947335701882837,-8.875487340506911
1745463420150256400,10.04125634765625,-2.933795443835854,-0.909231398192048,-7.897079530236125
1745463420160227600,10.0512275390625,-1.904958007532358,-1.0237199471592902,-7.5229223924726245
1745463420170198500,10.061198486328125,-0.7695625229999422,-0.7174620411455631,-7.495938523957133
1745463420180169200,10.071169189453125,0.6938182768382132,-0.5381377396523952,-7.766307954987883
1745463420190140400,10.081140380859376,2.2891640994928775,-0.8129588893949985,-8.354877074238658
1745463420200111400,10.091111328125,3.7094659283220768,-1.123501925382018,-9.042269555813073
1745463420210082600,10.10108251953125,4.819299686096608,-1.003511271867156,-9.75461644590199
1745463420220054300,10.11105419921875,5.220638553035259,-0.3224778039306402,-10.160748684597015
1745463420230025500,10.121025390625,4.710209489041566,0.8732698579728603,-10.109958408558368
1745463420239996400,10.130996337890625,3.513281677442789,2.313138410928845,-9.761988435974716
1745463420249967400,10.14096728515625,2.0713748966574665,3.7345617911338804,-9.056007573786378
1745463420259938600,10.1509384765625,0.6007996552705764,4.781188566628098,-7.9377254288792605
1745463420269909500,10.160909423828125,-0.7055577414054424,5.100506445223092,-6.584979279059171
1745463420279880400,10.17088037109375,-1.616651791664213,4.765283141487837,-5.530360335767269
1745463420289851400,10.180851318359375,-2.173182097097486,3.9014661715149876,-4.753081831562519
1745463420299823600,10.19082373046875,-2.4072129712902006,2.8183611384510994,-4.149537261497974
1745463420309794300,10.200794189453125,-2.4634558136463163,1.9085136541873216,-3.36431188994199
1745463420319765200,10.21076513671875,-2.470674658983946,1.229850422513485,-2.322477024899423
1745463420329736400,10.220736328125,-2.4515711684547363,0.8496861532896757,-0.6935887058660387
1745463420339707400,10.230707275390625,-2.3653062589310108,0.7038906119108199,1.2381357280388474
1745463420349678600,10.2406787109375,-2.2881905782856045,0.5601882434189319,3.0326743357390162
1745463420359649500,10.2506494140625,-1.9678233367681501,0.4559487012654543,4.628023081003129
1745463420369620200,10.2606201171875,-1.121369151137024,-0.12606851212382317,5.330573091959953
1745463420379592400,10.270592529296875,0.2315034015417099,-0.833126063632965,5.270863596406579
1745463420389563400,10.2805634765625,1.3272365916408597,-1.5699942315161228,5.602404412236809
1745463420399534300,10.290534423828126,1.7634125248134136,-2.0568857680559156,6.484543220841884
1745463420409505300,10.30050537109375,1.9762273002371191,-1.6439397576928139,7.112992515060305
1745463420419476500,10.3104765625,1.8713316322624682,-0.6305903979003429,7.318150345990062
1745463420429447400,10.320447509765625,1.3630018786355853,0.5969815582871437,6.943899684724212
1745463420439418400,10.33041845703125,0.7800020839497447,2.378113864186406,6.015624563366174
1745463420449389600,10.3403896484375,0.38216742573976514,4.961308986935019,4.540303004235029
1745463420459361300,10.350361328125,-0.4236459758147597,7.43505121679604,3.2312013503521677
1745463420469332500,10.36033251953125,-1.7957269407019019,9.171717188981175,3.1458518021076918
1745463420479303400,10.370303466796875,-3.2555417186215516,9.858153392744065,3.9897915206998587
1745463420489274600,10.380274658203126,-4.66241225733906,10.031059643888472,5.400214783462881
1745463420499245300,10.390245361328125,-6.279177300119399,10.313470225846768,6.627218584373593
1745463420509216500,10.400216552734374,-7.476362301349639,10.53258643950224,7.226067105576395
1745463420519187500,10.4101875,-8.130033130586147,10.484290902888775,7.239762453451752
1745463420529158400,10.420158447265624,-8.19761438242793,10.181586889964342,6.984446799167991
1745463420539129600,10.430129638671875,-7.9893258522570125,9.419401909995079,6.922630102202296
1745463420549101300,10.440101318359375,-7.718680526894331,8.479560269483924,7.208924247595667
1745463420559072500,10.450072509765626,-7.11466132505536,7.9482018147081135,7.682779192429781
1745463420569043500,10.46004345703125,-6.058053838294744,8.425992345425486,7.738248566195368
1745463420579014700,10.4700146484375,-4.481437266029417,9.555627074474096,7.003429147535562
1745463420588985300,10.4799853515625,-2.6981483666181565,10.228044689756631,6.826953221210837
1745463420598956300,10.489956298828124,-1.1612824977219105,9.852273102533816,7.450199101567268
1745463420608927500,10.499927490234375,0.3352174585163593,9.136760441890358,8.919880024462937
1745463420618898400,10.5098984375,0.657785863339901,8.628236919257045,8.847274222457408
1745463420628870400,10.519870361328126,0.6803975081205368,7.967237354567646,8.070656812509894
1745463420638841300,10.52984130859375,0.3059881491616368,6.983268403038382,7.163809094583987
1745463420648812500,10.5398125,-0.27062048318237064,6.294090207090973,6.000858955910801
1745463420658783500,10.549783447265625,-0.8386161854818462,5.885069261217117,4.671277408578992
1745463420668754400,10.55975439453125,-1.2883490809723734,5.438994888234138,3.415670613518357
1745463420678725400,10.569725341796875,-1.3998878402233124,5.253287607705593,2.3771938267320394
1745463420688696300,10.5796962890625,-1.5014271835073827,5.15649896607995,1.8921575626701115
1745463420698667500,10.58966748046875,-1.8323183032572268,4.8783928033173085,1.9612462964653967
1745463420708639700,10.5996396484375,-2.1188361744038757,4.309399906674027,2.230394076746702
1745463420718611000,10.60961083984375,-2.2022065315298733,3.6408202621191736,2.5288088680446146
1745463420728582000,10.619581787109375,-2.2014166963264343,2.7728414962917562,2.7146862444430586
1745463420738553000,10.629552978515624,-2.0735179000355304,1.8807991333097218,2.836396561357379
1745463420748524000,10.63952392578125,-1.7300757801398634,1.2062070965975522,3.0123867499917742
1745463420758495000,10.649494873046875,-1.3575611488863826,0.6532692626982927,3.070238050457835
1745463420768466000,10.6594658203125,-0.891633197659254,0.09080722912847995,2.950934210163355
1745463420778436900,10.669436767578125,-0.21449629876986145,-0.3132815210402012,2.715066183671355
1745463420788408000,10.679407958984376,0.4325226713620126,-0.670551821410656,2.5697575490266082
1745463420798379800,10.6893798828125,1.019438616578281,-0.9334089771151542,2.262657346969843
1745463420808351000,10.69935107421875,1.4882989679954945,-1.1214444083303212,1.900522947694361
1745463420818322000,10.709322021484375,1.685870873840898,-1.684229097983241,1.6572551663398742
1745463420828292900,10.71929296875,1.8623367171630263,-2.2533406525701283,1.0570774423599243
1745463420838264000,10.72926416015625,2.138604266321659,-2.341628592354059,0.2249126249745488
1745463420848235000,10.739235107421875,2.2254358698174355,-2.4322955362290144,-0.3305325155705213
1745463420858206000,10.7492060546875,2.1834616451799866,-2.4689456432342527,-0.7210086277112364
1745463420868177000,10.759177001953125,2.161590881894529,-2.3306425034374,-1.208117606393993
1745463420878147800,10.76914794921875,1.999429896648228,-2.0688357335686685,-1.6803677463799713
1745463420888119800,10.779119873046875,1.61510441609174,-1.8004338032186031,-2.079338422882557
1745463420898090800,10.7890908203125,1.2431389431536197,-1.551468979266286,-2.5758447599858045
1745463420908062000,10.79906201171875,1.005982338155806,-1.354281688824296,-3.17646935095042
1745463420918033000,10.809032958984375,1.0806424423426388,-1.0697381864905358,-4.041550934031606
1745463420928004000,10.819004150390626,1.2724214440003037,-0.47920741177797316,-5.26832501783967
1745463420937975000,10.82897509765625,1.7271107928544283,0.16635259171724318,-6.599208879941702
1745463420947945700,10.83894580078125,2.53589531917423,0.8398165011823177,-7.625510075765848
1745463420957917000,10.8489169921875,3.4135245414003728,2.011990395274758,-8.247593342083691
1745463420967888000,10.858887939453124,4.1636479121759535,3.2101872038960453,-8.745067062914371
1745463420977860000,10.868860107421876,4.14625370978266,3.7413878377616405,-9.117757635256648
1745463420987830800,10.878830810546875,3.4331007640078663,3.866638019239902,-9.319577261674404
1745463420997802000,10.888802001953126,2.5672774226486683,3.9366812772810458,-9.827582897913455
1745463421007773000,10.89877294921875,1.6575474272847175,3.7852228878349066,-10.569662662965058
1745463421017744000,10.908743896484374,0.6884487126290798,3.0602111619621515,-11.387214725369214
1745463421027715000,10.918715087890625,-0.26325726093798874,1.895034579411149,-12.123631642353534
1745463421037685800,10.928685791015624,-0.9937906728416681,0.9642442603617906,-12.919020972788333
1745463421047657000,10.938656982421875,-1.1946756487578154,0.7775275105297565,-14.131215327101945
1745463421057628000,10.9486279296875,-1.5016846653997897,0.37879824156761166,-15.77875340154767
1745463421067600100,10.95860009765625,-1.8399761245340107,-0.7980991739153862,-16.8775610306561
1745463421077570800,10.96857080078125,-1.579727105501294,-2.1499457445472476,-17.057649886780975
1745463421087541800,10.978541748046876,-1.3381962309420108,-2.7853707229971882,-16.58727226266861
1745463421097513000,10.988512939453125,-1.2181208217531443,-1.9818997929155826,-15.697143624353409
1745463421107484000,10.99848388671875,-1.0819745677292347,-0.35715456503629683,-14.245664713102578
1745463421117455000,11.008455078125,-0.622352438648045,1.075153781798482,-12.503975359797478
1745463421127425800,11.01842578125,0.23268413575887678,2.2455635888278485,-10.984933901405334
1745463421137396700,11.028396728515625,1.2118334120467305,3.132001555931568,-9.671758714473247
1745463421147368000,11.038367919921875,2.018186619566381,3.6783471519589424,-8.409636253908277
1745463421157340000,11.04833984375,2.6669480494514106,4.0577416058540345,-7.400196176514029
1745463421167310800,11.058310791015625,3.0309377212047575,4.3249750769466155,-6.617841099697351
1745463421177281800,11.06828173828125,3.03856105569005,4.3060073416262865,-5.858113449752331
1745463421187253000,11.0782529296875,2.7280796867623924,3.832487912356853,-5.1863312097638845
1745463421197224000,11.088223876953125,2.2041204023271797,3.166746706098318,-4.656480236941576
1745463421207195100,11.098195068359376,1.5091569009765982,2.4541233371555804,-4.216249329289794
1745463421217165800,11.108165771484375,0.7094093753322959,1.5849252586662768,-3.9079903125867244
1745463421227136800,11.11813671875,-0.011556874541938305,0.7599602896571159,-3.7169761578217146
1745463421237108000,11.12810791015625,-0.6909837840646504,0.19015607663094997,-3.3632711487174034
1745463421247080000,11.138079833984374,-1.3988462222158908,-0.27745383633375165,-2.858530651754141
1745463421257051000,11.14805078125,-2.0166019807234403,-0.4830313539803028,-2.194313147931546
1745463421267021800,11.158021728515624,-2.536340724854171,-0.55319794614017,-1.3788532355010508
1745463421276993000,11.167992919921875,-2.898020073838532,-0.5492196901589632,-0.3524573471307754
1745463421286964000,11.1779638671875,-3.0624004886999723,-0.5705383725196123,0.5840960654899477
1745463421296935000,11.187934814453126,-3.018004882134497,-0.4221323563814163,1.2320745283037424
1745463421306906000,11.197906005859375,-2.8437448782935735,-0.13128361642360686,1.882659958745539
1745463421316876800,11.207876708984376,-2.5590295265242458,0.1779378155708313,2.541954473082721
1745463421326848000,11.217847900390625,-2.280500169913471,0.8385381518095731,3.243511673609912
1745463421336820000,11.227820068359375,-1.9649805145576595,1.8970552715837954,3.7178260526493188
1745463421346791000,11.237791015625,-1.452488965076208,3.0136937409371134,3.892470087371766
1745463421356761900,11.247761962890625,-0.951744259750843,3.9680566587537527,3.993977574212849
1745463421366732800,11.25773291015625,-0.5731403717115521,4.6487803300887345,3.947532926163077
1745463421376704000,11.2677041015625,-0.3124760498762131,5.398149083104729,3.8553655145972967
1745463421386675000,11.277675048828126,-0.38629239671528337,6.103494569998979,3.9438492692142724
1745463421396646100,11.287646240234375,-0.8361606090232729,6.492079461565614,4.2081560392051935
1745463421406616800,11.297616943359374,-1.574544734427333,6.922942236891388,4.773132685944438
1745463421416587800,11.307587890625,-2.4072891052663326,7.331086984452605,5.593317434939742
1745463421426560000,11.31756005859375,-3.0459207708030935,7.508911402776837,6.503155566853285
1745463421436531000,11.327531005859376,-3.3558678867235776,7.782877981516719,7.340230660372972
1745463421446502000,11.337501953125,-3.503918805813789,8.148845967605709,8.006630038279294
1745463421456472800,11.347472900390626,-3.6015590958327053,8.652744168525933,8.426953299412132
1745463421466444000,11.357444091796875,-3.6296789826408027,9.201402717670797,8.780836295431852
1745463421476415000,11.3674150390625,-3.634053544463217,9.283682941472529,9.195928670173883
1745463421486386000,11.377385986328125,-3.6538930941820142,8.679226517260075,9.92037691694498
1745463421496356900,11.38735693359375,-3.456025420260429,7.699576013451814,10.609076973986625
1745463421506327800,11.397327880859375,-3.1817104664742946,7.601890715247392,10.725435408478974
1745463421516299000,11.407299072265625,-3.289754953868687,8.297171319723128,9.618138767966627
1745463421526271000,11.41727099609375,-3.731318863689899,8.581756323111057,7.388350255897641
1745463421536242000,11.427241943359375,-3.66863473623991,8.44916454669833,5.346453967180848
1745463421546212900,11.437212890625,-2.5856618051230904,8.431848670238256,3.937031405892968
1745463421556183800,11.447183837890625,-1.0172036971330642,9.018207712224125,3.5575200476199385
1745463421566155000,11.457155029296874,0.4482042976837605,9.564393149253725,4.871921561476588
1745463421576126000,11.4671259765625,2.301983979707956,8.36293003231287,6.425631013146043
1745463421586097000,11.477096923828125,3.6430285858184095,5.868023433870077,6.533437892392278
1745463421596067800,11.48706787109375,4.987573893526196,4.253088821387291,6.242209797728061
1745463421606040000,11.4970400390625,5.969779342514276,3.439441949728131,5.797136710742116
1745463421616011000,11.507010986328124,5.972903612014651,3.1487410938084124,5.199093660703301
1745463421625982000,11.51698193359375,5.164427420991659,3.3578099607020615,4.806576105862856
1745463421635953000,11.526952880859374,3.8869682750850916,3.5902497663110493,4.571604735949635
1745463421645923800,11.536923828125,2.6354110476762056,3.469811369028687,4.052404336479306
1745463421655895000,11.54689501953125,1.5429805523842572,3.0884377240151166,3.4182851799309253
1745463421665866000,11.556865966796876,0.7272633041918277,2.4404513701558113,2.841259783479571
1745463421675837000,11.5668369140625,0.08158405823111534,1.5102946728348732,2.2961276548951863
1745463421685807900,11.576807861328126,-0.20451372433993964,0.3670382456690073,1.843097471424937
1745463421695778800,11.58677880859375,-0.006923661783337593,-0.671012424659729,1.7381635172665117
1745463421705751000,11.5967509765625,0.47369540689084677,-1.5290490576654672,2.078883080330491
1745463421715722000,11.606721923828125,1.0505326238263397,-2.3967262101978064,2.5202321783572432
1745463421725693000,11.61669287109375,1.5850509308725595,-3.109831809699535,2.846433386725187
1745463421735664000,11.6266640625,1.9554016620904207,-3.627419513276219,3.0471669714719054
1745463421745635000,11.636635009765625,2.0912994943112135,-3.880719736084342,3.1194132925152775
1745463421755606000,11.64660595703125,2.1303303589731453,-3.94463662019968,3.06282397480905
1745463421765577000,11.656576904296875,2.0124767174869773,-3.8189971471428867,2.8123125059366223
1745463421775548000,11.6665478515625,1.8020991060823202,-3.6720354845941063,2.4997651443898676
1745463421785519000,11.67651904296875,1.6932909408390522,-3.555432135429978,2.2757313480764627
1745463421795491000,11.686490966796875,1.7092887204378842,-3.1693437368541955,2.0705933908909557
1745463421805462000,11.6964619140625,1.7438398093372582,-2.4133973590135573,1.8973609765321016
1745463421815433000,11.706432861328125,1.5583663375645875,-1.442483119368553,1.8023077803969383
1745463421825404200,11.716404052734376,1.2930565280109643,-0.387729151520133,1.6980965875551104
1745463421835375000,11.726375,0.9608458500951528,0.7559948931574821,1.514261530639231
1745463421845346000,11.736345947265624,0.42691725257039065,1.9264222358435392,1.3662059353739022
1745463421855317000,11.74631689453125,-0.26688801865577694,2.927664393734932,1.1553420017570257
1745463421865288000,11.756287841796874,-0.9735375738859176,3.6853695979416368,0.6452730032473802
1745463421875259100,11.766259033203125,-1.5788018073499201,4.311693570569157,0.058359834510087964
1745463421885230000,11.77622998046875,-2.0167606784164906,4.832329555800557,-0.5878764608114957
1745463421895202000,11.7862021484375,-2.1709682204402982,5.512314975988865,-1.4931342791974545
1745463421905173000,11.796173095703125,-2.327504497672617,6.2500143339991565,-2.233128762407601
1745463421915144000,11.80614404296875,-2.582740364718437,6.8189400106251234,-2.7952941511183975
1745463421925115100,11.816115234375,-2.3709844506978985,6.836479758968949,-3.2489395438775417
1745463421935086000,11.826086181640624,-1.5992378616571425,6.86381843227148,-3.6766216433405874
1745463421945057300,11.836057373046875,-1.088368214289099,7.109680029511451,-4.574462463468313
1745463421955028000,11.846028076171875,-0.8653615690663456,8.131976665869354,-7.653287725007534
1745463421964999000,11.8559990234375,-0.21135463974326849,9.670866734069586,-10.1881919873178
1745463421974970000,11.86597021484375,-0.6245087398990988,9.385191012835502,-10.192578239578008
1745463421984942000,11.875942138671874,-1.5058639969110488,6.574594663167,-15.015923109412192
1745463421994913000,11.8859130859375,-1.7806166114620863,5.667144887694716,-18.390979388469457
1745463422004884000,11.895884033203124,-2.134985783563554,5.402087591597438,-19.06148211004138
1745463422014855200,11.905855224609375,-1.7844634961485861,3.3519033670067784,-19.867466484248638
1745463422024826000,11.915826171875,-1.5444190607547759,0.7601683794498443,-20.310223110985756
1745463422034797000,11.925797119140626,-1.71732560416013,-0.8654898716211319,-20.741504403984546
1745463422044768000,11.93576806640625,-1.839373482465744,-1.5941986984461545,-19.69265001556873
1745463422054739000,11.945739013671876,-1.8084432144120335,-1.5316227075457571,-17.703276525771617
1745463422064710100,11.955710205078125,-1.4799243767514825,-0.39032852036356924,-15.891200215554237
1745463422074681000,11.96568115234375,-1.0450937207080424,1.4293027352780103,-13.92756556264758
1745463422084653000,11.975653076171875,-0.5000698748037219,3.184708479246497,-11.71699262318015
1745463422094624000,11.9856240234375,-0.13897212509959936,4.470333395951986,-9.76587842915058
1745463422104595000,11.995594970703126,-0.09652648355811834,5.137656318444013,-8.270504262071848
1745463422114566100,12.005566162109375,-0.2978485357172787,5.242483305096626,-6.847009336289763
1745463422124537000,12.015537109375,-0.6651064154863358,4.794845336058736,-5.618555336570739
1745463422134508000,12.025508056640625,-1.1597636175915598,4.020494117477536,-4.656878880870342
1745463422144479000,12.03547900390625,-1.6878924427963793,2.862013233172893,-3.84627678373456
1745463422154450000,12.045449951171875,-2.139626010584831,1.6294757635325192,-3.273948605188727
1745463422164421000,12.055421142578124,-2.4413763760462404,0.6928612683743238,-2.8557635251283644
1745463422174392800,12.065392822265625,-2.567900815244019,-0.11330372309684753,-2.5977730986773966
1745463422184364000,12.075364013671875,-2.5415035144448277,-0.652116001009941,-2.3966459845684467
1745463422194335000,12.0853349609375,-2.403984072371572,-1.0008411758750677,-2.242712291049957
1745463422204306200,12.09530615234375,-2.288253414388746,-1.325950497353077,-2.0250885079093277
1745463422214277000,12.105277099609374,-2.954510315084457,-1.413534672781825,-1.5597256432190536
1745463422224248000,12.115248046875,-2.4756056856453417,-1.4345909048140049,-1.246976621620357
1745463422234219000,12.125218994140624,-1.9542918011523782,-1.3242080375999212,-0.6792106364235282
1745463422244190000,12.13518994140625,-1.7832511977493761,-1.503155322474241,0.052839755914360284
1745463422254161200,12.1451611328125,-1.4747240316294132,-1.5010311699271202,0.5339765283197164
1745463422264132000,12.155132080078126,-1.1595289320528506,-1.2913736894905565,0.905281199261546
1745463422274104000,12.16510400390625,-0.9310628523804246,-1.0666256074279545,1.2911460182145238
1745463422284075000,12.175074951171876,-0.6873451353013516,-0.4559732511848211,1.8986103920713067
1745463422294046200,12.185046142578125,-0.534728807991743,0.8174047628879547,2.552946699479222
1745463422304017200,12.19501708984375,-0.7782476414978504,2.611674198257923,3.3494398995026944
1745463422313988000,12.204988037109375,-1.3082770396269856,4.361151136699319,4.317556032861769
1745463422323959000,12.214958984375,-2.0623229906737803,5.782512557584047,4.9165474696666
1745463422333930000,12.224929931640625,-3.3222669381558894,6.631855012002587,5.397863251900673
1745463422343901200,12.234901123046875,-4.414017049968242,6.636317252108454,5.553832396769523
1745463422353872100,12.2448720703125,-4.349031075316668,5.945630989685655,4.992050746679306
1745463422363844000,12.254843994140625,-3.49791225887537,5.731919849944115,4.4808340394392605
1745463422373815000,12.26481494140625,-2.390983428762108,5.824289506083726,4.478930543905497
1745463422383786000,12.274785888671875,-1.3031240407779812,6.052153089818358,4.322442343598604
1745463422393757200,12.284757080078125,-0.7350973588183521,6.310745573815703,5.275805728983879
1745463422403728100,12.29472802734375,-0.6282979030489921,6.6458215780347585,7.099618654224276
1745463422413699000,12.304698974609375,-1.184009877836704,6.533631953659653,9.114835610330104
1745463422423670000,12.314669921875,-1.9619127975501118,6.002258301314711,11.276881542515754
1745463422433641000,12.324640869140625,-2.51116478254348,5.601388513192534,12.613816375219821
1745463422443612200,12.334612060546876,-2.2379145353794097,5.319099511787295,12.323410702854394
1745463422453583000,12.3445830078125,-1.6072643701158462,5.4218830099135635,11.37232344570756
1745463422463555000,12.35455517578125,-1.3097322068713604,5.572685565799475,10.237996759450436
1745463422473526000,12.364526123046875,-1.354333711272478,5.4497723028361795,9.06480696631372
1745463422483497200,12.374497314453125,-1.7385050241805613,5.467381024762988,8.514698218360543
1745463422493468200,12.38446826171875,-1.9694448004901408,5.419106530937552,8.611916483575104
1745463422503438800,12.39443896484375,-1.7310665447428821,5.215777084478735,8.848844248253107
1745463422513410000,12.40441015625,-1.2479007507279514,4.832093993479013,8.98701353253722
1745463422523381000,12.414381103515625,-0.8610989431858063,4.332811177399754,8.963836655089258
1745463422533352200,12.424352294921874,-0.78839859476462,4.029126336744428,8.521711896514892
1745463422543323100,12.4343232421875,-0.9383587084770202,4.009137441682816,7.674968226417898
1745463422553295000,12.444295166015625,-1.122315638206899,4.12720092652738,6.511891246494651
1745463422563266000,12.45426611328125,-1.1778732747778295,4.093123300358653,5.199162049764395
1745463422573237000,12.464237060546875,-1.0406855488769708,3.832714122328162,4.04025563352406
1745463422583208200,12.474208251953126,-0.8003755944147706,3.3677386495202777,3.0375960100501773
1745463422593179000,12.484178955078125,-0.5432137277424335,2.8278362382829187,2.346497659695148
1745463422603150000,12.494150146484374,-0.4115409658707678,2.053206787282228,2.0131930490627883
1745463422613121000,12.50412109375,-0.42052272922769185,1.1195599097579716,1.9378169055610894
1745463422623092000,12.514092041015624,-0.4692725854799151,0.0880734202504158,2.0883318766772745
1745463422633063200,12.524063232421875,-0.41898762861490246,-0.8616507318496703,2.382868072976172
1745463422643033900,12.534033935546875,-0.2404977321192622,-1.7601187439650297,2.580769064645469
1745463422653006000,12.544006103515626,0.05484364308267831,-2.4033108492851256,2.63689456423223
1745463422662977000,12.55397705078125,0.31623364884406324,-2.8140748394340274,2.5096350887581704
1745463422672948200,12.5639482421875,0.4737491463720798,-3.178160080516338,2.2841078390166163
1745463422682919000,12.5739189453125,0.6592725947663187,-3.4244483787357805,1.9342732416048645
1745463422692890000,12.58389013671875,0.7936670366868376,-3.3861674556583163,1.602260424348712
1745463422702861000,12.593861083984375,0.6635901657044887,-3.4482752445250746,1.261712126198411
1745463422712831500,12.60383154296875,0.4461386703908443,-3.511356262338161,1.0170186959549785
1745463422722802700,12.613802734375,0.2006815622985363,-3.310580007493496,0.827995422746241
1745463422732773600,12.623773681640625,-0.04376519970744848,-2.880674679023027,0.7011109180644154
1745463422742744300,12.633744384765626,-0.33389994617700575,-2.398682604962587,0.6437108684971928
1745463422752716500,12.643716552734375,-0.6086790103435517,-1.8394512238770722,0.629775282125175
1745463422762687500,12.6536875,-0.8267240876361728,-1.208029635849595,0.5778200539603829
1745463422772658700,12.66365869140625,-0.9780239255197346,-0.3816740892648697,0.4009779246717691
1745463422782629400,12.67362939453125,-1.0256513536132872,0.43880876589417456,0.061092182083427905
1745463422792600600,12.6836005859375,-1.2142442725807427,0.9636661682128905,-0.37332580150589345
