time,seconds_elapsed,z,y,x
1746276306696544800,0.049544677734375,0.18406331271380186,0.08353285421133042,0.24492460865080354
1746276306706525000,0.05952490234375,0.29907880816459653,0.022498247534036633,0.2902712323307991
1746276306716504800,0.0695048828125,0.38501287829875946,-0.0260638310611248,0.2971101384401321
1746276306726483700,0.079483642578125,0.39311259812414645,-0.06752455321848393,0.29632980171740053
1746276306736464000,0.0894638671875,0.3760892748698592,-0.11051438463926315,0.3131757225781679
1746276306746443800,0.09944384765625,0.33153789322078225,-0.13958324273526668,0.28006021943986414
1746276306756423700,0.109423583984375,0.2730617388546467,-0.14112170434892177,0.2041577139765024
1746276306766403600,0.119403564453125,0.23808891741186378,-0.14408523032963275,0.11385901889204979
1746276306776383700,0.1293837890625,0.22482874608337877,-0.13844342505037785,0.03917816417813301
1746276306786362600,0.139362548828125,0.17775164534896612,-0.05481354020535945,0.03151391316056251
1746276306796342800,0.1493427734375,0.13605565313100815,0.020434300741553304,0.08850187479555606
1746276306806322700,0.15932275390625,0.08596300396770239,0.049835751792788506,0.18711890089213848
1746276306816302800,0.169302734375,0.02292114912122488,0.08795826943814754,0.24577391895651815
1746276306826282800,0.17928271484375,-0.05878039800971746,-0.0022229367464780807,0.2653869664430618
1746276306836262700,0.1892626953125,-0.11274959634542464,-0.017955927929282186,0.206523274064064
1746276306846241800,0.19924169921875,-0.18149404674768446,0.02058569191098213,0.12156243287622928
1746276306856221700,0.2092216796875,-0.2934790884613991,0.04501286168098449,0.07429974644184112
1746276306866201600,0.21920166015625,-0.3690922555893659,0.05262041407525539,0.049802434045076366
1746276306876181800,0.229181640625,-0.4028840505540371,-0.05154080214500427,-0.022928163383901117
1746276306886162000,0.239161865234375,-0.35303982319384813,-0.1237140579521656,-0.12799597305506466
1746276306896141800,0.249141845703125,-0.26730595180690286,-0.1795978577375412,-0.24345482835918664
1746276306906120700,0.25912060546875,-0.17132862656414508,-0.23552666570842265,-0.28731881226599215
1746276306916100900,0.269100830078125,-0.0458142411917448,-0.29353286447525023,-0.25196459029018875
1746276306926080800,0.279080810546875,0.09330518342405557,-0.34820319681763645,-0.26846242836564777
1746276306936060700,0.289060791015625,0.20122633669972417,-0.40450668331980705,-0.28851094466000793
1746276306946040600,0.29904052734375,0.3130813222929835,-0.4678898989498615,-0.3312856720253825
1746276306956020700,0.309020751953125,0.4084267793729901,-0.4774287116676569,-0.4378180012911558
1746276306966001000,0.3190009765625,0.40784108843952416,-0.42851650446057316,-0.5418696196570992
1746276306975979800,0.328979736328125,0.37314854524284596,-0.37997196152210233,-0.6078139179468155
1746276306985959700,0.338959716796875,0.2813067123696208,-0.30672143187224865,-0.59273617580235
1746276306995939800,0.34893994140625,0.1698632301867008,-0.251520353654027,-0.5759592285245657
1746276307005919700,0.358919677734375,0.07361497904807329,-0.19155425299108028,-0.5433230333358049
1746276307015899600,0.368899658203125,-0.023458909259736538,-0.1473334184706211,-0.5258256628289818
1746276307025879600,0.378879638671875,-0.07874737350046634,-0.11353227115571499,-0.5181830391213298
1746276307035858700,0.388858642578125,-0.1161497601777315,-0.03308218539059162,-0.5257271708905696
1746276307045838800,0.3988388671875,-0.2202957788288593,0.0015460603982210158,-0.4826806408464908
1746276307055818800,0.40881884765625,-0.3296487184733152,-0.034597850650548934,-0.4030170292839408
1746276307065798700,0.418798583984375,-0.30023236211389304,0.0159685535043478,-0.2978185789704323
1746276307075778800,0.42877880859375,-0.07732289365530014,0.041648938205838204,-0.1389326698720455
1746276307085758700,0.4387587890625,0.07835603609532117,-0.030574001961946484,-0.08440408408790827
1746276307095737600,0.448737548828125,0.16272329530417917,-0.06919219416975975,-0.09451602051854133
1746276307105717800,0.4587177734375,0.19183306993246077,-0.02331190200448036,-0.14015636644810436
1746276307115697700,0.46869775390625,0.1801677665799856,-0.033606501525640486,-0.1797322977721691
1746276307125677800,0.478677734375,0.17851093928366898,-0.1020201125383377,-0.25532851376533505
1746276307135657700,0.48865771484375,0.15983108099400997,-0.12421850034296512,-0.31272593298405404
1746276307145637600,0.4986376953125,0.12925094155222178,-0.15469079549610615,-0.37066461947262286
1746276307155617800,0.50861767578125,0.15731646782457828,-0.14296820899844168,-0.3884279474392533
1746276307165596700,0.5185966796875,0.16278905401676894,-0.08799977049231529,-0.3726107851043343
1746276307175576600,0.52857666015625,0.14008476251661778,-0.03626315351426601,-0.2822682508781552
1746276307185556700,0.538556640625,0.08947890313416719,-0.07103811429738997,-0.14296265604048966
1746276307195537000,0.548536865234375,0.04119914861172438,-0.03288987768888473,-0.019150106149911878
1746276307205516800,0.558516845703125,-0.049915831291675566,0.0708019674539566,0.10920593238919973
1746276307215496700,0.56849658203125,-0.18735446321368215,0.19706570988893507,0.24381489384323357
1746276307225475800,0.578475830078125,-0.43711891311109063,0.36997663720846174,0.4127621782287955
1746276307235455700,0.588455810546875,-0.6594470745503902,0.5005529821455479,0.49948973682820796
1746276307245435600,0.598435546875,-0.717471393495798,0.5430909781455994,0.5637491507709026
1746276307255415600,0.60841552734375,-0.7033785707354545,0.5562333683133125,0.6243854057803749
1746276307265395700,0.618395751953125,-0.5952180557459592,0.37109073593020436,0.6518249091088771
1746276307275375900,0.6283759765625,-0.3890764744758606,0.1781459053635597,0.5434484132811427
1746276307285355800,0.638355712890625,-0.2618465173572302,0.12344576240479946,0.24705402189493178
1746276307295335000,0.6483349609375,-0.08698357918709516,0.0904915873080492,0.16251169838011265
1746276307305314800,0.658314697265625,0.06162234343737363,-0.010064882418513298,0.3156064568564296
1746276307315294700,0.668294677734375,0.1979880854308605,-0.1102811604052782,0.42944180261194703
1746276307325274600,0.678274658203125,0.2839239091306925,-0.13056640806496142,0.39225802712142466
1746276307335254800,0.6882548828125,0.2770350263997912,-0.06610182693898678,0.3332780148863792
1746276307345234700,0.698234619140625,0.18551321926116943,-0.007716857987642288,0.44839229453653096
1746276307355213600,0.708213623046875,0.0789583859026432,0.03987432974874973,0.6695394294977187
1746276307365193700,0.71819384765625,0.06352934610247611,0.07413374222517014,0.7485571443721651
1746276307375174000,0.728173828125,0.0466769955009222,0.06588087766468524,0.7205752047300338
1746276307385153800,0.73815380859375,-0.04498012845516205,0.0335100554138422,0.6669029435142875
1746276307395133700,0.7481337890625,-0.05575578949153423,0.048741526815295214,0.6081123163715004
1746276307405113600,0.758113525390625,0.008117255482077599,0.11632979291975498,0.5827288687899709
1746276307415093800,0.76809375,0.21380583228766917,0.2066284880042076,0.5127116219729185
1746276307425072600,0.77807275390625,0.5725725086957216,0.2154384019255638,0.4173001139193773
1746276307435052500,0.788052490234375,0.8603945943087339,0.07599427540004253,0.4567468659058213
1746276307445033000,0.798032958984375,1.1553586606308817,-0.0805658210992813,0.5709966376811265
1746276307455012900,0.808012939453125,1.0782684066876769,-0.07484861249625682,0.522766859780252
1746276307464992800,0.81799267578125,0.8124766588360071,-0.08144552654325962,0.3078782006919384
1746276307474973000,0.827972900390625,0.6449325192466377,-0.20604104350507257,0.13019465214312076
1746276307484952000,0.8379521484375,0.5350891657367348,-0.29901684884428975,-0.08357084813416003
1746276307494932000,0.847931884765625,0.5067337166070938,-0.34706980887353417,-0.24126374805569648
1746276307504912000,0.857911865234375,0.550972963567078,-0.4232955549418926,-0.36344402056932446
1746276307514891800,0.867891845703125,0.5893757594585418,-0.4474573517739773,-0.48478053573518987
1746276307524872200,0.8778720703125,0.5512193395435809,-0.34562545528411864,-0.5169277783632278
1746276307534852000,0.88785205078125,0.5248045030876994,-0.29952596741020676,-0.4227615941956639
1746276307544832000,0.89783203125,0.605075140632689,-0.3078793697357178,-0.41471886525452134
1746276307554811000,0.907810791015625,0.671556906799972,-0.16281097358763216,-0.4593386359646916
1746276307564791000,0.917791015625,0.5816875430434942,-0.18898060311079024,-0.46273587718755005
1746276307574771000,0.92777099609375,0.4632102167010307,-0.2657499545365572,-0.5363038022235036
1746276307584750800,0.937750732421875,0.2594400407373905,-0.2751286082565784,-0.6488999615728854
1746276307594730800,0.947730712890625,-0.010512626186013221,-0.26654958048164845,-0.7161670328989624
1746276307604711200,0.957711181640625,-0.22050094601213932,-0.1742909835010767,-0.6790197900265454
1746276307614691000,0.967691162109375,-0.36415596823096275,-0.034741643035411836,-0.5934975155636668
1746276307624670000,0.977669921875,-0.4123071279376745,0.14736965882778166,-0.3990492946967482
1746276307634650000,0.987650146484375,-0.4117015632599592,0.2536976976931095,-0.20018442643135784
1746276307644630000,0.997630126953125,-0.4103822973549366,0.3569336157619953,-0.05334697478413582
1746276307654610000,1.00760986328125,-0.4251689475983381,0.39260640216767784,0.08674304842948913
1746276307664589800,1.01758984375,-0.44600686070472,0.34284079300165177,0.08855857341885566
1746276307674569700,1.02756982421875,-0.40438597954958677,0.212636788508296,0.005081833308935165
1746276307684548900,1.037548828125,-0.39141280846893783,0.12399170584976672,-0.12652911537289618
1746276307694529000,1.047529052734375,-0.32580314896106716,0.06628127515912055,-0.19856471627503633
1746276307704509000,1.057509033203125,-0.21144670194089413,-0.0018313070803880691,-0.2872191512838006
1746276307714489000,1.067489013671875,-0.13842062869668006,-0.06407528954744339,-0.36937457966208453
1746276307724469000,1.077468994140625,-0.10610358245968818,-0.12269582082033156,-0.3098495007649064
1746276307734449000,1.087448974609375,-0.12909545872956513,-0.22865093472003936,-0.20336627133786678
1746276307744428800,1.0974287109375,-0.20693653104007242,-0.25628011540174483,-0.10516162543445826
1746276307754408000,1.107407958984375,-0.15153554633557795,-0.16973931154608726,-0.03689414489418268
1746276307764387800,1.117387939453125,-0.027929332672059534,-0.14301204814016819,0.045158699892461296
1746276307774368000,1.127367919921875,0.12286153277605771,-0.14660685776174068,0.11750877357125282
1746276307784348000,1.137347900390625,0.17701602455079554,-0.1486181975841522,0.21264263372719286
1746276307794328000,1.147328125,0.17751286815702913,-0.09906886151731013,0.2856201916545629
1746276307804308000,1.157307861328125,0.19787235009670257,-0.0953191535949707,0.2716872356310487
1746276307814288000,1.167287841796875,0.1999012255758047,-0.1602080976128578,0.23053689459711313
1746276307824267000,1.17726708984375,0.16268150198906658,-0.18836100990772245,0.16318272950947282
1746276307834247000,1.187246826171875,0.03609948738515377,-0.23601298792064188,0.1462289643600583
1746276307844226800,1.197226806640625,-0.09120674984008073,-0.23206804968714712,0.09444324754327535
1746276307854207000,1.20720703125,-0.23888299039900301,-0.1764870322406292,0.05834551372379064
1746276307864187000,1.217186767578125,-0.21240882497131824,-0.038486674782633776,0.04556552712768316
1746276307874167000,1.2271669921875,-0.07911445324718952,0.09888824425339698,0.16415478941202163
1746276307884146000,1.23714599609375,-0.011179565662145613,0.17566577898561953,0.3145338591888547
1746276307894125800,1.247125732421875,0.05996317805349827,0.231516261023283,0.3864320974469185
1746276307904106000,1.25710595703125,0.195102008600533,0.21167583452165126,0.40619712062478064
1746276307914086000,1.2670859375,0.30771190421432254,0.14572890588343143,0.3274187674641609
1746276307924066000,1.277066162109375,0.4008367626354098,0.07505144159197807,0.21111089411526918
1746276307934046000,1.2870458984375,0.472907727111876,0.018114333361387253,0.08428717970997095
1746276307944026000,1.297026123046875,0.44403848324120043,-0.04711304883062839,-0.047479836316406725
1746276307954005000,1.3070048828125,0.38887130729258057,-0.15670798053741455,-0.18296821095347404
1746276307963985000,1.31698486328125,0.31820027274191376,-0.1768880142569542,-0.1908537035062909
1746276307973965000,1.326965087890625,0.2172299615174532,-0.17194237454831598,-0.09816285258829593
1746276307983945000,1.336945068359375,0.15077596013993025,-0.13837678955495356,-0.06415507678538561
1746276307993924900,1.3469248046875,0.04211626345664263,-0.09792319861352443,-0.05447656333595514
1746276308003905000,1.356905029296875,-0.037918227244913574,-0.09341185866892338,0.007006079369783401
1746276308013885000,1.366885009765625,-0.08478986853510141,-0.09297755890488624,0.07999561999589204
1746276308023864000,1.376864013671875,-0.09080196843147277,-0.14382453356683253,0.07168050385415553
1746276308033844000,1.386843994140625,-0.04114624938070774,-0.11525427264273166,0.026383272273838517
1746276308043823900,1.396823974609375,-0.03355973977446556,-0.059794251227378845,0.05176087463647127
1746276308053804000,1.406803955078125,-0.0284448809787631,-0.08566577458679675,0.09435498473793268
1746276308063784000,1.416783935546875,-0.04276391371041536,-0.11770868005752563,0.029801264023780822
1746276308073763800,1.426763916015625,-0.009080839817225933,-0.13571896852254867,0.01759323209673166
1746276308083744000,1.436743896484375,0.051907005108892915,-0.14412088616490362,0.01574205127209425
1746276308093723100,1.44672314453125,0.13130290564596653,-0.1162023671478033,0.07381400875151158
1746276308103703000,1.456703125,0.19905220753103495,-0.04974222829043865,0.18344284272789954
1746276308113683000,1.466682861328125,0.22824060035347937,0.0006909048736095428,0.2897907553374767
1746276308123662800,1.476662841796875,0.19466887788027523,0.01713409015238285,0.3683352997422218
1746276308133643000,1.48664306640625,0.09068827892392874,0.020949264526367185,0.39672582018524405
1746276308143623000,1.496622802734375,-0.02022708773165941,0.016814356678724288,0.37486966994702814
1746276308153601800,1.506601806640625,-0.11380758096575737,0.013176876959204673,0.35877836684584613
1746276308163582000,1.51658203125,-0.16664251457452772,0.012573650369048117,0.32216917637288567
1746276308173562000,1.52656201171875,-0.14621172096431254,-0.011862871751189231,0.3246840818032622
1746276308183542000,1.5365419921875,-0.14482289695441722,0.006925999870896339,0.32777737164348364
1746276308193522000,1.54652197265625,-0.10128946017622947,0.0089057755112648,0.32756577471941706
1746276308203501800,1.556501708984375,-0.026497546303272244,-0.01872866586744785,0.29469167912155386
1746276308213482000,1.56648193359375,0.06492226176559925,-0.033517069676518435,0.24119272864609956
1746276308223460900,1.5764609375,0.04754267241954803,-0.00670505059659481,0.23015958571732043
1746276308233440800,1.586440673828125,-0.010184417144954204,-0.025590368330478667,0.21965455831587313
1746276308243421000,1.5964208984375,-0.10376987881511449,-0.02009293995797634,0.17973814299106597
1746276308253401000,1.606401123046875,-0.16318126820474863,0.020472879186272618,0.15814181273281575
1746276308263381000,1.616381103515625,-0.19267361240983008,0.017600538620352744,0.09322919557839632
1746276308273361000,1.62636083984375,-0.249442670597136,0.034305005183815955,0.055716334263980385
1746276308283341000,1.636341064453125,-0.25371231074035167,0.04646539857685566,0.06892068375200033
1746276308293320000,1.64631982421875,-0.28494331530630584,0.09145312581658363,0.08922492837309837
1746276308303299800,1.6562998046875,-0.24836335092782974,0.09505144256949424,0.07324906834512948
1746276308313279700,1.66627978515625,-0.19103636659681797,0.004767360532283783,0.04171323561370373
1746276308323260000,1.676260009765625,-0.1360702661782503,-0.09264028977453709,-0.029491467422246932
1746276308333240000,1.686239990234375,-0.13132745556533335,-0.15082067606449126,-0.17143910120129585
1746276308343220000,1.696219970703125,-0.12372516386806964,-0.17320026565492153,-0.3074269497931003
1746276308353199000,1.70619921875,-0.11297785214334725,-0.2116086145043373,-0.3476119529262185
1746276308363179000,1.716178955078125,-0.09557108252942562,-0.24081658881008625,-0.3861567876368761
1746276308373159000,1.726158935546875,-0.08693038769513368,-0.22407120571434497,-0.41266777794361115
1746276308383138800,1.736138916015625,-0.08156827614009379,-0.21584113750755785,-0.4273980218246579
1746276308393119000,1.746118896484375,-0.05542465784102678,-0.20129706384837626,-0.4202689005970955
1746276308403099100,1.75609912109375,-0.03000000146627426,-0.18980887062847612,-0.4506272139817476
1746276308413079000,1.7660791015625,-0.03583411444723606,-0.17591010913550853,-0.44361879652440545
1746276308423058000,1.776057861328125,-0.07353636085391044,-0.1446095464646816,-0.42206016792804
1746276308433038000,1.7860380859375,-0.11250175906419753,-0.14805705657005308,-0.4093374644771218
1746276308443018000,1.79601806640625,-0.14468115039616822,-0.1345499247431755,-0.39206045872271056
1746276308452998000,1.805997802734375,-0.13473784853070975,-0.12110767484605311,-0.34489947909712787
1746276308462977800,1.815977783203125,-0.0984556980550289,-0.11582827313840388,-0.30047289287149903
1746276308472957700,1.825957763671875,-0.012694646400213241,-0.15600012452900408,-0.2844219217807054
1746276308482937600,1.8359375,0.04433189367949962,-0.1798977174669504,-0.25717940232902764
1746276308492916500,1.84591650390625,0.08368862929493188,-0.19994506471753118,-0.2869800818309188
1746276308502896600,1.855896728515625,0.12175240249037741,-0.1897580172240734,-0.2603919346347451
1746276308512876500,1.86587646484375,0.1126946512877941,-0.17496026106476784,-0.2335354918912053
1746276308522856700,1.875856689453125,0.051614744164049625,-0.1207943711131811,-0.25969752262979745
1746276308532836600,1.885836669921875,-0.03564005317986011,-0.07994505885243415,-0.20410276891887186
1746276308542816500,1.89581640625,-0.15611585986316204,-0.06743921302258968,-0.10196224487125873
1746276308552796700,1.905796630859375,-0.20326631809473036,-0.048940264257788656,-0.036470951046049596
1746276308562775600,1.915775634765625,-0.23340338994413612,-0.03190788091421127,0.017516075207293032
1746276308572755500,1.92575537109375,-0.2272206096559763,-0.02055997294783592,0.14039426685720682
1746276308582735600,1.935735595703125,-0.20147972693890331,0.01764554680585861,0.23188538659662006
1746276308592715500,1.945715576171875,-0.16450871741622686,0.05814823758602142,0.24876900911927222
1746276308602695700,1.95569580078125,-0.11999065351486206,0.09083703974485396,0.3255737241193652
1746276308612675600,1.965675537109375,-0.10115823501199483,0.12944587960243226,0.44186172372400756
1746276308622655700,1.97565576171875,-0.09555705400407313,0.17725509400367737,0.5223790295064449
1746276308632634600,1.985634521484375,0.008192658805847167,0.1889911245048046,0.6251765561580658
1746276308642614500,1.995614501953125,0.08410071722716092,0.1993786630064249,0.7178080781042575
1746276308652594700,2.0055947265625,-0.001651274338364601,0.14589900175333023,0.7541749842539429
1746276308662574600,2.01557470703125,-0.04083002303838729,0.15217092162966728,0.6093938806146383
1746276308672554800,2.0255546875,0.16619915472120045,0.2610463068902492,0.4777732873216271
1746276308682534700,2.03553466796875,0.31394086173176766,0.26854455369114877,0.2886822095736861
1746276308692513800,2.045513671875,0.19610943207740783,0.10989420691430568,0.21986264810860157
1746276308702493700,2.05549365234375,0.042813890331983566,0.0042705169260501856,0.19926292767226694
1746276308712473600,2.0654736328125,-0.05264554851651192,0.0036661212921142577,0.1402761934354901
1746276308722453500,2.07545361328125,-0.061601885171234605,-0.0032341596156358716,0.03696604108661413
1746276308732433700,2.08543359375,0.07734393644332885,-0.024668577310442922,-0.007509937238693237
1746276308742413600,2.09541357421875,0.18242898951023817,-0.0746235715687275,0.026149463517963885
1746276308752393700,2.105393798828125,0.27641630997955796,-0.14200959309935568,0.050263037294149396
1746276308762372600,2.11537255859375,0.356518312959373,-0.13164134382009504,0.03385755367726087
1746276308772352800,2.125352783203125,0.3352425929576158,-0.12493804678916931,0.02784545378088951
1746276308782332700,2.135332763671875,0.2965624414294958,-0.12288579043447971,0.05257014519274234
1746276308792312600,2.1453125,0.24539310294538735,-0.1303717622756958,0.05210778837800026
1746276308802292500,2.15529248046875,0.19962007054686545,-0.1111789860278368,0.038572307239472865
1746276308812272600,2.165272705078125,0.16218348933905363,-0.09361644133031367,0.06735474960952997
1746276308822252500,2.17525244140625,0.1468283915579319,-0.0922346315830946,0.09655921678394079
1746276308832231400,2.1852314453125,0.12628975365906953,-0.11223697064816951,0.10370236653685569
1746276308842211800,2.1952119140625,0.1580991426348686,-0.1435077227026224,0.08356383387148379
1746276308852191700,2.205191650390625,0.21618717446625232,-0.15183949771821498,0.07032295176535844
1746276308862171600,2.215171630859375,0.27216858940720556,-0.1883370445102453,0.05017185187935829
1746276308872151600,2.225151611328125,0.3119309832140803,-0.2536409990698099,-0.016246201401948927
1746276308882131500,2.23513134765625,0.3694344931557774,-0.2981909194141626,-0.051961073383688924
1746276308892111600,2.245111572265625,0.40144349635690446,-0.3071446257203817,-0.06925210766345262
1746276308902090500,2.255090576171875,0.3115291244149208,-0.2530816116213798,-0.04979220491200685
1746276308912070400,2.2650703125,0.18787907160967587,-0.1736158607184887,0.0020332593932747838
1746276308922050800,2.27505078125,0.06521744531989097,-0.1121679970651865,0.06268383518904447
1746276308932030700,2.28503076171875,-0.05235825600773096,-0.050368835756182666,0.10373977593779564
1746276308942010600,2.2950107421875,-0.14408464580774305,-0.03529576978683471,0.13088438797295093
1746276308951990500,2.304990478515625,-0.25265987907797094,-0.0010585691422224045,0.1463309634298086
1746276308961970700,2.314970703125,-0.37975393485724923,0.05411094489395618,0.17849837206304073
1746276308971949600,2.324949462890625,-0.4339683401256799,0.12064765611886978,0.2083303234860301
1746276308981929500,2.334929443359375,-0.4505085560381412,0.15206220055818556,0.23367636166661976
1746276308991909400,2.344909423828125,-0.38669776264578104,0.12751812641024587,0.25262539228647946
1746276309001889800,2.354889892578125,-0.27044366531074043,0.12135726569294929,0.24038053548038005
1746276309011869700,2.36486962890625,-0.1898436496809125,0.07960486711263656,0.2059966198414564
1746276309021849600,2.374849609375,-0.17204408135712146,0.027151626297831535,0.16435966433435678
1746276309031829500,2.38482958984375,-0.1559650532156229,-0.016814941200613973,0.07415829214453697
1746276309041808600,2.39480859375,-0.13824030369371174,-0.07459434547424316,0.004628536583483219
1746276309051788500,2.40478857421875,-0.10497136355936526,-0.11801380048394203,-0.05282090508341789
1746276309061768400,2.4147685546875,-0.08503332190215587,-0.1111000755727291,-0.038437574943900106
1746276309071748600,2.42474853515625,-0.053069911408424375,-0.10339140089154243,0.007871756288409233
1746276309081728800,2.434728759765625,0.03001081512123346,-0.08881810113787651,0.11521189480572938
1746276309091708700,2.444708740234375,0.14034662832319736,-0.036194179931282995,0.17016192087233065
1746276309101688600,2.4546884765625,0.23245704900473355,-0.008704115459322929,0.24291209978461265
1746276309111667700,2.464667724609375,0.2756125923812389,0.0338280353218317,0.3336883492529392
1746276309121647600,2.474647705078125,0.23037644333839416,0.043915129572153086,0.3630281332448125
1746276309131627500,2.48462744140625,0.17204612718373535,0.04798574001193046,0.3408475733578205
1746276309141607400,2.494607421875,0.10025018025636673,0.03586158697605133,0.27472558041363954
1746276309151587800,2.504587890625,-0.00026771102547645565,0.013610007679462433,0.16447276932001112
1746276309161567700,2.514567626953125,-0.042164778773486615,-0.012175590962171554,0.05677957958132028
1746276309171547600,2.524547607421875,-0.10018354476094245,-0.0226566529661417,-0.09005319589078425
1746276309181526800,2.53452685546875,-0.12580109335929154,-0.056684594774246214,-0.18648323333710431
1746276309191506700,2.544506591796875,-0.12231675837486981,-0.08799334075152873,-0.23971213469952343
1746276309201486600,2.554486572265625,-0.06763502785563469,-0.10863690032958984,-0.3005339754089713
1746276309211466500,2.564466552734375,-0.020527824243903158,-0.1552940220862627,-0.362544149120152
1746276309221446400,2.5744462890625,0.010044424152374267,-0.19044073879122733,-0.40670214753746986
1746276309231426800,2.5844267578125,0.048531975717842575,-0.21924831560254096,-0.43608489388823507
1746276309241406700,2.59440673828125,0.0811564804688096,-0.20352643033564088,-0.45044045923799275
1746276309251386600,2.60438671875,0.10223960050791502,-0.20016016877293585,-0.4285518680348992
1746276309261365800,2.61436572265625,0.13446107741594313,-0.21157588127851484,-0.4181804038852453
1746276309271345700,2.624345703125,0.08938274928331374,-0.189863231164217,-0.41288551234751936
1746276309281325600,2.63432568359375,0.05444383011013269,-0.16888181793391704,-0.3431242861181497
1746276309291305500,2.644305419921875,0.06199965231716632,-0.1188034895569086,-0.2502604167208075
1746276309301285600,2.65428564453125,0.04775865325778723,-0.09478606963157653,-0.15866437530219554
1746276309311265800,2.664265869140625,0.00853811124265194,-0.09236030378937721,-0.050988428959250445
1746276309321245700,2.67424560546875,-0.018700608816742896,-0.08556231421232223,0.008911620730161666
1746276309331224600,2.684224609375,-0.052124739512801166,-0.07412497439682483,0.01362052907347679
1746276309341204700,2.694204833984375,-0.07612988447844982,-0.05816109706759452,0.0650245530962944
1746276309351184600,2.7041845703125,-0.06301730492711066,-0.027930209454894064,0.09290829306095838
1746276309361164500,2.71416455078125,-0.022635610178112983,0.004371054691076279,0.12597791123092172
1746276309371144400,2.72414453125,-0.024180501532554625,0.01802548603415489,0.18871201530247925
1746276309381124600,2.73412451171875,-0.00949614261984825,0.006319266149401664,0.22925591487586497
1746276309391104800,2.744104736328125,0.017436287969350813,-0.014207389050722122,0.2730342663258314
1746276309401083600,2.754083740234375,0.04656067564487457,0.005461188015341759,0.26901509381234645
1746276309411063600,2.7640634765625,0.05078384629786014,0.010918284377455711,0.31292028651237486
1746276309421043700,2.774043701171875,0.0435769836589694,0.022760113340616225,0.3408651090145111
1746276309431023600,2.784023681640625,0.022133798135817048,0.038002106136083603,0.3548834052339196
1746276309441003500,2.79400341796875,0.00455225647687912,0.0387953023403883,0.3164391082882881
1746276309450983400,2.8039833984375,-0.04953881467282772,0.045320904716849325,0.24030454763472078
1746276309460963800,2.8139638671875,-0.10478022490143775,0.07814473143219948,0.20042466492801903
1746276309470943000,2.82394287109375,-0.2085477656289935,0.08055529970526695,0.202903330001235
1746276309480923100,2.833923095703125,-0.22566782725602388,0.11148118384480475,0.24373802921473978
1746276309490903000,2.843903076171875,-0.2138040787220001,0.14241174415946006,0.3012184505417943
1746276309500883200,2.85388330078125,-0.1927364485129714,0.11381810235977172,0.3375459014639258
1746276309510863000,2.863863037109375,-0.14478314946591853,0.07667056722640991,0.35159225473403927
1746276309520843000,2.873843017578125,-0.08193331006020307,0.04784545475840568,0.3347892962321639
1746276309530823000,2.883822998046875,-0.004295943628251552,0.019507249024510384,0.2987996989622712
1746276309540802000,2.893802001953125,0.07182312719523906,0.0007633855879306793,0.24910130981355905
1746276309550782000,2.903781982421875,0.17930647357553242,0.0021177228063344955,0.21228958250582217
1746276309560762000,2.91376220703125,0.23288754937648773,-0.004493804287910461,0.16296557962745428
1746276309570742000,2.923741943359375,0.18575638036727904,-0.006899696385860443,0.10449293239265679
1746276309580722200,2.93372216796875,0.1449544143795967,-0.05509527975618839,0.036864626538753505
1746276309590702000,2.9437021484375,0.1292471421599388,-0.10048749614357948,-0.003622282150387764
1746276309600682000,2.953681884765625,0.11250263584703206,-0.09853402398824691,-0.00037789340168237684
1746276309610661000,2.9636611328125,0.1182984626442194,-0.08225567388236522,0.01565963368564844
1746276309620641000,2.97364111328125,0.13268909930735825,-0.054583238580822944,0.034918753167986864
1746276309630621000,2.983620849609375,0.07936579765975475,-0.04238777387440204,0.07350333536714315
1746276309640601000,2.99360107421875,0.05600596486032009,-0.05132862069904804,0.02693038476258516
1746276309650581200,3.003581298828125,0.050098494382202624,0.007646130838990211,0.014338029693067073
1746276309660561200,3.01356103515625,0.053100891068577766,0.03164309249818325,0.010608195514976977
1746276309670541000,3.023541015625,0.058257835440337656,0.036599253600835796,0.009353227017819881
1746276309680521000,3.03352099609375,0.07702011131644249,0.00756079064309597,-0.04727729948163032
1746276309690500000,3.0435,0.10311316847205161,-0.041352585607767105,-0.0777601160287857
1746276309700480000,3.05347998046875,0.12472586534321307,-0.08307517357170581,-0.1274649349182844
1746276309710460200,3.063460205078125,0.16096563798189162,-0.06991057157218455,-0.1622609384894371
1746276309720440000,3.073440185546875,0.19829875881522893,-0.06332359439730643,-0.1534983708411455
1746276309730420200,3.083420166015625,0.20944939064383505,-0.06973404596149921,-0.13891338064968586
1746276309740400000,3.093400146484375,0.23388152884989977,-0.061357262760400766,-0.11314064148962497
1746276309750380000,3.103380126953125,0.19880057085752487,-0.08610007435083389,-0.09863134688287972
1746276309760359200,3.113359130859375,0.1248638125091791,-0.06283961027264595,-0.10056991373002529
1746276309770339000,3.123339111328125,0.024641981564462182,-0.06115268009901046,-0.07430120774656533
1746276309780319000,3.133319091796875,-0.04324585200846195,-0.09359890567362308,-0.033200551073253155
1746276309790299100,3.143299072265625,-0.016270751321315766,-0.0809410841524601,0.013076631455123423
1746276309800279000,3.153279052734375,0.0689960870757699,-0.05391980623602867,0.01239274084419012
1746276309810259200,3.16325927734375,0.10554711762070655,-0.035869770282506944,0.08519844933599233
1746276309820239000,3.173239013671875,0.11892507010996341,-0.01414075355529785,0.146166128256917
1746276309830218000,3.183218017578125,0.10794365736842154,-0.05319441457092762,0.15694032798856497
1746276309840198100,3.1931982421875,0.09347469477206469,-0.07863689886331558,0.09867518602460622
1746276309850178000,3.203177978515625,0.09382628468871117,-0.06766717655956744,0.09790303260833025
1746276309860158000,3.213157958984375,0.09471592700481414,-0.02753741074502468,0.152011054892838
1746276309870138000,3.22313818359375,0.06537059005498885,-0.03659107029438018,0.17415917381495236
1746276309880118000,3.233117919921875,0.055528994998335836,-0.054305006161332124,0.11423954264223575
1746276309890098200,3.24309814453125,0.06680179190188645,-0.05265548538863658,0.08617635445743799
1746276309900078000,3.253078125,0.07583382414132356,-0.017697569254040715,0.08854366811066866
1746276309910057000,3.263056884765625,0.11923106731921433,0.027260347369313237,0.14121230524182318
1746276309920037000,3.273037109375,0.14065145648866892,0.024791326907277107,0.17745909214317798
1746276309930017000,3.28301708984375,0.12676029378026724,0.010110475125908852,0.1842594198077917
1746276309939997000,3.292996826171875,0.11009206757396459,0.0010147300004959105,0.14552666130959988
1746276309949977000,3.30297705078125,0.0990551252529025,0.03962649246752262,0.1329419050246477
1746276309959957200,3.312957275390625,0.06740998692810535,0.05610065740644932,0.2124348361954093
1746276309969937200,3.322937255859375,0.03350245662927628,0.017296002715826035,0.2073947962015867
1746276309979916000,3.332916015625,-0.005942249530553817,-0.028586627537012098,0.1598170524686575
1746276309989896000,3.34289599609375,-0.02802285617440939,-0.08103811478614807,0.04856237085610628
1746276309999876000,3.3528759765625,-0.029781390279531476,-0.13577157549262045,-0.06279051043391227
1746276310009856000,3.36285595703125,-0.026451076813042162,-0.08749649714529514,-0.10648147586137055
1746276310019836200,3.372836181640625,-0.05994885726720094,-0.022401216900348662,-0.04918459440767765
1746276310029816000,3.382816162109375,-0.07707973254919051,-0.021341478714346884,-0.0022998013749718667
1746276310039796200,3.392796142578125,-0.034840427234768864,-0.0014390928924083708,-0.016569734267890452
1746276310049775000,3.402775146484375,0.024229016849398613,-0.02587561501264572,0.016420681186020372
1746276310059755000,3.412755126953125,0.04509615605026483,-0.030558219870924948,0.04597703053802252
1746276310069735200,3.422735107421875,0.030312136155366896,-0.03236497703194618,0.07891630032658577
1746276310079715000,3.432715087890625,-0.017353578121960162,-0.05959960543811321,0.1199801321208477
1746276310089695000,3.442695068359375,-0.049720016458630556,-0.08528349727094173,0.09534253447055815
1746276310099675100,3.452675048828125,-0.05043547125160694,-0.13630407493412494,0.07367430801987647
1746276310109655000,3.462655029296875,-0.030758710879087447,-0.10303834967017172,0.052928164850175374
1746276310119635200,3.47263525390625,-0.04514496362805366,-0.10288228232562541,0.1052726845934987
1746276310129614000,3.482614013671875,-0.013046528577804565,-0.12276011822819709,0.1299208036378026
1746276310139594000,3.492593994140625,0.018069909697771072,-0.10018471380472183,0.07864625121355057
1746276310149574100,3.50257421875,0.0004229015871882438,-0.13692133004963397,0.026565935364365575
1746276310159554000,3.512553955078125,-0.009754793556034565,-0.12883914588093756,-0.038375323362648484
1746276310169534000,3.522533935546875,-0.06279694017469882,-0.06650339347720145,-0.05260112485289573
1746276310179514000,3.53251416015625,-0.1108718197748065,-0.0461672924131155,-0.03222966021448374
1746276310189494000,3.542493896484375,-0.13694061927199364,-0.06698387047052383,-0.06284457870870828
1746276310199473200,3.55247314453125,-0.10635200426280497,-0.054419572451710696,-0.11577128225415945
1746276310209453000,3.562453125,-0.08711071269810199,-0.06861176393330097,-0.12773907568454743
1746276310219433000,3.572432861328125,-0.1127519344329834,-0.04266191464066505,-0.06758914288729428
1746276310229413000,3.5824130859375,-0.13210983811467886,-0.03717266957461834,-0.016126374414563178
1746276310239393000,3.59239306640625,-0.13751432750672102,-0.06644260320067405,0.00027355624437332154
1746276310249373000,3.602373046875,-0.10714870759844779,-0.1081026473224163,-0.031028467731177806
1746276310259353000,3.61235302734375,-0.026510698045790194,-0.10923720431029796,-0.05709960531592369
1746276310269333200,3.622333251953125,-0.009425415471196174,-0.09592939444780349,-0.03140577661097049
1746276310279312100,3.63231201171875,0.013458616510033607,-0.05310439819991588,-0.018329437416791914
1746276310289292000,3.6422919921875,-0.005023965641856193,-0.056416883748769756,-0.01800590455085039
1746276310299272000,3.65227197265625,-0.023401333853602407,-0.08410451661944389,-0.0640045623987913
1746276310309252000,3.662252197265625,-0.006474748972058296,-0.10243161594867706,-0.13685118742287158
1746276310319232000,3.67223193359375,0.01000906057804823,-0.12544541178941726,-0.1826601679176092
1746276310329212200,3.682212158203125,0.003500701597332954,-0.12452946598827838,-0.22743074527531862
1746276310339192000,3.692192138671875,-0.01615501598715782,-0.08550912272036075,-0.23942279636412858
1746276310349172200,3.702172119140625,-0.03376987539380789,-0.09169102622568606,-0.21537205869108436
1746276310359151000,3.712151123046875,-0.06522825897485017,-0.08415829263329505,-0.19877835902571678
1746276310369131000,3.722131103515625,-0.11830196977555751,-0.09068798666298389,-0.1433712368413806
1746276310379111200,3.732111083984375,-0.1884855130702257,-0.15064181236624716,-0.10194149434417486
1746276310389091000,3.742091064453125,-0.25852351041436195,-0.24597850161790846,-0.0561821982100606
1746276310399071000,3.752071044921875,-0.27984102373123165,-0.3303735256165266,-0.017701953168213366
1746276310409051100,3.762051025390625,-0.2243158281251788,-0.35518472626805303,0.014716215355694293
1746276310419031000,3.772031005859375,-0.12388532286584376,-0.3252425924688577,0.06790916862189769
1746276310429010200,3.78201025390625,-0.04734978019595146,-0.24352760133445261,0.10857640231400728
1746276310438990000,3.791989990234375,-0.04284457773119211,-0.14224515542089938,0.14230185404419898
1746276310448970000,3.801969970703125,-0.0638020255640149,-0.009035539370775222,0.1951134067773819
1746276310458950100,3.8119501953125,-0.08220394369512796,0.1429758077830076,0.2675485283911228
1746276310468930000,3.821929931640625,-0.11176730730980634,0.2302998709708452,0.3183469877362251
1746276310478909200,3.8319091796875,-0.14898995350599287,0.24733050074875354,0.30587855130732056
1746276310488889300,3.841889404296875,-0.184590843719244,0.2349848139166832,0.26515228090435267
1746276310498869200,3.851869140625,-0.22250819418132303,0.21942659477889537,0.2391974631756544
1746276310508848000,3.86184814453125,-0.20319325285851955,0.211795661509037,0.2531219436317682
1746276310518828000,3.871828125,-0.12268880655765532,0.2157125426918268,0.2479620766505599
1746276310528808200,3.88180810546875,-0.08103256182819604,0.18857786752879618,0.22746932372003792
1746276310538788000,3.8917880859375,-0.05177841029316187,0.1461047534584999,0.24654022715389728
1746276310548768300,3.901768310546875,-0.0025520225703716277,0.146910224622488,0.22136457710415122
1746276310558748200,3.911748046875,0.016699790388345716,0.08998480682969093,0.17788696216642855
1746276310568728300,3.921728271484375,0.027296587726473805,0.05205459688603878,0.11034984172731638
1746276310578708200,3.931708251953125,0.05270896914154291,0.002103109759092331,0.028324469469487665
1746276310588687000,3.94168701171875,0.08951046731621026,-0.03819558288156986,-0.03431172718554735
1746276310598667300,3.951667236328125,0.15680179630070923,-0.07252513798475264,-0.06097147831320762
1746276310608647200,3.961647216796875,0.19167817163169382,-0.10954641638994217,-0.061812605312466615
1746276310618627300,3.97162744140625,0.21046324386149642,-0.11811959894597529,-0.11548282070159911
1746276310628607200,3.981607177734375,0.22087065610736606,-0.10563947207927703,-0.12743687786757946
1746276310638587100,3.991587158203125,0.227124163544178,-0.14013269331157208,-0.1811006635159254
1746276310648567300,4.0015673828125,0.24993279220163822,-0.13636954138576984,-0.2455406947225332
1746276310658547200,4.011547119140625,0.2712181568145752,-0.12534955019950866,-0.2918605473488569
1746276310668526000,4.021526123046875,0.2601189629122615,-0.1424970843553543,-0.3543453528344631
1746276310678506200,4.03150634765625,0.27838819457441566,-0.12467793454825878,-0.389920524084568
1746276310688486100,4.041486083984375,0.30647242554724213,-0.1325806704968214,-0.33519407764077186
1746276310698466300,4.05146630859375,0.2882195604979992,-0.1409580382198095,-0.2773629431799054
1746276310708446200,4.0614462890625,0.28924364284873005,-0.1400216341525316,-0.210969439817965
1746276310718426000,4.071426025390625,0.2740668242439627,-0.15675532681047916,-0.1662237046405673
1746276310728406300,4.08140625,0.20000673177689313,-0.19380816939771175,-0.14636895735263825
1746276310738386200,4.09138623046875,0.10155600215792655,-0.20853870553970336,-0.15788082370907067
1746276310748365000,4.101364990234375,-0.0001984451815485954,-0.21741291686892508,-0.1464396845012903
1746276310758345200,4.11134521484375,-0.0638747985392809,-0.24226678761839865,-0.15603753392994402
1746276310768325000,4.1213251953125,-0.06263415082842111,-0.21037819592654705,-0.12397563149780035
1746276310778305300,4.13130517578125,-0.03333937502205372,-0.15797171686291694,-0.054881052483618256
1746276310788285200,4.14128515625,-0.014896832619607447,-0.09046236121356487,0.005832651676237583
1746276310798265300,4.151265380859375,0.006529986290633678,-0.06349310574531555,0.057630351191759105
1746276310808245200,4.161245361328125,0.03445931896269321,-0.026803251251578328,0.11866057395488024
1746276310818224000,4.17122412109375,0.056226621873676774,0.04308744657635689,0.1873147157251835
1746276310828204000,4.1812041015625,0.06839812118262052,0.05944587618112564,0.25496114175766704
1746276310838184200,4.19118408203125,0.0784507286414504,0.08590192143023014,0.33122049783468244
1746276310848164000,4.2011640625,0.06231441735476255,0.0995756419956684,0.37363691328167914
1746276310858144300,4.211144287109375,0.03143003426939249,0.08267302251160144,0.4044517382621765
1746276310868124200,4.221124267578125,-0.043130993457138535,0.09084230044186115,0.41947482760995625
1746276310878104300,4.231104248046875,-0.09045417790710926,0.10532616834640503,0.42827597370296716
1746276310888084200,4.241084228515625,-0.10580547629594803,0.10640344218909739,0.45223026526421306
1746276310898063000,4.25106298828125,-0.10334873079359531,0.1450894389361143,0.4465735546767711
1746276310908043300,4.261043212890625,-0.09372545466274022,0.14522797062397003,0.4538447147235274
1746276310918023200,4.271023193359375,-0.04821516485363245,0.1651151588767767,0.4692468665167689
1746276310928003300,4.28100341796875,-0.002964695024490356,0.13994564630687237,0.4464797389134764
1746276310937983200,4.290983154296875,-0.023593057033419608,0.0690548315256834,0.4219757045149803
1746276310947963100,4.300963134765625,-0.02072071646749973,0.034871991416811944,0.35318273879587647
1746276310957943300,4.310943359375,0.01846212388575077,-0.005165419939160347,0.2603676769763231
1746276310967923200,4.320923095703125,0.04739186577200889,-0.03849778069853783,0.2563081724524498
1746276310977902000,4.330902099609375,0.06196253517717123,-0.04423018687069416,0.2457756725221872
1746276310987882200,4.34088232421875,0.09878682970553636,-0.05603109930157661,0.23157266738563775
1746276310997862100,4.350862060546875,0.10212298839092254,-0.042512277036905285,0.18553718465864658
1746276311007842300,4.36084228515625,0.08384995733648538,0.02401566635966301,0.22532383612394333
1746276311017822200,4.370822265625,0.039215865840017794,0.026176059263944625,0.2723354704067111
1746276311027802000,4.380802001953125,0.032982232147455215,-0.03367313702106475,0.2540568863943219
1746276311037782300,4.3907822265625,0.007837269496917725,-0.05075988090038299,0.19808511606454848
1746276311047762200,4.40076220703125,0.016732523614168167,-0.0922346315830946,0.14470745388120412
1746276311057741000,4.410740966796875,0.07347323248982429,-0.06402385162115097,0.16022855587899684
1746276311067721200,4.42072119140625,0.1347360949650407,0.005550035342574119,0.23603519975244996
1746276311077701000,4.430701171875,0.1517161635994911,0.009506664013862609,0.30078064364641904
1746276311087681300,4.440681396484375,0.1280658234208822,-0.03323065395057201,0.2562710553124547
1746276311097661200,4.4506611328125,0.12788082224279643,-0.06432955656945705,0.1531380130961537
1746276311107641300,4.460641357421875,0.12642945439070463,-0.12467618098258972,0.11636398745030165
1746276311117621200,4.470621337890625,0.1321054542005062,-0.14835691629946232,0.06817191121131182
1746276311127601200,4.48060107421875,0.12060615506470203,-0.1026695163577795,0.06113894383460283
1746276311137581000,4.4905810546875,0.11778437564224004,-0.1089613099783659,0.062006958840787406
1746276311147560200,4.500560302734375,0.13634353016167877,-0.14725801514685152,-0.003971241718530655
1746276311157540000,4.5105400390625,0.134325176076591,-0.1953828713685274,-0.081319854336977
1746276311167520300,4.520520263671875,0.10275631785839795,-0.2493880178004503,-0.15915362012386322
1746276311177500200,4.530500244140625,0.03643354164510965,-0.22162322804033754,-0.20545827518105506
1746276311187480300,4.540480224609375,-0.09300386238992214,-0.15074118108749388,-0.18939356782585381
1746276311197460200,4.550460205078125,-0.23135990141779184,-0.13210077802538872,-0.1259194590419531
1746276311207440100,4.560440185546875,-0.3391808091893792,-0.1434422562509775,-0.09804419464468955
1746276311217420000,4.570419921875,-0.38494595054239034,-0.17347849807441235,-0.13764905980229378
1746276311227399200,4.580399169921875,-0.3864282980546355,-0.21051848118007183,-0.1454047884956002
1746276311237379300,4.59037939453125,-0.38125937098413704,-0.18265315365493295,-0.12126403445154428
1746276311247359200,4.600359130859375,-0.3497466268673539,-0.15564064356684684,-0.10156126285493373
1746276311257339100,4.610339111328125,-0.29250206012278795,-0.16002338869571686,-0.03881254573613405
1746276311267319300,4.6203193359375,-0.2086477188721299,-0.18171616506576538,-0.02890723779350519
1746276311277299200,4.63029931640625,-0.1500628434345126,-0.16827917586565017,-0.011535539492964745
1746276311287279000,4.640279052734375,-0.10411211638152598,-0.13416998551487921,-0.004296235889196396
1746276311297259000,4.650259033203125,-0.11108692383021115,-0.11228197883367538,0.028932372234761715
1746276311307238100,4.660238037109375,-0.1122834401383996,-0.07903904992341995,0.06603022300750017
1746276311317218300,4.67021826171875,-0.134780226367712,-0.08279518758654594,0.07037526647448539
1746276311327198200,4.6801982421875,-0.2008423058182001,-0.054098085412383076,0.039059506234526635
1746276311337178000,4.69017822265625,-0.2199877357929945,-0.004324877461791038,0.01070697971433401
1746276311347158300,4.700158203125,-0.2985454319402575,-0.003091536274552345,0.04763035070300102
1746276311357138200,4.71013818359375,-0.4111167491093278,-0.008043605723977089,0.05840864208787679
1746276311367118000,4.7201181640625,-0.44883565438985823,0.02247837378978729,-0.02006722099483013
1746276311377098000,4.730097900390625,-0.4588286406159401,0.007521627676486968,-0.024243337635695934
1746276311387077000,4.7400771484375,-0.46769846803098913,0.07174480126202105,-0.002901274399459362
1746276311397057300,4.750057373046875,-0.453485526022315,0.1399222654312849,0.07849486004412173
1746276311407037200,4.760037109375,-0.32495091604590415,0.1491337458908558,0.14813625928610563
1746276311417017300,4.770017333984375,-0.15612404316961764,0.12456687538921832,0.17217647556513546
1746276311426997200,4.779997314453125,0.03742664433568716,0.0582446836978197,0.1579781466037035
1746276311436977200,4.78997705078125,0.19263006552904843,-0.004622983625531196,0.12717062814682722
1746276311446957000,4.79995703125,0.2831719217196107,-0.011402853024005889,0.06295359204113483
1746276311456937200,4.809937255859375,0.3348641150340438,-0.04022387383878231,0.03558423133939504
1746276311466917400,4.81991748046875,0.349030295291543,-0.1065554178804159,0.012504092264175414
1746276311476897000,4.82989697265625,0.3775467802017927,-0.10418342805206775,-0.0543237108618021
1746276311486877000,4.839876953125,0.4385942463606596,-0.04129822507202625,-0.10834083999246358
1746276311496856800,4.84985693359375,0.48043227739781136,-0.028792963764071464,-0.12799626531600952
1746276311506837000,4.8598369140625,0.5225964716494083,-0.026640169644355772,-0.11709434755146503
1746276311516817000,4.86981689453125,0.565828002871573,-0.052075639674067496,-0.17522884887307882
1746276311526797000,4.879797119140625,0.5714294761404395,-0.08640402573347092,-0.22717063303440807
1746276311536777000,4.88977685546875,0.5769155063360929,-0.10919453421235084,-0.2266138759344816
1746276311546756900,4.8997568359375,0.5375330517575144,-0.09509002101421356,-0.2030094207242131
1746276311556736000,4.909736083984375,0.49721127050220965,-0.07417699684500693,-0.15113602562397718
1746276311566716000,4.9197158203125,0.4264516808852553,-0.05815291376113891,-0.13111615090221165
1746276311576695800,4.92969580078125,0.3544181258097291,-0.04260580053925514,-0.07621697824001311
1746276311586676000,4.939676025390625,0.24169775555878875,-0.041162031471729275,-0.061631403526663776
1746276311596655900,4.94965576171875,0.16200725598931312,-0.01632978803217411,-0.034170272888243196
1746276311606636000,4.959635986328125,0.08058744840919971,-0.013462708163261413,-0.0018698855251073835
1746276311616616000,4.969615966796875,0.04429682236611843,-0.020780337700247762,0.008358955283463
1746276311626596000,4.97959619140625,0.0252861246868968,0.02553133161962032,0.04821428807079792
1746276311636575000,4.989574951171875,0.0026741876453161236,0.025208675536513327,0.07549012527018785
1746276311646555000,4.999554931640625,-0.02935994999706745,0.0638742140173912,0.11340776799321174
1746276311656534800,5.00953466796875,-0.026022622267901897,0.06386953784227371,0.2049170079112053
1746276311666515000,5.019514892578125,-0.023104396733641622,0.05954115324914455,0.2453819970294833
1746276311676494800,5.029494873046875,-0.0065951604813337325,0.061202364459633826,0.2821905094668269
1746276311686475000,5.03947509765625,-0.028151158729195592,0.0552735589325428,0.32507074303328987
1746276311696455000,5.049454833984375,-0.059058630429208274,0.06694646106958389,0.3538479247063398
1746276311706435000,5.05943505859375,-0.06750614077895879,0.06123451316356659,0.4135708642631769
1746276311716415000,5.0694150390625,-0.06409779364019631,0.07173194178044795,0.43106735798716544
1746276311726393900,5.079393798828125,-0.03104746469259262,0.05330605825185775,0.4288736473351717
1746276311736374000,5.0893740234375,-0.0557873536735773,0.09200900613367557,0.43927199949175116
1746276311746354000,5.09935400390625,-0.08759294325709342,0.11865560551881789,0.5204904392808676
1746276311756334000,5.109333984375,-0.05952946281135082,0.13744915331602095,0.5655003783524036
1746276311766314000,5.11931396484375,-0.03431786466538906,0.11329378622472286,0.5063169524997473
1746276311776294000,5.1292939453125,-0.010704349365830422,0.04520633842647075,0.4345040544375777
1746276311786274000,5.139274169921875,-0.0005605564922094345,0.010111059647798537,0.3564291733711958
1746276311796254000,5.14925390625,0.029814415766298768,0.005777414357662201,0.2932727522343397
1746276311806233900,5.15923388671875,0.025477555605769156,0.003044190001487732,0.25781623892784117
1746276311816213000,5.169212890625,0.03618775019049644,-0.03153554047048092,0.20099194342195986
1746276311826193000,5.17919287109375,0.07429857739806175,-0.04109714954197406,0.1318529407441616
1746276311836173000,5.189173095703125,0.13865969814956186,-0.06306991189718246,0.04856850833594799
1746276311846153000,5.199153076171875,0.17205957118719814,-0.08286649925708771,0.02423603111207485
1746276311856132900,5.2091328125,0.1503638722077012,-0.07370061150491238,-0.030688568252325056
1746276311866113000,5.219113037109375,0.11508768390417098,-0.05753507412374019,-0.029060382528603074
1746276311876093000,5.229093017578125,0.138961603705585,-0.06742050832211971,-0.061280398131906985
1746276311886072800,5.23907275390625,0.16763620178699493,-0.08189034770131111,-0.11847937216907739
1746276311896052000,5.249052001953125,0.22636633091419933,-0.0591600449770689,-0.1599725352913141
1746276311906031900,5.259031982421875,0.2409635960653424,-0.031874563166499136,-0.1977288499727845
1746276311916012000,5.269011962890625,0.2740677010267973,-0.022529227194190024,-0.25321605165600775
1746276311925992000,5.278991943359375,0.26432664373517034,-0.04858019877374172,-0.3274725434780121
1746276311935972000,5.28897216796875,0.2545671740040183,-0.0811848297804594,-0.3993643519952893
1746276311945952000,5.298951904296875,0.22563772437870502,-0.0915501564502716,-0.44960225484818217
1746276311955932000,5.308931884765625,0.1894447134912014,-0.11445230861008167,-0.4755804534524679
1746276311965911800,5.318911865234375,0.16005495287775992,-0.1251782852858305,-0.45094957780390976
1746276311975892000,5.32889208984375,0.07211597266197205,-0.11584405522942542,-0.3858785552173853
1746276311985870800,5.338870849609375,0.005503858113288879,-0.11972644962072372,-0.31220600076317784
1746276311995851000,5.34885107421875,-0.039191900442540645,-0.10196867461204528,-0.23884353517144918
1746276312005831000,5.358830810546875,-0.069409928573668,-0.1145376488059759,-0.19425795899182557
1746276312015811000,5.36881103515625,-0.11994856793880462,-0.100229137468338,-0.12506722612679003
1746276312025791000,5.378791015625,-0.16580840183794499,-0.08808686425387859,-0.08545476218461989
1746276312035771000,5.38877099609375,-0.23558014946132896,-0.07170622281730174,-0.03498597318530083
1746276312045750800,5.398750732421875,-0.3089771018445492,-0.07488835998475551,-0.013018763788044452
1746276312055731000,5.40873095703125,-0.3511360353991389,-0.08861936369538306,0.02528700146973133
1746276312065711000,5.418711181640625,-0.3454360701918602,-0.08185060021281242,0.0502934324324131
1746276312075690000,5.42868994140625,-0.3087310181289911,-0.060597968825697894,0.12146189511120319
1746276312085670000,5.438669921875,-0.2514575175508857,0.010375263541936873,0.22767010698914528
1746276312095650000,5.448650146484375,-0.19680355182141065,0.048432314735651016,0.3436898110464215
1746276312105630000,5.4586298828125,-0.1579363532885909,0.0744143127322197,0.4158250729307532
1746276312115609900,5.46860986328125,-0.17981442309767007,0.038109073641896245,0.4268465254217386
1746276312125589800,5.47858984375,-0.1934466426089406,-0.004713584518432617,0.40262306153029204
1746276312135570200,5.488570068359375,-0.18116642222851514,0.031461890712380404,0.4158879090338945
1746276312145550000,5.498550048828125,-0.16620587672293186,0.07118424476981162,0.4982616563379764
1746276312155530000,5.508530029296875,-0.11582622731178999,0.057420507833361625,0.5438894350469112
1746276312165508900,5.5185087890625,-0.09960925200432538,0.043639819762110704,0.48598611213266846
1746276312175489000,5.528489013671875,-0.09659341131448745,0.022794600132107733,0.41597383375167846
1746276312185469000,5.538468994140625,-0.08950111496597528,0.036895606198906895,0.3599216916620731
1746276312195448800,5.54844873046875,-0.06340542746186256,0.06917056685984134,0.33167525586485863
1746276312205428700,5.5584287109375,-0.004844225160777569,0.02650046891272068,0.30127631820887324
1746276312215409200,5.5684091796875,0.0025265958681702613,-0.034301498052477834,0.23056495164781807
1746276312225389000,5.57838916015625,0.08968640840500593,-0.057789341145753854,0.11011135679632425
1746276312235369000,5.588368896484375,0.16605740816295145,-0.057497664722800254,0.05602905347496271
1746276312245348900,5.598348876953125,0.22234365126937627,-0.04746668457388878,0.0338239436686039
1746276312255328000,5.608327880859375,0.25412001475840806,-0.07102525481581687,0.023097382470965384
1746276312265308000,5.618307861328125,0.2893392121776938,-0.1176578266531229,-0.04757277529686689
1746276312275287800,5.628287841796875,0.2991398907020688,-0.14203589658439159,-0.1471916719123721
1746276312285267700,5.638267822265625,0.33080461051017046,-0.1651408778399229,-0.24558774873465297
1746276312295248100,5.648248046875,0.3531394841760397,-0.14895605123639105,-0.26938012773245573
1746276312305228000,5.65822802734375,0.39287235962748523,-0.15106500621438027,-0.30861674409955736
1746276312315208000,5.6682080078125,0.4081532231286168,-0.1312245797127485,-0.36652883484214543
1746276312325187800,5.678187744140625,0.4375818544477224,-0.10398118347823619,-0.38154374088346954
1746276312335168000,5.68816796875,0.44636897201538084,-0.0839034410893917,-0.3501484856665134
1746276312345147000,5.69814697265625,0.4282067078590393,-0.09125555741786956,-0.32096798388957976
1746276312355126800,5.708126708984375,0.3466626893773675,-0.1419827050924301,-0.32577129251807924
1746276312365107000,5.71810693359375,0.27410452590584755,-0.14876549710035322,-0.32601825301647186
1746276312375087000,5.728087158203125,0.1847881198570132,-0.12257774739861488,-0.2819473483607173
1746276312385067000,5.73806689453125,0.0685641253992915,-0.08898468987643718,-0.21817074949890375
1746276312395047000,5.748046875,-0.04408990161716938,-0.06177344234585762,-0.1425309866249561
1746276312405026800,5.75802685546875,-0.11891396419405936,-0.012546177840232849,-0.06874298909753561
1746276312415007000,5.768007080078125,-0.17219634930938482,0.051608022162318225,0.01662029541134834
1746276312424985900,5.77798583984375,-0.20851210979372262,0.013421207109093666,0.09321195218265056
1746276312434965800,5.7879658203125,-0.23360592677891254,-0.007169745498895644,0.1422790576905012
1746276312444946200,5.7979462890625,-0.22305296858251095,-0.0318324775904417,0.14197919796109199
1746276312454926000,5.807926025390625,-0.20986732379496095,-0.017364391776919366,0.13835428546220063
1746276312464906000,5.817906005859375,-0.22218553809821603,-0.04108838171362877,0.16700111875385046
1746276312474885000,5.827885009765625,-0.18690555040240286,-0.04367722916305065,0.1704761013880372
1746276312484865500,5.837865478515625,-0.15821400118619203,-0.03930792803764343,0.12903291488736868
1746276312494845400,5.847845458984375,-0.15690379537045954,-0.03460720300078392,0.1302402448505163
1746276312504825300,5.857825439453125,-0.1936465490952134,-0.026894436666369436,0.17306553335934877
1746276312514805200,5.86780517578125,-0.23780688560009,-0.045074236479401585,0.21050912882983683
1746276312524784400,5.877784423828125,-0.2985410480260849,-0.018973580539226532,0.22886691555827854
1746276312534764300,5.887764404296875,-0.34256139153838155,0.007017769807577133,0.31648937717080117
1746276312544744200,5.897744140625,-0.37548458697497844,0.018423545441031454,0.38979339057356116
1746276312554724000,5.90772412109375,-0.4101426433801651,0.04403144942820072,0.4079100620225072
1746276312564704500,5.91770458984375,-0.35881051554977894,0.06390986985266209,0.31170594228655096
1746276312574684400,5.927684326171875,-0.25214257720559835,0.049637014350295064,0.20985797144472598
1746276312584664300,5.937664306640625,-0.16245412297397852,0.005820084455609322,0.16181319472193717
1746276312594644200,5.947644287109375,-0.10030658661872148,-0.04228665158748626,0.10754413665682076
1746276312604624400,5.957624267578125,-0.06161269882619381,-0.08174363270699977,0.035358021368086336
1746276312614603300,5.967603271484375,-0.0033010873720049857,-0.13893676152527332,-0.0018085107266902923
1746276312624583200,5.977583251953125,0.08967822509855032,-0.20656594416201113,0.04101473195552826
1746276312634563300,5.987563232421875,0.17818273024260997,-0.2647293793171644,0.05840513495653867
1746276312644543500,5.99754345703125,0.26083997066318987,-0.32061902432143685,0.04157996462285518
1746276312654523400,6.0075234375,0.29912673895955083,-0.37906069189608094,0.0006488192975521087
1746276312664503300,6.01750341796875,0.24833997005224226,-0.41285424042642116,-0.05863894371241331
1746276312674483200,6.027483154296875,0.19580138904154298,-0.37905250858962536,-0.15786650292277335
1746276312684463400,6.03746337890625,0.16937340084314345,-0.28349720815122126,-0.21633038232922552
1746276312694443300,6.047443359375,0.1089215624898672,-0.15937807652950287,-0.20970716479718685
1746276312704422100,6.057422119140625,0.05895867718607187,-0.064366965970397,-0.16180851854681969
1746276312714402600,6.067402587890625,0.006009177286922932,-0.013598317241668701,-0.06382569870054722
1746276312724382500,6.077382568359375,-0.06866027925014495,-0.01708265222609043,0.029934242753684517
1746276312734362400,6.0873623046875,-0.05154518605917692,-0.0472433972120285,0.05813625488728284
1746276312744342300,6.09734228515625,0.01528320158869028,-0.05432312633991241,0.09191782071888446
1746276312754322200,6.107322265625,0.06825608236342669,-0.01247252808213234,0.15449118127077818
1746276312764302300,6.11730224609375,0.1277349840313196,0.06628828942179679,0.23753303709477186
1746276312774282200,6.1272822265625,0.159528883177042,0.1398608906328678,0.33104163413643833
1746276312784262400,6.137262451171875,0.15612462769150734,0.18413316307961938,0.435911583147943
1746276312794241500,6.147241455078125,0.10510083515793084,0.2327449260354042,0.5263447182670236
1746276312804221400,6.157221435546875,0.011015607272088527,0.24075053783655165,0.5649123493313789
1746276312814201300,6.167201416015625,-0.10604396122694015,0.28825521633327006,0.5394909078270197
1746276312824181200,6.17718115234375,-0.2058636411115527,0.3236217132687568,0.5118778014972806
1746276312834161400,6.187161376953125,-0.2642325357109308,0.3278764481037855,0.42808717313259836
1746276312844141300,6.197141357421875,-0.26687983534932136,0.29219840100109573,0.34252865831255913
1746276312854121200,6.207121337890625,-0.24683599523007868,0.19868015934824942,0.29782325514554975
1746276312864101400,6.217101318359375,-0.1775097994171083,0.11371288841962814,0.32184301315844055
1746276312874081300,6.227081298828125,-0.16401450415849686,0.06774842510223389,0.35895518471747634
1746276312884061400,6.2370615234375,-0.1739858630746603,-0.007272036829590797,0.384642583681643
1746276312894040300,6.247040283203125,-0.23955022213608024,-0.11904138996601105,0.4003355351150036
1746276312904020200,6.257020263671875,-0.2418634675145149,-0.2791390129417181,0.35088936716169117
1746276312914000400,6.26700048828125,-0.23689386240839957,-0.4564782780975103,0.30756197434961796
1746276312923980300,6.276980224609375,-0.21468144607841969,-0.56459320037961,0.25042262154519557
1746276312933960400,6.28696044921875,-0.18721388569921255,-0.6549684678316116,0.17182342434376477
1746276312943940400,6.2969404296875,-0.11242562508806586,-0.6658493428081274,0.12492021887153386
1746276312953920300,6.306920166015625,-0.048378392591327424,-0.5505418786734342,0.11033727450668811
1746276312963900400,6.316900390625,0.027859482306241988,-0.4038414974093437,0.11104746860265731
1746276312973880300,6.32688037109375,0.07645970095470547,-0.21093115363419054,0.12043810502141714
1746276312983859200,6.336859130859375,0.1222289339609444,-0.029019173735380172,0.1424409702539444
1746276312993839400,6.34683935546875,0.15556173311173915,0.10171791472136973,0.15783873813301325
1746276313003819300,6.3568193359375,0.14488777888417242,0.19500936188101767,0.17801468019932506
1746276313013799400,6.36679931640625,0.07039996252432465,0.29140871192812917,0.16554682829231024
1746276313023779300,6.376779296875,-0.005401566782593727,0.35083471436500546,0.16073095244318245
1746276313033759200,6.38675927734375,-0.060196402287483214,0.3634218087375164,0.173057642313838
1746276313043739400,6.396739501953125,-0.1135533139437437,0.3671165716022253,0.16292612439990042
1746276313053719300,6.40671923828125,-0.08357493978738784,0.35543197902739043,0.12839753959327935
1746276313063699200,6.41669921875,-0.07326280460953712,0.3403770332366228,0.13865414519160985
1746276313073679000,6.42667919921875,-0.025847557961940763,0.24993103863596916,0.10312018273472785
1746276313083658200,6.436658203125,0.04158230271041393,0.1722907495945692,0.02584200500398874
1746276313093638400,6.446638427734375,0.10995353588610887,0.06474515163302422,-0.03325724969655275
1746276313103618300,6.456618408203125,0.18739128809273242,-0.050610827818512914,-0.09602145664542913
1746276313113598500,6.466598388671875,0.28558643551543356,-0.1305675771087408,-0.16176380262225865
1746276313123578400,6.476578369140625,0.3629284722626209,-0.19998715029358863,-0.21123305919021368
1746276313133558300,6.486558349609375,0.40437253554612396,-0.26402152330875395,-0.2489531335145235
1746276313143538200,6.4965380859375,0.3955199515268206,-0.26840543748140333,-0.29344051001667976
1746276313153518300,6.506518310546875,0.37918694862425323,-0.28482231927514073,-0.34688334639072416
1746276313163498500,6.51649853515625,0.3322100933939218,-0.33521219781935213,-0.4274304627895355
1746276313173477400,6.526477294921875,0.22856997843831775,-0.3699006493628025,-0.4510504078298807
1746276313183457300,6.536457275390625,0.11313654983639716,-0.3463146065920591,-0.4441653244912624
1746276313193437400,6.5464375,0.03526829725801944,-0.3326327027201652,-0.4765647883147001
1746276313203417300,6.556417236328125,-0.05128346638306975,-0.30384441513121124,-0.47295156625360246
1746276313213397200,6.566397216796875,-0.09012187721282243,-0.23263386687636375,-0.4277648093104362
1746276313223377200,6.576377197265625,-0.0776763832680881,-0.1357435184419155,-0.3151572517842054
1746276313233357300,6.586357421875,0.037656361438333986,-0.05375614010691642,-0.190269766138494
1746276313243337500,6.59633740234375,0.1756689938560128,0.04686404250562191,-0.007883446726202965
1746276313253317400,6.6063173828125,0.26586598213165996,0.0963338835954666,0.1510483473405242
1746276313263297300,6.61629736328125,0.3182414815351367,0.08608078512847422,0.25053338844329115
1746276313273276400,6.6262763671875,0.36430063739866014,0.01541910292804241,0.2971393645346165
1746276313283256300,6.63625634765625,0.3410717375025153,-0.06901859116852282,0.23039251769036054
1746276313293236200,6.646236328125,0.26930677023530003,-0.14723404974937437,0.16051614064872263
1746276313303216000,6.656216064453125,0.17411913406550883,-0.13068915766179562,0.0553214897274971
1746276313313196500,6.666196533203125,0.09477145658433436,-0.06332008726596831,0.002220014137029648
1746276313323176400,6.676176513671875,0.04123568122982978,0.011428571987152098,-0.03885989200919866
1746276313333156400,6.68615625,-0.002763619494438171,0.09958616338968276,-0.040458267116546626
1746276313343136300,6.69613623046875,-0.015481354509294032,0.19726327828764914,-0.03323153073340654
1746276313353116200,6.7061162109375,-0.0717760731831193,0.25896833157241345,0.011087211203575134
1746276313363096300,6.716096435546875,-0.09653671269118785,0.27101941937208174,0.013476152166724204
1746276313373075200,6.7260751953125,-0.048048576115071774,0.27235388284623624,0.03267857302576303
1746276313383055000,6.73605517578125,0.07472323255091905,0.20181670380830763,0.09242547798007726
1746276313393035500,6.746035400390625,0.22590514314323662,0.1007785880446434,0.14956132365316152
1746276313403015400,6.756015380859375,0.36045302205979823,0.0358890595048666,0.18385463839918373
1746276313412995300,6.765995361328125,0.4486822173938155,0.009957330390810966,0.20300299098342656
1746276313422975200,6.775975341796875,0.49783583214133975,-0.02775777549743652,0.16526391969770193
1746276313432955400,6.785955322265625,0.5212058940738439,-0.08982581687569617,0.18305676601976156
1746276313442935300,6.795935302734375,0.5611033124372363,-0.17262100446224213,0.17273878562301395
1746276313452915500,6.80591552734375,0.5629869342267513,-0.2818874348670244,0.1273527067154646
1746276313462894300,6.815894287109375,0.49783466309756036,-0.3688052553415298,0.10156067833304405
1746276313472874200,6.825874267578125,0.379159476095438,-0.32294191431105135,0.11052344472855329
1746276313482854100,6.835854248046875,0.22135054857879877,-0.24770751736760138,0.07376753926128149
1746276313492834000,6.845833984375,0.07440203777253628,-0.17931144201159477,0.11901537874191999
1746276313502814000,6.85581396484375,-0.01890329178199172,-0.08957154985368251,0.10165332505255938
1746276313512794000,6.865794189453125,-0.1437466460250318,-0.03170212920904159,0.044641982541978355
1746276313522774300,6.875774169921875,-0.2510276017010212,0.01706511656939983,0.008742109382152558
1746276313532754200,6.885754150390625,-0.36118893511891365,0.03999357221424579,-0.014810615640878676
1746276313542734000,6.895734130859375,-0.43384836700782176,0.028830373165011403,-0.05456219579279423
1746276313552714000,6.9057138671875,-0.4452002204969525,-0.021000117930769918,-0.017533318603038788
1746276313562694100,6.915694091796875,-0.41506314864754673,-0.008844985234737396,0.04150339225530624
1746276313572673000,6.925673095703125,-0.39053865598291154,0.010332593443989754,0.120238783057034
1746276313582653000,6.93565283203125,-0.3385363738059997,0.023854922839999196,0.23380641778707503
1746276313592633000,6.945633056640625,-0.28642566281855103,0.03702303197085857,0.3138400317057967
1746276313602613200,6.95561328125,-0.2492354575872421,0.02177168682515621,0.3578235503390431
1746276313612593200,6.96559326171875,-0.23638474384248256,-0.006029927814006805,0.3562202067956328
1746276313622573000,6.975572998046875,-0.23426585199236868,-0.0416577060341835,0.33984804092645643
1746276313632553200,6.98555322265625,-0.23873335279524324,-0.06135492467284202,0.2946384876295924
1746276313642533000,6.995533203125,-0.26487843239903447,-0.0813245305120945,0.20510200908929108
1746276313652513000,7.005512939453125,-0.28376842630803584,-0.09370645770132541,0.13499474590122698
1746276313662493200,7.0154931640625,-0.3293972279302776,-0.0905962167263031,0.06352554671019316
1746276313672472000,7.02547216796875,-0.3811205470353365,-0.11135141998529434,-0.01744593258053064
1746276313682452200,7.0354521484375,-0.3749022570423782,-0.09775310274362564,-0.10190379268229006
1746276313692432100,7.04543212890625,-0.3300415171831846,-0.11603636293113231,-0.18913053297549484
1746276313702412000,7.055412109375,-0.3024257805049419,-0.16178396862745284,-0.2474430212125182
1746276313712392200,7.06539208984375,-0.2718888956829905,-0.1709790824741125,-0.2890633178457618
1746276313722372000,7.0753720703125,-0.26177213694676754,-0.16879940034747123,-0.3144853438720107
1746276313732352000,7.08535205078125,-0.22945158357843756,-0.1717459751933813,-0.28822803606539965
1746276313742332200,7.095332275390625,-0.15562705343291164,-0.17655016060471534,-0.28208003482967614
1746276313752312000,7.10531201171875,-0.11576163764297961,-0.16355273186564445,-0.2497483755454421
1746276313762291200,7.115291259765625,-0.0907704042494297,-0.13272913905680178,-0.21011311524957418
1746276313772271000,7.12527099609375,-0.09571180617436766,-0.08236381043195724,-0.1347416479229927
1746276313782251000,7.1352509765625,-0.05691781900823116,-0.01894143183529377,-0.0652203679293394
1746276313792231200,7.145231201171875,-0.03806055832505226,0.09131108699738978,0.031789222970604894
1746276313802211000,7.155211181640625,-0.03152428842410445,0.13536708634495734,0.12193535784184932
1746276313812191000,7.16519091796875,-0.014400281274318694,0.15472995846271514,0.19009031791836023
1746276313822171100,7.175171142578125,-0.008905190989375113,0.15829788007736206,0.20381635319292543
1746276313832151300,7.1851513671875,0.013430705589801072,0.16795067456364632,0.22565496777445077
1746276313842131200,7.195131103515625,0.054308513292670245,0.19811784929037093,0.28927783737927676
1746276313852111000,7.205111083984375,0.12640198186188936,0.20929624590873716,0.28109365414083004
1746276313862091000,7.215091064453125,0.18532120382040737,0.1880196491241455,0.2627349906295538
1746276313872070100,7.225070068359375,0.24536533815562725,0.1938064158320427,0.24957652610987424
1746276313882050000,7.235050048828125,0.3046744362145662,0.1691314087808132,0.22538433413952588
1746276313892030000,7.245030029296875,0.324474676836282,0.17177286320030688,0.18982669854611156
1746276313902010000,7.255010009765625,0.3562093931406736,0.12958031963706015,0.10862462536990641
1746276313911990300,7.264990234375,0.3467059439972043,0.07027063705623149,0.06153057350069284
1746276313921970200,7.27497021484375,0.35820319730639455,0.061840662363171574,0.00568418311625719
1746276313931950000,7.2849501953125,0.35617446795776486,0.03597264613509178,-0.03568739945292473
1746276313941930000,7.294929931640625,0.39258199837878344,0.015830606338381768,-0.09250935687124728
1746276313951910100,7.30491015625,0.4133452388137579,0.04396013775765895,-0.10382511613368987
1746276313961890300,7.314890380859375,0.4425166805014014,0.07385784789323806,-0.09201923526674509
1746276313971869200,7.324869140625,0.47838528174012895,0.05816460419893264,-0.11585457662343979
1746276313981849000,7.33484912109375,0.46378728593662377,0.01702770716845989,-0.12189122643917798
1746276313991829200,7.344829345703125,0.43742081866711374,-0.0020136779099702833,-0.11295768613815307
1746276314001809200,7.35480908203125,0.40084582272469993,-0.04637070603072643,-0.10460428381264208
1746276314011789000,7.3647890625,0.3724742992430925,-0.0729670365333557,-0.11009499018341302
1746276314021769000,7.37476904296875,0.3393729707606137,-0.10099953731894493,-0.1155313360184431
1746276314031749000,7.3847490234375,0.30849443289414047,-0.13528466875851153,-0.11003916834294795
1746276314041729300,7.394729248046875,0.340412104550004,-0.1525268954604864,-0.13598930989652872
1746276314051709200,7.404709228515625,0.3267053584977984,-0.13034428974688053,-0.14287760810554026
1746276314061689000,7.414689208984375,0.2784055841006338,-0.1617991661965847,-0.10869418347477912
1746276314071669000,7.4246689453125,0.2710679346889257,-0.17266367456018925,-0.018881518341600893
1746276314081648000,7.434648193359375,0.2183728479422629,-0.12807576029300688,0.03601414718925953
1746276314091628000,7.4446279296875,0.14968626520708203,-0.12651859397888182,0.10489011501669883
1746276314101608000,7.45460791015625,0.09303966435566544,-0.10435586200952529,0.17146540468633173
1746276314111588000,7.464588134765625,0.09595569793283938,-0.11787000809907912,0.25933307323157784
1746276314121568300,7.474568359375,0.054148062033951276,-0.15009469987750051,0.2719225056916475
1746276314131548200,7.484548095703125,0.03987988270670175,-0.12421966938674449,0.2740396439760923
1746276314141528000,7.494528076171875,-0.00862082109004259,-0.10463760156035423,0.2909410944163799
1746276314151508000,7.504508056640625,-0.05210428124666214,-0.10370528914630413,0.25677520544230936
1746276314161488100,7.514488037109375,-0.13152297813743352,-0.12377952440381049,0.19761165333390235
1746276314171468000,7.524468017578125,-0.23081249666810033,-0.12753741563260554,0.14133417805582285
1746276314181448200,7.5344482421875,-0.3123905635498464,-0.12397241662740707,0.06522007566839456
1746276314191427300,7.54442724609375,-0.4192147153690457,-0.12978081064522265,0.04921323598027229
1746276314201407200,7.5544072265625,-0.49020051495730876,-0.13091010693609714,0.024064766198396682
1746276314211387100,7.56438720703125,-0.4941857852011919,-0.11895020455121993,0.021638708095252514
1746276314221367000,7.574366943359375,-0.48204614233523607,-0.09965046079754829,0.044860301467776295
1746276314231347200,7.58434716796875,-0.46073652006387705,-0.06814589998722076,0.06867050838321447
1746276314241327000,7.5943271484375,-0.4374190651014447,-0.0037479543566703794,0.10394640442579985
1746276314251307000,7.60430712890625,-0.41107729388177394,0.058410687914490694,0.1346200673699379
1746276314261287200,7.614287109375,-0.3600283669069409,0.07135492516160011,0.1359419636234641
1746276314271267000,7.62426708984375,-0.3251660201013088,0.08678221139609814,0.12399872011244296
1746276314281247200,7.634247314453125,-0.33627880413755773,0.0551297665476799,0.06382452965676784
1746276314291226000,7.64422607421875,-0.344610140761733,0.029435353320837018,0.00984860931932926
1746276314301206000,7.6542060546875,-0.309079977697134,-0.04030862951278686,-0.06857318548858166
1746276314311186200,7.664186279296875,-0.29191140075325966,-0.06959025357663631,-0.1361336868032813
1746276314321166000,7.674166015625,-0.24303104998916386,-0.10318974083960056,-0.17621581408381462
1746276314331146000,7.68414599609375,-0.20828736112713814,-0.11834463987350463,-0.23492577720582483
1746276314341126100,7.694126220703125,-0.15906974123269318,-0.1510714359551668,-0.2416238135397434
1746276314351106000,7.70410595703125,-0.10249123718142508,-0.1412549753397703,-0.2232066978394985
1746276314361086200,7.714086181640625,-0.02473682024106383,-0.16921616445481777,-0.18044073830246923
1746276314371066000,7.724066162109375,0.07929170951023698,-0.23286884467601776,-0.13108517124205826
1746276314381046000,7.7340458984375,0.16772928689792752,-0.2109329071998596,-0.08603782276958227
1746276314391026000,7.74402587890625,0.2641343360334635,-0.20451894850432872,-0.019855624070763588
1746276314401005000,7.754005126953125,0.31989597074389453,-0.18818857595026492,0.04924421564042568
1746276314410985200,7.763985107421875,0.36409415504112835,-0.16242752722799778,0.10297083739191293
1746276314420965000,7.773965087890625,0.4263511431202292,-0.13828326605260371,0.18044190734624863
1746276314430945300,7.7839453125,0.4691448674470186,-0.10484978300631045,0.24641952338367698
1746276314440925200,7.79392529296875,0.45370136073008177,-0.09281681538522243,0.2814545964077115
1746276314450905000,7.803905029296875,0.36665260735228655,-0.04484978007376194,0.2571191965743899
1746276314460885000,7.813885009765625,0.2220131041407585,-0.02963175267577171,0.17287264113575218
1746276314470865000,7.823864990234375,0.055662265989184376,-0.03111234662234783,0.11266805554181336
1746276314480845600,7.833845458984375,-0.11650748757421969,-0.006557751080393791,0.054452890199422836
1746276314490825700,7.84382568359375,-0.19557137967795132,0.014144845208525656,0.032496786718070506
1746276314500805600,7.8538056640625,-0.20966537148207426,0.04764963992536068,0.07190759060829878
1746276314510784500,7.863784423828125,-0.20274930848330258,0.07248422145247459,0.11638619928210973
1746276314520764700,7.8737646484375,-0.18234569514095783,0.13131050443053244,0.1480956350147724
1746276314530744600,7.88374462890625,-0.163278444968909,0.12717325849533082,0.1982858993336558
1746276314540724500,7.893724365234375,-0.1359568689316511,0.10488543884158134,0.24671909085214136
1746276314550704600,7.90370458984375,-0.12121274265572428,0.09825929870009421,0.2726668943181634
1746276314560684800,7.913684814453125,-0.06414309408664703,0.13537176252007482,0.3204550659313798
1746276314570664700,7.923664794921875,0.008939677780866623,0.18446750960052014,0.37903438841104503
1746276314580644600,7.93364453125,0.07780629325807094,0.16261632779836654,0.4038070106178522
1746276314590624500,7.94362451171875,0.06571078179478645,0.1491156257122755,0.356831616692245
1746276314600604400,7.9536044921875,0.05627952110469341,0.11133037719726561,0.2932411880522966
1746276314610584600,7.96358447265625,0.08207710244506597,0.0672773004591465,0.17149229269325733
1746276314620563500,7.9735634765625,0.10651625491380691,0.04021159887909889,0.08253682891130447
1746276314630543600,7.983543701171875,0.09753156894743442,0.00568330633342266,0.02723229031860828
1746276314640523800,7.993523681640625,0.06460501250997186,0.020762802043557165,-0.012401800933480263
1746276314650503700,8.003503662109376,0.03117255237698555,0.017813889110088348,-0.05869973398894071
1746276314660483600,8.013483642578125,0.08171908278763294,0.01348375095129013,-0.08896072447896003
1746276314670463500,8.02346337890625,0.14938216769397258,-0.017864157992601392,-0.0827989869788289
1746276314680443600,8.033443603515625,0.23453356301784514,-0.031954058143496514,-0.031216099257767197
1746276314690423800,8.043423828125,0.308610022097826,-0.020483400580286977,0.01917261024266481
1746276314700403700,8.05340380859375,0.3179769853800535,-0.01744388675391674,0.04120324026495218
1746276314710383600,8.063383544921875,0.29472835787013174,-0.006266659179329872,0.08480477384328841
1746276314720363500,8.073363525390626,0.24748656809329986,0.014915829581022262,0.1498974237397313
1746276314730342700,8.0833427734375,0.15247545753419398,0.06653437313735484,0.16375936035364866
1746276314740322600,8.093322509765626,0.04795885200500488,0.010802549043297766,0.14564765734076499
1746276314750302500,8.103302490234375,-0.06866773190423846,0.02559796711504459,0.06780278563797473
1746276314760282600,8.11328271484375,-0.12245119840949772,-0.02756780588328838,-0.03150952924638986
1746276314770262800,8.1232626953125,-0.10920447108447551,-0.0930535467505455,-0.11402297728210686
1746276314780242700,8.13324267578125,-0.03084960403293371,-0.1406371357023716,-0.1467582489311695
1746276314790222600,8.14322265625,0.10713467907309532,-0.19340309572815895,-0.14167290849089623
1746276314800202500,8.153202392578125,0.2300602169960737,-0.21678221774995327,-0.10065905331820249
1746276314810182700,8.1631826171875,0.31000644489228724,-0.23330022183060645,-0.025088556288182733
1746276314820162600,8.17316259765625,0.3728029466755688,-0.25164719490408893,-0.014421324062347411
1746276314830142500,8.183142578125,0.39335020627230405,-0.2753735229283571,0.014550211139023304
1746276314840121600,8.19312158203125,0.37211423375904557,-0.28464287105500696,0.08021773831397294
1746276314850101800,8.203101806640625,0.33648952427878975,-0.22865619541704654,0.13222820379734038
1746276314860081700,8.21308154296875,0.2688715936884284,-0.14918576833903788,0.17784429206848143
1746276314870061600,8.2230615234375,0.19402444249689577,-0.055119245153665536,0.22315730573981998
1746276314880041500,8.23304150390625,0.148788293454051,0.032382512688636775,0.2608858556315303
1746276314890021600,8.243021728515625,0.07936696670353412,0.11747837843298911,0.29598434928059575
1746276314900001500,8.25300146484375,0.002200871045142412,0.21682897950112817,0.31010026065558194
1746276314909981700,8.262981689453126,-0.12418372129052876,0.26652619960606094,0.307985168197751
1746276314919961600,8.272961669921875,-0.19511267612501978,0.2894651766449213,0.306312266549468
1746276314929941800,8.282941650390624,-0.26805472434759137,0.25806115359961984,0.23163345766216514
1746276314939921700,8.292921630859375,-0.28632731701061126,0.20869243479669092,0.14104863911271096
1746276314949900500,8.302900634765624,-0.2641686766944826,0.11918109069764614,0.07028261975497006
1746276314959880700,8.312880615234375,-0.22174247050583362,0.022422844210267065,-0.01661854184567928
1746276314969860600,8.322860595703125,-0.1647216295145452,-0.07629471965134144,-0.09308160380125045
1746276314979840500,8.332840576171876,-0.09558423427194357,-0.12331132237017153,-0.14606032979488373
1746276314989820700,8.342820556640625,-0.05788987891077995,-0.15303952115774153,-0.1970800306752324
1746276314999800600,8.352800537109376,-0.01886193685829639,-0.24606559537947176,-0.2325727843388915
1746276315009780700,8.36278076171875,-0.010992518657445906,-0.33241116892397404,-0.28149609746187926
1746276315019760600,8.3727607421875,-0.04040551401600241,-0.3303723565727472,-0.36488048311322924
1746276315029740500,8.382740478515625,-0.06118629010766744,-0.3091016050070524,-0.42411183976083994
1746276315039720400,8.392720458984375,-0.09843523978888988,-0.2866249847829342,-0.4673699667289853
1746276315049700600,8.40270068359375,-0.10557502854093909,-0.24704583858847617,-0.4690674182966351
1746276315059679500,8.412679443359375,-0.057104719882458445,-0.21908874112665652,-0.4652320779174566
1746276315069659600,8.42265966796875,-0.07532894335910678,-0.12923603624403476,-0.39752690743505953
1746276315079639600,8.4326396484375,-0.11264248270913958,-0.06287877323925495,-0.28912469264417884
1746276315089619700,8.44261962890625,-0.1702256337583065,-0.012657821521162986,-0.15481646770238874
1746276315099599600,8.452599609375,-0.19347557644248006,0.01260755263864994,-0.06367664561867714
1746276315109579500,8.46257958984375,-0.18922259517312048,0.025296353819966314,-0.004164426203072071
1746276315119559400,8.472559326171876,-0.19147709610164165,0.05237959105670452,0.0557569585353136
1746276315129539800,8.482539794921875,-0.1959323219448328,0.11617255653142929,0.1780216944620013
1746276315139519700,8.492519775390624,-0.1586148370720446,0.11262860031425952,0.2939206947490573
1746276315149499600,8.502499755859375,-0.07777049129232763,0.09073942458927631,0.33622722008079287
1746276315159479600,8.5124794921875,0.018313655325770378,0.05373509731888771,0.31101299158632756
1746276315169459500,8.52245947265625,0.09281067790538072,0.029556349352002142,0.31615736873745914
1746276315179438600,8.5324384765625,0.1638311104156077,0.014510755911469459,0.30355770714432
1746276315189418500,8.54241845703125,0.22235534170717,0.007763619738817214,0.3135328654527664
1746276315199398400,8.5523984375,0.22988559108152984,-0.03169394590258598,0.26975831339508294
1746276315209378800,8.56237890625,0.2247451594531536,-0.12400222724378109,0.17331950812041758
1746276315219358700,8.572358642578125,0.18818755303695797,-0.17428689184784887,0.08288578847944736
1746276315229338600,8.582338623046875,0.15463964983075856,-0.17845804005265234,0.07887830640375613
1746276315239318500,8.592318603515626,0.07620967171639204,-0.2012473794877529,0.09685060094594955
1746276315249298700,8.602298583984375,0.046637540273368354,-0.1792968289643526,0.09351970295757055
1746276315259278600,8.612278564453124,0.057641749368608,-0.15033961454927922,0.16091449231654403
1746276315269258500,8.622258544921875,0.10144377395510673,-0.06167232005894184,0.27939532579034565
1746276315279238700,8.63223876953125,0.12342121248543261,0.010539514192938804,0.43253976862728594
1746276315289217800,8.6422177734375,0.10521861631870269,0.06627893707156181,0.5368459462761879
1746276315299197700,8.65219775390625,0.10580635307878256,0.09829729262292385,0.5563108174636959
1746276315309177600,8.662177490234376,0.10909136609882115,0.16298223850131033,0.5622241331607103
1746276315319157500,8.672157470703125,0.10401654705256223,0.20123627357184887,0.5956430031597614
1746276315329137700,8.6821376953125,0.12126315766870975,0.2015565915673971,0.6046043082505465
1746276315339117600,8.69211767578125,0.1343824592217803,0.19231296240389345,0.5525920892015099
1746276315349097700,8.70209765625,0.1800631371617317,0.18410452150702475,0.4730711009800434
1746276315359077600,8.71207763671875,0.1984369982421398,0.14250000696480272,0.453313968847692
1746276315369057500,8.7220576171875,0.18919103099107742,0.1318622930943966,0.38586423443108797
1746276315379037700,8.73203759765625,0.16678513791561125,0.061113517132401464,0.3049517918512225
1746276315389017600,8.742017578125,0.13600392294377087,-0.003308393895626068,0.1849520782470703
1746276315398997500,8.75199755859375,0.09776420865952969,-0.05622282248139381,0.06719049895852804
1746276315408976600,8.7619765625,0.051800622124969956,-0.10310381612181663,-0.008605915781855582
1746276315418956500,8.77195654296875,0.04168985473811626,-0.1665700338602066,-0.03901654387563467
1746276315428936700,8.781936767578125,0.05296762007772922,-0.18159867616593836,-0.0571881603822112
1746276315438916600,8.79191650390625,0.0928976255364716,-0.1672708756059408,-0.04743541265279055
1746276315448896800,8.801896728515626,0.1485217514723539,-0.15757190389037132,-0.02328793660700321
1746276315458876700,8.811876708984375,0.20248729654625058,-0.12847265065610408,0.01291208854317665
1746276315468856600,8.821856689453124,0.19236819972246885,-0.13823007456064224,0.01746346823722124
1746276315478836700,8.831836669921875,0.12012392450571059,-0.14898527733087538,-0.0003106733843684196
1746276315488816600,8.841816650390625,0.027545740181952712,-0.1404886671423912,-0.04055822035968303
1746276315498796800,8.851796875,-0.06580401303619146,-0.11986205869913101,-0.06044394730776548
1746276315508776700,8.861776611328125,-0.16301789433658123,-0.11090659882724284,-0.06573387040942907
1746276315518755600,8.871755615234376,-0.24399580336809157,-0.08814473192095756,-0.10896160223931073
1746276315528735700,8.88173583984375,-0.2889541583828628,-0.07797872721552848,-0.11833207265287637
1746276315538715600,8.891715576171874,-0.2852513583421707,-0.055518473604321474,-0.0940229763045907
1746276315548695800,8.90169580078125,-0.2259238478437066,-0.02594575763940811,-0.020877368333935737
1746276315558675700,8.91167578125,-0.18004063306897877,-0.010465864434838294,0.027257424759864805
1746276315568655600,8.921655517578126,-0.1587403631478548,0.03833236100375652,0.06993892088383435
1746276315578635800,8.9316357421875,-0.1062359766677022,0.073973583227396,0.1307964174285531
1746276315588615700,8.94161572265625,-0.0715546855174005,0.06735854900181293,0.13992927969396113
1746276315598595600,8.951595703125,-0.0519305321149528,-0.0008440496087074279,0.12250994285941123
1746276315608575500,8.961575439453124,-0.06450374409258365,-0.031332126852869985,0.08700316067039966
1746276315618556000,8.971555908203126,-0.06584288374185562,-0.03201894007325172,0.10818915656208991
1746276315628535800,8.981535888671875,-0.015433569844812154,-0.03536708145737648,0.13069763322919606
1746276315638514700,8.9915146484375,0.014696049350500106,-0.04195639671981335,0.1211257950246334
1746276315648494800,9.001494873046875,0.04228606706559658,-0.07546879022121429,0.12452683563977479
1746276315658474800,9.011474853515624,0.0063721653804183,-0.043266894796490665,0.1034904773518443
1746276315668454700,9.02145458984375,-0.02304185289144516,-0.02756663683950901,0.14079495661258698
1746276315678434600,9.0314345703125,-0.03640226972401142,-0.04530512262582779,0.14668781404346226
1746276315688414700,9.041414794921875,-0.0364250660777092,-0.0804442405462265,0.03461363274157047
1746276315698395000,9.051394775390625,-0.010039601846784353,-0.12993687798976897,-0.05289630840718746
1746276315708374800,9.061374755859376,0.013857844960689545,-0.1489279941856861,-0.12688918085694312
1746276315718354700,9.071354736328125,0.06990721057131886,-0.11283844367265701,-0.14690817879587412
1746276315728334600,9.08133447265625,0.14909575196802616,-0.07657996633350848,-0.08773907372951507
1746276315738314800,9.091314697265625,0.20656185250878334,-0.06163549517989158,-0.04660042313337326
1746276315748293600,9.101293701171874,0.23100611954405903,-0.07411153039336205,-0.07761047842502594
1746276315758273500,9.1112734375,0.18930413597673176,-0.07022855148017407,-0.10668518173992633
1746276315768253700,9.121253662109375,0.12774141377210615,-0.042376667958497996,-0.10787614509016274
1746276315778233900,9.13123388671875,0.09539455691874027,-0.013880056792497633,-0.057117725494503974
1746276315788213800,9.1412138671875,0.1220695056155324,0.02725508667230606,0.005479308193922043
1746276315798193700,9.151193603515624,0.14107085094451904,0.02049684458374977,0.0323772519916296
1746276315808173600,9.161173583984375,0.17647212693244219,0.003009118688106537,0.00964344213604927
1746276315818153700,9.17115380859375,0.15571078619360923,-0.010063713374733925,-0.003163724727928638
1746276315828133600,9.181133544921876,0.07431026783585548,0.021370704808831215,-0.01575111136138439
1746276315838113800,9.19111376953125,-0.018266309052705765,0.05008534263968467,0.035730654072761533
1746276315848093700,9.20109375,-0.11209668539464474,0.038737434673309326,0.06906506065875291
1746276315858073600,9.211073486328125,-0.09485504321455955,0.018541034340858457,0.04644640161544084
1746276315868053800,9.2210537109375,-0.0283894975297153,-0.0581231031447649,0.01567570803761482
1746276315878032600,9.23103271484375,0.01282236443310976,-0.1294996556162834,-0.04299567663967609
1746276315888012500,9.241012451171875,0.0487292518556118,-0.12718436441123485,-0.04120528609156608
1746276315897992700,9.25099267578125,0.08205109122097491,-0.07411269943714141,-0.012471943560242652
1746276315907972900,9.260972900390625,0.1170880639411509,-0.06428396386206149,0.05033902513980865
1746276315917952800,9.270952880859374,0.12926789268702268,-0.09094108464121818,0.08296703702211379
1746276315927932700,9.2809326171875,0.10414309604167937,-0.11213058766424655,0.055229427529871464
1746276315937912600,9.29091259765625,0.04352466894984245,-0.1210609130948782,0.033679566761851305
1746276315947892700,9.300892822265626,-0.07787234423160552,-0.12260405088365077,0.03278349470496177
1746276315957872600,9.31087255859375,-0.1474240193635225,-0.09673778822124003,0.03514262505173683
1746276315967852500,9.3208525390625,-0.17139058588445186,-0.07450432910323143,0.045186172421276566
1746276315977832700,9.330832763671875,-0.20268910272866486,-0.044506081202626224,0.031465982365608214
1746276315987812900,9.340812744140624,-0.2568545542888343,-0.019798340925574302,-0.018962182362377643
1746276315997791700,9.350791748046875,-0.250977625079453,-0.08716507323384284,-0.03319090646207332
1746276316007771600,9.360771728515624,-0.29380116002261636,-0.1221978081703186,-0.06986117947250604
1746276316017751800,9.370751708984375,-0.3689405721589923,-0.0909007526308298,-0.07002893725484609
1746276316027731700,9.380731689453125,-0.4152539950445294,-0.06438683971464633,-0.023126024043560026
1746276316037711600,9.390711669921876,-0.3556090891599655,-0.02433890696465969,0.019438275441527365
1746276316047691500,9.40069140625,-0.2749430225566029,-0.05529810885190963,0.04832593175172806
1746276316057671700,9.410671630859374,-0.15091127695739268,-0.08395254092812537,0.10370996532142161
1746276316067651800,9.42065185546875,-0.04199176029413938,-0.12612228813767432,0.14008680834323167
1746276316077631700,9.4306318359375,0.030533816082030533,-0.11759528281092643,0.2283265250712633
1746276316087611600,9.440611572265626,0.04368073629438877,-0.09850888954699039,0.25853636989593504
1746276316097591600,9.450591552734375,0.028389351399242875,-0.07898585843145847,0.2473532971024513
1746276316107571700,9.46057177734375,0.021864333544671533,-0.06832184107601642,0.19131664484292268
1746276316117550600,9.470550537109375,0.006885667860507965,-0.027981647381186484,0.1525397549420595
1746276316127530800,9.48053076171875,0.05011573777794838,-0.0249701906055212,0.12597966479659078
1746276316137510700,9.4905107421875,0.1056244206406176,-0.043510055902600285,0.09148118286728858
1746276316147490800,9.50049072265625,0.15946224768161774,-0.08467734807133674,0.04458382261395454
1746276316157470700,9.510470703125,0.17903028698265552,-0.12866963453292846,-0.0025587445721030233
1746276316167450600,9.52045068359375,0.15748919404298067,-0.08182195864021778,-0.034172610975801945
1746276316177430500,9.530430419921874,0.15100027041509748,-0.021482933011651037,0.006648059712350368
1746276316187410700,9.54041064453125,0.19843772889450192,0.0017559037566184997,0.0930859877154231
1746276316197390800,9.550390869140625,0.2269412081927061,-0.0398842666208744,0.0641205899938941
1746276316207370800,9.560370849609376,0.2378561315692961,-0.055987260159850116,0.025329087045788762
1746276316217350700,9.5703505859375,0.19090338786691427,-0.06706979518830776,-0.020610826352238654
1746276316227330600,9.58033056640625,0.1438667652733624,-0.07340893508195877,-0.01674362953007221
1746276316237309700,9.590309814453125,0.07358546069264411,-0.03224398100078106,0.01349456460624933
1746276316247289600,9.60028955078125,0.03558817686215043,0.02730827816426754,0.12140899588018655
1746276316257269500,9.61026953125,0.11978212533071636,0.03541676581799984,0.17879969309717417
1746276316267249700,9.620249755859374,0.1949149615958333,0.048423546907305715,0.15091624539345502
1746276316277229800,9.630229736328126,0.2350323063202202,-0.014103928676247596,0.12266454889923334
1746276316287209700,9.640209716796875,0.22801629007831214,-0.026696868267655372,0.07420534615665673
1746276316297189600,9.650189697265626,0.1286423081345856,-0.020263035827875135,0.04658025712817907
1746276316307169800,9.660169677734375,0.05236906966269016,0.024897125369310377,0.122620417496562
1746276316317149700,9.670149658203124,0.05642740514278412,0.04837503159046173,0.15683511404842138
1746276316327129600,9.680129638671875,0.09937456646561622,0.01373860249519348,0.17553133895099163
1746276316337109800,9.69010986328125,0.0917944866001606,-0.02351765370965004,0.15398673887997866
1746276316347089700,9.700089599609376,0.08119652021825313,-0.04587561599016189,0.1468938580095768
1746276316357068800,9.71006884765625,0.049529462322592734,-0.040268882024288175,0.1277539809927344
1746276316367048700,9.720048583984376,0.010649404308199882,0.015743512576818466,0.16693272969275713
1746276316377028600,9.730028564453125,0.011624679081141948,0.005694996771216392,0.2019441295802593
1746276316387008800,9.7400087890625,0.015412380926311016,0.023742694637179373,0.16676701773703098
1746276316396988700,9.74998876953125,-0.015617255848646164,-0.010600888991355896,0.097079149004817
1746276316406968600,9.759968505859375,-0.08975362842231989,-0.031606267619132995,0.05388853431493044
1746276316416948700,9.76994873046875,-0.1763447011604905,-0.03046761897802353,-0.01683393816202879
1746276316426928600,9.7799287109375,-0.28538141446262594,-0.025308628779649733,-0.06078764617890119
1746276316436908800,9.78990869140625,-0.304810922075808,-0.02647650351524353,-0.041055648487806316
1746276316446888700,9.799888671875,-0.32620924554392694,0.010414426508545875,-0.022433365604281424
1746276316456868600,9.80986865234375,-0.2869135924659669,-0.011193594187498093,0.02302782436609268
1746276316466848500,9.8198486328125,-0.23631445508524773,-0.06421265219151974,0.03140460756719112
1746276316476828400,9.829828369140625,-0.16904577632397413,-0.10927870536446571,0.002395662964880466
1746276316486808300,9.839808349609376,-0.12066373047083616,-0.1217617548406124,0.009106558780372143
1746276316496787200,9.849787109375,-0.10490005188882351,-0.10854162326157092,0.03769084822982549
1746276316506767400,9.859767333984376,-0.0766118227764964,-0.06822364139854907,0.06880582520067692
1746276316516747300,9.869747314453125,-0.05506064683422446,-0.05626490805745125,0.048399581509828565
1746276316526727400,9.8797275390625,-0.03768997144699097,-0.08803659537136554,-0.015803718331456183
1746276316536707300,9.889707275390625,0.002908580923080444,-0.09005670302212238,-0.0010173603489995002
1746276316546687500,9.8996875,0.06449965243935585,-0.0978068787574768,-0.027624796767532826
1746276316556667400,9.90966748046875,0.08603811503052711,-0.061770519736409187,-0.05105009601861238
1746276316566647300,9.919647216796875,0.107135263594985,-0.062058104506134984,-0.03340045755952596
1746276316576627200,9.929627197265624,0.12557751373648643,-0.016080781707167625,-0.01858808835297823
1746276316586607000,9.939607177734375,0.1596159769386053,0.006873392900824547,-0.0010343114838004112
1746276316596587500,9.94958740234375,0.16998773334920406,0.0032809213668107983,0.043453941801190374
1746276316606567400,9.9595673828125,0.17607026813328266,0.0014361702829599379,0.0772086196258664
1746276316616546300,9.96954638671875,0.13374693779721855,-0.00997018987238407,0.09868863002806902
1746276316626526500,9.9795263671875,0.10118307719230651,-0.02313420735001564,0.1106517472833395
1746276316636506400,9.98950634765625,0.12853870162963865,-0.05920739125013351,0.12610270665436982
1746276316646486300,9.999486328125,0.1748055088944733,-0.08146540028750895,0.14144348364919423
1746276316656466200,10.009466064453125,0.20933131722211837,-0.08922668193876743,0.14894611436426639
1746276316666446300,10.0194462890625,0.22764555706977843,-0.07528758843541145,0.14202420614659786
1746276316676426500,10.029426513671876,0.23520722449570894,-0.046453708139061925,0.14205869293808937
1746276316686406400,10.039406494140625,0.23724749815165996,-0.020830022060871124,0.15472411324381827
1746276316696386300,10.04938623046875,0.22019947884753346,-0.06209376034140587,0.12796499339491127
1746276316706366200,10.0593662109375,0.1717911295093596,-0.07934884652495383,0.10124006807655095
1746276316716346400,10.069346435546874,0.04699745962694287,-0.06989829661250115,0.08539338738620281
1746276316726326300,10.079326171875,-0.004001636856794357,-0.050175359010696405,0.07380436414033174
1746276316736306400,10.089306396484375,-0.007439794611930847,-0.01868774933516979,0.06148878018558025
1746276316746285300,10.099285400390626,0.038384967973828316,-0.03632511283457279,0.035003508841991424
1746276316756265500,10.109265380859375,0.03879442555755377,-0.028790625676512718,0.040059330926835536
1746276316766245400,10.119245361328124,0.004824351416528224,-0.004368132081627845,0.03949965121746063
1746276316776225300,10.129225341796875,-0.07353899120241403,0.015779752933979034,0.07333966923803091
1746276316786205200,10.139205078125,-0.11224734591171145,0.018088029876351355,0.08221767995953559
1746276316796185300,10.149185302734375,-0.07381517779529094,-0.002853635865449905,0.0710720165669918
1746276316806165200,10.159165283203125,-0.02084039732441306,-0.0747843150883913,-0.0002183189257979393
1746276316816145400,10.1691455078125,0.016713965044170616,-0.1079413192808628,-0.07384615745544433
1746276316826125300,10.179125244140625,0.025047639755904672,-0.08878478339016437,-0.08161766823977232
1746276316836105500,10.18910546875,0.0025661972261965273,-0.10052782815396785,-0.10480974325686693
1746276316846085400,10.19908544921875,-0.02221826154887676,-0.10821487552523612,-0.15717296770066022
1746276316856065300,10.209065185546875,-0.052960605815052984,-0.12190788531303405,-0.16653087089359758
1746276316866045200,10.219045166015626,-0.11395984891802072,-0.07457330268621444,-0.17316724016815424
1746276316876024300,10.2290244140625,-0.15749883865416048,0.006945289093255996,-0.13965776927620172
1746276316886004200,10.239004150390626,-0.1965858174175024,-0.05783084219992161,-0.05270429296642542
1746276316895984400,10.248984375,-0.21221987827047703,-0.07344517543911934,-0.050659050874412054
1746276316905964300,10.25896435546875,-0.21726780930981038,-0.04851414780020714,-0.015649696813523767
1746276316915944400,10.2689443359375,-0.16986001531630754,-0.05710369696915149,0.06782178259938955
1746276316925924400,10.27892431640625,-0.11095160701274871,-0.033190321940183634,0.10978080966770648
1746276316935904300,10.288904296875,-0.08619242880940436,-0.05186696535944938,0.1596133465901017
1746276316945884200,10.29888427734375,-0.06443710859715938,-0.08126257119178772,0.1227791151896119
1746276316955864300,10.3088642578125,0.0026280104160308834,-0.09591887305378913,0.052662499651312825
1746276316965844500,10.318844482421875,0.013466799816489218,-0.12450900772213935,0.02890811457633972
1746276316975824400,10.328824462890625,0.025143793606758117,-0.1253477966338396,-0.0036962241694331165
1746276316985804300,10.33880419921875,0.049798926913738245,-0.1379822372794151,-0.04832856210023165
1746276316995784200,10.3487841796875,0.0989369057007134,-0.1498696589499712,-0.044913785220682616
1746276317005764400,10.358764404296876,0.10735270573794842,-0.14309095859527587,-0.061173138365149496
1746276317015743200,10.3687431640625,0.11265928771346807,-0.11481178957223892,-0.06632599108368158
1746276317025723100,10.37872314453125,0.11304887155294417,-0.07082476380765437,-0.039669747087359424
1746276317035703300,10.388703369140625,0.10301906044781207,-0.00523848517537117,0.026184242570400237
1746276317045683500,10.398683349609374,0.06780746181309223,0.05173018723726272,0.12540332621335984
1746276317055663400,10.408663330078125,0.05559300014525652,0.09457447270750999,0.22620091121941804
1746276317065643300,10.418643310546875,0.04419482329636812,0.12426117044091224,0.3046571928188205
1746276317075623200,10.428623046875,0.04309007692486048,0.10649287403821944,0.3611033026620745
1746276317085603300,10.438603271484375,0.03905906784310937,0.09647241528332233,0.39707010357826944
1746276317095583500,10.44858349609375,0.07183189502358436,0.06799217073023318,0.3968389251708984
1746276317105563400,10.4585634765625,0.12534852728620172,0.04352876060307025,0.41843583995103834
1746276317115543300,10.468543212890625,0.18520429944247005,0.013975333860516548,0.3805558988898992
1746276317125523500,10.4785234375,0.23342735534161327,0.00395487510561943,0.3394736546561122
1746276317135503400,10.48850341796875,0.2599266552105546,-0.004429506880044937,0.32481033853143454
1746276317145482200,10.498482177734376,0.28492767934575675,-0.0022469021439552304,0.29238515574485063
1746276317155462100,10.508462158203125,0.29284502834156156,-0.015883213308453558,0.25072014318704605
1746276317165442300,10.5184423828125,0.2710423618562519,-0.02261398286819458,0.20172084221839903
1746276317175422500,10.52842236328125,0.23132906788811086,-0.007989245188236236,0.20398031158298252
1746276317185402400,10.53840234375,0.1962637458562851,-0.007689385458827018,0.2170309318140149
1746276317195382300,10.54838232421875,0.17313377628996968,-0.015935820278525352,0.1616217638030648
1746276317205362400,10.558362548828125,0.14216449140012263,-0.029096915146708487,0.10674421845078468
1746276317215342300,10.56834228515625,0.07345058226659894,-0.03256196090877056,0.0439800115019083
1746276317225322200,10.578322265625,0.020116613094508646,0.002285480588674545,0.04003390422463417
1746276317235302100,10.58830224609375,0.018591449353843926,0.026147417691349983,0.10070172341614961
1746276317245282300,10.5982822265625,0.028844693951308724,-0.027494156125187873,0.08155833926796913
1746276317255262500,10.608262451171875,0.02104746420383453,-0.09712474171221255,0.009632336220145225
1746276317265242400,10.618242431640626,0.014692542219161987,-0.16036884113252162,-0.04953793788999319
1746276317275222300,10.62822216796875,0.009216156634688376,-0.15754326231777668,-0.11844283955097198
1746276317285201400,10.638201416015624,-0.004131400716304779,-0.13813888914585112,-0.1084340712338686
1746276317295181300,10.648181396484375,-0.003065086659044027,-0.12997837904393672,-0.07235796472430228
1746276317305161200,10.6581611328125,0.015793196937441824,-0.13962766639888285,-0.0969508464500308
1746276317315141400,10.668141357421876,0.0051531449794769285,-0.18350480204820632,-0.1239881987184286
1746276317325121300,10.678121337890625,-0.06253273628056048,-0.16569149746000766,-0.146259359498322
1746276317335101400,10.688101318359376,-0.08035100930482149,-0.11111819575130939,-0.15509265429526567
1746276317345081300,10.698081298828125,-0.11251520306766033,-0.08040800018906592,-0.08931114535182715
1746276317355061200,10.708061279296874,-0.1534840500548482,-0.061195934718847274,-0.04121902235597372
1746276317365041200,10.718041259765625,-0.20880378621667622,-0.06482990730702877,-0.04473258343487978
1746276317375021300,10.728021240234375,-0.24332769484817982,-0.0731195967465639,-0.06606324849426747
1746276317385001500,10.73800146484375,-0.2582701201751828,-0.0749982501000166,-0.049907940246164795
1746276317394981400,10.7479814453125,-0.28474662369042636,-0.0761176095187664,-0.030398353134095668
1746276317404961300,10.757961181640624,-0.28914544317126273,-0.06734744308590888,-0.038138299736380575
1746276317414940400,10.7679404296875,-0.24571488224565982,-0.06491057132780552,-0.049215281806886196
1746276317424920300,10.77792041015625,-0.1747170999586582,-0.07861644059717655,-0.02418897709995508
1746276317434900200,10.787900146484375,-0.14258943881392477,-0.05528700293600559,0.005433423225581646
1746276317444880100,10.797880126953125,-0.12707652012258766,-0.03205868756175041,0.0231643102273345
1746276317454860300,10.8078603515625,-0.1435536076709628,-0.0270049113035202,0.00030833529680967327
1746276317464840400,10.81784033203125,-0.15537117897570132,-0.029646365723013875,-0.025146423955261704
1746276317474821000,10.827821044921874,-0.15904197644293308,-0.03836977040469646,0.00739303286075592
1746276317484801000,10.837801025390625,-0.12272212430536747,-0.010081249031424521,0.03556055820286274
1746276317494781000,10.847781005859375,-0.05772124434560537,0.02711070976555347,0.05035305366516113
1746276317504761000,10.857760986328126,-0.002471358549594879,0.04985854814648628,0.1148515370607376
1746276317514741200,10.8677412109375,0.06978270740881562,0.09361644133031367,0.1481543794646859
1746276317524721200,10.87772119140625,0.13407763105630874,0.11839257066845893,0.18116233057528733
1746276317534701000,10.887701171875,0.14665303499102592,0.08393149814009666,0.21463994502425193
1746276317544681000,10.897680908203125,0.1298857323244214,0.05135550870597362,0.20135288568884133
1746276317554661000,10.9076611328125,0.1254220309138298,0.00948269861638546,0.19825112028121947
1746276317564640000,10.917639892578125,0.13813187488317488,-0.007566051340103149,0.18194705121219157
1746276317574620000,10.927619873046876,0.1965771957196295,-0.003568506136536598,0.201543732085824
1746276317584600000,10.93760009765625,0.230059632474184,-0.006710311293601989,0.21168606365472076
1746276317594580200,10.947580322265624,0.24268209042102096,-0.025674539482593534,0.1968491445288062
1746276317604560100,10.95756005859375,0.26743688471019267,-0.024974282258749005,0.17871259933561084
1746276317614540000,10.9675400390625,0.2520931851059198,-0.012346271353960037,0.16883944009691476
1746276317624520000,10.97752001953125,0.2262128939181566,0.015144377639889716,0.1887541008785367
1746276317634500000,10.9875,0.216980370670557,0.0002174421429634094,0.21402999643236398
1746276317644480000,10.99747998046875,0.18534955313205717,0.0106704470962286,0.20382307519465684
1746276317654460200,11.007460205078125,0.169024587405473,0.01227203707396984,0.22002251484543084
1746276317664440000,11.017440185546874,0.15694792677313088,0.03605038754642009,0.2451645548865199
1746276317674420200,11.027420166015625,0.1497529007025063,0.030913024657964704,0.2525757079258561
1746276317684400000,11.037400146484375,0.13842004417479037,0.015686813953518865,0.23896073181033134
1746276317694380000,11.047380126953126,0.06010258652418851,0.02088555164039135,0.20046528919935225
1746276317704359200,11.057359130859375,-0.00895823635086417,-0.019150106149911878,0.19542437242269514
1746276317714339000,11.067339111328126,-0.08060147693455219,-0.015730068573355675,0.16171967121958733
1746276317724319000,11.077319091796875,-0.15547332417592405,-0.017566051828861236,0.1259749886214733
1746276317734299100,11.087299072265624,-0.1891154815368354,-0.012525135052204131,0.09260200359076261
1746276317744279000,11.097279052734375,-0.15603899523466824,-0.04932780227065086,0.07768471270501613
1746276317754259200,11.10725927734375,-0.08709142347574234,-0.0753460406243801,0.06315934374630451
1746276317764239000,11.117239013671876,-0.014445581720769405,-0.10021510894298553,0.04746639231294393
1746276317774219000,11.127218994140625,0.03280833688527345,-0.10302724375426768,-0.018210487212240695
1746276317784199000,11.137198974609374,0.06913608006834983,-0.1316916127026081,-0.050100247947871684
1746276317794179000,11.147178955078125,0.08572744164615868,-0.13332710494995118,-0.06385901644825935
1746276317804159200,11.1571591796875,0.0903019099548459,-0.08256663952767848,-0.03921148192584514
1746276317814139100,11.16713916015625,0.08785188645422458,-0.06376257033646106,-0.047020402111113066
1746276317824119000,11.177119140625,0.042488896161317825,-0.05443593906462192,-0.022843407709896565
1746276317834099000,11.187098876953126,0.023125147260725495,-0.04378478119075298,-0.010568740287423134
1746276317844079000,11.1970791015625,-0.03118599638044834,-0.05462649320065975,-0.03990793975740671
1746276317854058000,11.20705810546875,-0.04776011456251144,-0.06080956574976444,-0.06416793626695871
1746276317864038000,11.217037841796875,-0.03164192345440388,-0.08722820159792899,-0.04514847075939178
1746276317874018300,11.227018310546875,-0.004902823480218648,-0.09661854575574398,-0.049964346608519554
1746276317883998200,11.236998291015626,0.07253741294443607,-0.11713584860563278,-0.04501373846381902
1746276317893978000,11.24697802734375,0.13223463353812695,-0.14880758267641067,-0.0184171157002449
1746276317903958000,11.2569580078125,0.1582692385047674,-0.13548457524478436,0.04364537272006273
1746276317913938000,11.26693798828125,0.16112725828438995,-0.08087854031026363,0.1193637537881732
1746276317923918000,11.27691796875,0.09381956268697976,-0.049125557696819304,0.17445143475979566
1746276317933898000,11.28689794921875,0.034417964038997884,-0.04793254851996898,0.19205168111920357
1746276317943878100,11.296878173828125,-0.0632761019937694,-0.02633914087116718,0.18862141440957783
1746276317953858000,11.306858154296876,-0.15246318257451055,-0.013193828094005584,0.1854354778498411
1746276317963838200,11.316838134765625,-0.22805296882688997,0.03400806806385517,0.18016718205809593
1746276317973818000,11.326818115234374,-0.23197613361999392,0.062358548757433886,0.1653212028428912
1746276317983798000,11.336798095703125,-0.2553974873483181,0.05802899512052535,0.15406038863807917
1746276317993778000,11.34677783203125,-0.25314985455200073,0.06630056438148021,0.17619330999106167
1746276318003757000,11.356757080078125,-0.2008902366131544,0.04852642275989055,0.20701368792951105
1746276318013737000,11.366737060546875,-0.12371464247405528,0.042862990170717236,0.24224574483036992
1746276318023717000,11.376717041015626,-0.1244803661495447,0.08905132537186146,0.23162819696515796
1746276318033697000,11.386697021484375,-0.09237433231472969,-0.0014957915157079696,0.2143266412913799
1746276318043677200,11.39667724609375,-0.025008184528350828,-0.0467640892624855,0.1963859109312296
1746276318053657000,11.406656982421875,0.009732289463281632,-0.07179331657886505,0.16773820085674523
1746276318063637000,11.416636962890625,0.012276713249087332,-0.07912614368498325,0.12459464017897844
1746276318073617000,11.426616943359376,0.060876493506133555,-0.07096212645173072,0.10532119991034268
1746276318083597000,11.43659716796875,0.1349018069207668,-0.09648527476489543,0.07605331211090087
1746276318093577200,11.4465771484375,0.12536883942186833,-0.08205869000554085,0.043941433057188985
1746276318103557000,11.45655712890625,0.12128420045673846,-0.07637655271589755,-0.0009130231916904449
1746276318113537000,11.466537109375,0.13651055729165673,-0.07066811194121837,-0.012669511958956717
1746276318123517000,11.476516845703125,0.17258359506130216,-0.05507540601193905,-0.009312895007431507
1746276318133497000,11.4864970703125,0.1652279716014862,-0.060740592166781425,-0.03998597342967987
1746276318143477000,11.49647705078125,0.17189911992847917,-0.018785949012637138,-0.017828794418275354
1746276318153457200,11.50645703125,0.17258973254114388,0.0013216039925813673,0.006176935069262981
1746276318163436300,11.516436279296874,0.17642624196410178,0.009735212072730063,0.021260522432625294
1746276318173416200,11.526416259765625,0.15222659733965993,-0.016637831068038938,-0.0038701194316148758
1746276318183396000,11.53639599609375,0.11378259265497326,-0.03185644298791885,-0.03348345966786146
1746276318193376000,11.5463759765625,0.05498670481517911,-0.04635843107104301,-0.050229427285492415
1746276318203356000,11.55635595703125,0.019149521628022192,-0.05737959130108356,-0.03900982187390327
1746276318213336000,11.566336181640626,0.03849631939381361,-0.04882628248929977,-0.009758008426427841
1746276318223316200,11.576316162109375,0.10148059883415698,-0.07273848847448826,-0.006717325556278228
1746276318233296100,11.586296142578124,0.12093553314954042,-0.052072132542729375,0.035059330682456494
1746276318243276000,11.596276123046875,0.07967150260806083,-0.05448445438146591,0.05993161387145519
1746276318253256200,11.606256103515625,0.057304772499203675,-0.07048983276486397,0.06180529878884553
1746276318263236000,11.616236083984376,-0.038306057518720626,-0.08770049528479576,0.03079202862679958
1746276318273216000,11.626216064453125,-0.1192240530565381,-0.09538462004661559,0.004374561822414398
1746276318283196000,11.63619580078125,-0.15657704763412475,-0.1037321771532297,-0.01498480316400528
1746276318293176000,11.646176025390625,-0.18673823101148007,-0.06994564288556575,-0.0024172902747988697
1746276318303156200,11.65615625,-0.19587065488547087,-0.07371054837703704,0.015299568201601504
1746276318313135000,11.666135009765625,-0.1608444958202541,-0.04338087656497955,0.04622925173342227
1746276318323115000,11.676114990234375,-0.12736132841333747,0.007981061881780624,0.11569617119133471
1746276318333095200,11.68609521484375,-0.15134645350426434,-0.014917583146691322,0.13902005589455366
1746276318343075000,11.696074951171875,-0.18330431104004383,-0.03194938196837902,0.14609160171598196
1746276318353055000,11.706054931640624,-0.20663199513554573,-0.043193829560279846,0.09613105449974536
1746276318363035000,11.716034912109375,-0.21783727976083755,-0.04320610451996326,0.06697101098895072
1746276318373015000,11.72601513671875,-0.1837396337173879,-0.04735094923973083,0.06555617575496435
1746276318382995200,11.7359951171875,-0.13952289085015654,-0.07040332352519035,0.08752543097883463
1746276318392975000,11.74597509765625,-0.04841974751502275,-0.09920914677083492,0.16218962681889534
1746276318402955000,11.755955078125,-0.05548866298794746,-0.0058253451526165,0.10709931549876928
1746276318412935000,11.765934814453125,-0.07618234531804918,0.035282325783371926,0.07900456313192844
1746276318422915000,11.7759150390625,-0.010564648634195328,-0.026065000104904174,0.041242987753450866
1746276318432895200,11.785895263671875,0.055069853053987025,-0.04247486763596534,-0.008603285433351994
1746276318442875100,11.795875244140625,0.11276245582699775,-0.06872106952667235,0.026671149304509163
1746276318452855000,11.80585498046875,0.17196458638012407,-0.017580080354213712,0.044587622006237504
1746276318462834200,11.815834228515625,0.20128595793247223,0.004667991811037064,0.1078407815158367
1746276318472814000,11.82581396484375,0.1961713913977146,0.008549217158555984,0.16313626001924275
1746276318482793700,11.835793701171875,0.15968027434647084,0.043758477705717086,0.1542915670454502
1746276318492774000,11.84577392578125,0.11067921981215477,0.0408820454865694,0.18455752597153186
1746276318502753800,11.85575390625,0.08890198002904653,-0.0011409867286682129,0.18990765482783317
1746276318512733700,11.865733642578125,0.07102350125014782,-0.01536123526096344,0.1548497854501009
1746276318522713600,11.875713623046876,0.09707564187347889,-0.016688099950551986,0.16327245361953974
1746276318532693500,11.885693603515625,0.1314998895227909,-0.01360182437300682,0.18159166190326212
1746276318542674000,11.895673828125,0.19188275429308413,-0.038648587346076964,0.17383301060050724
1746276318552653800,11.90565380859375,0.21416940490305422,-0.02793605467379093,0.13699877920001743
1746276318562633700,11.9156337890625,0.2253583229154348,-0.03254442525207996,0.12834405584037303
1746276318572613600,11.925613525390625,0.22315584443509578,-0.003714636608958244,0.1223714111715555
1746276318582593800,11.93559375,0.2043681418567896,0.005917115089297294,0.12433715828657149
1746276318592573700,11.94557373046875,0.15736235279291869,-0.018927987831830976,0.11144786609709262
1746276318602553900,11.955553955078125,0.11328618744015694,-0.03317629341483116,0.11277706887423991
1746276318612533800,11.96553369140625,0.06399404100477694,-0.01674362953007221,0.10253507632315158
1746276318622513000,11.975512939453125,0.0518096822142601,0.019513678765296937,0.09941197586655616
1746276318632492800,11.985492919921874,0.0001017068088054657,0.03591770107746124,0.10885843412578106
1746276318642472700,11.99547265625,-0.020067805516719817,0.028287352329492567,0.10370236653685569
1746276318652452600,12.00545263671875,-0.007304039403051138,0.028078678014874455,0.09894026670157909
1746276318662432800,12.015432861328126,-0.005567278738319873,0.026617957812547683,0.07335545132905244
1746276318672412700,12.02541259765625,-0.0045364743858575815,-0.004026186776161194,0.03626227673143148
1746276318682392800,12.035392822265624,0.011184972489625215,-0.049482700571417806,-0.006425064611434936
1746276318692372700,12.045372802734375,0.026350246787071225,-0.07241290978193282,-0.024814415521919726
1746276318702352600,12.0553525390625,0.08452128072679042,-0.09196575151383876,-0.044613340969383714
1746276318712332800,12.065332763671876,0.1339119191005826,-0.10405775584578514,-0.035786475913226604
1746276318722312700,12.075312744140625,0.1641222023166716,-0.1021510454416275,-0.03671586571782827
1746276318732292600,12.085292724609374,0.14217881218641995,-0.09841945769786835,-0.04616173945516348
1746276318742272800,12.095272705078125,0.13370032217651603,-0.09763152219057082,-0.04578472283631563
1746276318752253000,12.1052529296875,0.10640066571012138,-0.08054945448637008,-0.030994857722520825
1746276318762232800,12.11523291015625,0.09741714878752827,-0.07441957342922687,-0.02935381251722574
1746276318772212700,12.125212646484375,0.1090180086016655,-0.029611878931522367,0.0074205053895711895
1746276318782191900,12.13519189453125,0.1464969676464796,-0.0023731588721275327,0.11021744751930236
1746276318792171800,12.145171875,0.1443143629103899,0.02064414409995079,0.12087445061206817
1746276318802151700,12.155151611328124,0.08339841417670249,0.04714578205645084,0.0892278509825468
1746276318812131600,12.165131591796875,0.029754794533550736,-0.002115384718775749,0.07095891158133745
1746276318822111700,12.17511181640625,-0.03947217868864536,-0.019416063609719276,0.04382072928696871
1746276318832092000,12.185091796875,-0.07898235130012035,-0.020218612164258954,0.04249357233643532
