time,seconds_elapsed,z,y,x
1746276155356301800,0.0183017578125,-1.3596537372514605,0.11879238364100456,-0.12201251473128795
1746276155366281700,0.02828173828125,-1.5971853130415081,0.0674555796355009,-0.008106441827118397
1746276155376261600,0.03826171875,-1.5366951885044573,0.0702700525343418,0.05425006110370159
1746276155386241800,0.04824169921875,-1.2470257214590907,0.014529460611939429,0.0316299407556653
1746276155396222500,0.058222412109375,-0.825921539081633,-0.01731763002574444,0.028967151287198064
1746276155406202600,0.06820263671875,-0.4153878505572676,0.005965630406141281,0.10735475156456231
1746276155416182800,0.078182861328125,-0.06552724192142487,-0.015752280405163764,0.25625615000426766
1746276155426162700,0.08816259765625,0.1369984869390726,-0.028448680371046066,0.3746472593680024
1746276155436143600,0.0981435546875,0.1669096410781145,0.020331424888968466,0.41938188862949605
1746276155446123500,0.10812353515625,0.03253887229412794,0.11774550493657589,0.42978433243930336
1746276155456103700,0.118103759765625,-0.14839929413646458,0.15770108322799206,0.42020284962356086
1746276155466083800,0.128083740234375,-0.2990805617302656,0.18014847735762596,0.3137064684540033
1746276155476063700,0.138063720703125,-0.385248732881248,0.19874913293123245,0.20843816777467727
1746276155486044700,0.148044677734375,-0.42101825765967366,0.18863982684910297,0.20483225223720072
1746276155496024600,0.158024658203125,-0.428490785497427,0.2232686571598053,0.1978428317412734
1746276155506004500,0.16800439453125,-0.3928510245785117,0.2417500702679157,0.1808987112030387
1746276155515985000,0.17798486328125,-0.3196431650266051,0.16990063958764076,0.27334990814626214
1746276155525965600,0.187965576171875,-0.27716215991079807,0.07973404645025729,0.39277036055773495
1746276155535945700,0.19794580078125,-0.18984277289807797,-0.003572597789764404,0.5180392467364668
1746276155545925600,0.207925537109375,0.0007291910573840141,-0.03317687793672085,0.583379441653192
1746276155555905500,0.217905517578125,0.15107260499894618,-0.007874094375967979,0.585712560775876
1746276155565885700,0.2278857421875,0.20671528950482607,-0.05913724862337112,0.478709691388905
1746276155575866600,0.23786669921875,0.19789777679890394,-0.12863280965387822,0.3084203447446227
1746276155585846800,0.2478466796875,0.21627543727159498,-0.19375673147141934,0.15754297005683182
1746276155595826700,0.25782666015625,0.18515110795050857,-0.2528998253136873,-0.019256196872889996
1746276155605806600,0.267806640625,0.13872487234026193,-0.3047890025049448,-0.25708032586872576
1746276155615786500,0.277786376953125,0.15848609612584114,-0.31285072840750217,-0.4313111036151647
1746276155625767700,0.287767578125,0.2263578553467989,-0.302086173287034,-0.45680590261667964
1746276155635747600,0.29774755859375,0.3024780952140689,-0.29809388878047466,-0.4431517635345459
1746276155645727700,0.307727783203125,0.38863486818820236,-0.16872808867692946,-0.35587416983693837
1746276155655707600,0.317707763671875,0.4404191237002611,-0.06461071159839629,-0.2178133143633604
1746276155665688800,0.327688720703125,0.310152283103764,0.03397475031614303,-0.047292497050762175
1746276155675668700,0.337668701171875,0.005775076270103454,0.08313537932634353,0.10410364081412553
1746276155685648600,0.347648681640625,-0.3312383257523179,0.13274901280105114,0.19178280104994772
1746276155695628500,0.357628662109375,-0.6104661860212683,0.17739128760397432,0.21278350350260733
1746276155705609500,0.367609375,-0.729122083801031,0.1834492724686861,0.21650720020085573
1746276155715590000,0.37758984375,-0.7150649168759584,0.2211030035585165,0.12589286329597235
1746276155725569800,0.38756982421875,-0.6373848803460598,0.2088502557069063,-0.004824351416528224
1746276155735549700,0.3975498046875,-0.5158844067901373,0.08692074308395385,-0.0965782137453556
1746276155745529600,0.407529541015625,-0.34317484726160763,-0.06142857443094253,-0.23412030604183673
1746276155755510500,0.417510498046875,-0.20020196208804844,-0.13782090923786164,-0.3837997031167149
1746276155765490700,0.42749072265625,-0.1285807872056961,-0.17006138310730456,-0.5201178065761923
1746276155775470800,0.437470947265625,-0.18072861533313989,-0.21694237674772737,-0.4724725505650043
1746276155785450800,0.44745068359375,-0.25890724903494117,-0.13075988481044767,-0.38869127455055713
1746276155795431700,0.457431640625,-0.38225451950132844,0.022384850287437436,-0.3589145604461431
1746276155805411600,0.46741162109375,-0.4805985738754272,0.13664075954258442,-0.28952041396349665
1746276155815391700,0.477391845703125,-0.46097792760431766,0.137303607365489,-0.26890929535031316
1746276155825371600,0.48737158203125,-0.38629561158567666,0.04520633842647075,-0.3256587720543146
1746276155835351800,0.497351806640625,-0.21271277635395525,-0.155763393163681,-0.3725228145599365
1746276155845332700,0.507332763671875,0.04776420621573925,-0.29083295786678787,-0.3703533615663647
1746276155855312600,0.517312744140625,0.29297406154870986,-0.37355624926090236,-0.34111616116613147
1746276155865292500,0.52729248046875,0.4705816222518682,-0.3392664416462183,-0.2568652218133211
1746276155875272700,0.537272705078125,0.5371873070597648,-0.19703706831634044,-0.23330372896194457
1746276155885253600,0.547253662109375,0.4822773207426071,-0.10612754785716533,-0.05909983922243118
1746276155895233500,0.557233642578125,0.49305473534464833,-0.1353606566041708,0.20250790094286203
1746276155905213700,0.567213623046875,0.5216945543736219,-0.14635025265216828,0.47389527684450145
1746276155915193600,0.577193603515625,0.3304822466880083,-0.05321136570572853,0.5991083411827683
1746276155925174800,0.5871748046875,0.12050561729967593,0.04750117136538028,0.543237108618021
1746276155935154700,0.59715478515625,0.09838146377503872,-0.03602876023650169,0.4273322631120682
1746276155945134600,0.607134521484375,0.10801672260463237,-0.14553484461605548,0.30928835975080726
1746276155955114500,0.617114501953125,0.15144260735511778,-0.24595628978610037,0.11611205851584672
1746276155965094700,0.6270947265625,0.19796002838015556,-0.3728776193469763,-0.06021130759567022
1746276155975075800,0.637075927734375,0.2022586023569107,-0.427377271297574,-0.13791764761060477
1746276155985055700,0.6470556640625,0.16893676299154758,-0.46997430400848383,-0.16877192781865596
1746276155995035600,0.65703564453125,0.16614596322923897,-0.4133896624773741,-0.17147914095073938
1746276156005015600,0.667015625,0.25544103422909975,-0.2800041053384542,-0.10429390268921851
1746276156014996700,0.676996826171875,0.3600961714461446,-0.3106926735907793,0.061174015147984026
1746276156024976600,0.6869765625,0.4721814586639404,-0.2944312746196985,0.08846271182894706
1746276156034956800,0.696956787109375,0.6325567295372486,-0.20026830532252787,-0.046832186062633986
1746276156044936700,0.706936767578125,0.6579097819805145,-0.19467384631633758,-0.1698416028767824
1746276156054917600,0.716917724609375,0.5455287266865372,-0.21933891649544238,-0.16742314355820417
1746276156064897800,0.726897705078125,0.3235398802042007,-0.21762159118354318,-0.1791875233709812
1746276156074877700,0.736877685546875,0.04352349990606308,-0.17539923700392246,-0.13666735528856516
1746276156084857600,0.746857666015625,-0.2147019043445587,-0.08815057713985443,-0.09125994133204221
1746276156094837800,0.756837646484375,-0.405478450961411,-0.04922843354940414,-0.07824380789250135
1746276156104818700,0.766818603515625,-0.4929445529684424,-0.07984335204362869,-0.06501870787739754
1746276156114798800,0.776798828125,-0.5024842424690723,-0.099749829518795,-0.09568389525413512
1746276156124778800,0.78677880859375,-0.4300529202476144,-0.11769231344461441,-0.10172989742010831
1746276156134758700,0.796758544921875,-0.3123454092338681,-0.09645371058285236,-0.05832271737009286
1746276156144739600,0.806739501953125,-0.17317951512783764,-0.08783961149454117,-0.010445698429644107
1746276156154719500,0.816719482421875,-0.030815701763331888,-0.08779577235281467,0.03356909212470054
1746276156164699600,0.82669970703125,0.0925283538326621,-0.07949614604115486,0.03531739709675312
1746276156174679800,0.8366796875,0.20523674138486384,-0.09261515533328056,0.01464139655381441
1746276156184660700,0.84666064453125,0.2620665898486972,-0.11979600772559643,-0.0566784572944045
1746276156194640600,0.856640625,0.25505028134584423,-0.15870412279069424,-0.09164747934490441
1746276156204620500,0.86662060546875,0.18753624952137468,-0.18899872328937053,-0.07891074736863374
1746276156214600400,0.876600341796875,0.12776625595241783,-0.181470665872097,-0.0913753844052553
1746276156224581600,0.88658154296875,0.03999357221424579,-0.11980652911961077,-0.11431699179261923
1746276156234561800,0.896561767578125,-0.08229659041464328,-0.045915363478660584,-0.10545271733552217
1746276156244541700,0.906541748046875,-0.13776099574416875,0.043325346985459326,-0.07517009953558444
1746276156254521600,0.916521484375,-0.1191585866048932,0.08462474110126494,0.005148176543414593
1746276156264501500,0.92650146484375,-0.15165215845257043,0.09674187987446785,0.05972732347100973
1746276156274482700,0.936482666015625,-0.18426058885157107,0.14979308658242224,0.11300152527987957
1746276156284462600,0.946462646484375,-0.2335983279943466,0.19086685524880884,0.17875030099749564
1746276156294442800,0.95644287109375,-0.23399580287933347,0.1862508858859539,0.2490881580710411
1746276156304422700,0.966422607421875,-0.17239917840510605,0.1504880831092596,0.2426221769273281
1746276156314403300,0.9764033203125,-0.10525953285098075,0.12638123133480547,0.24360563500672577
1746276156324383200,0.98638330078125,-0.054205345179140565,0.06747603790163993,0.26163229008466005
1746276156334363100,0.996363037109375,-0.043241760355234145,-0.0020955109745264054,0.25566753646135326
1746276156344343300,1.00634326171875,-0.1035863389417529,-0.054708910787105554,0.29723785647302864
1746276156354324200,1.01632421875,-0.21732494632452726,-0.03335281902551651,0.29505262138843535
1746276156364304400,1.026304443359375,-0.36428310174196954,-0.004268763360381126,0.2117760800257325
1746276156374284300,1.0362841796875,-0.46996202904880047,-0.0007072714865207671,0.1175944060280919
1746276156384264200,1.04626416015625,-0.5120096111834049,-0.051637248256802555,0.05563683928698301
1746276156394245400,1.056245361328125,-0.5290016625165939,-0.08810498443245887,-0.005635960060358047
1746276156404225300,1.066225341796875,-0.49954935806095596,-0.13721534456014634,-0.06066928049623966
1746276156414205400,1.076205322265625,-0.43439913275837894,-0.21662615040540695,-0.14650105929970741
1746276156424185300,1.086185302734375,-0.3785883982092142,-0.3125122902333736,-0.22374971867501733
1746276156434166300,1.096166259765625,-0.4003945718258619,-0.3301835560023784,-0.2615180160552263
1746276156444146400,1.106146484375,-0.416450219091773,-0.33727672913372514,-0.31066081714779137
1746276156454126300,1.116126220703125,-0.4517497882708907,-0.3426215972930193,-0.29273937601000066
1746276156464106200,1.126106201171875,-0.4884034024074673,-0.28914895030260085,-0.24610797321647404
1746276156474086400,1.13608642578125,-0.4494388809800148,-0.18133914844691754,-0.21029840868860483
1746276156484067300,1.1460673828125,-0.5264341501161456,-0.07642915968596935,-0.16542729356586933
1746276156494047500,1.156047607421875,-0.6755988756671547,-0.05591127231419086,-0.07172609656155109
1746276156504027400,1.16602734375,-0.7842506813049316,-0.08242986140549183,-0.043082770401239395
1746276156514007300,1.17600732421875,-0.7768722614914179,-0.07168108837604523,0.0003875380128622055
1746276156523988200,1.18598828125,-0.6810720463812351,-0.06233809049129486,0.10163958878815174
1746276156533968100,1.195968017578125,-0.44185295589566226,-0.09869652107357978,0.1596153924167156
1746276156543948300,1.2059482421875,-0.09587152678072453,-0.18167641757726669,0.2370978605479002
1746276156553928400,1.215928466796875,0.1642059350773692,-0.15768647018074988,0.31104543255120515
1746276156563909400,1.225909423828125,0.21843290756642816,-0.08263502858877181,0.29919980419576164
1746276156573889300,1.23588916015625,0.18978519749194384,-0.07690262241661548,0.2767059405758977
1746276156583869200,1.245869140625,0.13550766385942697,-0.041558921834826464,0.3016682401359081
1746276156593849000,1.25584912109375,0.09965221436321735,0.11677402955591679,0.29141864880025387
1746276156603830300,1.265830322265625,0.06524111845642327,0.22413784120976923,0.25774317369163036
1746276156613810200,1.27581005859375,0.12653992902785538,0.22892039931118488,0.3320890973627567
1746276156623790300,1.285790283203125,0.17048194660693405,0.2395937690168619,0.47850598551034923
1746276156633770200,1.295770263671875,0.08623948282152413,0.2170546049505472,0.5418573446974158
1746276156643751400,1.30575146484375,-0.2046530962780118,0.15248539440631864,0.5087620075643062
1746276156653731300,1.3157314453125,-0.5606275116190313,0.10436404531598091,0.3085255586847663
1746276156663711200,1.325711181640625,-0.8816776208341122,0.14041501738429069,0.09361088837236166
1746276156673691400,1.33569140625,-1.1103262174665927,0.18241466872394083,-0.055203708566725254
1746276156683672000,1.345672119140625,-1.2208581377625465,0.2290016478538513,-0.05257774397730827
1746276156693652500,1.355652587890625,-1.147347788132727,0.34282384186685083,0.06056348203420639
1746276156703632400,1.36563232421875,-0.9435366956368089,0.43087446576356886,0.2402878887608647
1746276156713612300,1.3756123046875,-0.6416577353596687,0.42259997389316556,0.38131168569326396
1746276156723593200,1.38559326171875,-0.2613479201853275,0.3648199850976467,0.42457507335841654
1746276156733573000,1.395572998046875,0.13889935212433338,0.23433774818480013,0.45853082671314477
1746276156743553300,1.40555322265625,0.4631441657274961,0.0895768105506897,0.5054778713271022
1746276156753533400,1.415533447265625,0.6938298211455345,-0.11491875707805156,0.4849380643844604
1746276156763514400,1.425514404296875,0.8089785875871777,-0.3087047146439552,0.42475510610044
1746276156773494300,1.435494384765625,0.730720458908379,-0.5889397061288356,0.3173977241873741
1746276156783474200,1.44547412109375,0.5507336018532514,-0.8765595471680164,0.21142682819664477
1746276156793454300,1.455454345703125,0.3885892754808068,-1.0466600932419299,-0.004158873245120048
1746276156803435300,1.465435302734375,0.23522417563050985,-1.0842150401324033,-0.1917556207820773
1746276156813415200,1.475415283203125,0.09210340641885996,-1.0383780025869607,-0.2771723890438676
1746276156823395300,1.485395263671875,0.03208031487166881,-0.9658002576321363,-0.3345142786830663
1746276156833375200,1.495375244140625,0.07094751340448856,-0.8158055109977722,-0.352655792312324
1746276156843356400,1.5053564453125,0.0888680777594447,-0.6198007083386182,-0.3067421823993325
1746276156853336300,1.51533642578125,-0.06968553064465523,-0.37361411692798135,-0.24497867692559955
1746276156863316200,1.525316162109375,-0.2424237317457795,-0.16441080999970434,-0.1921519266232848
1746276156873296400,1.53529638671875,-0.3943927010625601,0.02191080303490162,-0.17362053689360618
1746276156883277000,1.545277099609375,-0.5222124407678842,0.18213468273878097,-0.13614859211146832
1746276156893257500,1.555257568359375,-0.5848246720254421,0.2703554025053978,-0.07221417233943939
1746276156903237400,1.5652373046875,-0.5753466495841741,0.35544133137762546,0.010878536888957024
1746276156913217300,1.57521728515625,-0.4858069561734795,0.43383916078805923,0.04304010030329227
1746276156923198200,1.5851982421875,-0.2969716067522764,0.4931517659783363,0.06904226430505514
1746276156933178000,1.59517822265625,-0.19106383912563324,0.5221288541376591,0.08989245237112045
1746276156943158300,1.605158203125,-0.08901274692714214,0.49003041908740996,0.10430062469094992
1746276156953138400,1.615138427734375,0.013143559211492538,0.4832540568202734,0.06480155799537897
1746276156963119400,1.625119384765625,0.17166005047559738,0.4580909739911556,0.07446925778985022
1746276156973099300,1.635099365234375,0.221372468149662,0.4314122259020805,0.11527999160587787
1746276156983079200,1.6450791015625,0.2102031316205859,0.33583880528509613,0.24157208335250616
1746276156993059300,1.655059326171875,0.18448270716965198,0.2978665097653866,0.25797669018656016
1746276157003040300,1.665040283203125,0.16404489929676055,0.2634422621160745,0.19778788668364286
1746276157013020200,1.675020263671875,0.1089896592900157,0.1837748511612415,0.18277941038310527
1746276157023000300,1.685000244140625,0.11863543951362371,0.0826356131106615,0.15801029530763624
1746276157032980200,1.694980224609375,0.22769816403985021,-0.01930558897256851,0.07180705284327268
1746276157042961400,1.70496142578125,0.38269612578898665,-0.14865093080997466,-0.01211567746847868
1746276157052941300,1.71494140625,0.49987873614579437,-0.28580665413737294,-0.07006897700428963
1746276157062921200,1.724921142578125,0.651961394970119,-0.3962263462305069,-0.13276830202341078
1746276157072901400,1.7349013671875,0.6842927619934082,-0.4970288996726274,-0.2048860282510519
1746276157082882300,1.74488232421875,0.6210697053611278,-0.5489619160056114,-0.2643251824304461
1746276157092862500,1.754862548828125,0.503818413682282,-0.5756073463469743,-0.2969716067522764
1746276157102842400,1.76484228515625,0.38987434685528277,-0.5496814624518156,-0.2589329679980874
1746276157112822300,1.774822265625,0.23495704912692308,-0.4411842628538608,-0.1994657567679882
1746276157122803200,1.78480322265625,0.04187514817714691,-0.3395055110991001,-0.10996493406295775
1746276157132783000,1.794783203125,-0.10096680409312248,-0.22859774322807788,-0.07127630696743727
1746276157142763300,1.80476318359375,-0.23308804038465022,-0.13084464048445224,-0.029269056843221185
1746276157152743400,1.814743408203125,-0.3933233182653785,-0.026564181798696518,-0.008803776441514491
1746276157162724400,1.824724365234375,-0.43895343506187195,0.013143559211492538,0.0033875966116786002
1746276157172704300,1.834704345703125,-0.4507081702634692,-0.014148936861753463,0.00305471139550209
1746276157182684200,1.84468408203125,-0.5139020008012652,-0.05561082806289196,-0.0212841955691576
1746276157192664300,1.854664306640625,-0.5572673875361681,-0.07967033356428146,-0.09287205270379781
1746276157202645200,1.864645263671875,-0.5595718650862574,-0.08582301097512245,-0.13336831374317407
1746276157212625200,1.874625244140625,-0.5272261772766709,-0.13129296877384186,-0.11640987241864204
1746276157222605300,1.884605224609375,-0.4423462923705578,-0.13222118953466414,-0.06762509098351001
1746276157232585200,1.894585205078125,-0.38978579178899525,-0.058657940673828124,-0.03179068427532911
1746276157242566400,1.90456640625,-0.3828443020880222,-0.018917466437816617,0.11657207724303006
1746276157252546300,1.91454638671875,-0.28127602497041226,0.018088029876351355,0.20142507414221764
1746276157262526200,1.924526123046875,-0.05508826549351215,0.06966741046607494,0.28530308852940794
1746276157272506000,1.934506103515625,0.09018295975029468,0.081280691370368,0.3752759126603603
1746276157282487300,1.9444873046875,0.17029694542884827,0.09299860169291496,0.45365708319693804
1746276157292467500,1.954467529296875,0.17121785966604947,0.07668225766420364,0.45104193226248024
1746276157302447400,1.964447265625,0.18782558785676956,0.07393149765133858,0.44257717851698397
1746276157312427300,1.97442724609375,0.19320757315605877,0.04265840750932693,0.3834524971142411
1746276157322408200,1.984408203125,0.11022416952103375,-0.04051964191496372,0.3057707070186734
1746276157332388000,1.99438818359375,-0.007002572238445281,-0.10247077891528605,0.19044103105217217
1746276157342368300,2.0043681640625,-0.017469021195173264,-0.15040391195714473,0.060413844430446624
1746276157352348400,2.014348388671875,0.04276654405891895,-0.1860071402579546,-0.010488660788536072
1746276157362329300,2.024329345703125,0.1356429806768894,-0.1931441525310278,-0.047479836316406725
1746276157372309200,2.034309326171875,0.2146329307615757,-0.1432955412566662,0.003894669350981712
1746276157382289200,2.0442890625,0.27131577197015283,-0.1004997711032629,0.039811201384663576
1746276157392270300,2.054270263671875,0.23938743278980254,-0.06886603095531463,0.04367722916305065
1746276157402250200,2.064250244140625,0.162718034607172,-0.10724749179780482,0.009147767573595046
1746276157412230100,2.074230224609375,0.1028916346758604,-0.0840209299892187,-0.04843465282320976
1746276157422210300,2.084210205078125,0.11172697529941797,0.036380057892203325,0.02371054593324661
1746276157432191200,2.094191162109375,0.11358020195066929,0.03587970715463161,0.10521130979508161
1746276157442171400,2.10417138671875,0.04126256923675537,0.04644260222315788,0.1070548918351531
1746276157452151300,2.1141513671875,-0.048421208819746965,0.07121288634240627,0.041159401123225685
1746276157462131200,2.124131103515625,-0.15618834057748318,0.06212766261100769,0.03807195650190115
1746276157472112000,2.134112060546875,-0.24104426008611915,0.08286299212574959,0.037820319828391076
1746276157482092000,2.144092041015625,-0.27429069612771273,0.04600888698101043,-0.016603636537492274
1746276157492072400,2.154072509765625,-0.22496552420556543,-0.01661386567056179,-0.041964580026268954
1746276157502052400,2.16405224609375,-0.03375555460751056,-0.05198562330305576,-0.08695289178788661
1746276157512033300,2.174033203125,0.10897387719899415,-0.06191665020883083,-0.06558949350267648
1746276157522013200,2.18401318359375,0.0351984468922019,-0.11248363888561724,-0.009416355381906032
1746276157531993000,2.1939931640625,-0.01773790126442909,-0.16010931341350076,0.05531769033521414
1746276157541973200,2.20397314453125,0.031415713483095166,-0.11429507222175597,0.09624708209484815
1746276157551954200,2.2139541015625,0.12850742970854043,-0.11036123990416526,0.1769414980098605
1746276157561934300,2.223934326171875,0.10715718316584825,-0.1521183146595955,0.27041648504287
1746276157571914200,2.233914306640625,-0.025605273638665674,-0.14169628936648368,0.25796120035648346
1746276157581895400,2.2438955078125,-0.09358867654055357,-0.10904781921803951,0.2613289232239127
1746276157591875300,2.253875244140625,-0.10472527984380721,-0.10593173302412033,0.2784106986671686
1746276157601855200,2.263855224609375,-0.10052461328357458,-0.09905892464518547,0.23992606971114872
1746276157611835100,2.273835205078125,-0.11269845068007707,-0.11671382380127907,0.20044249284565446
1746276157621816000,2.283816162109375,-0.18327333137989044,-0.11516191818416117,0.15962620607167483
1746276157631796500,2.29379638671875,-0.28687808276116844,-0.08441255965530872,0.11410860973894596
1746276157641776400,2.3037763671875,-0.3630301790714264,-0.07389233468472957,0.0719718880161643
1746276157651756300,2.31375634765625,-0.36420740615725516,-0.06491290941536426,0.026075521498918532
1746276157661737200,2.3237373046875,-0.33234131855815646,-0.11628595377802849,-0.03739391110986471
1746276157671717000,2.333717041015625,-0.3241623960167169,-0.15806407132148742,-0.13287410048544407
1746276157681697000,2.343697021484375,-0.27678017485588785,-0.07428396435081959,-0.14737141239345072
1746276157691677400,2.353677490234375,-0.17583675163835286,0.020538345637917517,-0.01771276682317257
1746276157701658400,2.363658447265625,-0.13557985231280326,0.04687397937774658,0.11208090330362319
1746276157711638300,2.37363818359375,-0.11211188296377658,0.05711129575371742,0.13834844024330376
1746276157721618200,2.3836181640625,-0.06164484753012657,0.027088497933745383,0.094188395999372
1746276157731598000,2.39359814453125,0.011411036330461501,0.0651157385110855,0.11800240230709313
1746276157741579300,2.403579345703125,0.060840545409917825,0.09008417555093765,0.25222441027015446
1746276157751559200,2.41355908203125,0.024657179133594033,0.0634124417245388,0.3226820943310857
1746276157761539300,2.423539306640625,0.030049101305007934,0.05594049840867519,0.25616817945986986
1746276157771520300,2.433520263671875,0.07251520111262798,0.00279635272026062,0.19521774393469093
1746276157781500400,2.44350048828125,0.06930208428502083,-0.030838790377974507,0.14950813216120004
1746276157791480300,2.453480224609375,0.10951397542506455,-0.04589490521252155,0.09185469235479832
1746276157801460200,2.463460205078125,0.16893267133831977,-0.06323065541684628,0.05762012205868959
1746276157811441200,2.473441162109375,0.18511866698563098,-0.08645897079110144,0.03014642419964075
1746276157821421000,2.483421142578125,0.20040712927132845,-0.07214870588779448,-0.022980478093028067
1746276157831401500,2.4934013671875,0.16255290717333554,-0.07142272970080375,-0.05904898581802845
1746276157841381400,2.50338134765625,0.1399403856098652,-0.055580432924628255,-0.10528612859696149
1746276157851362300,2.5133623046875,0.11379881313741207,-0.0274450562864542,-0.07837035688161849
1746276157861342200,2.52334228515625,0.1386754802405834,0.028886487266421318,-0.0439537080168724
1746276157871322000,2.533322021484375,0.09971417368352413,0.07217676293849945,0.028130700463056563
1746276157881303300,2.54330322265625,0.03355184872895479,0.04682371049523353,0.06096300274580717
1746276157891283200,2.553283203125,-0.0719584440127015,0.032229367953538895,0.02239566394239664
1746276157901263400,2.563263427734375,-0.1446492939531803,0.03376841408908367,0.02131517522931099
1746276157911243300,2.5732431640625,-0.10866320381462573,0.03594634265005588,0.02213467491865158
1746276157921224400,2.583224365234375,-0.03576747895181179,0.03504559441804886,0.036354338929057116
1746276157931204400,2.593204345703125,0.0074377487853169435,-0.008152326795458794,0.018524667727947235
1746276157941184300,2.603184326171875,0.023279168778657912,-0.06658288845419884,-0.010855448274314403
1746276157951164200,2.6131640625,0.022437749518454075,-0.111644849973917,-0.05637099878042936
1746276157961145000,2.62314501953125,0.06516454608887434,-0.10837094286978244,-0.04597030853629112
1746276157971125200,2.633125244140625,0.16912147190868854,-0.1376911453783512,-0.008144143489003181
1746276157981105400,2.64310546875,0.2206520449206233,-0.1573199749559164,-0.031894144649803634
1746276157991085300,2.653085205078125,0.16040741957724095,-0.2020709708303213,-0.08157178327143191
1746276158001066200,2.663066162109375,0.1126581186696887,-0.17308979101777075,-0.09605039047896861
1746276158011046100,2.673046142578125,0.0659285161986947,-0.1446358499497175,-0.030880291432142257
1746276158021026000,2.683026123046875,0.029527415518462656,-0.10641104097366333,0.054289516331255436
1746276158031007200,2.69300732421875,-0.01105769284814596,-0.09714636902213096,0.054499651950597756
1746276158040987100,2.702987060546875,-0.09473550848811864,-0.10033259784281254,0.023790625432133672
1746276158050967300,2.71296728515625,-0.16507862625867128,-0.017955927929282186,0.035138533398509024
1746276158060947200,2.722947265625,-0.18239830211102961,0.008172200539708137,0.12209873171001671
1746276158070928400,2.732928466796875,-0.18251111483573912,-0.005599719703197479,0.15777736333459616
1746276158080908300,2.742908203125,-0.14997224254161118,-0.03453939846158027,0.0759340696454048
1746276158090888200,2.75288818359375,-0.09745908823311328,-0.10251870971024035,-0.005454466013610363
1746276158100869000,2.762869140625,-0.07431085235774516,-0.17516835085749624,-0.04135696952193975
1746276158110849000,2.77284912109375,-0.03151975837945938,-0.20576222656369209,-0.057229076914489266
1746276158120829400,2.782829345703125,0.05594751267135143,-0.2005681650519371,-0.04219283582419157
1746276158130809300,2.792809326171875,0.03260200065821409,-0.17704758873283863,0.005019873988628387
1746276158140790300,2.802790283203125,-0.08328063301593065,-0.16469781024754046,0.054093409237265584
1746276158150770200,2.812770263671875,-0.1360682203516364,-0.1605839451879263,0.09611059623360634
1746276158160750000,2.82275,-0.17240063970983027,-0.1647095006853342,0.0973471522912383
1746276158170730200,2.832730224609375,-0.10808744975328445,-0.14603227274417876,0.05906944408416748
1746276158180711200,2.842711181640625,-0.08230711180865764,-0.17079086642563343,0.06282499722540379
1746276158190691300,2.85269140625,-0.09665478611290454,-0.1635369497746229,0.10411971516609192
1746276158200671200,2.862671142578125,-0.11212532696723937,-0.15511691195368765,0.10209668490588665
1746276158210652400,2.87265234375,-0.1729807776853442,-0.14261515777707098,0.04521861338615417
1746276158220632300,2.88263232421875,-0.24003245269507167,-0.14778057771623135,0.014354980827867984
1746276158230612200,2.8926123046875,-0.30939211238622666,-0.1835018794387579,-0.03771539814919233
1746276158240592100,2.902592041015625,-0.36514117987602945,-0.2363350594818592,-0.06475421172231435
1746276158250573000,2.912572998046875,-0.3601335808470845,-0.23472996237277982,-0.10878829149901867
1746276158260553500,2.922553466796875,-0.23176468282639978,-0.19799568421542643,-0.07183072597980499
1746276158270533400,2.932533447265625,-0.07906856827884912,-0.10040741664469241,0.03361731518059969
1746276158280513300,2.94251318359375,-0.0039040217012166973,0.05019523275494575,0.1866425155520439
1746276158290494200,2.952494140625,-0.11186404568254947,0.13087971179783345,0.32724107280969617
1746276158300474000,2.96247412109375,-0.2620677588924765,0.19416881940364836,0.3992725820586085
1746276158310454000,2.9724541015625,-0.48754590879529713,0.24067454999089238,0.4539727250173688
1746276158320435500,2.982435546875,-0.5860241109430789,0.2202525242090225,0.4567266999006271
1746276158330415400,2.992415283203125,-0.4784036941796541,0.16359072578847408,0.41913142099976536
1746276158340395500,3.0023955078125,-0.2549532507121563,0.08763269074559212,0.3279007057622075
1746276158350375400,3.01237548828125,-0.017124153280258177,0.003818681505322456,0.24541677608191967
1746276158360356600,3.022356689453125,0.1754454142332077,-0.08710019130408764,0.1697591852903366
1746276158370336500,3.03233642578125,0.3003755699768662,-0.14454992523193358,0.11799071186929941
1746276158380316400,3.04231640625,0.3420508116677403,-0.16889818454682826,0.08914046496003866
1746276158390297300,3.05229736328125,0.34831250241100786,-0.19638298832178114,0.0789145467609167
1746276158400277500,3.062277587890625,0.2859273579075932,-0.2051777046740055,0.03790390645861626
1746276158410257700,3.072257568359375,0.16696341709196566,-0.1517214242964983,0.05295183798670768
1746276158420237600,3.082237548828125,0.054175242301821705,-0.11852525713741778,0.09457797983884811
1746276158430218500,3.092218505859375,0.005083586874604225,-0.061838324275612824,0.058414487306773656
1746276158440198400,3.102198486328125,-0.007066869646310806,0.0036567689418792724,0.09130144238620996
1746276158450178300,3.11217822265625,-0.006002455285191536,0.02803366982936859,0.12567337532639503
1746276158460159500,3.122159423828125,0.023967443303763866,0.010540683236718177,0.10664280390292405
1746276158470139400,3.132139404296875,0.03756429924070835,-0.047727381336688995,0.031231589087843892
1746276158480119600,3.14211962890625,0.06920797626078129,-0.10316226831078529,-0.06832008751034736
1746276158490099500,3.152099365234375,0.07132686811089516,-0.1423053611755371,-0.14549831199795007
1746276158500080600,3.16208056640625,0.04938391637206077,-0.16249299367964268,-0.1963233670890331
1746276158510060500,3.172060546875,0.02060527339428663,-0.18876959070861338,-0.210557351885736
1746276158520040400,3.18204052734375,-0.010958908648788929,-0.21454232986867428,-0.25268968969434497
1746276158530021400,3.192021484375,-0.041490240512788296,-0.23008125978410243,-0.26998715371489523
1746276158540001300,3.202001220703125,-0.11642682355344294,-0.1941501147031784,-0.29138094713836904
1746276158549981700,3.211981689453125,-0.24104630591273307,-0.1927168670296669,-0.3206742616400122
1746276158559961600,3.221961669921875,-0.32389702307879925,-0.23378712856471537,-0.3106014881759882
1746276158569942500,3.231942626953125,-0.34313802238255736,-0.22293314159512517,-0.2839846994072199
1746276158579922400,3.24192236328125,-0.20060235958248376,-0.2224801371306181,-0.21213556098788974
1746276158589902300,3.25190234375,-0.005445698185265064,-0.17429332158863545,-0.10989333013147115
1746276158599883500,3.261883544921875,0.25544775623083116,-0.13661328701376915,-0.020231763906776903
1746276158609863400,3.271863525390625,0.48874914710521694,-0.1359311499685049,0.07974515236616134
1746276158619843600,3.281843505859375,0.6637134998232126,-0.10174830985963344,0.1900043932005763
1746276158629823500,3.291823486328125,0.7126110939830541,-0.043807577544450756,0.27679478790313006
1746276158639804700,3.3018046875,0.6325920931115746,0.03310848887562751,0.3307914587676525
1746276158649784600,3.31178466796875,0.4446317729592323,0.0707277331739664,0.3669923607006669
1746276158659764500,3.321764404296875,0.19148001871109008,0.10540683236718178,0.38859015226364135
1746276158669745400,3.331745361328125,-0.08733429232090711,0.14585866974294184,0.34242432115525007
1746276158679725300,3.341725341796875,-0.2834638904035091,0.12173603587746619,0.2905500492721796
1746276158689705700,3.351705810546875,-0.4157192744687199,0.09790507843494414,0.20712708517611025
1746276158699685600,3.361685546875,-0.4855874682039022,0.08038345026969909,0.14233604857474566
1746276158709666600,3.37166650390625,-0.5075029474139213,0.03724047411382198,0.12634382193386554
1746276158719646500,3.381646484375,-0.44902533174306153,0.01675765805542469,0.13676321687847376
1746276158729626400,3.39162646484375,-0.3952800052911043,-0.0008259294301271438,0.16058716005831955
1746276158739607600,3.401607666015625,-0.3186193749368191,-0.03461129465401173,0.16983634217977522
1746276158749587500,3.41158740234375,-0.2826061045303941,-0.0447118329077959,0.1603431221693754
1746276158759567600,3.421567626953125,-0.2477244685024023,-0.06149930157959461,0.15953239030838012
1746276158769547500,3.431547607421875,-0.21935703667402265,-0.07817045039534569,0.16522037281692026
1746276158779528700,3.44152880859375,-0.2162234148234129,-0.07686170588433743,0.17351415390968322
1746276158789508600,3.451508544921875,-0.2232452762842178,-0.05203238505423069,0.18882015185207127
1746276158799488500,3.461488525390625,-0.21252309900075195,-0.05972177051305771,0.21447306402474642
1746276158809469400,3.471469482421875,-0.19555881245732307,-0.05094458981752396,0.2222103802785277
1746276158819449300,3.481449462890625,-0.19513941800147294,-0.03287526464164257,0.17393091801702976
1746276158829429500,3.491429443359375,-0.2244710186868906,-0.061575289425253865,0.13282880003899336
1746276158839409700,3.50140966796875,-0.23313597117960452,-0.07391863816976547,0.08366612520217895
1746276158849390600,3.511390625,-0.23687544996887444,-0.10411094733774662,0.06009703356623649
1746276158859370500,3.52137060546875,-0.158281221203506,-0.06927227366864681,0.04678367074579
1746276158869350400,3.531350341796875,-0.02896948937475681,-0.03944119902849197,0.07148059736788273
1746276158879331600,3.54133154296875,0.08427519701123237,-0.06233750596940517,0.07607552394270896
1746276158889311500,3.5513115234375,0.17449878103286026,-0.10456804345548153,0.08225918101370334
1746276158899291400,3.56129150390625,0.2599517896518111,-0.11101941155195236,0.06819499982595444
1746276158909271600,3.571271484375,0.2851291932672262,-0.0906307035177946,0.06203969206660986
1746276158919252500,3.58125244140625,0.256872820597887,-0.09863163914382457,0.0924587957277894
1746276158929232600,3.591232666015625,0.17980682431310413,-0.10469254661798477,0.07364332835972309
1746276158939212500,3.601212646484375,0.0928705913990736,-0.08658288943171501,0.02241261507719755
1746276158949193500,3.611193359375,0.0343248789280653,-0.11488368576467037,0.013267477852106094
1746276158959173400,3.62117333984375,0.010306289958953857,-0.10222820233106612,-0.011465104605257511
1746276158969153300,3.6311533203125,-0.015000585255026816,-0.05021627554297447,-0.046321313931047915
1746276158979133700,3.6411337890625,-0.023278876517713067,-0.019311434191465377,-0.0348866044640541
1746276158989114600,3.651114501953125,-0.054926352930068964,-0.010937573599815368,-0.004396189132332802
1746276158999094500,3.661094482421875,-0.08733253875523805,0.009409633380174637,-0.006346738678216934
1746276159009074400,3.671074462890625,-0.06520838523060082,0.011979776129126547,-0.013989070124924181
1746276159019055600,3.6810556640625,-0.07963613903373479,0.016893267133831977,0.003956336410343647
1746276159029035500,3.691035400390625,-0.024200083015859127,-0.0014583821147680282,0.012452362076938152
1746276159039015400,3.701015380859375,0.009961714304983615,-0.015199322697520255,0.0029629414588212967
1746276159048995600,3.71099560546875,0.04389467130601406,-0.019824644410610198,0.0168333536401391
1746276159058976500,3.7209765625,0.0628311347052455,-0.0117465518951416,0.049887189719080925
1746276159068956700,3.730956787109375,0.06580109042674302,-0.02564472886621952,0.09680851536989211
1746276159078936600,3.7409365234375,0.11444997052252293,-0.060116907310485836,0.15612813482284546
1746276159088917500,3.75091748046875,0.12959376364052294,-0.06728022306859494,0.16443711348474024
1746276159098897400,3.7608974609375,0.15033639967888593,-0.06730009681284427,0.1756602260276675
1746276159108877300,3.770877197265625,0.14031798675060272,-0.06728840637505054,0.20976327889859675
1746276159118858500,3.7808583984375,0.12937076853960752,-0.09765607210993767,0.25921032363474367
1746276159128838700,3.790838623046875,0.10694909337311982,-0.10671849948763847,0.27241496538370846
1746276159138818600,3.800818603515625,0.05186959570795297,-0.09154957192838191,0.23698680138885975
1746276159148798500,3.810798583984375,0.009176116885244846,-0.09388181426823139,0.21330460476726293
1746276159158779400,3.820779296875,-0.048563832160830496,-0.0717605833530426,0.16635902145802975
1746276159168759600,3.830759521484375,-0.13017010222375391,-0.06058394030034542,0.10984013863950967
1746276159178739500,3.840739501953125,-0.19911592041701076,-0.03818564600944519,0.10427315216213465
1746276159188720400,3.850720458984375,-0.23470307436585425,-0.009385667982697486,0.11640665754824876
1746276159198700500,3.860700439453125,-0.28148586832880973,0.019512509721517562,0.0808446380406618
1746276159208680400,3.870680419921875,-0.268864871686697,0.008725742769241332,0.036652445092797276
1746276159218660600,3.88066064453125,-0.2724935835778713,0.030706103909015653,0.0004974281281232833
1746276159228641500,3.8906416015625,-0.2961345714062452,0.04077157084941864,-0.021106208653748033
1746276159238621400,3.900621337890625,-0.293311330679059,0.035492169141769406,-0.030329964073002338
1746276159248601300,3.910601318359375,-0.2707499547809362,-0.005406827479600906,-0.05186082787960768
1746276159258582500,3.92058251953125,-0.2773106284707785,-0.009709493109583854,-0.08707271877527237
1746276159268562400,3.9305625,-0.3071642072036862,-0.012336334481835364,-0.09660656305700539
1746276159278542600,3.94054248046875,-0.3311135303288698,-0.03814765208661556,-0.10237988576143979
1746276159288522500,3.9505224609375,-0.35058161638677116,-0.09934300228357315,-0.0952186158299446
1746276159298503400,3.96050341796875,-0.36145986101478333,-0.11699848596155643,-0.13484803090691566
1746276159308483600,3.970483642578125,-0.37179157767593857,-0.10634089834690093,-0.17753654129356145
1746276159318464000,3.980464111328125,-0.3895592895567417,-0.0710544809103012,-0.10865414372533559
1746276159328445000,3.99044482421875,-0.36876784594058987,-0.09030103317201137,-0.07446955005079507
1746276159338424800,4.0004248046875,-0.3002250555902719,-0.12111644267439842,-0.07657762824594974
1746276159348405000,4.010405029296875,-0.1693912287607789,-0.1494862125903368,-0.0634077655494213
1746276159358386000,4.020385986328125,-0.0872059897661209,-0.15332535236179828,-0.07028437332063912
1746276159368366000,4.030365966796875,-0.06950842051208019,-0.10380524238944053,-0.004565992741286755
1746276159378346000,4.040345947265625,-0.0947588893637061,-0.08498188397586345,0.06841565683931111
1746276159388326000,4.050325927734375,-0.12765899618566035,-0.12987374962568282,0.044457858146727085
1746276159398307000,4.06030712890625,-0.14945874006152152,-0.17431085724532602,-0.03579816635102034
1746276159408287000,4.070286865234375,-0.1824345424681902,-0.2034001736074686,-0.15130261436253786
1746276159418267100,4.08026708984375,-0.21591683309227228,-0.12799392722845077,-0.20507892047464846
1746276159428247800,4.090247802734375,-0.2647001532226801,-0.05988602116405964,-0.15571896950006484
1746276159438228000,4.10022802734375,-0.2630357271417975,-0.05626783066689968,-0.1563444079220295
1746276159448208100,4.1102080078125,-0.23299919305741787,-0.0589595539689064,-0.1730973898023367
1746276159458189000,4.12018896484375,-0.18763970989584922,-0.09044541007876396,-0.1782417669534683
1746276159468169000,4.1301689453125,-0.15912001011520624,-0.08560439978837966,-0.1775464781656861
1746276159478148900,4.14014892578125,-0.19559534507542847,-0.03668868544995785,-0.08911328469216823
1746276159488129000,4.15012890625,-0.22441402780264616,-0.02340776359438896,-0.000032733225822448726
1746276159498110000,4.16010986328125,-0.21216098769009112,-0.05105447993278503,0.0319654563203454
1746276159508090000,4.170090087890625,-0.15132278036773203,-0.0862520500421524,0.02584288178682327
1746276159518070000,4.180070068359375,-0.0651116468578577,-0.10869184538722038,0.008567629598081111
1746276159528051000,4.190051025390625,-0.01402794083058834,-0.12317512876987456,-0.013396657189726829
1746276159538031000,4.200031005859375,0.016369827781617642,-0.07963409320712089,-0.000024549919366836548
1746276159548011000,4.210010986328125,0.018458032232522962,-0.07083411615788936,0.0896767637938261
1746276159557991000,4.219990966796875,0.04789426233619451,-0.0965560019135475,0.15106880560666322
1746276159567971800,4.229971923828125,0.07520721667557954,-0.09793664261698723,0.19564941335022448
1746276159577952000,4.239951904296875,0.09847089562416077,-0.13966449127793312,0.1676440928325057
1746276159587932200,4.24993212890625,0.11308218930065632,-0.1316220545977354,0.15789689806103704
1746276159597913000,4.2599130859375,0.06829816793948411,-0.045536008772253986,0.23831629642695187
1746276159607893000,4.26989306640625,0.05654606308639049,-0.008948445609211922,0.3287809957280755
1746276159617873000,4.279872802734375,0.06922551191747188,0.005115151056647301,0.3671303078666329
1746276159627854000,4.28985400390625,0.09260814107060432,-0.02748597281873226,0.34483225907981396
1746276159637834000,4.299833984375,0.12904431306421757,-0.05600596486032009,0.2871408253505826
1746276159647814100,4.309814208984375,0.11114683732390403,-0.05124152693748474,0.266596926754713
1746276159657794000,4.3197939453125,0.09262801481485367,0.022563713985681532,0.28790830259174105
1746276159667775000,4.32977490234375,0.06358575246483088,0.04777005143463611,0.38693011009693146
1746276159677755100,4.339755126953125,0.0847188491255045,-0.02715221081972122,0.38112025477439165
1746276159687735000,4.349735107421875,0.10681114620715379,-0.0511561867415905,0.30802783829569813
1746276159697716000,4.359716064453125,0.14641338101625442,-0.10762158580720424,0.24383652115315196
1746276159707695900,4.36969580078125,0.14688947409540415,-0.14536182613670826,0.16756839724779127
1746276159717676000,4.379676025390625,0.08838935433179139,-0.08963993891477584,0.1470721371859312
1746276159727657000,4.389656982421875,0.007453238615393638,-0.07104805116951465,0.19287059628665446
1746276159737637000,4.39963720703125,-0.048913668511807916,-0.10613748472929001,0.1877645053192973
1746276159747617000,4.409616943359375,-0.04454173703789711,-0.1123854392081499,0.14392244098335505
1746276159757597000,4.419596923828125,-0.05427314971834421,-0.11996551907360553,0.12127338680177926
1746276159767577900,4.429577880859375,-0.032602585180103776,-0.10091653521060943,0.1008610056310892
1746276159777558000,4.43955810546875,-0.029696050083637234,-0.0031657705545425413,0.1553621188864112
1746276159787538200,4.4495380859375,-0.0232709854722023,0.05896423014402389,0.29738194111883637
1746276159797518800,4.459518798828125,0.012354746921360491,0.058356327378749843,0.3873696705579757
1746276159807499000,4.4694990234375,0.003319499811530113,0.031056232520937917,0.33593846626728774
1746276159817479000,4.47947900390625,-0.016371873608231544,0.043460371541976926,0.2946650833755731
1746276159827460000,4.489460205078125,-0.04951631058007479,0.02944353662729263,0.2684066065251827
1746276159837440000,4.49943994140625,-0.06747954503297805,0.003075169661641121,0.19878654233217238
1746276159847420000,4.509419921875,-0.05361760841906071,-0.029207389783859252,0.13216069151908158
1746276159857400000,4.519400146484375,-0.009439736257493496,-0.061952306044101714,0.08565349962711334
1746276159867381000,4.529381103515625,0.006675824502110481,-0.08064765416383743,-0.012421674677729606
1746276159877361200,4.539361083984375,0.03715104226469993,-0.11572539728581904,-0.024845979703962802
1746276159887341000,4.549341064453125,0.032628304143249985,-0.15261691183149814,-0.041487025642395016
1746276159897322000,4.559322021484375,0.023781565342843532,-0.14267828614115713,-0.0666211746379733
1746276159907302000,4.569302001953125,0.02461129416525364,-0.1748959636569023,-0.07551467518955468
1746276159917282000,4.579281982421875,0.013776888678967952,-0.15618834057748318,-0.025087094983458517
1746276159927263000,4.589262939453125,0.012522796964645385,-0.10866086572706699,0.018732172998785972
1746276159937243000,4.599242919921875,0.00932020153105259,-0.09622457800209522,0.03574000642299652
1746276159947223000,4.60922314453125,-0.030275603537261483,-0.08501695528924465,0.03368862685114145
1746276159957203000,4.619202880859375,-0.05999065058231354,-0.07494038243293762,0.007878770551085471
1746276159967184100,4.62918408203125,-0.08653174376636744,-0.08093173180222511,-0.01687397791147232
1746276159977164000,4.6391640625,-0.12815993144512175,-0.07112345449328422,-0.009869652107357978
1746276159987144000,4.64914404296875,-0.16146745002418755,-0.0865220991551876,-0.005806932713091373
1746276159997124900,4.659124755859375,-0.14721885218024253,-0.03601882336437702,-0.040677755086123944
1746276160007105000,4.66910498046875,-0.11369885989427565,0.01026654247045517,-0.0027381927922368048
1746276160017085200,4.679085205078125,-0.0482175029411912,0.04455810365080833,0.0436032871440053
1746276160027066000,4.689066162109375,-0.031072891394793984,0.014196867656707763,0.08621610194593668
1746276160037046000,4.6990458984375,-0.036865211060643194,-0.020565818166732787,0.04787175824344158
1746276160047026000,4.70902587890625,-0.08691255977749825,-0.08205109122097491,0.02915565959662199
1746276160057007000,4.719007080078125,-0.13903437668085097,-0.11066226867735385,-0.017458499801158905
1746276160066987000,4.728987060546875,-0.14747954894304274,-0.1303448742687702,-0.030002339553833007
1746276160076967000,4.738966796875,-0.14644348389357328,-0.15850187821686268,-0.0516267268627882
1746276160086947000,4.748947021484375,-0.12984101639986037,-0.16556640977561474,-0.07187982581853866
1746276160096928000,4.758927978515625,-0.0984434230953455,-0.14958441226780414,-0.08845803565382956
1746276160106908200,4.768908203125,-0.06136603058874607,-0.12487258033752441,-0.04427344149053097
1746276160116888000,4.77888818359375,-0.0501212907359004,-0.12466156793534755,-0.03273147225677967
1746276160126869000,4.788868896484375,-0.04208820640593767,-0.0815460643082857,-0.040730654317140576
1746276160136849000,4.798848876953125,-0.018259294790029523,-0.06753507461249827,-0.035921792730689045
1746276160146828800,4.808828857421875,-0.03634849371016025,-0.00919862097799778,-0.007107493917644024
1746276160156810000,4.81881005859375,-0.03105915513038635,0.01830138036608696,0.05846446392834186
1746276160166790000,4.828789794921875,-0.017168284682929514,0.046914311388134955,0.13675123417973517
1746276160176770000,4.83877001953125,-0.013813713558018206,0.03877893572747707,0.13030717260688543
1746276160186751000,4.8487509765625,0.0005129179581999778,0.010845219141244887,0.0707405926555395
1746276160196731100,4.858731201171875,-0.03179594497233629,-0.0018885902255773544,0.04017448173910379
1746276160206711000,4.8687109375,-0.07029664828032255,-0.00883037218749523,0.04882219083607196
1746276160216691000,4.87869091796875,-0.07598492304980754,-0.00592646743953228,0.06992372331470251
1746276160226671900,4.888671875,-0.07883709761053323,-0.06436988857984542,0.0583189179778099
1746276160236651800,4.89865185546875,-0.07265081019103527,-0.12530278844833373,0.01898322515040636
1746276160246632200,4.908632080078125,-0.055524903345108026,-0.15916121890842913,-0.04406009100079536
1746276160256613000,4.918613037109375,-0.06281155322194099,-0.18580840281546115,-0.11441636051386594
1746276160266593000,4.928593017578125,-0.08495616501271724,-0.14536591778993604,-0.11922580662220716
1746276160276573000,4.938572998046875,-0.09267945274114608,-0.12888766119778156,-0.0784857999548316
1746276160286554000,4.94855419921875,-0.08742956938892603,-0.13566051633358,-0.05387099865823984
1746276160296534000,4.958533935546875,-0.06961451123505831,-0.10914952602684497,-0.07029489471465349
1746276160306514000,4.968513916015625,-0.07990881849527358,-0.08119125952124595,-0.1078285065561533
1746276160316494800,4.978494873046875,-0.10820903030633926,-0.034117958179116246,-0.09932634340971708
1746276160326474800,4.988474853515625,-0.12274229031056165,0.007376081725955009,-0.016523849299550055
1746276160336454700,4.99845458984375,-0.10837620356678962,0.014771452674269676,0.0048699441239237785
1746276160346435600,5.008435546875,-0.11794804177135229,-0.005502689069509506,-0.004743395134806633
1746276160356415500,5.01841552734375,-0.12037673022300004,-0.02543722359538078,-0.05653408038765192
1746276160366395600,5.028395751953125,-0.11419511897861957,-0.034224925684928895,-0.04995674782395362
1746276160376375600,5.03837548828125,-0.11293313621878623,-0.04355915574133396,-0.01578033745586872
1746276160386356500,5.0483564453125,-0.1513502528965473,-0.05838263086378574,-0.007803659488260745
1746276160396336600,5.058336669921875,-0.17972411446571349,-0.020149054059386252,-0.01173223110884428
1746276160406316500,5.068316650390625,-0.1958122026965022,0.021836568754911422,0.08028145119994878
1746276160416297700,5.078297607421875,-0.2271235790222883,0.03903787892460823,0.16794775195419787
1746276160426277600,5.088277587890625,-0.18742197549194095,0.019445289704203606,0.11939064179509877
1746276160436257500,5.098257568359375,-0.15913228507488966,-0.03451367949843406,0.10391454798281193
1746276160446238500,5.108238525390625,-0.08858166203349828,-0.08228080832362175,0.04268412647247314
1746276160456218600,5.118218505859375,-0.037757483725249764,-0.13771920242905616,0.010941665253043175
1746276160466198800,5.12819873046875,-0.016273966191709042,-0.16199848816096782,-0.022499416577816008
1746276160476179700,5.1381796875,-0.001437339326739311,-0.177293087926507,-0.0003463292196393013
1746276160486159600,5.14815966796875,0.0740437258541584,-0.18273732480704782,0.055766895407438274
1746276160496139500,5.158139404296875,0.07542027490437031,-0.13601707468628882,0.09733049341738223
1746276160506120700,5.16812060546875,0.051881286145746705,-0.1109656355381012,0.11077566592395305
1746276160516100600,5.1781005859375,0.04351707016527653,-0.08432371232807635,0.10873042383193969
1746276160526080500,5.18808056640625,-0.008699439284205437,-0.0951531493782997,0.10466653539389371
1746276160536061400,5.1980615234375,-0.0174368724912405,-0.06553834783732891,0.08608633808642625
1746276160546041600,5.20804150390625,-0.037734979632496835,-0.03215864080488682,0.07838613897264003
1746276160556021800,5.218021728515625,-0.04625467843562364,-0.007042904248833656,0.08681815949231386
1746276160566001700,5.228001708984375,0.014162380865216255,0.010397475373744964,0.1381137547045946
1746276160575982600,5.237982666015625,0.07078267823159694,0.02873334253132343,0.1494613704100251
1746276160585962500,5.24796240234375,0.11825170089304446,0.03364449544847011,0.14848551111519337
1746276160595942700,5.257942626953125,0.15568623627424238,0.008268062129616737,0.16139058539569376
1746276160605923600,5.267923583984375,0.14077595965117215,-0.057093175575137135,0.15683160691708325
1746276160615903500,5.277903564453125,0.11144698931425809,-0.0923258169978857,0.10071604420244692
1746276160625883600,5.287883544921875,0.07700929766148329,-0.1066477723389864,0.06681786625385285
1746276160635864800,5.29786474609375,0.04345627988874912,-0.10400164174437522,0.05422726475000381
1746276160645844700,5.3078447265625,0.045920039653778076,-0.12224398539960384,0.07123042199909686
1746276160655824600,5.31782470703125,0.030104338623583315,-0.12127777071595192,0.049478024396300314
1746276160665805600,5.3278056640625,0.03256751386672258,-0.11280103427171706,0.032603461962938306
1746276160675785500,5.337785400390625,0.036920156118273734,-0.07143208205103874,0.028786241762340067
1746276160685765600,5.347765625,0.042810967722535134,-0.06251286253631115,0.0806029382392764
1746276160695746600,5.35774658203125,0.03709989659935236,-0.06848959885835647,0.04470277281850576
1746276160705726700,5.367726806640625,0.02735562443733215,-0.0809404996305704,0.03234831815809011
1746276160715706600,5.37770654296875,0.039053661015629765,-0.08785013288855552,0.06294511647373438
1746276160725687800,5.387687744140625,0.0023272739037871358,-0.07973930714726447,0.0374856810465455
1746276160735667700,5.397667724609375,-0.03853372879475355,-0.02837619965672493,-0.006501344718039035
1746276160745647600,5.407647705078125,-0.12365092958807944,-0.03384147932529449,-0.004986556240916252
1746276160755628500,5.417628662109375,-0.23241525568962096,-0.0357581266015768,0.02169365315288305
1746276160765608400,5.4276083984375,-0.2756450333461165,-0.013145312777161598,0.04914484691917896
1746276160775588600,5.437588623046875,-0.2939294625774026,-0.00827098473906517,0.08231734094172716
1746276160785569800,5.44756982421875,-0.26740707409381864,0.013927987587451934,0.1425733644619584
1746276160795549700,5.4575498046875,-0.24424773230254648,0.01009878468811512,0.16583119819164274
1746276160805529600,5.467529541015625,-0.18369068000912664,-0.0067775313109159465,0.16475421660989523
1746276160815509500,5.477509521484375,-0.10787029987126588,-0.04811199674010277,0.14471914431899785
1746276160825490700,5.48749072265625,-0.07292027478218079,-0.09648118311166763,0.10639818149209022
1746276160835470600,5.497470703125,-0.025248423025012016,-0.13707096765339374,0.05283610265254974
1746276160845450800,5.50745068359375,0.004231353959441185,-0.13535481138527392,0.0010699673190712928
1746276160855431700,5.517431640625,0.01796878741085529,-0.14547171625196934,0.019892156688868998
1746276160865411600,5.52741162109375,0.008104396000504494,-0.1406271988302469,0.03311082696318626
1746276160875391700,5.537391845703125,-0.014784604416787623,-0.135190560734272,0.003972410762310028
1746276160885372700,5.54737255859375,-0.035351007105410094,-0.10941489896476268,-0.00732113666832447
1746276160895352600,5.5573525390625,-0.0533563271343708,-0.0632949528247118,0.03963555255681276
1746276160905332500,5.56733251953125,-0.056471244284510606,-0.037511692270636554,0.0728089233621955
1746276160915313700,5.577313720703125,-0.07402852828502654,-0.025320903739333152,0.047324353493750096
1746276160925293600,5.58729345703125,-0.1024494438663125,-0.013105565288662909,0.015607903498411178
1746276160935273700,5.597273681640625,-0.14173048389703036,0.019575638085603714,0.02902092730104923
1746276160945254700,5.607254638671875,-0.17937340133190155,0.038361002576351166,0.05540887575000524
1746276160955234600,5.617234619140625,-0.18848931246250866,0.001294131463766098,0.03750438574701547
1746276160965214700,5.627214599609375,-0.15103198072761295,-0.012810966256260872,0.0016845920860767364
1746276160975195600,5.637195556640625,-0.14836480734497307,-0.019797171881794928,-0.007470774272084236
1746276160985175600,5.647175537109375,-0.14773615405261517,-0.022293080350756642,0.006793021140992641
1746276160995155500,5.657155517578125,-0.1459063082769513,-0.06680500677227974,0.015468787288665771
1746276161005136600,5.66713671875,-0.10192921938449144,-0.1029658689558506,-0.02374327915906906
1746276161015116800,5.67711669921875,-0.07934738522022962,-0.15176175630688665,-0.09646978493481874
1746276161025096700,5.6870966796875,-0.08270867834687233,-0.16362930423319338,-0.11187748968601226
1746276161035077600,5.69707763671875,-0.0769458770364523,-0.12572422873079775,-0.07783931874483824
1746276161045057500,5.7070576171875,-0.09160364020317792,-0.12418109094202517,-0.06484598165899515
1746276161055037700,5.71703759765625,-0.06384352661818266,-0.13701251546442508,-0.04346913937032223
1746276161065018600,5.7270185546875,-0.04066606464833021,-0.13546703958809375,-0.030427286967635154
1746276161074998500,5.73699853515625,-0.0043622868627309795,-0.1080763438373804,-0.04210778788924217
1746276161084978700,5.746978759765625,0.00011047463715076445,-0.09721475808322429,0.03485679384768009
1746276161094959600,5.756959716796875,-0.010336685097217559,-0.06590484306216239,0.09393968193531035
1746276161104939800,5.766939697265625,0.008752046254277229,-0.04031681281924247,0.09533347438126802
1746276161114919700,5.776919677734375,0.009210895937681197,-0.024914661026000977,0.1099415531873703
1746276161124900600,5.786900634765625,0.01234568683207035,-0.003601239362359047,0.12814765648543833
1746276161134880500,5.796880615234375,-0.009993278487026691,-0.005680383723974228,0.17703268342465162
1746276161144860400,5.8068603515625,-0.04206979396641254,-0.004619476494193077,0.19292232647389174
1746276161154841600,5.816841552734375,-0.04523118060678243,-0.01271861179769039,0.19285919810980556
1746276161164821500,5.826821533203125,-0.08274316513836383,-0.05964402910172939,0.2062719296514988
1746276161174801700,5.8368017578125,-0.09899316593259573,-0.10284136579334735,0.1832581338107586
1746276161184782600,5.846782470703125,-0.11215104593038558,-0.1474731192022562,0.15475363159924746
1746276161194762800,5.8567626953125,-0.07322656425237656,-0.1690448995411396,0.12931173182874917
1746276161204742700,5.86674267578125,-0.03458586795181036,-0.141568863594532,0.11375088234245777
1746276161214723600,5.8767236328125,0.024155951613187787,-0.09452069669365883,0.1136275482237339
1746276161224703500,5.886703369140625,0.08478431557714938,-0.039187516528367994,0.056467444892227645
1746276161234683400,5.896683349609375,0.10898790572434663,0.03034545390307903,0.0500166613176465
1746276161244664600,5.90666455078125,0.07967500973939895,0.1484668064147234,0.05028203425556421
1746276161254644700,5.916644775390625,-0.01445668763667345,0.27529811960458755,0.1378235395863652
1746276161264624600,5.926624755859375,-0.12202303612530231,0.4184562982171774,0.24705606772154567
1746276161274605600,5.93660546875,-0.2912313095346093,0.3983744641751051,0.3210805043533444
1746276161284585700,5.946585693359375,-0.3501955396786332,0.31177345456480976,0.27044074270129204
1746276161294565600,5.956565673828125,-0.3768073600113392,0.22605916466116904,0.23652502909600734
1746276161304546600,5.966546630859375,-0.33631869775652884,0.20307576395869253,0.2585913149535656
1746276161314526500,5.9765263671875,-0.3151464381292462,0.19651742835640906,0.26442367436885833
1746276161324506600,5.986506591796875,-0.20604162802696227,0.13796060996949672,0.2599398069530725
1746276161334487600,5.996487548828125,-0.0676560706436634,0.04862169982790947,0.20466390993297098
1746276161344467700,6.0064677734375,0.05349193621277809,-0.08871171815395355,0.17033260126411914
1746276161354447600,6.016447509765625,0.18150632170736788,-0.18081074065864086,0.14796762472093106
1746276161364428500,6.026428466796875,0.26521979318261146,-0.22719605973660945,0.0808235952526331
1746276161374408700,6.03640869140625,0.3063715955212712,-0.27038404407799244,-0.000493044213950634
1746276161384388600,6.046388671875,0.3020125235289335,-0.35704058326780796,-0.06216536427289247
1746276161394369500,6.05636962890625,0.2577218386426568,-0.3772095110714435,-0.13506079687476158
1746276161404349400,6.066349365234375,0.2308493215471506,-0.36662148156166074,-0.1485188288629055
1746276161414329600,6.07632958984375,0.16613631861805914,-0.3118482733666897,-0.14866349803060291
1746276161424310800,6.086310791015625,0.032387481124699115,-0.23292495877742767,-0.11905249588191509
1746276161434290700,6.096290771484375,-0.06817074216753244,-0.17799802132546902,-0.010883797585964201
1746276161444270600,6.1062705078125,-0.07088613860607147,-0.13975158503949642,0.12290683322250842
1746276161454251500,6.11625146484375,-0.052224108234047883,-0.08344459140598773,0.19271862059533595
1746276161464231700,6.126231689453125,-0.10073211855441332,0.020528993287682533,0.25147972938269375
1746276161474211600,6.136211669921875,-0.22506606197059154,0.09790157130360602,0.33540947395712134
1746276161484192500,6.146192626953125,-0.3554556521639228,0.10840718322694301,0.35509850928932424
1746276161494172700,6.156172607421875,-0.4784294131428003,0.07045651501715183,0.3869792099356651
1746276161504152600,6.166152587890625,-0.576195375367999,0.06298574074506759,0.4051163396507501
1746276161514133800,6.1761337890625,-0.5445470221728086,0.06632803691029548,0.40245501148700713
1746276161524113700,6.18611376953125,-0.5581549840256571,-0.01843815848827362,0.32657384107261894
1746276161534093600,6.196093505859375,-0.4727256485432386,-0.09141746998131274,0.14689093540012835
1746276161544074500,6.206074462890625,-0.34270050774812694,-0.12424305026233196,0.043107612581551075
1746276161554054700,6.2160546875,-0.1996630329057574,-0.1693845067590475,-0.021456921787559986
1746276161564034800,6.226034912109375,-0.016863164256513116,-0.22501579308807848,-0.12405804908424616
1746276161574015700,6.236015625,0.09147358408272266,-0.2691127089679241,-0.21932664153575895
1746276161583995600,6.24599560546875,0.12323913391679525,-0.24610592738986015,-0.2709603826612234
1746276161593975600,6.2559755859375,0.10960077692568301,-0.25729835253357886,-0.22958529296070335
1746276161603956700,6.265956787109375,0.12471008325219153,-0.3372480875611305,-0.17874445577859877
1746276161613936600,6.2759365234375,0.13184884909093378,-0.3177157040953636,-0.21685177585482596
1746276161623916500,6.28591650390625,0.12005728901028632,-0.2979939355373382,-0.17988719607293605
1746276161633897500,6.2958974609375,0.10031126279383897,-0.28838030401766296,-0.19619740262180566
1746276161643877600,6.305877685546875,0.01645692154318094,-0.24000585694909093,-0.19242694417238235
1746276161653857800,6.31585791015625,-0.058257835440337656,-0.1913303811073303,-0.15770809749066828
1746276161663838700,6.325838623046875,-0.09996668713986873,-0.11165712493360042,-0.10147504587620496
1746276161673818600,6.335818603515625,-0.10747983924895524,-0.04247837476730346,-0.00940378816127777
1746276161683798500,6.345798583984375,-0.07116495554745197,-0.013159925824403762,0.012820318606495856
1746276161693779700,6.35577978515625,-0.06815057616233826,0.019710078120231626,-0.03947480903714895
1746276161703759600,6.365759521484375,-0.07697130373865366,0.054230187359452245,-0.0370677478954196
1746276161713739500,6.375739501953125,-0.09099486065506934,0.09916881476044655,0.0015890227571129798
1746276161723720400,6.385720458984375,-0.08809475529938936,0.027573066580295562,0.01507803440541029
1746276161733700600,6.39570068359375,-0.0743117291405797,-0.035514380973577495,-0.04322860861271619
1746276161743680800,6.4056806640625,-0.04473696734905243,-0.06773965727388859,-0.04076631015241146
1746276161753661700,6.41566162109375,-0.001530278307199478,-0.06661679072380065,0.012496785740554331
1746276161763641600,6.4256416015625,0.02391980476975441,-0.035035073024034497,0.050213937455415726
1746276161773622500,6.43562255859375,0.012022738488018513,0.010592705684900283,0.10362111799418926
1746276161783602700,6.445602783203125,-0.08759060516953468,0.0006312836408615112,0.09642010057419538
1746276161793582600,6.45558251953125,-0.11375000555962324,-0.01092179150879383,0.10942921975106
1746276161803563500,6.4655634765625,-0.17271365118175744,0.0049181671798229215,0.15412088665366172
1746276161813543700,6.475543701171875,-0.23150573962926863,0.026155600997805593,0.21060762076824902
1746276161823523600,6.485523681640625,-0.1837950171664357,0.050827685439586635,0.20193039331585166
1746276161833504800,6.4955048828125,-0.14763941567987202,0.062057519984245295,0.2533048989832401
1746276161843484700,6.505484619140625,-0.09541267709732056,0.004615384840965271,0.27912732250392436
1746276161853464600,6.515464599609375,-0.015318565163016318,-0.014126140508055687,0.2015989694043994
1746276161863445500,6.525445556640625,0.009013327538967133,0.033953123006224634,0.15652824005633592
1746276161873425700,6.53542578125,0.0021457798570394516,0.07090425878465176,0.14077391382455826
1746276161883405600,6.545405517578125,-0.01749181754887104,0.07345218970179557,0.14084814810454846
1746276161893386500,6.555386474609375,-0.024926935985684393,0.1331283675074577,0.20861293981969356
1746276161903366700,6.56536669921875,-0.09255787218809128,0.1872434040546417,0.3136570763543248
1746276161913346600,6.5753466796875,-0.08222878587543964,0.10233926149010658,0.42341216705888507
1746276161923327700,6.58532763671875,-0.05107669176459312,0.051260816159844395,0.3747261698231101
1746276161933307600,6.5953076171875,-0.027453824114799498,-0.05495148737132549,0.2777498966708779
1746276161943287600,6.60528759765625,0.04024783923625946,-0.1215180092126131,0.15841887610852717
1746276161953268500,6.6152685546875,0.0363791811093688,-0.18079671213328838,0.07434504688829183
1746276161963248600,6.62524853515625,0.1134574523538351,-0.24806758285164832,0.03777618842571973
1746276161973228800,6.635228759765625,0.2169417922258377,-0.23607494724094866,-0.03547171087563038
1746276161983209700,6.645209716796875,0.22206717241555451,-0.1963625300556421,-0.04601327089518308
1746276161993189600,6.655189697265625,0.3181006117597222,-0.18253683379888533,-0.04681289684027433
1746276162003169500,6.66516943359375,0.3400733741149306,-0.15032558602392673,-0.03753770349472761
1746276162013150700,6.675150634765625,0.27818302739113565,-0.15623451780676842,-0.07427022808641195
1746276162023130600,6.685130615234375,0.2893868507117033,-0.13623743943870067,-0.0873389684960246
1746276162033110500,6.695110595703125,0.2313070021867752,-0.08218845386505126,-0.09270838657468557
1746276162043091500,6.705091552734375,0.0015180033475160597,-0.1306020639002323,-0.08238777582943439
1746276162053071600,6.715071533203125,-0.20251199259608982,-0.12409399718046188,-0.10617547865211963
1746276162063052500,6.725052490234375,-0.28584581710398194,-0.1049871456503868,-0.06007014555931091
1746276162073032700,6.73503271484375,-0.24467267971634862,-0.05867898346185684,0.005080664265155792
1746276162083012600,6.7450126953125,-0.08583762402236461,-0.008439911565184593,0.14857640426903962
1746276162092993800,6.754993896484375,0.13729659310281275,-0.009032032239437103,0.2044979057163
1746276162102973700,6.7649736328125,0.18682400959879158,-0.028602409628033638,0.14025631969124078
1746276162112953600,6.77495361328125,0.15648907708972692,-0.07715104421973228,0.20454495972841977
1746276162122934500,6.7849345703125,0.08586538881212473,-0.06317512583732604,0.1359542385831475
1746276162132914400,6.79491455078125,0.06529430994838475,-0.08337269521355628,0.017830255722999573
1746276162142894600,6.80489453125,0.0075695584714412685,-0.18542320289015768,0.001442307762801647
1746276162152875800,6.814875732421875,0.04572276351600885,-0.2032300777375698,-0.05184504578858613
1746276162162855700,6.824855712890625,0.016710019521415233,-0.1480301685631275,-0.13236293609291314
1746276162172835600,6.834835693359375,-0.06932254255115985,-0.1555371831923723,-0.15242606543451548
1746276162182816500,6.84481640625,-0.17708879752606152,-0.12859890738427637,-0.16502864963710306
1746276162192796700,6.854796630859375,-0.229574771566689,-0.09289397227466106,-0.1522419410392642
1746276162202776600,6.864776611328125,-0.21523118891566992,-0.07908698071837425,-0.174760354578495
1746276162212757500,6.874757568359375,-0.19408231016397476,-0.08564356275498866,-0.15224895530194044
1746276162222737700,6.884737548828125,-0.10358341633230447,-0.050911272069811817,-0.12068828039020299
1746276162232717600,6.894717529296875,0.019353519767522812,-0.010453589475154876,-0.013204349488019943
1746276162242698800,6.90469873046875,0.09234101456701754,0.010758709901571272,0.06139496442228555
1746276162252678700,6.9146787109375,0.1538385625809431,0.04789221650958061,0.14017360984385013
1746276162262659600,6.92465966796875,0.11668255188018083,0.02686637961566448,0.18399492365270853
1746276162272639500,6.934639404296875,0.11061024622917175,0.0003226560831069946,0.23426409842669962
1746276162282619600,6.94461962890625,0.07475421221107244,-0.0011386486411094664,0.21694763744473455
1746276162292600600,6.9546005859375,-0.013397241711616515,0.0054430678367614746,0.20930296791046857
1746276162302580500,6.96458056640625,-0.08604132990092038,-0.03527414247691631,0.1987529323235154
1746276162312560600,6.974560546875,-0.08160977719426155,-0.013595394632220268,0.13126783433258532
1746276162322544600,6.984544677734375,-0.04992576816380024,0.04543897813856602,0.15802315478920936
1746276162332524500,6.994524658203125,0.007217091771960258,-0.04227379210591316,0.1966235190793872
1746276162342504700,7.004504638671875,0.06134381875693798,-0.10365092861056327,0.08430822249799966
1746276162352485600,7.014485595703125,0.1265212243273854,-0.12247019537091254,0.027950959981977937
1746276162362465500,7.024465576171875,0.17780922075510025,-0.1773059474080801,0.04282441172599792
1746276162372445700,7.03444580078125,0.1781295387506485,-0.1716156268119812,0.008534604111313819
1746276162382426600,7.044426513671875,0.09529664950221776,-0.1607528720140457,0.023775720123946666
1746276162392406800,7.05440673828125,0.008615852653980254,-0.07669920879900455,0.10347177265137433
1746276162402386700,7.06438671875,-0.05070961201786995,-0.0031359599381685253,0.1130868654757738
1746276162412367600,7.07436767578125,-0.09511018701940774,0.14190145654976366,0.2763876684069633
1746276162422347500,7.084347412109375,-0.19160130700320005,0.2769704367309809,0.4582017408892512
1746276162432327400,7.094327392578125,-0.29856589020639657,0.24994389811754225,0.5148004109457135
1746276162442308600,7.10430859375,-0.29249270777255293,0.17622633547782898,0.4510948314934969
1746276162452288500,7.11428857421875,-0.21231442468613385,0.09028291299343108,0.3515905011683702
1746276162462269400,7.12426953125,-0.06428805551528931,-0.05410919132828712,0.2754796136513352
1746276162472249600,7.13424951171875,0.1325131582185626,-0.1892255177825689,0.11327888091653585
1746276162482229800,7.144229736328125,0.27238720059394833,-0.27227438786923885,-0.09286883783340454
1746276162492210700,7.154210693359375,0.3037783641576767,-0.33852935954332347,-0.2694146145239472
1746276162502190600,7.164190673828125,0.24099165311604737,-0.39851942560374737,-0.3694847620382905
1746276162512170500,7.17417041015625,0.14014204566180705,-0.3233598474621773,-0.38683483302891253
1746276162522151700,7.184151611328125,0.00940904885828495,-0.24211130479574203,-0.30319062739759683
1746276162532131600,7.194131591796875,-0.11350596767067908,-0.15831892286539076,-0.17375731501579283
1746276162542111700,7.20411181640625,-0.15071926151663065,-0.0714075321316719,-0.04924216981381178
1746276162552092700,7.2140927734375,-0.18859569544643162,-0.011613865426182746,-0.04160129967182875
1746276162562072600,7.224072509765625,-0.2219455918624997,0.03090542587339878,0.0018850830942392348
1746276162572052700,7.234052734375,-0.2075850580766797,0.03745265555977821,0.07472469385564327
1746276162582033700,7.24403369140625,-0.20602409237027167,0.013252864804863929,0.09223375480026007
1746276162592013600,7.254013671875,-0.1841682343930006,-0.011761164942383766,0.04891805242598057
1746276162601993500,7.263993408203125,-0.1233475627273321,-0.02146364378929138,0.06278700330257415
1746276162611974700,7.273974609375,-0.1213432371675968,0.01723988861441612,0.11063333484381437
1746276162621954600,7.28395458984375,-0.07855681936442852,0.0031850597769021985,0.11675853972584009
1746276162631935500,7.293935546875,-0.04795972878783941,-0.023833295530080793,0.12480682162493467
1746276162641915600,7.30391552734375,-0.0999313235655427,-0.038972996994853015,0.05156184493303299
1746276162651895600,7.3138955078125,-0.2082993438258767,-0.008580196818709373,-0.010990765091776848
1746276162661876700,7.323876708984375,-0.30813392901867626,0.007874678897857666,-0.020573709212243555
1746276162671856600,7.333856689453125,-0.33215368703156706,-0.07940788323581219,-0.1224549978017807
1746276162681836500,7.34383642578125,-0.31453561275452374,-0.12798165226876734,-0.196045719191432
1746276162691817500,7.3538173828125,-0.22046382887214422,-0.1518821678161621,-0.19666443561166524
1746276162701797600,7.363797607421875,-0.10848667820394038,-0.13417875334322452,-0.19544921460300682
1746276162711777800,7.37377783203125,-0.0346752998009324,-0.12477496518194675,-0.16113865646123884
1746276162721758700,7.3837587890625,-0.02917553334087133,-0.13026070311665533,-0.06017389819473028
1746276162731738600,7.393738525390625,-0.08930909952521324,0.03159749979078769,-0.0037687048837542533
1746276162741718500,7.403718505859375,-0.21500731703191994,0.24879531260430812,0.24761867004036903
1746276162751699700,7.41369970703125,-0.3476993389487266,0.3453127360731363,0.485464718607068
1746276162761679600,7.4236796875,-0.3890098389804363,0.3371563176244497,0.46625440670251844
1746276162771659500,7.433659423828125,-0.29622429551631213,0.24008301383852956,0.5029074363172054
1746276162781640400,7.443640380859375,-0.16889321611076594,0.12404022116661072,0.3682879534691572
1746276162791620600,7.45362060546875,-0.030890812826156615,-0.07966098121404647,0.20323270808607338
1746276162801601500,7.4636015625,0.07575608272999525,-0.2143102746784687,-0.0018286767318844795
1746276162811581700,7.473581787109375,0.09097790952026844,-0.3018634704470634,-0.250893746188283
1746276162821561600,7.4835615234375,-0.02254763963371515,-0.39906069287359713,-0.36744565742611884
1746276162831542800,7.493542724609375,-0.09647446110993624,-0.34663550910949703,-0.35630233212113377
1746276162841522700,7.503522705078125,-0.1286848321020603,-0.22235388040244577,-0.22580694346576927
1746276162851502600,7.513502685546875,-0.1804714257016778,-0.13350246151685713,-0.018946984793245792
1746276162861483500,7.5234833984375,-0.21524258709251878,-0.10055003998577594,0.09351122739017009
1746276162871463400,7.53346337890625,-0.13004150740802287,-0.05621113204360008,0.16726006195098161
1746276162881443800,7.54344384765625,0.03098550537228584,-0.039080549022555346,0.18416063560843465
1746276162891424800,7.5534248046875,0.19789397740662096,-0.09252864609360695,0.2407157587841153
1746276162901404700,7.56340478515625,0.458494878616929,-0.17848785066902637,0.19223375968784093
1746276162911384600,7.573384521484375,0.6604825550779699,-0.24214871419668196,0.13016542604863643
1746276162921365800,7.58336572265625,0.5916282145604491,-0.3312877178519964,-0.08200520625263452
1746276162931345700,7.593345703125,0.32820465714484454,-0.3447060023516416,-0.15488193415403365
1746276162941325600,7.60332568359375,0.001799158376455307,-0.14261165064573286,-0.11729688438624143
1746276162951306500,7.613306396484375,-0.41406800013035533,0.12037760700583457,0.06443477050960064
1746276162961286700,7.62328662109375,-0.6786164699226618,0.3102589583486318,0.40176381435245273
1746276162971267600,7.633267578125,-0.7000920964106917,0.3814952255666256,0.5261857283130288
1746276162981247700,7.643247802734375,-0.46688159869015217,0.3199298730134964,0.4678603805944323
1746276162991227600,7.6532275390625,-0.12656477120816706,0.17171733362078664,0.4124164335310459
1746276163001208600,7.66320849609375,0.11819646357446909,0.03178162418603897,0.21784546306729316
1746276163011188500,7.6731884765625,0.14270546640902756,-0.1857096186161041,-0.01270253744572401
1746276163021168600,7.683168701171875,0.133390817835927,-0.32513328687548637,-0.25348200911581514
1746276163031149600,7.693149658203125,0.03244885592311621,-0.25329554663300513,-0.23997487728893754
1746276163041129500,7.70312939453125,0.028816052378714083,-0.2706856573730707,-0.26042466786056756
1746276163051109600,7.713109619140625,0.12034838091135025,-0.23365794922709462,-0.1966223500356078
1746276163061090800,7.7230908203125,0.2930114709496498,-0.17809271387159822,-0.0674231386706233
1746276163071070700,7.73307080078125,0.48244800113439557,-0.17756079895198343,-0.03412701826840639
1746276163081050600,7.743050537109375,0.5493541301935911,-0.19575053563714026,-0.029981881287693975
1746276163091031600,7.753031494140625,0.45103550252169367,-0.09568331073224544,0.02839344305247068
1746276163101011500,7.763011474609375,0.18622370561808346,-0.02782791812419891,0.1771285450145602
1746276163110991600,7.77299169921875,-0.07737842323482036,0.049620063215494156,0.2674897839412093
1746276163120972500,7.78297265625,-0.351658013446629,0.13390636614263057,0.34203824444711206
1746276163130952700,7.79295263671875,-0.5307067128688097,0.174133747112751,0.3620844226539135
1746276163140933600,7.80293359375,-0.48999856264442204,0.21150749221742152,0.351217868463695
1746276163150913800,7.812913818359375,-0.3071735595539212,0.1577162807971239,0.24748072287440298
1746276163160893700,7.822893798828125,-0.0608417144536972,-0.04603694403171539,0.09130494951754808
1746276163170874600,7.83287451171875,0.29804245085418224,-0.17874737838804722,0.0022138766571879387
1746276163180854500,7.8428544921875,0.6703413935303688,-0.1682686544716358,-0.01325023445636034
1746276163190834400,7.85283447265625,0.5336474424958229,-0.19530805256664752,-0.0962885831490159
1746276163200815600,7.862815673828125,0.1434624222561717,-0.2021756002485752,-0.2505781043678522
1746276163210795500,7.87279541015625,-0.22381460060477257,-0.14517185652256012,-0.22772855917811394
1746276163220775700,7.882775634765625,-0.4393538325563073,-0.1148994678556919,-0.24070406834632158
1746276163230756600,7.892756591796875,-0.4078142004325986,-0.04480477188825607,-0.1825257278829813
1746276163240736800,7.90273681640625,-0.2098696618825197,-0.07971475722789764,-0.11415215661972761
1746276163250716700,7.912716552734375,-0.19164660744965076,-0.04121814557313919,-0.32471681502908467
1746276163260697600,7.922697509765625,-0.3555193650498986,-0.1024123267263174,-0.522427252562344
1746276163270677500,7.932677490234375,-0.5677817672878503,-0.1372469087421894,-0.7732613775178789
1746276163280657400,7.942657470703125,-0.7835650371283293,-0.04959902042746544,-0.9052072572425007
1746276163290638600,7.952638671875,-1.0462406987860797,0.04320551999807357,-0.7689090275272726
1746276163300618800,7.96261865234375,-1.210381459672749,0.3067325377881527,-0.37077889350205656
1746276163310599700,7.972599609375,-1.2541881604343652,0.5247141944557429,0.08396510814875364
1746276163320579600,7.98257958984375,-1.1581322169974446,0.49966801600456234,0.5858233276739716
1746276163330556200,7.99255615234375,-0.8243634959846734,0.3851192612826824,0.872968244677782
1746276163340537000,8.002537109375,-0.3819450151607394,0.18006196811795233,0.9242799142420292
1746276163350517000,8.01251708984375,-0.03714958095997572,-0.1148994678556919,0.5651625247001648
1746276163360497200,8.0224970703125,0.3096989863783121,-0.5497036742836237,0.040674540215730665
1746276163370478000,8.03247802734375,0.5805430491834879,-0.843092746374011,-0.5132090501010418
1746276163380458200,8.042458251953125,0.7609273811236024,-0.8323995029240846,-0.8287132156267761
1746276163390438100,8.052438232421874,0.6190890529379248,-0.7669131775349378,-0.8542094759330153
1746276163400419300,8.06241943359375,0.3719391694530845,-0.6606833383470774,-0.7214706922650337
1746276163410399200,8.072399169921875,0.2691802212461829,-0.3700099549561739,-0.37865415692180393
1746276163420379100,8.082379150390626,0.2636003752872348,-0.0305254866451025,0.05700199016034603
1746276163430360000,8.092360107421875,0.2629626619055867,0.07045885310471058,0.5902937510862947
1746276163440340000,8.102340087890624,0.27678894268423315,0.12383914563655853,0.8139078606829047
1746276163450321200,8.112321044921876,0.194535022367537,0.42100072200298305,1.0364245304316282
1746276163460301000,8.122301025390625,-0.0005097030878067016,0.4857102178007364,1.3436425136491656
1746276163470281200,8.13228125,-0.3134513246491551,0.3744792093247175,1.2458274515852332
1746276163480262100,8.14226220703125,-0.666068246255815,0.39959494588077066,0.9988073319599032
1746276163490242300,8.1522421875,-0.7306830495074391,0.4710089077532291,0.8488304132431745
1746276163500222200,8.16222216796875,-0.6452759258568287,0.404085243037343,0.7008347314715385
1746276163510203100,8.172203125,-0.5454077306553721,0.39234044470787044,0.22752748364806175
1746276163520183000,8.18218310546875,-0.35641485258489847,0.09876257204711436,0.17705168038606642
1746276163530163000,8.192162841796875,0.12245149067044257,-0.14418050739765167,0.011380348931252955
1746276163540144000,8.20214404296875,0.648249973231554,-0.4008575131624937,-0.21643296592086553
1746276163550124300,8.212124267578124,0.8931669830977916,-0.363538128593564,-0.300564370547235
1746276163560104200,8.222104248046875,0.8320669099688529,-0.3400280736684799,-0.014018880741298197
1746276163570085000,8.232085205078125,0.7957198775634169,-0.2714624869644642,0.06794336315244436
1746276163580065000,8.24206494140625,0.828681651444733,-0.27364684526622296,0.20584844354242085
1746276163590046200,8.252046142578125,0.6674284286931157,-0.1279839903563261,0.28853111066520215
1746276163600026000,8.262026123046875,0.3933867388904094,-0.17864625610113144,0.4550789326936006
1746276163610006000,8.272006103515626,0.4826879473701119,-0.07205518238544463,0.5865434586420655
1746276163619987000,8.281987060546875,0.5438783291310072,-0.09798048175871371,0.544878446084261
1746276163629967000,8.291967041015624,0.2016787566423416,0.20793372538387775,0.5535618110164999
1746276163639947300,8.301947265625,-0.40700522213727236,0.38029929378032684,0.6821402601346374
1746276163649928200,8.31192822265625,-0.621973960724473,0.11800678622126579,0.29885668984651564
1746276163659908000,8.321908203125,-0.3085898560926318,-0.11661387055814265,-0.0975362451225519
1746276163669888000,8.331887939453125,0.15334610288888215,-0.30968846498429775,-0.29275369679629804
1746276163679869200,8.341869140625,0.6673465956285596,-0.4260527446955442,-0.2486690558761358
1746276163689849000,8.35184912109375,1.1189525915145873,-0.4147907614469528,-0.3035717356696725
1746276163699829000,8.3618291015625,1.287264792867005,-0.4472995308637619,-0.41435090872496366
1746276163709810000,8.371809814453124,1.1931813185468316,-0.5642851573437452,-0.6041466276109219
1746276163719790300,8.381790283203125,0.8516276427462697,-0.3877273979544639,-0.667202218721807
1746276163729771300,8.391771240234375,0.22355536514669655,-0.16020868213474748,-0.6106780752062797
1746276163739751200,8.401751220703124,-0.555866873088479,0.23855624266266823,-0.24187048177719114
1746276163749731000,8.41173095703125,-1.162928219102323,0.3855067992955446,0.030296061803400515
1746276163759712300,8.421712158203125,-1.4267656180158257,0.3340764717876911,-0.08312602697610855
1746276163769692200,8.431692138671876,-1.1871402848169206,0.2546925539493561,-0.15671791740953922
1746276163779672000,8.441672119140625,-0.784039084380865,0.15563187573850154,-0.17914865266531704
1746276163789653000,8.451653076171874,-0.225065185187757,-0.04195990385115146,-0.0977218308225274
1746276163799633200,8.461633056640625,0.44267479367256163,0.0016600421667098998,-0.05287263527065515
1746276163809613300,8.47161328125,0.5496466833993792,0.01843114422559738,0.15394026938974856
1746276163819594200,8.48159423828125,0.18706483261734247,0.03507072885930538,0.16761954291313885
1746276163829574100,8.49157421875,-0.26501900991350413,0.14792963079810142,0.2312260459050536
1746276163839554000,8.501553955078125,-0.7222168344572186,0.3414338488131761,0.3489040385633707
1746276163849535200,8.51153515625,-0.9979296723425388,0.3652385027706623,0.3088157738029957
1746276163859515100,8.52151513671875,-0.9147399324804544,0.21780630010068416,0.2786144045457244
1746276163869496000,8.53149609375,-0.45439942599683997,0.0878203222721815,0.10028232896029948
1746276163879476000,8.54147607421875,0.05116992300599813,-0.10433891087472438,0.11182342141121625
1746276163889456000,8.5514560546875,0.6785214851155876,-0.28312545222938057,0.2441843116775155
1746276163899437300,8.561437255859374,0.8669920928776264,-0.35739012735784054,0.20473872873485088
1746276163909417200,8.571417236328125,0.7453261996269226,-0.2336772384494543,0.1967398389354348
1746276163919397000,8.581397216796875,0.5444184273570776,-0.19830489629507064,0.26734920642673965
1746276163929378000,8.5913779296875,0.4617541726738214,-0.08748188409805298,0.2637821615949273
1746276163939358200,8.601358154296875,0.35688948435932394,-0.03007540479004383,0.3554991990447044
1746276163949338000,8.611338134765624,0.17050532748252153,0.018752046743035315,0.303514744785428
1746276163959319000,8.621319091796876,0.0771174342110753,-0.012199556359648703,0.21807342660427093
1746276163969299200,8.63129931640625,0.07814063977897166,-0.10862053371667861,0.1450482301428914
1746276163979279000,8.641279052734374,0.2113292130410671,-0.09539689500629901,0.1329217390194535
1746276163989260300,8.65126025390625,0.33546208092719315,-0.12305062560737132,0.18348346699923276
1746276163999240200,8.661240234375,0.33787615633159873,-0.03368775006830692,0.07089812130481005
1746276164009221000,8.67122119140625,0.2620397018417716,-0.04045592902898788,-0.05009323368519544
1746276164019201000,8.681200927734375,0.2079024534627795,-0.05069967514574528,-0.1251797465905547
1746276164029181200,8.69118115234375,0.1842135348394513,0.05718436098992824,-0.09250058904290198
1746276164039162000,8.701162109375,0.040351884132623674,0.0007476034969091414,-0.02805032870322466
1746276164049142000,8.71114208984375,-0.09981032753437757,-0.0024175825357437134,-0.007735270427167415
1746276164059122200,8.7211220703125,-0.14031827901154756,0.006237433084845543,-0.0001765256106853485
1746276164069103400,8.731103271484375,-0.15656243458688257,-0.056278352060914034,-0.07888561292737722
1746276164079083300,8.741083251953125,-0.147193717738986,-0.15184475841522216,-0.16881576696038245
1746276164089063200,8.751063232421876,-0.15419278284609317,-0.19530805256664752,-0.23745529568344353
1746276164099044000,8.761044189453125,-0.05393500380516052,-0.11596154412925243,-0.1974710758194327
1746276164109024000,8.77102392578125,0.013739771538972854,-0.03521393672227859,-0.19300562084317205
1746276164119005200,8.781005126953126,-0.09428601115494965,-0.12050035660266875,-0.17531594263464212
1746276164128985000,8.790985107421875,-0.12656477120816706,-0.1408370421886444,-0.2582844409614801
1746276164138965200,8.80096533203125,-0.1543611251503229,-0.18289748380482196,-0.1786892184600234
1746276164148946000,8.81094580078125,-0.12265198167860507,-0.1373474465072155,-0.09544657936692237
1746276164158926000,8.820926025390625,-0.09720628251582383,-0.06823474731445311,0.016746259878575802
1746276164168906200,8.83090625,-0.14655074366033077,-0.0741308196157217,0.09478139345645904
1746276164178887200,8.84088720703125,-0.22444296163618563,-0.043725159958004946,0.0785991972014308
1746276164188867000,8.8508671875,-0.347127968801558,-0.01819558190405369,0.10348784700334071
1746276164198847000,8.860846923828126,-0.4579816683977842,-0.019732874473929404,0.07556640537679195
1746276164208828200,8.870828125,-0.42962066631019113,-0.07337152568101883,0.07202595629096031
1746276164218808000,8.88080810546875,-0.24510025747865438,-0.09677636666595935,0.09565116202831268
1746276164228789000,8.8907890625,-0.05926993509232997,-0.11367664806246756,0.1305418581455946
1746276164238769200,8.90076904296875,0.12536299420297145,-0.1720376516163349,0.14229308621585368
1746276164248749000,8.9107490234375,0.24788462750017642,-0.21133914991319178,0.18920768986493347
1746276164258730200,8.920730224609375,0.34696693302094933,-0.21749825706481932,0.2054363556101918
1746276164268710100,8.930710205078125,0.40291503021419045,-0.1426835468381643,0.25147622225135563
1746276164278690000,8.94068994140625,0.25236586456745863,-0.1606307069391012,0.2867787140399217
1746276164288671000,8.9506708984375,-0.04965016609281301,-0.11951543721854686,0.12453414216339588
1746276164298651100,8.960651123046874,-0.3755865860447287,-0.14705167891979218,-0.023242343899607658
1746276164308631300,8.97063134765625,-0.48623570297956464,-0.11396481735408305,-0.09105418962687253
1746276164318612200,8.9806123046875,-0.3637783670902252,0.030817163068056104,-0.05685673647075891
1746276164328593000,8.990593017578124,-0.15799597452133893,0.06618132191598415,0.09908464360833168
1746276164338573800,9.00057373046875,-0.006927168914675712,-0.0015957447588443754,0.1292255148500204
1746276164348554000,9.010553955078125,0.06100421153903007,-0.07091244209110736,0.03340980990976095
1746276164358534100,9.0205341796875,0.17244389432966709,-0.07610650360286235,-0.030970892325043676
1746276164368515000,9.03051513671875,0.12331278367489576,-0.10683481934368609,0.011819617131352425
1746276164378495000,9.040494873046875,-0.03370236311554908,-0.022333996883034706,0.010878536888957024
1746276164388475000,9.050474853515626,-0.3282423588067293,0.08932955779135227,0.11173135921359062
1746276164398456000,9.0604560546875,-0.5744451706998049,0.22773031274378297,0.2674763399377465
1746276164408436000,9.07043603515625,-0.6298515622317791,0.29197745172679423,0.3961860142201185
1746276164418416000,9.080416015625,-0.5174443495832384,0.32796120377779003,0.36822950128018855
1746276164428397000,9.09039697265625,-0.3818257726952433,0.22731413315832613,0.3058551704317331
1746276164438377000,9.100376953125,-0.16186171003878116,0.10908405957520008,0.1934945734038949
1746276164448358100,9.110358154296875,0.091948508118093,0.03763736447691917,0.10810410862714051
1746276164458338000,9.120338134765625,0.2717427652105689,-0.13126783433258532,-0.001513327172398567
1746276164468318000,9.13031787109375,0.4333800188437104,-0.2424263620942831,-0.13545359558463096
1746276164478299000,9.140298828125,0.3950850672408938,-0.22762626784741877,-0.17393617871403694
1746276164488279000,9.150279052734374,0.23620120396912098,-0.24815058495998382,-0.130500064830482
1746276164498259000,9.160259033203126,0.11200140832662582,-0.2357160508006811,-0.0870385242447257
1746276164508240000,9.170239990234375,0.020898411121964455,-0.1932733318686485,-0.04576660265773534
1746276164518220000,9.180219970703124,-0.08844751425981522,-0.14634733004271983,-0.05175181454718113
1746276164528200000,9.190199951171875,-0.1460521464884281,-0.054034957048296924,-0.03771159875690937
1746276164538181000,9.20018115234375,-0.1366279000610113,0.0005137947410345078,0.0610968582585454
1746276164548161000,9.2101611328125,-0.12856851224601268,-0.037434535381197925,0.0683446374297142
1746276164558142000,9.220141845703125,-0.07738982141166925,-0.12398293802142142,-0.05450578943043947
1746276164568121900,9.230121826171874,0.02215221057534218,-0.16716040096879003,-0.15892448754310606
1746276164578102000,9.24010205078125,0.09795826992690562,-0.11730945160686969,-0.11942220597714186
1746276164588083000,9.2500830078125,0.13685352551043034,-0.12097381933331489,0.006776654528081416
1746276164598063000,9.26006298828125,0.11223375577777624,-0.11769991222918033,0.07280366266518831
1746276164608043000,9.27004296875,0.0595367693349719,-0.07148819615244865,0.011828092698752879
1746276164618024200,9.280024169921875,-0.008738017728924751,-0.06834346838593483,0.06874065100997687
1746276164628004000,9.290004150390626,0.005060205999016762,-0.03596037117540836,0.15417641623318196
1746276164637985000,9.299985107421875,0.08866963257789612,-0.04456920956671238,0.12580460049062966
1746276164647965000,9.30996484375,0.08999941987693309,-0.09852467163801193,0.15376783543229103
1746276164657944800,9.31994482421875,0.12877075681984423,-0.0957850175410509,0.1542456820771098
1746276164667926000,9.329926025390625,0.1598966935761273,-0.0837993961930275,0.17337240735143422
1746276164677906000,9.339906005859374,0.15591419981122015,-0.048726329246163366,0.19505086293518542
1746276164687886000,9.349885986328125,0.058366848772764206,-0.09662965167164803,0.25536679994910955
1746276164697867000,9.359866943359375,0.02896656676530838,-0.024119126734137533,0.34648031854778527
1746276164707847000,9.369846923828124,0.10272036976218223,0.02977963671386242,0.35081513288170096
1746276164717827000,9.3798271484375,0.08127616132572293,0.07114215919375419,0.25985534354001283
1746276164727808000,9.38980810546875,-0.02101706906557083,0.0008475567400455475,0.21869155850261449
1746276164737788000,9.399787841796876,-0.058643181496113535,-0.08956395106911659,0.18056027302891015
1746276164747769000,9.40976904296875,-0.041054771704971786,-0.10672259114086627,0.09462883324325085
1746276164757749000,9.4197490234375,-0.056875733432173725,-0.08536533033549785,0.043184184949100014
1746276164767729200,9.429729248046876,-0.16414645997509358,-0.0833680190384388,0.08533201258778572
1746276164777710000,9.4397099609375,-0.2920259670436382,-0.12045534841716289,0.08586042037606238
1746276164787690000,9.44968994140625,-0.38317689504325386,-0.15947861429452895,-0.01429506733417511
1746276164797670000,9.459669921875,-0.4623451243042946,-0.21110651020109653,-0.11423252837955951
1746276164807651000,9.469651123046875,-0.5761942063242197,-0.2857218984633684,-0.19327800804376602
1746276164817631000,9.479630859375,-0.6253166952811181,-0.3741051153153181,-0.25425913096815345
1746276164827612000,9.48961181640625,-0.4867345924124121,-0.3865063317269087,-0.2530488783955574
1746276164837591800,9.499591796875,-0.2727588103853166,-0.2987006225019693,-0.39718466986864803
1746276164847572000,9.509572021484376,-0.07394055774062872,-0.17268530187010764,-0.40755642627924676
1746276164857553000,9.519552978515625,0.07123802078366279,-0.040327334213256835,-0.24848347017616032
1746276164867533000,9.529532958984374,0.129113432777673,0.05180266795158386,-0.03423223220854998
1746276164877513000,9.539512939453125,0.0018514730855822563,0.1707353368461132,0.10028232896029948
1746276164887494100,9.549494140625,-0.2782023166134953,0.19826865593791007,0.12583645693361759
1746276164897474000,9.55947412109375,-0.5275706068001688,0.29014205299317836,0.14671587109416723
1746276164907454000,9.569453857421875,-0.6540209578484296,0.29272622426748274,0.14160919560492038
1746276164917435000,9.579434814453125,-0.6068089786879718,0.2226093164682388,0.10273936672359704
1746276164927414800,9.589414794921876,-0.4989741885215044,0.19606734650135038,0.08915478574633598
1746276164937396000,9.59939599609375,-0.32740400828644634,0.13035305757522583,0.07804097879678011
1746276164947376000,9.609376220703124,-0.0961184872791171,0.03463116839826107,0.17598960411250592
1746276164957356000,9.61935595703125,0.15599661739766596,-0.08481295714974403,0.24275661696195602
1746276164967337000,9.6293369140625,0.3639205520398915,-0.14625497558414935,0.18197072434872388
1746276164977317000,9.639317138671874,0.4063993651986122,-0.18070143506526945,0.1655737162992358
1746276164987297000,9.649297119140625,0.4087622949376702,-0.24385318002700804,0.19123598082214593
1746276164997278000,9.65927783203125,0.4184019376814365,-0.2705336816817522,0.05618950473368167
1746276165007257900,9.6692578125,0.5334067656077445,-0.37656829055845736,-0.30247049642950297
1746276165017239000,9.679239013671875,1.400282100237906,-0.8196931660860777,-1.2743489049315453
1746276165027219000,9.689218994140624,0.7772638911575078,-0.5209831912338734,-0.45925972550958394
1746276165037199000,9.69919921875,-0.6184533853828906,0.056870472735166544,0.8778361429750919
1746276165047180000,9.709179931640625,-1.382525202012062,0.21901626041233538,0.9834057646885513
1746276165057160000,9.719159912109374,0.12479630023092031,-0.04860124156177044,-0.033227146819233895
1746276165067140000,9.72914013671875,0.1999351278454065,-0.20468670628666877,-0.13263035485744476
1746276165077121000,9.73912109375,-0.2823993299119174,-0.03720131114721298,0.4128773290410638
1746276165087101000,9.749100830078126,-0.18039631463885306,0.09949965415000915,0.4378834677428007
1746276165097081900,9.759081787109375,-0.0236139536909759,0.012447978162765503,0.32729747917205093
1746276165107062000,9.76906201171875,-0.054448798546195026,-0.07826631198525429,0.37250557116419075
1746276165117042200,9.779042236328126,0.003980155677348375,-0.04236673108637333,0.42730040666908026
1746276165127023000,9.789023193359375,0.0563679300405085,-0.05738134486675262,0.4475704567596316
1746276165137003000,9.7990029296875,0.15054258977547286,-0.09618073886036872,0.4739414540737867
1746276165146983000,9.80898291015625,0.23061317470371723,-0.13462415902316568,0.40849370712935923
1746276165156964000,9.818964111328125,0.18968860524967313,-0.12447042927742004,0.3523255374446511
1746276165166944000,9.828944091796876,0.14852058242857455,-0.0487900421321392,0.40138036799281834
1746276165176925000,9.838925048828125,0.21244082754477858,-0.00791325734257698,0.46701954585611816
1746276165186904800,9.84890478515625,0.30423735997155305,0.06260287890732288,0.5173267145529389
1746276165196885000,9.858885009765626,0.4171278260923922,0.13411679402291773,0.536237751249969
1746276165206866000,9.868865966796875,0.4767395603597164,0.2640776374101639,0.6013567046314477
1746276165216846000,9.87884619140625,0.5090076528884471,0.3120283061087131,0.6756444683745503
1746276165226826000,9.888825927734375,0.49231947987265884,0.2625134568333626,0.5760460300251842
1746276165236807200,9.89880712890625,0.2786088515877724,0.15611410629749298,0.3537739826872945
1746276165246787000,9.908787109375,-0.013512538654357194,0.06143266608417034,0.1280520871564746
1746276165256768000,9.91876806640625,-0.12703998750448225,0.14395020577311515,-0.03614917174577713
1746276165266748000,9.928747802734375,-0.14510755911469458,0.20507132169008255,-0.14420388827323913
1746276165276727800,9.938727783203126,-0.18206863176524637,0.08802432041168212,-0.0883759103283286
1746276165286709000,9.948708984375,-0.24829613091051578,0.1314601420342922,-0.17621289147436617
1746276165296689200,9.958689208984374,-0.29032376623563466,0.18247896613180636,-0.27540274902284145
1746276165306669000,9.9686689453125,-0.35784612749703226,0.08214227663576602,-0.3363084686234593
1746276165316650000,9.97864990234375,-0.4215431583166122,-0.04252864364981651,-0.4252168783932924
1746276165326628900,9.98862890625,-0.4214829525619745,-0.14373743980526923,-0.42253158483207226
1746276165336610000,9.998610107421875,-0.3274901521999389,-0.18580840281546115,-0.42371611844152207
1746276165346590000,10.00858984375,-0.2832406761068851,-0.2435673488229513,-0.48335927076041696
1746276165356570000,10.018570068359375,-0.17712942179739474,-0.22681144433319567,-0.49751200701445336
1746276165366551000,10.028551025390625,-0.009810103939846158,-0.16167057138085364,-0.5127119142338633
1746276165376531000,10.038531005859374,0.08510938281305133,-0.1821504648298025,-0.5014057995826006
1746276165386511000,10.048510986328125,0.16737733165509996,-0.22923545660972594,-0.4890478377908468
1746276165396492000,10.058491943359375,0.2438345483917743,-0.2911737341284752,-0.5050950094893575
1746276165406472000,10.068471923828126,0.278529356610775,-0.2402683072775602,-0.5653998405873775
1746276165416452900,10.078452880859375,0.25396358208768066,-0.23892332240939138,-0.5970978781431913
1746276165426433000,10.08843310546875,0.1518687238126993,-0.283234757822752,-0.6145677761211991
1746276165436413000,10.098412841796875,0.09892861279640346,-0.22868600603342054,-0.5700234087347984
1746276165446393900,10.108393798828125,0.10775536825470626,-0.19459961203634737,-0.5225736752957105
1746276165456374000,10.1183740234375,0.13163959025442598,-0.1841939533561468,-0.46050884878784415
1746276165466354000,10.12835400390625,0.12878244725763796,-0.16411387287974358,-0.3576730359524488
1746276165476335000,10.138335205078125,0.10986023157946764,-0.14093465734422206,-0.2375266073539853
1746276165486315000,10.14831494140625,0.04038753996789455,-0.14320903201699256,-0.1882216014370322
1746276165496296000,10.1582958984375,-0.060822973220609124,-0.16031915677189826,-0.13637655564844609
1746276165506275800,10.16827587890625,-0.11312778200805186,-0.11009469792246818,-0.08104600583165883
1746276165516256000,10.178256103515626,-0.13757482552230357,-0.10781623159646987,-0.034277240394055844
1746276165526237000,10.18823681640625,-0.1440782160669565,-0.12526830165684222,-0.009962591087818145
1746276165536217000,10.198217041015624,-0.15697861417233944,-0.0944388636291027,-0.007586217345297336
1746276165546197000,10.208197021484375,-0.15900281347632408,-0.04797580313980579,0.042397710746526714
1746276165556178200,10.21817822265625,-0.14648699424173683,-0.051986207824945445,0.08456073595434427
1746276165566158000,10.228157958984376,-0.14061664090361445,-0.0900081877052784,0.08645634044259787
1746276165576139000,10.238138916015625,-0.20383038171827791,-0.04433247820138931,0.07197130349427461
1746276165586119000,10.248118896484375,-0.26657529944479463,0.008645078748464584,0.1451961141809821
1746276165596098800,10.258098876953126,-0.347788186275959,0.0020820669710636137,0.20466507897675038
1746276165606080000,10.268080078125,-0.4347422105750069,-0.014418401452898978,0.18941490287482737
1746276165616060000,10.278059814453124,-0.5648883839339017,0.03522971881330013,0.16217559829354286
1746276165626040000,10.2880400390625,-0.601542582592368,0.11741641911268233,0.2033697784692049
1746276165636021000,10.29802099609375,-0.5872141975104809,0.15125380678474903,0.31242870360314845
1746276165646001200,10.308001220703124,-0.5508347241401672,0.17561726366877556,0.39848727689981456
1746276165655982000,10.317982177734375,-0.45397184823453424,0.160644150942564,0.4730921437680721
1746276165665962000,10.3279619140625,-0.378312467344664,0.1438520060956478,0.508061165818572
1746276165675942000,10.33794189453125,-0.28380464839888736,0.11016951672434806,0.5182447061806917
1746276165685923000,10.347923095703125,-0.172373167181015,0.1212695874094963,0.516218753311038
1746276165695903000,10.357903076171874,-0.10430149234062991,0.08411445349156856,0.5410673633635044
1746276165705883100,10.367883056640625,-0.10889174274033867,0.06306523572206497,0.5251321276068687
1746276165715864000,10.377864013671875,-0.2204495080858469,0.051534956926107406,0.45709436416924
1746276165725844000,10.387843994140624,-0.3350187210738659,0.03464753501117229,0.3868126211971044
1746276165735825200,10.3978251953125,-0.3889788593202829,0.002073299142718315,0.2893774983614683
1746276165745805000,10.40780517578125,-0.4108031531155109,0.0199029703438282,0.252273802369833
1746276165755785000,10.417784912109376,-0.31965690129101276,0.05698620806932449,0.24606793346703051
1746276165765766000,10.427765869140625,-0.25110358954668044,0.03490297107696533,0.22523498879671094
1746276165775746000,10.43774609375,-0.17461013245284557,0.032681203374266624,0.20548808579742908
1746276165785726000,10.447725830078125,-0.09563187280595302,-0.008182137411832808,0.17433248455524444
1746276165795707000,10.457706787109375,-0.02709258958697319,-0.022782325172424314,0.11241115817129611
1746276165805687000,10.46768701171875,-0.015322072294354437,-0.05101122531294822,0.029615386062860488
1746276165815668200,10.477668212890626,-0.029665070423483847,-0.08509002052545547,-0.07559972312450408
1746276165825648000,10.487648193359375,-0.06477788485884665,-0.060473465663194656,-0.12029285133183001
1746276165835628000,10.4976279296875,-0.07299100193083286,-0.07720365118980407,-0.15732698921859264
1746276165845609000,10.50760888671875,-0.09499065229296684,-0.10497194808125496,-0.21878128261268137
1746276165855588900,10.5175888671875,-0.1008136593580246,-0.12937573697566984,-0.28478666343986986
1746276165865570000,10.527570068359376,-0.060978492575883864,-0.16073299826979637,-0.36276188352406025
1746276165875550000,10.537550048828125,-0.04820376211020629,-0.21117548378407955,-0.4403752845585346
1746276165885530000,10.547530029296874,0.0009317415918922051,-0.2196387762248516,-0.47693245258331296
1746276165895510800,10.5575107421875,0.0557417792324908,-0.22296178316771983,-0.5127811800777912
1746276165905491200,10.5674912109375,0.10768705225884914,-0.2264537169367075,-0.5109820217013359
1746276165915471000,10.57747119140625,0.1901110684454441,-0.17355390139818191,-0.38712709397375583
1746276165925452000,10.5874521484375,0.3132978876531124,-0.1123854392081499,-0.18582009325325488
1746276165935432000,10.597431884765625,0.4274655341029167,-0.05279693968594074,0.011334463962912558
1746276165945413000,10.6074130859375,0.5568015235900878,-0.02753565717935562,0.12874503785669802
1746276165955393000,10.61739306640625,0.6206172854185104,-0.022855974930524825,0.19563947647809982
1746276165965373000,10.627373046875,0.5990618716925382,-0.005365910947322845,0.18345628673136233
1746276165975353900,10.637353759765626,0.5219055667757988,-0.04019114061295986,0.16579671140015123
1746276165985334000,10.647333984375,0.4338233786970377,-0.0869885476231575,0.1810650076806545
1746276165995314000,10.65731396484375,0.31240707629323006,-0.08166179964244365,0.17134850030839444
1746276166005295000,10.667295166015625,0.20745792456567286,-0.07136486203372477,0.17639818491339682
1746276166015275000,10.67727490234375,0.09046469930112361,-0.058061143824458115,0.17148586295247076
1746276166025256000,10.687255859375,0.010128613570798188,-0.05565466720461845,0.14567045369446277
1746276166035235800,10.69723583984375,-0.07066752741932869,-0.019442951616644857,0.11602467249333857
1746276166045216000,10.707216064453124,-0.1305073713541031,0.034141339054703713,0.10611059672236442
1746276166055197000,10.717197021484376,-0.1764952155470848,0.0451432100623846,0.15335165584683416
1746276166065177000,10.727177001953125,-0.19751812983155248,0.02081716257929802,0.18257424319982526
1746276166075157800,10.73715771484375,-0.20538111829161643,0.017691724035143852,0.17192717697918414
1746276166085138200,10.74713818359375,-0.19930209063887594,0.04651742102503776,0.1735802048832178
1746276166095118000,10.7571181640625,-0.20837036323547362,0.07701835775077343,0.2470230422347784
1746276166105099000,10.76709912109375,-0.2214203989446163,0.053341714087128636,0.2908347114324569
1746276166115079000,10.777078857421875,-0.2622147661477327,0.07447744109630584,0.2999643588274717
1746276166125058800,10.787058837890624,-0.29565818606615063,0.08165829251110553,0.3220627933889627
1746276166135040000,10.7970400390625,-0.3474550087988376,0.05749298854768276,0.291629076680541
1746276166145020000,10.80702001953125,-0.3765250359386205,0.07806289836764335,0.29511341166496274
1746276166155000800,10.817000732421874,-0.39595337450802326,0.07584054614305495,0.29698212814629077
1746276166164981000,10.82698095703125,-0.41186990556418895,0.10046937596499919,0.28422493790388104
1746276166174961200,10.836961181640625,-0.371921341535449,0.0723094494074583,0.3039262481957674
1746276166184942000,10.846942138671874,-0.3126058137357235,0.054118543678522105,0.3245470114201307
1746276166194922000,10.856921875,-0.2661404151588678,0.016587562185525893,0.2629202840685844
1746276166204903000,10.86690283203125,-0.20891221502721308,0.004252396747469901,0.20813830804526803
1746276166214883000,10.876883056640626,-0.2016355020225048,-0.008541618373990058,0.21635434772670267
1746276166224863000,10.886863037109375,-0.17188742949068544,-0.04110182571709156,0.17790566686689852
1746276166234844000,10.896843994140625,-0.10671090070307254,-0.07059504670500755,0.10554244144558905
1746276166244823800,10.90682373046875,-0.06486497862040996,-0.11841361345648765,0.03647475043833256
1746276166254804000,10.916803955078125,-0.020817737968033177,-0.07364917357861996,-0.012027122402191162
1746276166264785200,10.92678515625,-0.009605443646642378,-0.029112112715840337,0.03206745539009571
1746276166274765000,10.93676513671875,0.00024024306323844937,-0.07894727998673916,0.038866614010930056
1746276166284746000,10.94674609375,0.03790858720031101,-0.09978197822272777,-0.0398059406876564
1746276166294726000,10.956725830078126,0.09505844769901596,-0.0962514660090208,-0.08616612532436847
1746276166304706000,10.9667060546875,0.16853870358467102,-0.09700783733427525,-0.092090254676342
1746276166314687000,10.97668701171875,0.19070026651024818,-0.08168459599614143,-0.1019417866051197
1746276166324672500,10.986672607421875,0.13305062609612942,-0.01807341682910919,-0.12954524832367897
1746276166334653700,10.99665380859375,0.09386721035414375,-0.03959726637303829,-0.11646657104194164
1746276166344633600,11.006633544921876,0.07107202570014633,-0.09763210671246052,-0.14857435844242572
1746276166354613500,11.016613525390625,0.06328795682834461,-0.08333587033450603,-0.17601356950998306
1746276166364594400,11.026594482421874,0.0957242272645235,-0.07036299151480198,-0.18421031996905804
1746276166374574300,11.03657421875,0.10336686010533012,-0.09136661657691002,-0.1480693315297365
1746276166384555500,11.046555419921875,0.11080723010599612,-0.16200141077041624,-0.1444832897365093
1746276166394535400,11.056535400390626,0.15715398900555447,-0.1558645154505968,-0.11732464917600154
1746276166404515600,11.066515625,0.19829439316736533,-0.11340659894943236,-0.07238952890634537
1746276166414496500,11.07649658203125,0.1939473038737662,-0.15135843620300293,-0.07832476417422295
1746276166424476700,11.0864765625,0.17337094604671,-0.21530162380337714,-0.06751344730257988
1746276166434456600,11.09645654296875,0.14819673903537914,-0.18044482995569705,-0.0775379977107048
1746276166444437500,11.1064375,0.0902425809830427,-0.15731763686835765,-0.08962824847698211
1746276166454417400,11.11641748046875,0.027870588222146032,-0.12048165190219878,-0.10018179119527339
1746276166464398600,11.126398681640625,0.012762469205725937,-0.09252104730904102,-0.052848962134122844
1746276166474378500,11.13637841796875,-0.02745674672424793,-0.04019523226618767,-0.021311083576083183
1746276166484358700,11.146358642578125,-0.054389177313446994,0.01984334911108017,0.004606032490730286
1746276166494339600,11.156339599609375,-0.08156827614009379,0.033976503881812094,0.06944879927933216
1746276166504319500,11.166319580078126,-0.09323359775887802,0.05089315189123153,0.13270342009365557
1746276166514300700,11.17630078125,-0.08753977003144099,0.0758341164022684,0.2013034935891628
1746276166524280600,11.186280517578124,-0.04848609074950218,0.11476268973350524,0.2580968094348907
1746276166534260500,11.196260498046875,-0.03870702126873657,0.10444120220541954,0.3392494905114174
1746276166544241400,11.206241455078125,-0.037405309286713595,0.0627934330433607,0.35231823092103004
1746276166554221600,11.2162216796875,-0.07954172048224135,0.04471417099535465,0.35433015526533124
1746276166564202500,11.226202392578125,-0.12278291458189487,-0.014044891965389251,0.326756504163146
1746276166574182400,11.236182373046875,-0.15657940398799255,-0.0032411738783121105,0.2790700393587351
1746276166584162600,11.24616259765625,-0.1484989368523471,0.017546178084611893,0.23905074818134306
1746276166594143700,11.256143798828125,-0.1427133391882293,0.045722471255064005,0.2119137349307537
1746276166604123600,11.26612353515625,-0.10524137613978236,0.04367898272871971,0.24591303516626356
1746276166614103600,11.276103515625,-0.07636661584377288,-0.0068611179411411285,0.20923428658843038
1746276166624084500,11.28608447265625,-0.0484919542347081,0.006208206990361213,0.14428279872834682
1746276166634064400,11.296064453125,0.031574703437089915,0.03853635914325714,0.13612871836721896
1746276166644045600,11.306045654296875,0.11235624964628368,0.02553016257584095,0.16754676993787287
1746276166654025500,11.316025390625,0.17279053407656028,-0.020845219630002975,0.1778326016306877
1746276166664005600,11.326005615234376,0.18956687856614587,-0.036656536746025085,0.15398527757525443
1746276166673986600,11.335986572265625,0.18982057933257893,-0.008190905240178108,0.07935352270007133
1746276166683966700,11.345966796875,0.17449149277554823,-0.03862345290482044,0.07271452307701111
1746276166693947600,11.35594775390625,0.16441316635357214,-0.0390957465916872,0.08075462166965007
1746276166703927600,11.365927490234375,0.16435349032189697,-0.04662380400896072,0.08138882791996002
1746276166713907500,11.375907470703124,0.14396832595169543,-0.05514496411681175,0.08797522057294845
1746276166723888600,11.385888671875,0.1430675777196884,-0.0739385119140148,0.06378127503693104
1746276166733868500,11.39586865234375,0.12314882528483867,-0.08018062117397785,0.03933949221968651
1746276166743849500,11.405849365234374,0.13100538400411604,-0.12486088989973068,0.023261633121967315
1746276166753829400,11.415829345703125,0.11828556663002818,-0.11342355008423327,-0.006637830579280853
1746276166763809500,11.4258095703125,0.11696688524689525,-0.10805413200557232,-0.01826689357459545
1746276166773790700,11.435790771484376,0.11378240999188273,-0.09578384849727153,-0.005226210215687752
1746276166783770600,11.4457705078125,0.12608075055088847,-0.09850713598132133,-0.00815992558002472
1746276166793750500,11.45575048828125,0.12461655974984168,-0.09664017306566237,-0.03777940329611301
1746276166803731500,11.4657314453125,0.08406064094509928,-0.12467442741692066,-0.04331424106955528
1746276166813711600,11.475711669921875,0.0523018496453762,-0.1188683714866638,-0.035491584619879724
1746276166823692500,11.485692626953124,0.034316147632338104,-0.07335106741487979,-0.0194236623942852
1746276166833672400,11.49567236328125,-0.0032616138781420886,-0.0746317548751831,0.012742577195167542
1746276166843652600,11.505652587890625,-0.03565937893483787,-0.10903262164890766,0.018297288712859152
1746276166853633500,11.515633544921876,-0.060983168751001356,-0.13948036688268184,-0.025090602114796638
1746276166863613700,11.52561376953125,-0.07188271189536899,-0.17634966959655285,-0.07113163779973983
1746276166873594600,11.5355947265625,-0.08567160153938456,-0.19183482349812983,-0.08862754700183868
1746276166883574500,11.545574462890626,-0.12814880726290867,-0.1716454374283552,-0.09617372459769248
1746276166893554400,11.555554443359375,-0.14349369417726993,-0.17176526441574097,-0.12386603364348411
1746276166903535600,11.56553564453125,-0.1677361367638223,-0.13067863626778126,-0.1281494100511074
1746276166913515500,11.575515625,-0.19813070877194403,0.0023690672188997268,0.08887830689251422
1746276166923496400,11.585496337890625,-0.1945393880154006,0.08725508960485458,0.25312545076310633
1746276166933476400,11.595476318359376,-0.1841027679413557,0.09733750768005847,0.2700105345904827
1746276166943456800,11.605456787109375,-0.1634539111336693,0.05478489863276481,0.2361643790900707
1746276166953437400,11.6154375,-0.19640991286132484,0.02921791117787361,0.18478724307417868
1746276166963417600,11.62541748046875,-0.2921341035932302,-0.002611643803119659,0.13399053729474544
1746276166973398500,11.6353984375,-0.3667770374495536,-0.01591243940293789,0.06649111851751804
1746276166983378700,11.645378662109374,-0.39995267327725886,-0.03777648068666458,0.005379354950785636
1746276166993358600,11.655358642578125,-0.4297480920821428,-0.07502513810694217,-0.038386721539497376
1746276167003339500,11.665339599609375,-0.3749433197051287,-0.1275169573664665,-0.12768646871447561
1746276167013319400,11.6753193359375,-0.3282950023094192,-0.1798246522307396,-0.15627718790471554
1746276167023300600,11.685300537109375,-0.23977555532455444,-0.1843207946062088,-0.163441672706604
1746276167033280500,11.695280517578125,-0.15513974484000354,-0.1166033491641283,-0.12700024001598356
1746276167043260700,11.7052607421875,-0.06085402594599872,-0.06269114171266556,-0.0412087932229042
1746276167053241600,11.71524169921875,-0.012514029136300087,-0.028125439766049382,0.052453825336694716
1746276167063221500,11.725221435546874,0.009782558345794678,-0.05086918649375438,0.13862930301129817
1746276167073202700,11.73520263671875,0.017194259374402464,-0.035030981370806694,0.17538988465368746
1746276167083182600,11.7451826171875,-0.009955028835870326,-0.07520517084896564,0.1879448303222656
1746276167093162500,11.75516259765625,-0.07763148468043654,-0.10222995589673518,0.1163677868425846
1746276167103143400,11.765143310546875,-0.1503998203039169,-0.11910334928631781,0.020068390038609503
1746276167113123600,11.77512353515625,-0.18122516667842864,-0.14885142181813715,-0.008052958074212075
1746276167123104500,11.7851044921875,-0.16923256760034708,-0.13172493045032024,-0.033086277043819425
1746276167133084400,11.79508447265625,-0.14481705173552034,-0.13918693689405917,-0.03834171335399151
1746276167143064600,11.805064697265625,-0.08787756888475269,-0.14489011697173118,-0.030670448073744774
1746276167153045800,11.815045654296876,-0.04402447169814259,-0.14522738610208033,-0.04479775762557983
1746276167163025700,11.825025634765625,-0.04364624950289726,-0.1300789168089628,-0.05686638108193874
1746276167173006600,11.835006591796875,-0.04346391520593315,-0.13918050715327263,-0.05547346541881561
1746276167182986500,11.844986572265626,-0.07682020483016967,-0.17668576968312263,-0.09400631743073463
1746276167192966400,11.85496630859375,-0.11472118867933749,-0.1614414388000965,-0.10598784712553024
1746276167202947600,11.864947509765624,-0.144933371591568,-0.1777116055995226,-0.08967501022815703
1746276167212927500,11.874927490234375,-0.1490770838001743,-0.12264379837214946,-0.08418810324966906
1746276167222908400,11.884908447265625,-0.14546996268630027,-0.0888052416563034,0.0025578677892684936
1746276167232888600,11.894888671875,-0.12144607648756355,-0.0757557904690504,0.03956044149398803
1746276167242868500,11.904868408203125,-0.12494334401879459,-0.009435936865210532,0.10354863727986811
1746276167252849700,11.914849609375,-0.12083240156862884,0.010877952367067336,0.18016718205809593
1746276167262829600,11.92482958984375,-0.1574199281990528,0.030724808609485624,0.22414427095055578
1746276167272810500,11.934810546875,-0.1885603684047237,0.009007482320070266,0.22651742982268333
1746276167282790400,11.944790283203124,-0.19836101039648055,-0.015113397979736327,0.18303367740511894
1746276167292770600,11.9547705078125,-0.2201174996525049,-0.06388473541140556,0.15897008025050163
1746276167302751500,11.96475146484375,-0.21776713713407514,-0.068192077216506,0.13605623765289782
1746276167312731400,11.9747314453125,-0.20901505434717982,-0.054493222209811204,0.10593114850223063
1746276167322712300,11.98471240234375,-0.19191139586567876,-0.07119476616382599,0.1031312886506319
1746276167332687000,11.99468701171875,-0.12721121588554232,-0.07974222975671291,0.06799684690535068
1746276167342667300,12.004667236328125,-0.0851233382731676,-0.052426352807879446,0.07846212681829928
1746276167352648200,12.014648193359376,-0.06988777521848678,-0.012488310173153877,0.1241536184132099
1746276167362628000,12.024628173828125,-0.03344754810426384,0.0009416647642850875,0.17347382189929483
1746276167372609000,12.034609130859375,-0.02039159411098808,-0.024037293669581412,0.16139292348325252
1746276167382589400,12.04458935546875,-0.036335597695969044,-0.0019616554617881772,0.10013386040031909
1746276167392569300,12.0545693359375,-0.05785952030513435,-0.009298574221134186,0.13185820144116878
1746276167402550300,12.06455029296875,-0.09094926794767379,-0.008453940090537071,0.10527005424499511
1746276167412530200,12.0745302734375,-0.1264379664907232,0.0009779051214456557,0.08818155680000782
1746276167422511400,12.084511474609375,-0.1423585161348805,-0.008199673068523407,0.0518225416958332
1746276167432491300,12.0944912109375,-0.13504384573996067,-0.024044892454147336,0.031949966490268704
1746276167442471200,12.10447119140625,-0.13202069852650164,-0.05686521203815937,0.01303016196489334
1746276167452452000,12.1144521484375,-0.15281802389416843,-0.0716775812447071,-0.03802607153356075
1746276167462432300,12.124432373046876,-0.11574764565024524,-0.07809855420291423,-0.05451835665106773
1746276167472413200,12.1344130859375,-0.037670134235359726,-0.09638824413120746,-0.07600128966271877
1746276167482393300,12.144393310546874,0.038436405900120735,-0.08366612520217895,-0.059089317828416824
1746276167492373200,12.154373291015625,0.07228548400998115,-0.08433364920020103,0.00468903459906578
1746276167502354200,12.164354248046875,0.0867401623526588,-0.07734744357466697,0.04768003506362438
