time,seconds_elapsed,z,y,x
1746276229755439000,0.017439208984375,0.02485387074947357,0.11775427276492118,0.33511107553243635
1746276229765419000,0.0274189453125,-0.0295668707460165,0.043453941801190374,0.3479629583209753
1746276229775399000,0.03739892578125,-0.06131751527190208,-0.02100362506210804,0.327983707870543
1746276229785378800,0.04737890625,-0.01439545896872878,0.028669045123457908,0.26437720487862826
1746276229795360000,0.057360107421875,0.10595774424821137,0.06265957753062248,0.20000760855972766
1746276229805340200,0.067340087890625,0.21756036251559852,0.0244517196893692,0.1035167808368802
1746276229815320000,0.077320068359375,0.2407043606072664,-0.00587853664457798,0.023259002773463724
1746276229825300000,0.087300048828125,0.21740239547491072,0.0083306059718132,-0.013056465449929236
1746276229835281000,0.097281005859375,0.06887479878365993,0.058873044729232785,-0.018338497506082057
1746276229845261000,0.107260986328125,-0.17039748319387435,0.19361060099899768,0.08328589371293783
1746276229855241000,0.117240966796875,-0.42889907403737304,0.2674994285523891,0.12092092010229825
1746276229865221000,0.12722119140625,-0.5992609013959765,0.19860592506825922,0.09203764770627021
1746276229875202000,0.1372021484375,-0.5881826041512191,0.09740355865359306,0.08198240989893675
1746276229885182000,0.147181884765625,-0.5556657975584268,-0.026481764212250708,-0.11922054592519998
1746276229895162000,0.157162109375,-0.5564857356391847,-0.13616905037760735,-0.3964332669794559
1746276229905142000,0.16714208984375,-0.5557685272805393,-0.17372107465863226,-0.6521352902323008
1746276229915122000,0.177121826171875,-0.5740018108464777,-0.1581476579517126,-0.7824021308287977
1746276229925102800,0.187102783203125,-0.5231206416539848,-0.16271102034449578,-0.846809721070528
1746276229935083000,0.1970830078125,-0.45207419791966674,-0.14763386272192,-0.8842939408123492
1746276229945063200,0.207063232421875,-0.3369768694043159,-0.16085633238852023,-0.8264069845110178
1746276229955043000,0.21704296875,-0.10719897648096084,-0.2318734038978815,-0.7693883354768156
1746276229965024000,0.22702392578125,0.18099428053200245,-0.35726679323911664,-0.7349477212145924
1746276229975004000,0.23700390625,0.4724070841133594,-0.5116746801406145,-0.6400605292961001
1746276229984983800,0.24698388671875,0.6381999961212277,-0.6258902573853731,-0.5519944155693054
1746276229994964200,0.256964111328125,0.7422633049249648,-0.5954419276297092,-0.4514753552436828
1746276230004945200,0.266945068359375,0.7949144063994288,-0.37665538432002066,-0.41121377974301576
1746276230014925000,0.276925048828125,0.7478451967105268,-0.2421381928026676,-0.30103783327788114
1746276230024905000,0.286905029296875,0.628266338866949,-0.20169453873336313,-0.15663725338876247
1746276230034884900,0.296884765625,0.43659576601982114,-0.14154022202193736,-0.061303486746549604
1746276230044866000,0.306865966796875,0.29146716411709783,-0.01039981346130371,0.04320844260752201
1746276230054846000,0.316845947265625,0.20630290931165218,0.07084288398623466,0.1690969219893217
1746276230064826000,0.326826171875,0.08293225796967744,0.10560323172211647,0.23928104980587958
1746276230074806000,0.336805908203125,-0.0710807843953371,0.14365034604370594,0.16843728903681038
1746276230084786000,0.346785888671875,-0.1885758217021823,0.20451018067598342,0.04590396530181169
1746276230094767000,0.35676708984375,-0.23733576095700262,0.19620354010164737,0.04265957655310631
1746276230104747000,0.3667470703125,-0.3749409816175699,0.18827859232127667,0.12643500734865665
1746276230114727000,0.376726806640625,-0.5480407095074653,0.22800269994437694,0.20032938786000012
1746276230124707000,0.38670703125,-0.7002870344609021,0.23844635254740715,0.23158611138910054
1746276230134688000,0.39668798828125,-0.7679530419766902,0.2935381251722574,0.2708475699365139
1746276230144668200,0.406668212890625,-0.7026859122961759,0.35667058091163634,0.35280309182852504
1746276230154648000,0.41664794921875,-0.4425619809478521,0.3159697372108698,0.5065519302994013
1746276230164628000,0.4266279296875,-0.08964023117572069,0.1139496197849512,0.42774464330524203
1746276230174609000,0.43660888671875,0.08834230031967162,-0.07705109097659588,0.16394085440039632
1746276230184588800,0.4465888671875,0.17560206609964368,-0.20711013404130935,-0.046041912467777724
1746276230194569200,0.4565693359375,0.266654794421792,-0.2560235102921724,-0.1840109980046749
1746276230204549000,0.466549072265625,0.40199528502076864,-0.2975450227260589,-0.2862546901658177
1746276230214530000,0.476530029296875,0.6248842952132224,-0.4238397448211908,-0.2530225749105215
1746276230224510000,0.486510009765625,0.748171359924972,-0.5542155987501144,-0.1631722081154585
1746276230234489900,0.49648974609375,0.6067372286260128,-0.5009697462528944,-0.12704670950621366
1746276230244470000,0.506469970703125,0.49740182463824745,-0.3622206162542104,-0.10488339301496744
1746276230254450200,0.5164501953125,0.37807431120723484,-0.2492185064524412,-0.08276829957962036
1746276230264431000,0.52643115234375,0.22607085509896277,-0.16163550006747246,0.04101239386796951
1746276230274411000,0.536410888671875,0.1621145157560706,-0.08386194003522396,0.16870353875756264
1746276230284391000,0.546390869140625,0.1676692272737622,0.0032148703932762144,0.23414602500498294
1746276230294370800,0.556370849609375,0.1442050573170185,0.11389584377110004,0.35860680967122316
1746276230304352000,0.56635205078125,0.128646253657341,0.146000124040246,0.4489779854699969
1746276230314332000,0.576331787109375,0.1032724506869912,0.10808686523139475,0.391871365891397
1746276230324312000,0.58631201171875,0.08473930739164352,0.07586568058431148,0.30155571967214345
1746276230334292000,0.5962919921875,0.08227671667039393,0.023922142857313155,0.2033712397739291
1746276230344273200,0.606273193359375,0.060357730329036706,0.03714987322092056,0.08891337820589541
1746276230354253000,0.616253173828125,0.0015568740531802176,0.06714052233695983,-0.057687634336948394
1746276230364233000,0.62623291015625,-0.15027356357574462,-0.06567687952518463,-0.18590631023198365
1746276230374212900,0.636212890625,-0.28203678020983936,-0.11944938624501228,-0.33814912805408237
1746276230384193800,0.64619384765625,-0.33133301829844714,-0.06803367178440094,-0.3772916363969445
1746276230394171100,0.656171142578125,-0.2990577653765678,-0.026136896297335625,-0.2887745640322566
1746276230404151300,0.6661513671875,-0.24008885905742644,-0.022664251750707624,-0.15723141988962888
1746276230414131200,0.676131103515625,-0.11283610558509825,-0.03159399265944957,-0.04107026153504848
1746276230424112400,0.6861123046875,0.009956161347031593,0.004305003717541694,0.06742927615046501
1746276230434092300,0.69609228515625,0.04125234010368585,0.05155132353901863,0.12153408356457948
1746276230444072200,0.706072265625,0.023903730417788028,0.11860124498307704,0.16076543923467396
1746276230454052000,0.716052001953125,-0.09042027563750743,0.12115268303155899,0.11870061370432376
1746276230464032300,0.7260322265625,-0.27261954804509875,0.11640227363407611,0.0732768331348896
1746276230474013400,0.736013427734375,-0.45429918049275875,0.24140754044055937,0.13399842834025621
1746276230483993300,0.745993408203125,-0.5712900676697492,0.22054127802252768,0.06976064170747995
1746276230493973200,0.75597314453125,-0.6444812683477997,0.05391805267035961,0.01772913343608379
1746276230503953200,0.765953125,-0.6088917763113976,-0.05923661734461784,-0.04355126469582319
1746276230513934000,0.77593408203125,-0.513499557480216,-0.08276946862339973,-0.08462766371071338
1746276230523914000,0.7859140625,-0.41089316948652266,-0.10747253272533416,-0.0558791236102581
1746276230533894400,0.795894287109375,-0.2552200849547982,-0.19569091440439224,-0.024371640190482137
1746276230543874300,0.805874267578125,-0.10613047046661377,-0.22085633532106874,-0.08879004408717155
1746276230553855200,0.815855224609375,-0.03747895904481411,-0.0938029038131237,-0.029964345631003378
1746276230563835100,0.825835205078125,0.018760230049490928,-0.08495441144704818,0.12439064203947782
1746276230573815000,0.83581494140625,-0.05077917012274265,-0.07957388745248317,0.19541502007246017
1746276230583795200,0.845795166015625,-0.0542953615501523,-0.05702361747026443,0.23036095350831745
1746276230593775400,0.855775390625,0.03645136956274509,-0.0882867707401514,0.24058394909799097
1746276230603756300,0.86575634765625,0.1370206987708807,-0.11361059708893298,0.3203448835551739
1746276230613736200,0.875736083984375,0.32003625599741936,-0.11471300537288188,0.31055589546859264
1746276230623716000,0.885716064453125,0.4224316315889358,-0.17172317883968352,0.12520195842236279
1746276230633696300,0.8956962890625,0.5179232191413641,-0.20595921044051646,-0.1114165941759944
1746276230643677200,0.90567724609375,0.6055243457049131,-0.21229776581227777,-0.2318842175528407
1746276230653657000,0.915656982421875,0.6127183488622308,-0.26640578809678556,-0.24134733468592165
1746276230663637200,0.92563720703125,0.34502252095490693,-0.11724632324278354,-0.23398060531020162
1746276230673617200,0.9356171875,0.0560141481667757,0.011072598156332969,-0.2805272524297237
1746276230683598300,0.945598388671875,-0.14202274484187363,-0.03888590323328971,-0.22666940551400183
1746276230693578200,0.955578125,-0.25297026020139457,-0.059791913139820095,-0.19018705629110336
1746276230703558100,0.96555810546875,-0.2977650952175259,-0.04439268395602703,-0.19022358890920876
1746276230713538000,0.9755380859375,-0.2482815178632736,-0.09621873278319835,-0.163926533614099
1746276230723519200,0.985519287109375,-0.15981880603432655,-0.08072481105327606,-0.04897416652739048
1746276230733499400,0.99549951171875,0.008664952492713927,0.015275895065069198,0.07791179945915937
1746276230743479300,1.005479248046875,0.2182905764862895,0.06759761845469474,0.2587047122001648
1746276230753459200,1.015459228515625,0.476341208691895,0.05145546194911003,0.39629210494309663
1746276230763439000,1.025439208984375,0.786980398529768,0.057418169745802876,0.37925299959778785
1746276230773420000,1.035419921875,0.9772416891008615,-0.05173837054371833,0.34351065508723255
1746276230783400200,1.045400146484375,1.0014809350833296,-0.1837234132349491,0.08769581910967826
1746276230793380400,1.05538037109375,0.8957116991445422,-0.2304880870193243,-0.2908592613518238
1746276230803360300,1.0653603515625,0.5993833587318659,-0.25715046849548817,-0.5102756269976496
1746276230813341200,1.075341064453125,0.17023060219436884,-0.2606605224430561,-0.6051429451718926
1746276230823321000,1.085321044921875,-0.14707301396876574,-0.26538112122416496,-0.5636828075364232
1746276230833301200,1.09530126953125,-0.27374153781235216,-0.17498188837468623,-0.4111313621565699
1746276230843281200,1.10528125,-0.2432338790848851,-0.037303017956018446,-0.18399083199948071
1746276230853262000,1.115261962890625,-0.1937485481649637,0.036651276049017904,0.10718436343371868
1746276230863242200,1.1252421875,-0.2170169032886624,0.09679039519131183,0.35051410410851236
1746276230873222100,1.13522216796875,-0.2696259191870689,0.147085581189394,0.5319555438861251
1746276230883202300,1.145202392578125,-0.30058570559620856,0.15856383753716946,0.636222558568418
1746276230893182200,1.15518212890625,-0.2682061155170202,0.10125263529717922,0.6491510137245059
1746276230903163100,1.1651630859375,-0.23837942479103802,0.05653320360481739,0.5581164055809378
1746276230913143000,1.17514306640625,-0.2582633981734514,0.04814706805348396,0.3976125398918986
1746276230923123200,1.185123291015625,-0.235654676002264,-0.013958382725715637,0.2740688700705767
1746276230933103400,1.195103271484375,-0.18270634514689443,-0.07171908229887484,0.1542421749457717
1746276230943084300,1.205084228515625,-0.1441205939039588,-0.0942336964458227,0.04457300895899534
1746276230953064200,1.215064208984375,-0.09464286176860331,-0.14105623789727686,0.015639467680454253
1746276230963044000,1.225044189453125,-0.05315203673392534,-0.19214286653399465,0.03049830637723207
1746276230973024300,1.235024169921875,-0.043674014292657375,-0.14520575879216194,0.07160217792093754
1746276230983005200,1.245005126953125,-0.002633563373982906,-0.12775018160045146,0.13129472233951092
1746276230992985300,1.2549853515625,-0.004321662591397762,-0.11484043114483355,0.15367138932049274
1746276231002965200,1.26496533203125,0.020108722048997878,-0.11190437769293785,0.16478548853099345
1746276231012945200,1.274945068359375,0.04032265803813934,-0.11755495080053806,0.21474194409400224
1746276231022925000,1.284925048828125,0.03835106570422649,-0.15062076957821846,0.2059890210568905
1746276231032906200,1.29490625,0.0295668707460165,-0.14453472766280173,0.11737959423363208
1746276231042886100,1.30488623046875,-0.006805588361620903,-0.11461363665163517,0.12007862405925988
1746276231052866300,1.3148662109375,-0.08370178103744984,-0.12301964594721794,0.10635141974091529
1746276231062846200,1.32484619140625,-0.1213175182044506,-0.10896014093458652,0.1354533033236861
1746276231072827100,1.3348271484375,-0.10732786355763674,-0.09401274717152118,0.1517281462982297
1746276231082807300,1.344807373046875,-0.08302490468919277,-0.09673194300234317,0.1414081200748682
1746276231092787200,1.354787109375,-0.04976239429563284,-0.0825572871774435,0.10955109256505965
1746276231102767000,1.36476708984375,0.008783610436320304,-0.028157588469982144,0.05935644433200359
1746276231112747300,1.374747314453125,0.051258185811340805,-0.004537643429636955,0.03885550809502601
1746276231122728200,1.384728271484375,0.08846125052422285,-0.01917173345983028,0.017042320215702057
1746276231132708400,1.394708251953125,0.04699029923379421,-0.03315641967058182,-0.08688479498773813
1746276231142688300,1.404688232421875,-0.028382337136566637,0.015747019708156586,-0.20992051528692243
1746276231152668200,1.414668212890625,-0.16341683052629233,-0.009013912060856819,-0.3075076138138771
1746276231162649000,1.424649169921875,-0.3440107135638594,-0.051942368683218956,-0.2964081276506185
1746276231172629000,1.43462890625,-0.5077101604238152,-0.04833469958007335,-0.2851490670114755
1746276231182609400,1.444609375,-0.5358806083753704,-0.0037269115686416623,-0.3143801299318671
1746276231192589300,1.45458935546875,-0.5004869311720133,0.02177519395649433,-0.3097334731698036
1746276231202570200,1.4645703125,-0.43810587832182646,-0.006694529202580452,-0.2479234982058406
1746276231212550100,1.474550048828125,-0.3331657866835594,-0.008375029635429382,-0.17945961831063031
1746276231222530000,1.484530029296875,-0.19527765742838382,-0.037794600865244866,-0.12174509596675634
1746276231232510200,1.49451025390625,-0.09047843556553124,-0.0005582184046506881,-0.10208265638053417
1746276231242490400,1.504490478515625,0.004441781839728355,-0.023024317234754562,-0.08903846589028835
1746276231252471300,1.51447119140625,0.0499687305226922,-0.09232230986654757,-0.09084756113886833
1746276231262451200,1.524451171875,0.06451835713982582,-0.14352233574986456,-0.09491349540352821
1746276231272431000,1.53443115234375,0.0527507624566555,-0.16581424705684183,-0.13579174149781464
1746276231282411000,1.544410888671875,0.028433482801914215,-0.19692308654785154,-0.17835194932967424
1746276231292392200,1.55439208984375,0.009355272844433785,-0.2148854442179203,-0.21832564779967067
1746276231302372000,1.5643720703125,-0.024665362440049646,-0.232866506588459,-0.27132395527660846
1746276231312352300,1.574352294921875,-0.0689839582465589,-0.21826047360897063,-0.30192396846264596
1746276231322332200,1.584332275390625,-0.11109013870060443,-0.17606091578304767,-0.2600248548880219
1746276231332313300,1.594313232421875,-0.17513196436986325,-0.1618506041228771,-0.2519435475021601
1746276231342293200,1.604293212890625,-0.2319073061674833,-0.11999766777753829,-0.2735717342033982
1746276231352273200,1.614273193359375,-0.2369825636051595,-0.06220481950044632,-0.20551409702152013
1746276231362253300,1.62425341796875,-0.2113596081793308,-0.06973579952716827,-0.12466361376196146
1746276231372233200,1.634233154296875,-0.16253157212436198,-0.09170388570725917,-0.10723083292394876
1746276231382214400,1.64421435546875,-0.1005646530330181,-0.119392103099823,-0.07741261776536702
1746276231392194300,1.6541943359375,-0.07055632212981582,-0.16310849522948265,-0.044481239022314545
1746276231402174200,1.66417431640625,-0.03525295355841517,-0.18229191912710666,-0.059953241181373594
1746276231412154000,1.674154052734375,-0.07057692652642726,-0.15939502766430377,-0.06197071848362684
1746276231422135000,1.684135009765625,-0.07463555426746607,-0.13767945494055747,-0.05080868847817182
1746276231432115200,1.694115234375,-0.09861118087768554,-0.08577449565827847,-0.031305531106889245
1746276231442095400,1.704095458984375,-0.13904592098817228,-0.05748714332878589,-0.0017336919248104093
1746276231452075300,1.7140751953125,-0.16768705519139765,-0.03361176222264767,0.0674602558106184
1746276231462055200,1.72405517578125,-0.21519436403661965,-0.006911386823654175,0.1663540530219674
1746276231472036000,1.7340361328125,-0.23279928657114504,0.057741994872689245,0.20924626928716897
1746276231482016300,1.744016357421875,-0.23133125984519717,0.08647183027267455,0.23964549920409917
1746276231491996400,1.753996337890625,-0.18197043208777902,0.046451370051503175,0.26927637509703634
1746276231501976300,1.763976318359375,-0.1168126080006361,0.06444587642550469,0.18486878387778996
1746276231511957200,1.773957275390625,-0.035304537615180015,0.08732114057838916,0.08967091857492923
1746276231521937200,1.783937255859375,0.004694879817962646,0.07498305253088473,0.007928747172653674
1746276231531917300,1.793917236328125,-0.018668460112810134,-0.013223054188489913,-0.060682139977812764
1746276231541897200,1.803897216796875,-0.09212795633822679,-0.07926701346039772,-0.10530044938325882
1746276231551877400,1.81387744140625,-0.21547522680461406,-0.13852525811493396,-0.04514934754222631
1746276231561858300,1.8238583984375,-0.2589393977388739,-0.18071429454684257,-0.048371816720068454
1746276231571838200,1.833838134765625,-0.1907065501205623,-0.16649287697076798,-0.09294482567906379
1746276231581818000,1.843818115234375,-0.02713350611925125,-0.12576046908795832,-0.11167173798084258
1746276231591798300,1.85379833984375,0.12735109928026794,-0.1376174956202507,-0.11892185523957013
1746276231601779200,1.863779296875,0.26039471111372114,-0.11165946302115917,-0.11343699408769607
1746276231611759000,1.873759033203125,0.3589817804634571,-0.05445639733076095,-0.09829232418686151
1746276231621739300,1.8837392578125,0.3471563181132078,-0.007339841368794441,-0.013692717526853084
1746276231631719200,1.89371923828125,0.2850561280310154,0.0033463878184556957,0.08365940320044755
1746276231641700400,1.903700439453125,0.19693024694100023,0.05532616590261459,0.14815613303035496
1746276231651680300,1.91368017578125,0.15949688060358166,0.0927571941524744,0.1619929352030158
1746276231661660200,1.92366015625,0.0985959833085537,0.06990414183139801,0.14926935496926308
1746276231671640000,1.93364013671875,0.07633388261795043,0.09984978276193142,0.17117372826337812
1746276231681620200,1.9436201171875,0.2785745109267533,0.17964169687926768,0.12742343386411667
1746276231691601200,1.95360107421875,0.5531289725571871,0.13750468289554119,0.13277005558907984
1746276231701581300,1.963581298828125,0.40091187369823456,-0.02007598882317543,0.13288491414040327
1746276231711561200,1.973561279296875,0.22102350858151912,-0.06425181515812874,0.0207677704796195
1746276231721541000,1.983541015625,0.20429156948924063,-0.055768648973107335,-0.040651159340143204
1746276231731522300,1.993522216796875,0.17291224249377846,-0.10875555827319622,-0.06294920812696218
1746276231741502200,2.003502197265625,0.2353887185424566,-0.15438509054780006,0.020517595110833644
1746276231751482400,2.013482421875,0.2986976998925209,-0.14563596690297126,0.18313450743108986
1746276231761462300,2.023462158203125,0.3595008359014988,-0.09702771107852458,0.3261427561789751
1746276231771442200,2.033442138671875,0.26661051688864823,-0.015032149437069892,0.3918105756148696
1746276231781423400,2.04342333984375,0.1411684661000967,-0.00192015440762043,0.3193871444389224
1746276231791403300,2.0534033203125,-0.020335808803141116,-0.051990299478173255,0.2742182154133916
1746276231801383200,2.063383056640625,-0.18787629513069987,-0.1253472121119499,0.20274872396141289
1746276231811363300,2.07336328125,-0.27278642904460426,-0.1641337466239929,0.10092471851706504
1746276231821344300,2.08334423828125,-0.2628038180820644,-0.16918518479466438,0.03274813113063574
1746276231831324200,2.09332421875,-0.22431436682045458,-0.17293723080456255,0.04824555999189615
1746276231841304300,2.10330419921875,-0.1093704753011465,-0.1550590442866087,0.018998714980483052
1746276231851284200,2.1132841796875,0.021270167043805122,-0.1438923381060362,0.013987901081144808
1746276231861264100,2.12326416015625,0.08825593721047044,-0.143916888025403,0.004914367787539959
1746276231871245000,2.1332451171875,0.12900573461949824,-0.14366320552527903,-0.030136487327516077
1746276231881225200,2.14322509765625,0.1659638846606016,-0.15274141499400137,-0.028687457562983035
1746276231891205400,2.153205322265625,0.11609189251065254,-0.17041501885056495,-0.051536710491776466
1746276231901185300,2.163185302734375,-0.013139759819209574,-0.20643442673683166,-0.05955167464315891
1746276231911166200,2.173166259765625,-0.09161080059632658,-0.20531798992753028,-0.07987228587716817
1746276231921146000,2.18314599609375,-0.10907163848504424,-0.17815818032324313,-0.0658548664405942
1746276231931126000,2.1931259765625,-0.0722426677815616,-0.13817162237167357,0.059663026063144206
1746276231941106400,2.2031064453125,-0.059798196750134223,-0.10414192699790001,0.1507560863956809
1746276231951086300,2.21308642578125,-0.10715908286198973,-0.04252747460603714,0.1721814440011978
1746276231961067300,2.2230673828125,-0.17067440043911336,-0.009288052827119827,0.12927052303552627
1746276231971047200,2.233047119140625,-0.23992343936264512,0.018108488142490387,0.0883037218749523
1746276231981027000,2.243027099609375,-0.3036864480905235,0.015680384212732313,0.06941606605350971
1746276231991007200,2.25300732421875,-0.2865652174197137,0.019947978529334068,0.0796355545118451
1746276232000988200,2.26298828125,-0.21291589771062133,0.1147036530226469,0.15798662217110396
1746276232010968300,2.27296826171875,-0.11599530026838183,0.18567630086839199,0.16793138534128665
1746276232020948200,2.2829482421875,0.07494125921577215,0.18216916953027248,0.08041559897363186
1746276232030928100,2.29292822265625,0.07510477921441197,0.11598843213617802,0.13231149816662072
1746276232040908000,2.302907958984375,-0.04809782208427787,0.0699871439397335,0.14629209272414445
1746276232050889200,2.31288916015625,-0.12487871781736612,0.1064987192571163,0.05243395159244537
1746276232060869000,2.322869140625,-0.02460018824934959,0.13658698352873325,0.11883768408745526
1746276232070849300,2.332849365234375,0.1967418847620487,0.2475847677707672,0.22981325649768114
1746276232080829200,2.3428291015625,0.27636414140090343,0.4879010058432817,0.1964069537192583
1746276232090810400,2.352810302734375,0.2180219886779785,0.4898223292946815,0.36267157489210367
1746276232100790300,2.362790283203125,0.0842524006575346,0.4116249908924103,0.40601182718574996
1746276232110770200,2.372770263671875,0.0007318214058876037,0.29750585975944993,0.2770531465783715
1746276232120750000,2.38275,-0.07231514849588275,0.18233400470316408,0.07435644506514072
1746276232130730200,2.392730224609375,-0.14759572266861795,0.07407996621131896,-0.07350216632336377
1746276232140711400,2.40271142578125,-0.19500395505353807,-0.002761281406879425,-0.19237842885553835
1746276232150691300,2.41269140625,-0.01468669700026512,-0.025287585991621016,-0.4540653717368841
1746276232160671200,2.422671142578125,-0.0859036749958992,-0.3516261570036411,-0.4614022904962301
1746276232170651100,2.432651123046875,-0.3615821722202003,-0.5204723191022873,-0.5092804784804582
1746276232180631000,2.442631103515625,-0.41301249972805376,-0.4269985011130571,-0.712172994826734
1746276232190612200,2.4526123046875,-0.36528409547805785,-0.482715712159872,-0.7093316339209675
1746276232200592400,2.46259228515625,-0.21966259549185632,-0.5817500868856906,-0.7160770165279507
1746276232210572300,2.472572265625,-0.17593641262054444,-0.6458990261912345,-0.6893611512988805
1746276232220552200,2.48255224609375,-0.20417393445894122,-0.7597580450832844,-0.6477098750054836
1746276232230533000,2.492533203125,-0.30559257397279144,-0.7620552161097526,-0.6014204175174236
1746276232240513300,2.50251318359375,-0.4518395123809576,-0.699106884765625,-0.4767874911546707
1746276232250493200,2.5124931640625,-0.5285105179987848,-0.6209744282931089,-0.35936961073726414
1746276232260473300,2.522473388671875,-0.5332020368158817,-0.4697638761281967,-0.2741539180055261
1746276232270453200,2.532453369140625,-0.4669394663572311,-0.3247825737416744,-0.20164456211179493
1746276232280434200,2.54243408203125,-0.36377529835030437,-0.24135025729537007,-0.14197043013274668
1746276232290414300,2.552414306640625,-0.3004192629881203,-0.17231529951393604,-0.12461042226999998
1746276232300394200,2.562394287109375,-0.26165114091560243,-0.11992518706321716,-0.10285101040452718
1746276232310374100,2.5723740234375,-0.1747615236222744,-0.11129939753711222,-0.06791589062362909
1746276232320355000,2.58235498046875,-0.0944125601440668,-0.052633273556828494,-0.05145107803493738
1746276232330335200,2.592335205078125,-0.034650457620620724,0.0044815293282270425,0.032794308359920976
1746276232340315100,2.602315185546875,0.017125176193565128,0.032467268362641334,0.1449415548980236
1746276232350295300,2.61229541015625,0.04336217186450958,0.06206687233448028,0.2168541139423847
1746276232360275200,2.622275146484375,0.027032237701863047,0.08719488385021686,0.2839446596577763
1746276232370256100,2.632256103515625,0.02950023525059223,0.1367547413110733,0.3606020751416683
1746276232380236000,2.642236083984375,0.13184344226345418,0.17085341026782988,0.5317991842806339
1746276232390215400,2.65221533203125,0.2848528605438769,0.22750527181625366,0.6832382845044136
1746276232400195300,2.6621953125,0.4031804031521082,0.24460078352391718,0.7806228461965918
1746276232410176500,2.672176513671875,0.4192923106499016,0.2509223877608776,0.781528855125606
1746276232420156400,2.682156494140625,0.3547890049487352,0.20956863310933113,0.7563356694191694
1746276232430136300,2.69213623046875,0.213670953861624,0.10648469073176384,0.6448372421786188
1746276232440116500,2.702116455078125,0.06710092097893357,-0.005636544582247734,0.4775476618722081
1746276232450096400,2.712096435546875,-0.019737550649046896,-0.10636252565681933,0.3349515010565519
1746276232460077600,2.72207763671875,-0.0448852897785604,-0.1813093378305435,0.1744093491837382
1746276232470057500,2.732057373046875,-0.1169509935580194,-0.23881343229413032,-0.03524199377298355
1746276232480037400,2.742037353515625,-0.24001623221263288,-0.31784488343298434,-0.21356062535494566
1746276232490017500,2.752017578125,-0.36837124783843755,-0.38914778614640233,-0.3424789739519358
1746276232499998500,2.76199853515625,-0.4252804451487958,-0.40243981391787526,-0.4049845299646258
1746276232509978600,2.771978515625,-0.39953225590810176,-0.3986351609379053,-0.439110086928308
1746276232519958500,2.78195849609375,-0.2652335294470191,-0.418024336540699,-0.4510021847739815
1746276232529938400,2.7919384765625,-0.0468795323356986,-0.3780792796432972,-0.39407267532795665
1746276232539918300,2.80191845703125,0.08578384800851345,-0.2535544898301363,-0.2275198848634958
1746276232549899500,2.8118994140625,0.1417415898129344,-0.15255729059875012,-0.031925416570901866
1746276232559879400,2.82187939453125,0.11647358530461788,-0.09796177705824374,0.10344546916633844
1746276232569859600,2.831859619140625,0.047317339231073854,-0.0055693245649337765,0.14240969833284617
1746276232579839500,2.841839599609375,-0.014448212069272994,0.05080488908588886,0.17251842087060212
1746276232589819400,2.8518193359375,-0.06600991087183355,0.04558218600153923,0.2006850694298744
1746276232599800300,2.86180029296875,-0.06424173215553164,0.03641922085881233,0.19981705442368983
1746276232609780500,2.871780517578125,-0.05751315455287694,0.026097148808836935,0.20300445228815078
1746276232619760600,2.8817607421875,-0.06409808590114116,-0.005265957704186439,0.18780717541724443
1746276232629740500,2.891740478515625,-0.06383797366023063,-0.020097616133093833,0.1157318270266056
1746276232639721500,2.901721435546875,-0.08258680553287268,-0.036216391763091084,0.09247107068747282
1746276232649701400,2.911701416015625,-0.14526947167813778,-0.08974047667980194,0.036895606198906895
1746276232659681500,2.921681640625,-0.22779563306495546,-0.13793372196257114,0.007097849306464195
1746276232669661400,2.931661376953125,-0.2503302670866251,-0.160399820792675,-0.03820961140692234
1746276232679641600,2.9416416015625,-0.25980536691844464,-0.18405659071207045,-0.0676844199553132
1746276232689622500,2.95162255859375,-0.21420433008596299,-0.18562486294209957,-0.05688625482618809
1746276232699602400,2.9616025390625,-0.12690467068701983,-0.1950210523188114,-0.03404284711629152
1746276232709582600,2.97158251953125,-0.0737945733986795,-0.15562953765094278,0.007739069819450378
1746276232719562500,2.9815625,-0.11026406314000486,-0.10912848323881626,0.040346331174671644
1746276232729543400,2.99154345703125,-0.18326602485626936,-0.08775719390809536,0.0657017217054963
1746276232739523300,3.0015234375,-0.22807664196342228,-0.03476093225777149,0.09796499192863702
1746276232749503500,3.01150341796875,-0.2563818222105503,0.009958499434590339,0.13235299922078847
1746276232759483600,3.021483642578125,-0.22357480049952863,0.017622165930271147,0.17076076354831457
1746276232769463600,3.031463623046875,-0.12781009509414434,0.0018792378753423689,0.25191315236389633
1746276232779444500,3.041444580078125,-0.023094459861516953,-0.010762217032909393,0.30654023008644576
1746276232789424400,3.05142431640625,0.08233692242503166,0.009008651363849639,0.3752081081211567
1746276232799404300,3.061404296875,0.14646949511766433,0.025320319217443463,0.4279942341521382
1746276232809384400,3.071384521484375,0.17829276648834347,0.037377836757898325,0.43071722937524315
1746276232819365400,3.081365478515625,0.19336042563021183,0.008435819911956787,0.41110856580287214
1746276232829345500,3.091345458984375,0.16836743867099285,-0.035194647499918935,0.33456717791408297
1746276232839325400,3.101325439453125,0.13244798402786254,-0.08627017022073269,0.23301789775788784
1746276232849305300,3.111305419921875,0.15462445226162672,-0.17464228115677832,0.1734092322304845
1746276232859285200,3.12128515625,0.14837810521796344,-0.1947340520709753,0.06153934132903814
1746276232869266400,3.131266357421875,0.1393909350335598,-0.21077567081153392,0.02468348261862993
1746276232879246600,3.14124658203125,0.11995704350620508,-0.19754618688225745,0.04019844713658094
1746276232889226500,3.1512265625,0.11813830364644527,-0.1935661773353815,-0.01994037974476814
1746276232899206400,3.161206298828125,0.11502426327913999,-0.19736615414023398,-0.06473784510940313
1746276232909186300,3.171186279296875,0.10987842482328414,-0.19967618464827536,-0.11876724919974803
1746276232919167500,3.18116748046875,0.13774740561023355,-0.19918869339227674,-0.13928659787625072
1746276232929147400,3.1911474609375,0.16966741535365581,-0.15932546955943105,-0.10967267311811446
1746276232939127600,3.20112744140625,0.13906769442856312,-0.12446399953663348,-0.05885726263821125
1746276232949107500,3.211107421875,0.0830723970927298,-0.12878244725763796,-0.03146013714671135
1746276232959088600,3.221088623046875,0.04495908566713333,-0.12501052750349045,-0.020980244186520575
1746276232969068500,3.231068603515625,0.015336100819706915,-0.14243980121016503,-0.014790157374739646
1746276232979048400,3.24104833984375,-0.02918970799669623,-0.15064824210703373,0.004997077634930611
1746276232989028400,3.2510283203125,-0.07457447172999382,-0.14619593887329102,-0.019892448949813842
1746276232999008500,3.261008544921875,-0.1417132405012846,-0.11187515159845351,-0.07538432680815457
1746276233008989700,3.27098974609375,-0.19501535323038696,-0.07682137387394905,-0.06418868679404259
1746276233018969600,3.280969482421875,-0.24301336820200084,-0.03888064253628254,-0.10905483348071575
1746276233028949500,3.290949462890625,-0.3083921415634453,-0.009006313276290893,-0.15308014542907475
1746276233038929400,3.300929443359375,-0.3844241186253726,0.010741174244880676,-0.14586568400561808
1746276233048910300,3.310910400390625,-0.3730412854760885,0.03295183700919151,-0.11493746177852153
1746276233058890500,3.320890380859375,-0.3123373720578849,0.06802899560928344,-0.0825984959706664
1746276233068870700,3.33087060546875,-0.25046704520881174,0.058172787505388256,-0.08784604123532772
1746276233078850600,3.3408505859375,-0.18925474387705324,0.045347208201885224,-0.03588087619841099
1746276233088830500,3.35083056640625,-0.11604688432514666,0.03047054158747196,-0.03326192587167025
1746276233098811400,3.360811279296875,-0.04962941556572914,0.00001578209102153778,-0.05032032043933868
1746276233108791300,3.370791259765625,-0.03235036398470401,-0.025489246043562886,-0.05893938796371221
1746276233118771500,3.380771484375,-0.00006137479841709136,-0.05046586638987064,-0.11421440820097922
1746276233128751600,3.390751708984375,-0.0034457565397024155,-0.06473521476089954,-0.1453270470842719
1746276233138731500,3.4007314453125,-0.01035363623201847,-0.07512567587196826,-0.17494594027847052
1746276233148712400,3.41071240234375,-0.04297697193920612,-0.08735270476043223,-0.19772914223372934
1746276233158692400,3.4206923828125,-0.030948680493235587,-0.06567220335006714,-0.2068082284852862
1746276233168672500,3.430672607421875,-0.008509469670057297,-0.06920505365133285,-0.17287702504992483
1746276233178652400,3.44065234375,0.007058101817965507,-0.08570026137828826,-0.10757160918563603
1746276233188633300,3.45063330078125,0.030171850901842115,-0.07424129425287246,-0.08034896347820758
1746276233198613500,3.460613525390625,0.07293620300367475,-0.06139701024889946,-0.06058423256129026
1746276233208593400,3.470593505859375,0.10490940423905849,-0.020158406409621236,-0.023641572350263595
1746276233218573600,3.480573486328125,0.13031813239231704,0.03777063546776771,0.07475859612524509
1746276233228553500,3.490553466796875,0.18379881655871866,0.06419862366616726,0.1557698229044676
1746276233238534400,3.500534423828125,0.23324410772919654,0.05502572165131569,0.2025245598167181
1746276233248514300,3.510514404296875,0.27477146538197994,0.06409048711657524,0.18384265570044517
1746276233258494500,3.520494384765625,0.2572030754655599,0.05684241568446159,0.20023440305292606
1746276233268474600,3.530474609375,0.1979603206411004,0.041706221351027487,0.21538871756494044
1746276233278454500,3.54045458984375,0.16040347405448555,0.015251345145702361,0.14451865331083535
1746276233288435500,3.550435546875,0.15692381524518131,0.005236147087812423,0.05038198749870062
1746276233298415400,3.560415283203125,0.14358780220150946,0.010061375287175179,0.09101005822420119
1746276233308395300,3.570395263671875,0.15699030461013316,0.010407996767759322,0.11996318098604679
1746276233318375400,3.58037548828125,0.15642711776942014,0.005472293931245803,0.12063187402784824
1746276233328356600,3.590356689453125,0.1657376746892929,0.0029629414588212967,0.09775953248441219
1746276233338336500,3.60033642578125,0.11625380507409572,-0.01167816283404827,0.06207564016282558
1746276233348316400,3.61031640625,0.07037570486590265,-0.009136077135801314,0.064523617836833
1746276233358296300,3.62029638671875,0.08086568082869053,-0.02814472898840904,0.0788321291744709
1746276233368276500,3.6302763671875,0.053716831009835,-0.033149989929795266,0.055716042003035544
1746276233378257400,3.64025732421875,0.042566637572646136,-0.05069909062385559,0.03309095321893692
1746276233388237600,3.650237548828125,0.02821677131131291,-0.04971300219595432,0.03384907810986042
1746276233398218000,3.660218017578125,0.027252894715219734,-0.04251519964635372,0.04104629613757133
1746276233408198000,3.670197998046875,0.051264323291182516,-0.015721300745010373,0.050970308780670166
1746276233418177800,3.680177734375,0.03678513156175613,-0.015224457138776779,0.09676789109855889
1746276233428159000,3.690158935546875,-0.01615925377085805,-0.016027590215206146,0.10846943480819463
1746276233438139000,3.700138916015625,0.004696048861742019,-0.03854804958105087,0.10761953998059033
1746276233448119000,3.710119140625,0.016217852090299127,-0.0697299543082714,0.08693827874064446
1746276233458099000,3.720098876953125,-0.012429273462295531,-0.09001754005551338,0.025569033281505105
1746276233468079900,3.730079833984375,-0.012883300840109586,-0.12518471502661704,-0.04500672420114279
1746276233478059800,3.740059814453125,0.0019001345328986644,-0.11979308511614799,-0.058927405264973635
1746276233488040000,3.7500400390625,0.04186535743549466,-0.1303320147871971,-0.08383622107207775
1746276233498019800,3.760019775390625,0.06713116998672485,-0.1323714116603136,-0.08864069874435662
1746276233508000000,3.77,0.09742357852831482,-0.12626958765387533,-0.1019587377399206
1746276233517981000,3.77998095703125,0.10520122679248452,-0.11433423518836498,-0.11495324386954307
1746276233527960800,3.7899609375,0.12253668473586439,-0.12923136006891728,-0.10787088439315556
1746276233537941000,3.79994091796875,0.08079553820192813,-0.0917114844918251,-0.07284165658801793
1746276233547921000,3.8099208984375,0.043614100798964495,-0.07939736184179783,-0.068059683008492
1746276233557900800,3.81990087890625,-0.0021218144595623015,-0.071664721763134,-0.07235621115863322
1746276233567881700,3.8298818359375,-0.027682372173666953,-0.07545125456452369,-0.04344283588528633
1746276233577862000,3.83986181640625,-0.014096037630736828,-0.06569207709431647,-0.012835516175627708
1746276233587842000,3.849842041015625,0.01248071138858795,-0.03232873667478561,0.02606909175813198
1746276233597822000,3.859822021484375,0.01888297964632511,-0.026747137150168417,0.08183657168745995
1746276233607803000,3.869802978515625,-0.018771774356812237,-0.028041268613934515,0.11149345880448817
1746276233617782800,3.87978271484375,-0.005597235485166311,0.0011947627425193785,0.09836392811834811
1746276233627762700,3.8897626953125,0.056166269988566636,-0.019446458747982977,0.08253712117224932
1746276233637743000,3.8997431640625,0.09265373377799987,-0.029628245544433593,0.09465572125017642
1746276233647723000,3.909722900390625,0.14153335388973354,-0.02489011110663414,0.1425078980103135
1746276233657704000,3.919703857421875,0.15088453508093952,-0.005699088424444198,0.18727730632424353
1746276233667683800,3.929683837890625,0.15878887846469877,0.012581249153614044,0.20800532931536436
1746276233677663700,3.939663818359375,0.11615692057088017,0.006354921984672546,0.21372575278878211
1746276233687643600,3.9496435546875,0.052076662587374443,0.002687047126889229,0.20916794335395097
1746276233697624000,3.9596240234375,-0.05434416912794113,0.000040332010388374324,0.1869037968367338
1746276233707605000,3.96960498046875,-0.1890202044688165,-0.003556815698742866,0.1680614414617419
1746276233717585000,3.9795849609375,-0.28418577493727204,-0.017868834167718887,0.12184504920989274
1746276233727564800,3.989564697265625,-0.27020518037974833,0.026319267126917838,0.1057674823731184
1746276233737544700,3.999544677734375,-0.26200375374555585,0.08230594276487826,0.1397562612146139
1746276233747524900,4.00952490234375,-0.2135124022990465,0.09808803378641605,0.24740268920212982
1746276233757505800,4.019505859375,-0.16195596419349312,0.0920247882246971,0.2702224237754941
1746276233767486000,4.02948583984375,-0.15139511495158076,0.052803369426727295,0.2219105205491185
1746276233777465900,4.0394658203125,-0.15673048463016748,0.010790274083614349,0.15114567023515701
1746276233787445800,4.04944580078125,-0.16919292970970273,0.014693126741051672,0.11989625322967767
1746276233797427000,4.059427001953125,-0.13508140127137302,0.0020189386069774627,0.1736456713348627
1746276233807406800,4.06940673828125,-0.09800839267894625,-0.060358314850926395,0.16142741027474403
1746276233817386800,4.07938671875,-0.1063420673906803,-0.09207038093209266,0.10381225665211677
1746276233827367000,4.089366943359375,-0.09532222233489156,-0.12702362089157104,0.046692777591943735
1746276233837346800,4.099346923828125,-0.0844394476622343,-0.09844400761723518,-0.046860827635228634
1746276233847328000,4.109327880859375,-0.08293211183920503,-0.029379823741316792,-0.023417700466513633
1746276233857308000,4.119307861328125,-0.011505290485173464,-0.03852759131491184,0.065780632160604
1746276233867287800,4.129287841796875,-0.013353402569890021,-0.0779085845887661,0.09146744660288095
1746276233877267700,4.139267822265625,-0.012272621595859528,-0.08116495603621006,0.025253391461074352
1746276233887248000,4.149247802734375,-0.037667028962820766,-0.1484013399630785,-0.050038580888509744
1746276233897229000,4.15922900390625,-0.08611644096374511,-0.15092004478573798,-0.09463584750592709
1746276233907209000,4.169208984375,-0.09203414057493209,-0.09515607198774814,-0.0841065624460578
1746276233917188900,4.17918896484375,-0.05992109247744083,-0.1257739130914211,-0.04277180475592613
1746276233927168800,4.189168701171875,-0.00023439327776432036,-0.1456599323004484,-0.05870294885933399
1746276233937149700,4.199149658203125,-0.002466682374477386,-0.1473281577736139,-0.11449147157669066
1746276233947129900,4.2091298828125,0.014451719200611113,-0.1705430291444063,-0.15649083065539598
1746276233957110000,4.219110107421875,0.03253507290184498,-0.12491992661058902,-0.15236381385326384
1746276233967090000,4.22908984375,0.056663551986217496,-0.09046236121356487,-0.08104425226598977
1746276233977069800,4.23906982421875,0.11716624374389648,-0.12395897262394427,-0.0069184010863304135
1746276233987050800,4.24905078125,0.10704013265743852,-0.15385726728141308,-0.03522913429141045
1746276233997031000,4.259031005859375,0.06978942941054701,-0.18361703025102613,-0.10161825373917817
1746276234007010800,4.2690107421875,0.022945552910119293,-0.19802841744124888,-0.14210194755792616
1746276234016991000,4.278990966796875,-0.044238954699039455,-0.14632044203579425,-0.1408566236719489
1746276234026971000,4.288970947265625,-0.07312894909679889,-0.13034253618121147,-0.06860621097534894
1746276234036951800,4.298951904296875,-0.07268178985118866,-0.13856851273477078,0.004560732044279575
1746276234046932000,4.308931884765625,-0.06755787096619606,-0.11493395464718341,-0.03172901721596718
1746276234056912000,4.318911865234375,-0.07761939238384366,-0.1152700547337532,-0.04205722674578428
1746276234066892000,4.32889208984375,-0.09393266767263411,-0.07649111900627613,-0.017715104910731316
1746276234076872700,4.338872802734375,-0.11506766402944922,-0.02020750624835491,0.05115794030725956
1746276234086852900,4.348852783203125,-0.10696297576799989,-0.044666824722290034,0.12374503761231899
1746276234096833000,4.3588330078125,-0.1003425347149372,-0.03553834637105465,0.10028057539463042
1746276234106813000,4.36881298828125,-0.08749547423198818,-0.025180033963918685,0.11763444577753543
1746276234116792800,4.378792724609375,-0.11449673227369785,-0.027924948757886883,0.08238748356848954
1746276234126773800,4.388773681640625,-0.16341960700526834,-0.023361001843214033,0.11284195080399513
1746276234136754000,4.39875390625,-0.1558826356291771,-0.031173136898875235,0.12814502613693474
1746276234146734000,4.408734130859375,-0.16470014833509922,-0.04556640391051769,0.09587123451977968
1746276234156714000,4.4187138671875,-0.1602121892660856,-0.04263736472129821,0.06078764617890119
1746276234166694000,4.42869384765625,-0.11086217516362666,-0.07793196546435356,0.06314794556945562
1746276234176674800,4.4386748046875,-0.11237608685791492,-0.06252046132087707,0.06854834330826998
1746276234186654700,4.44865478515625,-0.15049159024059772,-0.03408288686573505,0.07408084299415349
1746276234196635000,4.458634765625,-0.13658289187550543,-0.03958966758847236,0.07916618343442677
1746276234206615000,4.468614990234375,-0.09303133491873741,-0.03589198211431503,0.07580021413266658
1746276234216595000,4.478594970703125,-0.08821136741638183,-0.05859130517840385,0.051047757931053636
1746276234226576000,4.488575927734375,-0.08606105751469731,-0.08582184193134307,-0.01435118143558502
1746276234236555800,4.4985556640625,-0.05567103381752968,-0.10731237372756004,-0.045805765624344345
1746276234246535700,4.50853564453125,-0.04896130704581737,-0.09456336679160594,-0.04498918854445219
1746276234256516000,4.51851611328125,-0.03618468145057559,-0.009890110373497008,-0.001668225473165512
1746276234266497000,4.5284970703125,-0.08591711899936198,0.06675356884598732,0.03086129447072744
1746276234276477000,4.538476806640625,-0.12542319995760917,0.06812602624297141,0.05897387475520372
1746276234286456800,4.548456787109375,-0.15827975989878176,0.052961190336942666,0.06866115603297948
1746276234296436700,4.558436767578125,-0.18018880936801432,0.011258476117253302,0.030517595599591732
1746276234306417000,4.5684169921875,-0.1601782869964838,-0.011211714366078375,-0.017731179262697697
1746276234316397800,4.578397705078125,-0.10422960528135299,-0.027492402559518812,-0.014844225649535655
1746276234326378000,4.5883779296875,-0.020126842227578164,-0.0506897382736206,0.040839667649567125
1746276234336358000,4.59835791015625,0.04163724776804447,-0.05140110141336918,0.030422610792517662
1746276234346337800,4.608337890625,0.09045695438608527,-0.07983107708394527,0.017904490002989767
1746276234356318000,4.61831787109375,0.09739069917201995,-0.12766016522943974,-0.04368979638367891
1746276234366299000,4.628298828125,0.07519684141203761,-0.08842413338422775,-0.10879150636941194
1746276234376278800,4.63827880859375,0.06322524858936666,-0.06220072784721851,-0.04685176754593849
1746276234386259000,4.648259033203125,0.11260068939402698,-0.06922317382991314,0.03652911097407341
1746276234396238000,4.658238037109375,0.1897885584928095,-0.06527589750885963,0.06518558887690305
1746276234406218000,4.668218017578125,0.18755144709050653,-0.10025251834392547,0.049798634652793404
1746276234416199200,4.67819921875,0.16944821964502332,-0.10281447778642178,0.03958674497902393
1746276234426179000,4.688178955078125,0.15653437753617763,-0.04962181678116321,0.015555588789284229
1746276234436159200,4.6981591796875,0.13783157676234842,0.024346505749225616,0.08099281433969735
1746276234446139100,4.70813916015625,0.15172390851452947,0.05872399164736271,0.23300036210119723
1746276234456119000,4.718119140625,0.09372165527045727,0.07631167078614234,0.282164205981791
1746276234466100000,4.728099853515625,0.03262041309773922,0.04989303493797779,0.2138072935923934
1746276234476080000,4.738080078125,-0.05746332406178117,-0.01930091279745102,0.10591595093309879
1746276234486060000,4.74806005859375,-0.16905366736948488,-0.07142039161324501,0.007477204012870788
1746276234496040200,4.758040283203125,-0.1813882482856512,-0.09904606516361236,-0.07943155637234449
1746276234506021000,4.768021240234375,-0.10255787267684936,-0.1047691189855337,-0.07564882296323776
1746276234516001000,4.7780009765625,0.005264788660407066,-0.10683657290935515,-0.0172539171397686
1746276234525981200,4.787981201171875,0.07933247991204262,-0.11953764905035495,0.009873743760585784
1746276234535961000,4.797961181640625,0.10692848897650838,-0.12159458158016204,-0.01181114156395197
1746276234545941000,4.80794091796875,0.1112567274391651,-0.06259528012275696,0.0020510873109102247
1746276234555922000,4.817921875,0.11517653123140334,-0.024118542212247848,0.11131956354230642
1746276234565902000,4.827902099609375,0.1186846854828298,-0.013198504269123076,0.2001212980672717
1746276234575882200,4.83788232421875,0.13222308923080564,0.0420890831887722,0.2233747478827834
1746276234585862100,4.847862060546875,0.10126023408174514,0.017477789023518563,0.2105339710101485
1746276234595842000,4.857842041015625,0.03863981951773166,0.016515081471204757,0.15991671345084904
1746276234605823000,4.867822998046875,-0.05368672813251614,0.009628244566917419,0.11422785220444202
1746276234615803000,4.877802978515625,-0.14575067932382224,-0.007816811230778693,0.07282908936738967
1746276234625783300,4.887783203125,-0.16614523257687686,-0.04641045351922512,-0.01853577364385128
1746276234635763200,4.89776318359375,-0.13491188992336392,-0.09102233318388461,-0.059823769582808016
1746276234645743000,4.9077431640625,-0.14199848718345165,-0.08664660231769085,-0.0766401720881462
1746276234655724000,4.91772412109375,-0.12391118795946239,-0.05920505316257477,-0.04573416169285774
1746276234665704000,4.927703857421875,-0.04430617471635341,-0.043290860193967814,0.015034487524628638
1746276234675684000,4.93768408203125,0.07804068653583526,-0.07933774060904979,0.041216099746525285
1746276234685664300,4.947664306640625,0.12043211367204784,-0.0865092396736145,0.08365560380816459
1746276234695645200,4.957645263671875,0.11488310124278067,-0.05952244854867458,0.0761588183119893
1746276234705625000,4.967625,0.0789104551076889,-0.04964695122241974,0.09694733931869268
1746276234715605000,4.97760498046875,0.02412044190838933,-0.07936170600652694,0.11615151374340056
1746276234725585000,4.9875849609375,0.01949716602191329,-0.11986498130857944,0.0215434310272336
1746276234735565300,4.9975654296875,0.014319471123069524,-0.17379121728539465,-0.09242050954401493
1746276234745546000,5.0075458984375,-0.0077833473525941365,-0.16298165397942066,-0.17843436691612005
1746276234755526100,5.017526123046875,-0.049107291387766594,-0.11714578547775745,-0.17594810305833816
1746276234765506000,5.027506103515625,-0.06396554556265473,-0.08156009283363819,-0.11688508871495723
1746276234775486000,5.03748583984375,-0.08870660358741879,-0.038949616119265555,-0.06667085899859666
1746276234785466000,5.047466064453125,-0.1346107150197029,-0.005795534536242485,-0.01026040499061346
1746276234795447000,5.057447021484375,-0.16996610603928564,0.017123568758368492,0.04449614433050155
1746276234805427200,5.06742724609375,-0.20223682891651987,0.019621230792999267,0.13384469908326863
1746276234815407000,5.077406982421875,-0.22362930716574192,-0.011141571739315986,0.14222060550153254
1746276234825387000,5.087386962890625,-0.22056465889811513,-0.03940729675889015,0.09870908829420805
1746276234835367200,5.0973671875,-0.1771136397063732,-0.06161679047942161,0.09744126031547784
1746276234845348000,5.10734814453125,-0.10166925327405332,-0.05826631100773811,0.10110592030286789
1746276234855328000,5.117327880859375,-0.06790259275063872,-0.051882747450470924,0.11125205126404762
1746276234865308200,5.12730810546875,-0.02538110949397087,-0.090495678961277,0.05646130741238594
1746276234875288000,5.1372880859375,-0.004247136050462723,-0.1192430500179529,0.015512918691337108
1746276234885268000,5.14726806640625,-0.055190118432790036,-0.12634791358709335,-0.05882862106561661
1746276234895249200,5.157249267578125,-0.10107976294830441,-0.1544739378750324,-0.100277652785182
1746276234905229000,5.16722900390625,-0.16851356914341448,-0.16256372082829473,-0.11771277171075344
1746276234915209000,5.177208984375,-0.22523542718812822,-0.11574877816140651,-0.12572539777457714
1746276234925189000,5.187189208984375,-0.23554639332219957,-0.10682371342778205,-0.13396481833159923
1746276234935169000,5.1971689453125,-0.22092925442680716,-0.0920078370898962,-0.13759206891804932
1746276234945150200,5.207150146484375,-0.24544965543821454,-0.08710545200109482,-0.1597314200118184
1746276234955130000,5.217130126953125,-0.3264128052920103,-0.04844985039234161,-0.24200872120410202
1746276234965110000,5.227110107421875,-0.42060850781500336,-0.06664309420883655,-0.20170739821493625
1746276234975090000,5.23708984375,-0.42785891733467574,-0.08306932835280895,-0.18654168552607298
1746276234985071000,5.247071044921875,-0.3731668115518987,-0.0556394696354866,-0.181416597597301
1746276234995051300,5.25705126953125,-0.31302082427740097,-0.07452946354448794,-0.15063362905979155
1746276235005031200,5.26703125,-0.24794176451489328,-0.13547697646021842,-0.10136281767338513
1746276235015011000,5.277010986328125,-0.16636837380826472,-0.14222469715476035,-0.0794789026454091
1746276235024991000,5.286990966796875,-0.07942936441525816,-0.13342939628064632,-0.025096739594638345
1746276235034972200,5.29697216796875,0.006071574998646974,-0.17213935842514036,0.02949555907547474
1746276235044952000,5.3069521484375,0.07560965999662876,-0.20880933917462824,0.042839609295129776
1746276235054932200,5.31693212890625,0.161277334279567,-0.21811609670221804,0.009011573973298072
1746276235064912100,5.326912109375,0.2177620225675404,-0.1893868458241224,0.0075225044593214985
1746276235074892000,5.33689208984375,0.2969141774766147,-0.16751403671205042,0.06352291636168957
1746276235084873200,5.346873291015625,0.3272748289488256,-0.13736498216390608,0.08145458663254976
1746276235094853000,5.35685302734375,0.261255565726757,-0.10600070660710334,0.07121434764713049
1746276235104833000,5.3668330078125,0.1563666197538376,-0.08900923979580402,0.08845803565382956
1746276235114813200,5.376813232421875,0.06724281366765499,-0.037732057023048396,0.08816372888237238
1746276235124793000,5.38679296875,0.041500323515385386,-0.03482873679697513,0.10771277122199535
1746276235134774300,5.396774169921875,0.04677680261358619,-0.03650689914226532,0.10321078362762927
1746276235144754200,5.406754150390625,0.010399228939414024,-0.03253215029239654,0.07376812378317117
1746276235154734000,5.416734130859375,-0.048235330858826635,-0.053775429329276085,0.06287205123752355
1746276235164714000,5.4267138671875,-0.04879238021969795,-0.06723638392686844,0.044344753161072725
1746276235174694100,5.436694091796875,-0.013330460085719822,-0.08282967437803745,0.005862170031666755
1746276235184675000,5.446675048828125,0.002429272973537445,-0.10916413907408713,-0.008015548673272132
1746276235194655200,5.4566552734375,0.059951487615704534,-0.12288871304392814,-0.05861790092438459
1746276235204635100,5.46663525390625,0.08536986038014292,-0.10572715036273002,-0.031870179252326485
1746276235214615000,5.476614990234375,0.1002332291215658,-0.06591244184672831,0.02617576700299978
1746276235224595000,5.486594970703125,0.12864742270112037,-0.05572948600649833,0.06407382824271916
1746276235234576000,5.496575927734375,0.19258301151692866,-0.04595744905471801,0.11043722774982452
1746276235244556300,5.506556396484375,0.23809227841272948,-0.04683598545491695,0.12108984692841768
1746276235254536200,5.5165361328125,0.27016090284660454,-0.049154783791303634,0.08455226038694381
1746276235264516000,5.52651611328125,0.3043495881743729,-0.052638534253835675,0.07420242354720831
1746276235274496000,5.53649609375,0.2846973777212202,-0.04603869759738445,0.0578051232367754
1746276235284477000,5.546476806640625,0.23467779379412532,-0.031359014859795566,0.028331483732163903
1746276235294457000,5.55645703125,0.18752441295310854,-0.0028939678758382794,0.01239274084419012
1746276235304437200,5.566437255859375,0.12286533216834068,-0.0021077859342098237,0.028179800301790237
1746276235314417200,5.576417236328125,0.08922478224262595,-0.02571487149298191,0.022173837885260582
1746276235324398000,5.586398193359375,0.024558687195181846,-0.08653729672431945,-0.00831453161984682
1746276235334378000,5.5963779296875,-0.046601153785735365,-0.08938508737087249,-0.03775046946257352
1746276235344358100,5.606358154296875,-0.05610474905967712,-0.09295651611685753,-0.03680120591372251
1746276235354338000,5.616338134765625,-0.04855214172303676,-0.09480418981015681,-0.036490824790298935
1746276235364318200,5.626318115234375,-0.051492140697687865,-0.12463526445031166,-0.05214812038838863
1746276235374299100,5.636299072265625,-0.07504208924174309,-0.15531272678673266,-0.07828209407627582
1746276235384279000,5.646279052734375,-0.09473989240229129,-0.17143150241672991,-0.06964344506859779
1746276235394259700,5.656259765625,-0.07429974644184112,-0.13880465957820415,-0.0387973481670022
1746276235404239600,5.666239501953125,0.011654781958460807,-0.13145780394673345,0.023967443303763866
1746276235414219500,5.676219482421875,0.0345328225903213,-0.11966975099742412,0.11658289089798926
1746276235424200400,5.686200439453125,-0.010921937639266252,-0.1127513499110937,0.09998919123262166
1746276235434180600,5.6961806640625,-0.04070508148446679,-0.12289864991605282,0.08545710027217865
1746276235444160800,5.706160888671875,-0.09393222928121685,-0.10828384910821914,0.05437894818037748
1746276235454140700,5.716140625,-0.12432137619554996,-0.09559095627367496,0.06603840631395579
1746276235464120600,5.72612060546875,-0.1409780580945313,-0.09153963505625724,0.05967968493700027
1746276235474101500,5.7361015625,-0.15494213990867137,-0.06032499710321426,0.04971504802256822
1746276235484081400,5.746081298828125,-0.14043138399720193,-0.00919511384665966,0.026234803713858126
1746276235494061800,5.756061767578125,-0.18448665269240735,0.0006803834795951843,0.02786211265474558
1746276235504041700,5.766041748046875,-0.23297405861616133,0.009837503403425216,0.046935646437108514
1746276235514021600,5.776021728515625,-0.2637672562867403,0.011271920120716095,0.020036825856566427
1746276235524002600,5.78600244140625,-0.2655382114820182,-0.01329728846848011,-0.03366641501933336
1746276235533982500,5.795982421875,-0.2217132444113493,-0.02231412313878536,-0.04187953209131956
1746276235543962400,5.80596240234375,-0.13466551394686102,0.01652794095277786,0.010564356373250483
1746276235553942800,5.81594287109375,-0.1299127664618194,0.028434651845693586,0.11402122371643782
1746276235563922700,5.825922607421875,-0.1059923771701753,0.009697802671790122,0.08207651792317629
1746276235573903600,5.835903564453125,-0.07667290531396866,-0.018961305579543113,0.014138123206794261
1746276235583883500,5.845883544921875,-0.04256313044130802,-0.03816986391842365,-0.017246026094257832
1746276235593863400,5.855863525390625,0.0018231237739324568,-0.05137538245022297,0.025006723223626612
1746276235603843600,5.865843505859375,0.06464505225941539,-0.06912965032756328,0.03658084116131067
1746276235613823700,5.87582373046875,0.043859599992632864,-0.07486030293405055,0.04457943869978189
1746276235623804700,5.8858046875,0.07048515658974647,-0.06453881540596484,0.013835048606991767
1746276235633784600,5.89578466796875,0.04764730183780193,-0.03076981679499149,0.046589024956524366
1746276235643764500,5.905764404296875,0.05354746579229831,-0.016431494840979576,0.09900865576267241
1746276235653744600,5.91574462890625,0.08093816154301166,-0.043263972187042234,0.10768442191034555
1746276235663724500,5.925724609375,0.0212524852566421,-0.03971241718530655,0.1131894490674138
1746276235673705500,5.93570556640625,-0.001326718559116125,-0.05767594389915466,0.09276508519798517
1746276235683685600,5.945685546875,-0.03070069708153605,-0.04292845662236214,0.07105185056179761
1746276235693665500,5.95566552734375,-0.028062311401963233,-0.044451136144995684,0.0823284468576312
1746276235703645700,5.965645751953125,0.025893150669336316,-0.060599137869477265,0.07418518015146255
1746276235713625600,5.97562548828125,0.094034520611912,-0.04924246207475662,0.1173068212583661
1746276235723606500,5.9856064453125,0.11387991554960608,-0.040398645883798594,0.13585194725245237
1746276235733586400,5.99558642578125,0.09707871061339973,-0.023576105898618697,0.12432839045822619
1746276235743566600,6.005566650390625,0.06559110093787313,-0.025847557961940763,0.15545096621364354
1746276235753546500,6.01554638671875,0.034143677142262456,-0.030799627411365507,0.1460609143167734
1746276235763526700,6.025526611328125,0.0049703357584774495,-0.0560533111333847,0.09120674984008073
1746276235773507600,6.035507568359375,-0.06131283909678459,-0.0848188023686409,0.0235673380702734
1746276235783487500,6.045487548828125,-0.078998864043504,-0.062417585468292236,0.01917173345983028
1746276235793467600,6.055467529296875,-0.014817629903554915,-0.0037894554108381267,0.08939853137433529
1746276235803447600,6.065447509765625,0.03232654471769929,0.0036357261538505553,0.17288842322677372
1746276235813427700,6.075427734375,0.04838964463770389,0.019547581034898755,0.2031099584892392
1746276235823408600,6.08540869140625,0.07936755122542381,0.019710662642121315,0.21756810743063687
1746276235833388500,6.095388427734375,0.06747136172652245,0.042054011875391005,0.26549451847076416
1746276235843368400,6.105368408203125,0.07294438631013035,0.04524491687119007,0.3431625723019242
1746276235853348600,6.1153486328125,0.05974354395344853,0.002482464465498924,0.33628976392298937
1746276235863328800,6.125328857421875,0.02787467987537384,-0.06007599077820778,0.23353169249892233
1746276235873309700,6.135309814453125,-0.011290040299296379,-0.08448971654474735,0.1449704887315631
1746276235883289600,6.14528955078125,-0.028173516691476105,-0.09291501506268977,0.1127513499110937
1746276235893269500,6.15526953125,-0.023625790259242056,-0.08864391361474991,0.10977262636125087
1746276235903249400,6.16524951171875,-0.05102583836019039,-0.10429331816732883,0.09996697940081357
1746276235913229800,6.175229736328125,-0.06558861671984195,-0.09660510175228118,0.0166220489770174
1746276235923210500,6.18521044921875,-0.08875906442701816,-0.11470540658831596,-0.06830342863649129
1746276235933190700,6.195190673828125,-0.11570727710723876,-0.1046650740891695,-0.10644961941838264
1746276235943170600,6.205170654296875,-0.08972367167547345,-0.07471767959296703,-0.070784431797266
1746276235953150500,6.215150390625,-0.023657354441285132,-0.07171148351430892,-0.0034057167902588844
1746276235963131600,6.225131591796875,-0.044651773283630604,-0.06085223584771156,0.002778524802625179
1746276235973111600,6.235111572265625,-0.05746200888752937,-0.067712769266963,-0.05588263074159622
1746276235983091700,6.245091796875,-0.08451470485553145,-0.0814461110651493,-0.09686521399319171
1746276235993071600,6.255071533203125,-0.11650456496477127,-0.06070435180962085,-0.07682721909284591
1746276236003051500,6.265051513671875,-0.11301833028420805,-0.04808335516750812,-0.040131227119266984
1746276236013032700,6.27503271484375,-0.10099296144768595,-0.05820727429687977,-0.04658464104235172
1746276236023012600,6.2850126953125,-0.07314107792600989,-0.08199789972901343,-0.0868427094116807
1746276236032992500,6.294992431640625,-0.054213674616068595,-0.12666647801697253,-0.12578735709488392
1746276236042972700,6.30497265625,0.017121230670809746,-0.10795943945944309,-0.11093787074834108
1746276236052952600,6.31495263671875,0.07556216759309173,-0.10631401033997535,-0.05594926623702049
1746276236062933800,6.324933837890625,0.04496653832122683,-0.1333084002494812,-0.04032178125530481
1746276236072913700,6.33491357421875,-0.007993336841464043,-0.11601941179633139,-0.11580927617698906
1746276236082893600,6.3448935546875,-0.08335106790363789,-0.11731763491332531,-0.12372107221484184
1746276236092873500,6.35487353515625,-0.16107187483534216,-0.1255307519853115,-0.1329910048633814
1746276236102853600,6.364853515625,-0.15333865023478865,-0.10861761110723019,-0.16006576653271912
1746276236112833500,6.37483349609375,-0.13030512678027154,-0.07973521549403667,-0.11013502993285655
1746276236122814700,6.384814697265625,-0.09837138077244162,-0.06027180561125278,-0.04344429719001054
1746276236132794600,6.394794677734375,-0.04710121226236224,-0.055310383811593054,-0.046341187675297255
1746276236142774500,6.4047744140625,-0.03774959267973899,-0.07009761857688426,-0.05413081863820553
1746276236152754400,6.41475439453125,-0.05116203196048736,-0.09425415471196175,-0.0747282009869814
1746276236162735600,6.424735595703125,-0.05737067734226584,-0.1231909108608961,-0.0860083044141531
1746276236172715800,6.4347158203125,-0.10496654125377536,-0.10288929658830165,-0.08759323551803827
1746276236182695700,6.44469580078125,-0.1299262104652822,-0.10392623842060565,-0.058768999832868575
1746276236192675600,6.454675537109375,-0.1646264985769987,-0.11679273425638675,-0.03237257581651211
1746276236202655500,6.464655517578125,-0.2013635532133281,-0.07759703442156314,-0.03872369840890169
1746276236212636400,6.474636474609375,-0.20312150279656052,-0.10157821398973464,-0.03838935188800096
1746276236222616600,6.484616455078125,-0.1548040466122329,-0.10641805523633956,-0.038760231027007104
1746276236232596700,6.4945966796875,-0.14021627994179725,-0.0851104787915945,0.01863192749470472
1746276236242576600,6.50457666015625,-0.10258476068377494,-0.0604495002657175,0.06193769299685955
1746276236252556500,6.514556640625,-0.05154883932098746,-0.034547581768035886,0.10866934129446744
1746276236262537500,6.524537353515625,-0.029689035820960996,-0.01734802516400814,0.10425386293977498
1746276236272517600,6.534517578125,0.0009627075523138045,-0.06201309632062912,0.07945289142131805
1746276236282497500,6.54449755859375,0.003477320721745491,-0.08054127117991447,0.05815758993625641
1746276236292477700,6.554477783203125,0.01515972133949399,-0.09442425058186053,0.0400064316958189
1746276236302457600,6.56445751953125,0.0056336219727993,-0.06845978824198246,0.040105800417065615
1746276236312438500,6.5744384765625,0.005945318270474672,-0.017938976794481275,0.057305649282038205
1746276236322418700,6.584418701171875,-0.00207549109980464,0.0069791913628578185,0.09532529107481241
1746276236332398600,6.594398681640625,0.00235869195535779,0.04605681777596474,0.13694208057671783
1746276236342378500,6.60437841796875,-0.02705167305469513,0.020126257705688474,0.13977292008846998
1746276236352358700,6.614358642578125,-0.017568389916419982,0.027699323308467864,0.15464023435264826
1746276236362339600,6.624339599609375,0.03022197365388274,0.026928923457860944,0.21521073064953086
1746276236372319700,6.63431982421875,0.08000058843195437,-0.0010936404556035994,0.23117226989120243
1746276236382299600,6.644299560546875,0.12289295082762837,-0.04900456166565418,0.16503800198733806
1746276236392279600,6.654279541015625,0.14148761505186558,-0.0854372265279293,0.10003010776489972
1746276236402260000,6.664260009765625,0.13723185730352996,-0.11195932275056839,0.033689795894920826
1746276236412241200,6.6742412109375,0.13556874639689923,-0.10986614986360073,0.028688334345817565
1746276236422221000,6.684220947265625,0.15583192835524678,-0.09058452628850937,0.056635202674567696
1746276236432201200,6.694201171875,0.15594298751428723,-0.09127776924967765,0.05453384648114443
1746276236442181000,6.70418115234375,0.16524200012683868,-0.10557868180274962,0.03330927214473486
1746276236452161000,6.7141611328125,0.1091625316388905,-0.13231588208079337,0.012044365797936916
1746276236462141000,6.724140869140625,0.04724748886525631,-0.13300561791062354,0.022778818041086196
1746276236472122000,6.7341220703125,0.05061901112496853,-0.048452773001790045,0.06938537865430117
1746276236482102300,6.744102294921875,0.04304492260888219,0.01487842018008232,0.17784253850281237
1746276236492082200,6.754082275390625,0.04484510389864445,0.018161095112562177,0.1864683280289173
1746276236502062000,6.76406201171875,-0.002041881091147661,-0.028864275434613226,0.12206804431080817
1746276236512042000,6.7740419921875,-0.043386575653403994,-0.07913841864466667,0.05537380443662405
1746276236522023200,6.784023193359375,-0.08217910151481628,-0.10226678077578544,0.007309446230530738
1746276236532003000,6.794003173828125,-0.10449147108793258,-0.05629647223949432,-0.01150134496241808
1746276236541983200,6.803983154296875,-0.0453929470397532,-0.013867197310924529,0.08655395559817552
1746276236551963100,6.813963134765625,0.044424248138070103,-0.014636428117752074,0.17074118206501007
1746276236561943000,6.823943115234375,0.09294774828851222,-0.022089082211256026,0.16976152337789535
1746276236571924200,6.83392431640625,0.049196138714998956,-0.06105331137776374,0.09118249218165873
1746276236581904100,6.843904052734375,-0.03870426305606961,-0.11259703613221644,-0.02321604041457176
1746276236591884000,6.853884033203125,-0.13821619216576217,-0.13835048606991768,-0.1194765665128827
1746276236601864200,6.8638642578125,-0.22464096842631695,-0.1355219846457243,-0.12284750425070523
1746276236611844000,6.873843994140625,-0.2199683004401624,-0.11090075360834598,-0.0692898093253374
1746276236621825300,6.8838251953125,-0.16273440122008323,-0.07676818238198757,-0.020386369946599005
1746276236631805200,6.89380517578125,-0.13209785541594027,-0.043159927290678024,0.037789632429182526
1746276236641785000,6.90378515625,-0.08928732608482241,-0.05851707089841365,0.06289952376633882
1746276236651765000,6.913764892578125,-0.07311126730963588,-0.04336860160529613,0.0431415148511529
1746276236661745200,6.9237451171875,-0.07635667897164822,-0.042567806616425514,-0.010839373922348022
1746276236671726300,6.933726318359375,-0.09467676403820514,-0.061246203601360315,-0.006666764412820339
1746276236681706200,6.943706298828125,-0.08983341566026211,-0.05179331560134887,0.00872720407396555
1746276236691686100,6.95368603515625,-0.08244213636517524,-0.05087503171265125,0.029048107568919658
1746276236701666000,6.963666015625,-0.06177110425829887,-0.0815203453451395,0.029970483110845086
1746276236711646200,6.973646240234375,-0.04636705276891589,-0.08955869037210941,0.005796995840966701
1746276236721627100,6.983627197265625,-0.0162703129298985,-0.09038111267089843,-0.028895839616656302
1746276236731607300,6.993607177734375,0.001217705226689577,-0.09816343711018562,-0.03669102353751659
1746276236741587200,7.003587158203125,0.001821370208263397,-0.104621234947443,-0.032065994085371495
1746276236751567000,7.013567138671875,-0.03475874030068517,-0.09361468776464461,-0.02974456540048122
1746276236761547000,7.023547119140625,-0.0702612847059965,-0.07920563866198062,-0.019926643480360506
1746276236771528200,7.033528076171875,-0.10420622440576553,-0.08944587764739989,-0.036463060000538824
1746276236781508000,7.043508056640625,-0.10323007284998893,-0.11449147157669066,-0.03512099774181843
1746276236791488300,7.05348828125,-0.05808087143823504,-0.14634674552083016,-0.056712359564006325
1746276236801468200,7.06346826171875,-0.04045286028906703,-0.1551022989064455,-0.05902823529094457
1746276236811448000,7.073447998046875,-0.0029271394930779934,-0.11811842990219593,-0.054311728163063525
1746276236821429000,7.083428955078125,0.03755012458488345,-0.0857943694025278,-0.031115561492741105
1746276236831409200,7.0934091796875,0.04540317617282271,-0.04598492158353328,0.001842120735347271
1746276236841389000,7.10338916015625,0.043897155524045224,-0.01612929702401161,0.02722936770915985
1746276236851369200,7.113369140625,0.0168225399851799,0.004158873245120048,0.035951311086118216
1746276236861349000,7.12334912109375,-0.023604747471213338,0.01788520078063011,0.051796238210797305
1746276236871330000,7.133330078125,-0.0541144520252943,0.0020785598397254942,0.07037526647448539
1746276236881310200,7.143310302734375,-0.11316928306221961,-0.018298457756638527,0.05454261430948972
1746276236891290000,7.1532900390625,-0.14117781845033167,-0.04750526301860809,0.05331628738492727
1746276236901270300,7.163270263671875,-0.12161372467204928,-0.06310849034190177,0.0685100571244955
1746276236911250200,7.173250244140625,-0.0934093744508922,-0.05760755483806133,0.08597586344927549
1746276236921231000,7.183231201171875,-0.06767535986602306,-0.022859482061862946,0.10658113684356212
1746276236931211300,7.193211181640625,-0.05940554417073726,-0.05337912348806858,0.1298451080530882
1746276236941191200,7.203191162109375,-0.07551482132002711,-0.07155424712598324,0.0855202286362648
1746276236951171000,7.213171142578125,-0.09625248892232775,-0.11477905634641647,0.0450952792674303
1746276236961151200,7.223151123046875,-0.09830649884268641,-0.13753683159947394,0.036649522483348844
1746276236971132200,7.233132080078125,-0.075785454954952,-0.1601519835114479,0.016520342168211934
1746276236981112300,7.2431123046875,-0.005202244818210602,-0.1459475170701742,-0.00436053329706192
1746276236991092200,7.25309228515625,0.06786065330505371,-0.09555179330706595,0.038199382273852826
1746276237001072000,7.263072021484375,0.008306056052446364,-0.0678220748603344,0.07219517537802457
1746276237011052000,7.273052001953125,-0.05304667666330933,-0.0685059654712677,0.022229075203835963
1746276237021033000,7.283032958984375,-0.1605138025611639,-0.05928863979279995,-0.007983107708394527
1746276237031013400,7.293013427734375,-0.22129706482589243,-0.026771102547645566,-0.009533844281733036
1746276237040993300,7.3029931640625,-0.20074337548837065,0.023684826970100402,0.05386573796123266
1746276237050973200,7.31297314453125,-0.15185425689592957,0.009155366358160971,0.14671587109416723
1746276237060953000,7.322953125,-0.14340265489295123,0.013773089286684989,0.12662819183319807
1746276237070934000,7.33293408203125,-0.11542509916499256,-0.012505261307954787,0.08345628184378147
1746276237080914000,7.342913818359375,-0.11464505470320582,-0.0481669417977333,0.029461949066817757
1746276237090894300,7.352894287109375,-0.11229176957532763,-0.09031038552224635,-0.019988310539722443
1746276237100874200,7.362874267578125,-0.09228431594371796,-0.0613514175415039,-0.037870004189014435
1746276237110854100,7.372854248046875,0.013561346232146023,-0.07460019069314003,0.02346183186918497
1746276237120834000,7.382833984375,0.07521788420006632,-0.060948681959509844,0.023343466186523436
1746276237130815000,7.39281494140625,0.09336991922333836,-0.06540040067136288,0.01168342353105545
1746276237140795100,7.402795166015625,0.08548807993233204,-0.08598667710423469,-0.029369010086357592
1746276237150775300,7.412775390625,0.05036868962571025,-0.08227613214850425,-0.032769173918664456
1746276237160755200,7.422755126953125,0.04075052806138992,-0.05483633655905723,0.007776186959445476
1746276237170735000,7.432735107421875,0.043725159958004946,-0.05130290173590183,0.011026420927047729
1746276237180716000,7.442716064453125,0.02982347585558891,-0.07389584181606769,0.021803251007199285
1746276237190696200,7.4526962890625,0.04444821353554725,-0.03390811482071876,0.043138007719814776
1746276237200676000,7.462676025390625,0.006356675550341606,0.013735095363855362,0.10581424412429333
1746276237210656300,7.47265625,-0.011776800902932882,0.015786767196655272,0.15168021550327537
1746276237220636200,7.48263623046875,-0.008481558749824761,-0.005491583153605461,0.12393851435780524
1746276237230617000,7.4926171875,-0.008608838391304016,-0.04977086986303329,0.07141337735056877
1746276237240597200,7.50259716796875,0.002908580923080444,-0.07737491610348224,0.016486439898610115
1746276237250577200,7.5125771484375,0.06554083205536007,-0.06833996125459671,0.030597967359423637
1746276237260557000,7.52255712890625,0.12070683896020054,-0.011857026532292366,0.10204524697959423
1746276237270537200,7.532537109375,0.09052432053387165,0.014045476487278937,0.15851707578599453
1746276237280518100,7.54251806640625,0.0587806902706623,-0.01989946321249008,0.11669541136175393
1746276237290498000,7.552498046875,0.0464765044927597,-0.0727536860436201,0.03342734556645155
1746276237300478200,7.562478271484375,0.013140636602044104,-0.11060615457594394,-0.020194646766781805
1746276237310458000,7.5724580078125,0.04167641073465347,-0.07573357863724231,0.0008823357924818992
1746276237320438300,7.582438232421875,0.1544460269547999,-0.015098784932494162,0.10319909318983554
1746276237330419000,7.5924189453125,0.21411694406345486,0.042052842831611634,0.2435112347215414
1746276237340399000,7.602399169921875,0.18672186439856886,0.07693594016432762,0.268385563737154
1746276237350379300,7.612379150390625,0.13378186298012731,0.09548340424597263,0.2185579952508211
1746276237360359200,7.622359130859375,0.021140841575711965,0.04801671967208385,0.17070932562202215
1746276237370339000,7.632339111328125,-0.04771466798558831,0.020112813702225684,0.15866232947558165
1746276237380320000,7.642320068359375,-0.03095511023402214,-0.003773673319816589,0.17245178537517786
1746276237390300200,7.652300048828125,0.004248889616131782,-0.01876373718082905,0.1817953677818179
1746276237400280000,7.662280029296875,0.027940876979380844,-0.03639934711456299,0.10154986467808484
1746276237410260000,7.672260009765625,0.041726679617166515,-0.09106383423805237,0.01892623426616192
1746276237420240000,7.682239990234375,0.0600707300812006,-0.14049158975183962,-0.03971095588058233
1746276237430221000,7.692220947265625,0.05484510438740253,-0.11119710620641708,-0.0746992671534419
1746276237440201000,7.702200927734375,0.06139174955189228,-0.09864274505972861,0.007127367661893367
1746276237450181000,7.71218115234375,0.08499649702310562,-0.08504793494939804,0.05247019194960594
1746276237460161000,7.7221611328125,0.06213423848226666,-0.08361760988533497,0.051509237962961196
1746276237470141000,7.732140869140625,-0.006824293062090874,-0.09185878400802612,0.03589373567998409
1746276237480120800,7.742120849609375,-0.06184811501726508,-0.11542378399074077,0.00504939234405756
1746276237490102000,7.75210205078125,-0.08614040636122226,-0.07433774036467075,0.012997136478126049
1746276237500082000,7.76208203125,-0.06515139434635639,-0.03436287285089493,0.053018181221187115
1746276237510062000,7.77206201171875,-0.05328486933335662,-0.013144143733382223,0.1349231419697404
1746276237520042000,7.7820419921875,-0.031955227187275885,-0.0008539864808320999,0.09469956039190291
1746276237530022000,7.79202197265625,-0.03097030780315399,-0.005941665008664131,0.050711365583539
1746276237540003000,7.802003173828125,-0.06628346711620688,-0.04647358188331127,0.03336187911480665
1746276237549983000,7.81198291015625,-0.07979191411733627,-0.05592354727387428,0.00609159487336874
1746276237559963000,7.821962890625,-0.09985022115334868,-0.06116027888357639,0.010194938538968563
1746276237569943000,7.831943115234375,-0.08237140921652317,-0.05654197143316268,0.0036404023289680477
1746276237579923000,7.8419228515625,-0.04499225728437304,-0.09170505475103854,-0.004666530506312847
1746276237589904100,7.851904052734375,-0.07357026312351227,-0.10694003328382969,-0.05564297676682472
1746276237599884000,7.861884033203125,-0.04309095370769501,-0.09464987603127956,-0.05288549475222826
1746276237609864000,7.871864013671875,0.0008178922541439532,-0.0888186856597662,-0.033306057274341584
1746276237619843800,7.88184375,0.0008767828345298766,-0.1028045409142971,0.001807341682910919
1746276237629824000,7.891823974609375,-0.015020166738331318,-0.12022037061750888,-0.0027718028008937834
1746276237639805200,7.90180517578125,-0.04714285944700241,-0.12150105807781218,-0.027159809604287145
1746276237649785000,7.91178515625,-0.05515782359838486,-0.09127367759644985,-0.0100669282451272
1746276237659765000,7.921764892578125,-0.052503509697318075,-0.04755845451056957,0.029304128156602383
1746276237669745000,7.931744873046875,-0.05295592963993549,-0.05240472549796104,0.07808715602606535
1746276237679725000,7.94172509765625,-0.072300681579113,-0.04777414308786392,0.06932663420438766
1746276237689706000,7.9517060546875,-0.05356485531851649,-0.02772738035917282,0.020252514433860776
1746276237699686100,7.96168603515625,-0.04823693829402327,-0.05311258150637149,-0.008851122714579105
1746276237709666000,7.971666015625,-0.043104982233047484,-0.08912614417374133,-0.013679273523390292
1746276237719646000,7.98164599609375,-0.019122195229679347,-0.10857961718440055,0.0034217911422252654
1746276237729625900,7.9916259765625,0.01842486061528325,-0.10542202993631362,-0.01545622006803751
1746276237739606000,8.00160595703125,0.057618806884437795,-0.10348083274066448,-0.02883826421052217
1746276237749587000,8.0115869140625,0.14158230759799478,-0.11454407854676246,0.011363982318341731
1746276237759567000,8.021567138671875,0.19621362310424445,-0.12952303649187089,0.0187789347499609
1746276237769547000,8.031547119140624,0.14835925438702105,-0.11518529905974864,0.014245090712606906
1746276237779527000,8.04152685546875,0.06912614319622516,-0.11938275074958801,-0.03963526029586792
1746276237789506800,8.0515068359375,-0.030748774006962774,-0.11801146239638328,-0.1241325756251812
1746276237799488000,8.061488037109376,-0.08919263353869318,-0.11183540410995482,-0.08769085067361593
1746276237809468000,8.071468017578125,-0.05820946625396609,-0.11655541836917399,-0.06411795964539051
1746276237819448000,8.081447998046874,-0.019186931028962136,-0.06512625990509986,-0.09179974729716778
1746276237829428000,8.091427978515625,0.0037871173232793807,-0.03833586813509464,-0.06967939316481352
1746276237839407900,8.101407958984375,0.015564795009046792,-0.02741407662630081,-0.03284428498148918
1746276237849389000,8.11138916015625,-0.020073796866089105,0.011095979031920432,0.0019280454531311988
1746276237859369000,8.121368896484375,-0.02263444113433361,0.0014636428117752074,0.026635785730183124
1746276237869349000,8.13134912109375,-0.03344166635274887,-0.025656419304013252,0.034036709636449815
1746276237879329000,8.1413291015625,-0.03535831362903118,-0.046566520863771436,0.030113398712873458
1746276237889309000,8.151308837890625,-0.03595467208698392,-0.09583820903301238,0.054141632293164724
1746276237899290000,8.1612900390625,-0.05250161000117659,-0.1344417881935835,0.019532967987656594
1746276237909270000,8.17127001953125,-0.060626610398292535,-0.16355740804076194,-0.05045739082247019
1746276237919250000,8.18125,-0.07702420296967029,-0.17261632828712462,-0.08125117301493882
1746276237929230000,8.19122998046875,-0.08380801789090037,-0.16894611534178255,-0.05904109477251768
1746276237939210000,8.2012099609375,-0.07250467971861362,-0.18896131388843057,-0.03494154952168464
1746276237949190000,8.21118994140625,-0.09146379334107041,-0.1488584360808134,-0.004730827914178371
1746276237959171000,8.221171142578125,-0.10807985096871853,-0.11840075397491455,0.04130640837848186
1746276237969151000,8.23115087890625,-0.12545315670445562,-0.10003916785418987,0.05803104094713926
1746276237979131000,8.241130859375,-0.10916180098652839,-0.09068915570676327,0.06773848823010921
1746276237989111000,8.251111083984375,-0.06273848798573017,-0.0688023180693388,0.10821838265657424
1746276237999091000,8.261091064453124,0.022224691289663312,-0.014374562311172484,0.1532262759014964
1746276238009072000,8.271072021484375,0.08941782059669494,0.023479075264930725,0.1985550716638565
1746276238019052000,8.281052001953125,0.05491057083904743,0.02616436882615089,0.20282617311179638
1746276238029032000,8.291031982421876,-0.01809898966178298,-0.004055412870645523,0.10240765055119991
1746276238039011800,8.30101171875,-0.04259513301476836,-0.004977203890681266,0.07792348989695311
1746276238048992000,8.310991943359374,-0.04525952991843223,-0.0015314473509788513,0.057036184690892694
1746276238058973200,8.32097314453125,-0.06175298407971858,-0.00929272900223732,0.06169248606413603
1746276238068953000,8.330953125,-0.07398527366518974,-0.04895429278314113,0.007207447160780429
1746276238078933000,8.34093310546875,-0.06519684092327951,-0.06169336284697056,-0.050096156294643875
1746276238088913000,8.350912841796875,-0.07751125583425164,-0.048426469516754146,-0.03491407699286937
1746276238098892800,8.360892822265624,-0.06242693781852722,-0.07679448586702346,-0.07950199126005172
1746276238108874000,8.3708740234375,-0.0084973408408463,-0.09530337150394916,-0.12682780605852603
1746276238118854100,8.380854248046875,0.07132219193577766,-0.13237725687921045,-0.12375146735310553
1746276238128834000,8.390833984375,0.14150646588280796,-0.11889759758114814,-0.10750497369021177
1746276238138814000,8.40081396484375,0.17742051369845865,-0.08864099100530147,-0.07764788782596588
1746276238148793900,8.4107939453125,0.14108853273168206,-0.08378302958011627,-0.07261895374804735
1746276238158774000,8.42077392578125,0.0803017633356154,-0.08587620246708393,-0.11068798764050006
1746276238168755000,8.4307548828125,0.008299626311659812,-0.07742986116111278,-0.101070264467597
1746276238178735000,8.440735107421874,-0.02983867342472076,-0.09866261880397796,-0.11785948670506477
1746276238188715000,8.450715087890625,-0.0246009189017117,-0.09565408463776111,-0.1380415662512183
1746276238198695000,8.46069482421875,-0.005000730896741152,-0.08080196794271469,-0.08873597581237554
1746276238208674800,8.4706748046875,0.05411737463474273,-0.06486614766418934,-0.056065001571178434
1746276238218656000,8.480656005859375,0.05002864401638508,-0.02514963882565498,-0.015788813023269177
1746276238228636000,8.490635986328124,0.020516718327999114,-0.024293314257264137,-0.00519318472892046
1746276238238616000,8.500615966796875,-0.03931494230031967,-0.014654548296332358,0.01589402696341276
1746276238248596000,8.510595947265625,-0.07393368960842489,-0.025551205363869664,0.0032721535384654995
1746276238258576000,8.520575927734376,-0.06642682110965252,-0.025699673923850058,0.010866846451163292
1746276238268557000,8.53055712890625,-0.10060951508805155,-0.013029577443003653,0.04780862987935543
1746276238278537000,8.540536865234374,-0.2155557446949184,0.006736614778637886,0.0652858343809843
1746276238288517000,8.55051708984375,-0.31434783509746195,0.04585165059268474,0.02160100643336773
1746276238298497000,8.5604970703125,-0.13880992027521133,-0.03478314408957958,0.0843354027658701
1746276238308477000,8.570476806640626,0.05328092381060123,-0.03082300828695297,0.10922960552573203
1746276238318456800,8.580456787109375,0.17804376016333698,-0.046429742741584776,0.2561956519886851
1746276238328438000,8.59043798828125,0.26631694076955315,-0.03350187210738659,0.2315136306747794
1746276238338418000,8.60041796875,0.2971193446598947,-0.023668460357189176,0.17838175994604824
1746276238348398000,8.610398193359375,0.24612697017788884,-0.040758711367845535,0.15599369478821754
1746276238358378000,8.6203779296875,0.15018953855410216,-0.04274608579277992,0.127844289624691
1746276238368358000,8.63035791015625,0.046477673536539074,-0.025052023670077323,0.09862900879532098
1746276238378339000,8.640339111328124,-0.008050473856180906,0.000023380875587463377,0.13529548241347072
1746276238388319000,8.650319091796876,-0.047587096083164214,0.029672669208049774,0.13049188152402638
1746276238398298600,8.660298583984375,-0.01915989689156413,0.02315583465993404,0.1587222429692745
1746276238408278500,8.670278564453126,0.06624094314873218,-0.009606617256999015,0.16250760672688483
1746276238418258400,8.680258544921875,0.09523717439994216,-0.022294249394536017,0.15094196435660123
1746276238428239400,8.6902392578125,0.10168386632129549,-0.04354804982542992,0.1062637414574623
1746276238438219500,8.700219482421875,0.09955927538275718,-0.08040157044827938,0.0717322340413928
1746276238448199400,8.710199462890625,0.07943871676549315,-0.11136369494497775,0.015780921977758405
1746276238458179600,8.7201796875,0.09121756349503994,-0.13135083644092083,-0.04114508033692837
1746276238468159500,8.730159423828125,0.08064940772950649,-0.12833353444635867,-0.06486234827190637
1746276238478139400,8.740139404296874,0.04934840666726231,-0.1093096850246191,-0.03418722402304411
1746276238488120600,8.75012060546875,-0.0012232581846415996,-0.11649521261453628,-0.04583440719693899
1746276238498100500,8.7601005859375,-0.023079408422857522,-0.11557283707261085,-0.058388476082682605
1746276238508080400,8.770080322265626,-0.025832506523281333,-0.13108254089355467,-0.059388885296881196
1746276238518060500,8.780060546875,-0.03945698111951351,-0.1453121417760849,-0.05932400336712598
1746276238528040400,8.79004052734375,-0.025940496942400932,-0.11618015531599521,-0.06643500441610813
1746276238538021600,8.800021728515626,-0.021693214761465785,-0.10880290454626083,-0.045026305684447286
1746276238548001500,8.81000146484375,0.010175795447081326,-0.08301496781706809,-0.018953706794977185
1746276238557981400,8.8199814453125,0.040744536712020635,-0.09221300427317619,0.017701953168213366
1746276238567961300,8.82996142578125,0.02270984445810318,-0.0868576147198677,0.054629708071053024
1746276238577941500,8.83994140625,-0.014263503152132033,-0.05859948848485946,0.06366612422466278
1746276238587922700,8.849922607421876,-0.08238660678565501,-0.07055705278217791,0.05306260488480329
1746276238597902600,8.859902587890625,-0.1601823786497116,-0.08293722640573978,0.02654489257633686
1746276238607882500,8.869882568359374,-0.23027108326777815,-0.08683715645372866,0.008360416588187217
1746276238617862400,8.8798623046875,-0.24453283285424113,-0.08953004879951476,0.009462532611191272
1746276238627842300,8.88984228515625,-0.20102350760400295,-0.056039282608032225,0.03534808449596166
1746276238637822500,8.899822509765626,-0.14009762199819087,-0.060811903837323183,0.06534340978711843
1746276238647803600,8.9098037109375,-0.1138975973367691,-0.07521510772109032,0.06416822852790355
1746276238657783600,8.919783447265624,-0.0695604429602623,-0.07602467053830624,0.043240591311454774
1746276238667763500,8.929763427734375,-0.05323650014698505,-0.08822714950740337,-0.000870060832798481
1746276238677743400,8.939743408203125,-0.06165493053272366,-0.0914805983453989,0.014057166925072669
1746276238687723500,8.9497236328125,-0.07514321152865887,-0.07722352493405342,0.0026057985842227933
1746276238697704400,8.959704345703125,-0.12416647789478301,-0.06285948401689528,0.009329553881287575
1746276238707684600,8.9696845703125,-0.16605857720673084,-0.05925006134808063,0.036923663249611854
1746276238717664500,8.97966455078125,-0.1513034911453724,-0.03453472228646278,0.05762070658057928
1746276238727644400,8.98964453125,-0.17974457273185251,-0.02390752981007099,0.08187573465406894
1746276238737624300,8.999624267578126,-0.16765943653210996,-0.01308335345685482,0.11981734277456998
1746276238747604500,9.0096044921875,-0.1297438396357,-0.0018961890101432798,0.15424860468655824
1746276238757585400,9.01958544921875,-0.07258475921750068,-0.01676934849321842,0.1451373697310686
1746276238767565600,9.029565673828126,-0.015848141995072364,-0.044698388904333114,0.12404343603700399
1746276238777545500,9.03954541015625,-0.006665303108096122,-0.06207330207526683,0.10688216561675071
1746276238787525400,9.049525390625,0.018722820648550985,-0.08544833244383335,0.06878156754225492
1746276238797505300,9.05950537109375,0.03306596490815282,-0.059901803255081175,0.05781710593551397
1746276238807486500,9.069486572265625,0.01623816422596574,-0.06286182210445404,0.06744096658825874
1746276238817466600,9.079466552734376,-0.03266030671671033,-0.06713584616184234,0.05078326177597046
1746276238827446500,9.089446533203125,-0.04446282658278942,-0.0525198763102293,0.04077566250264644
1746276238837426400,9.099426513671874,-0.027941753762215374,-0.04650105441212654,0.05713000045418739
1746276238847406300,9.10940625,0.01018061775267124,-0.056554246392846105,0.058680737027525895
1746276238857387500,9.119387451171875,0.09782967511117457,-0.05231587817072868,0.060332011365890496
1746276238867367400,9.129367431640626,0.18945187388435006,-0.025064883151650428,0.10415127934813499
1746276238877347600,9.13934765625,0.24800664644464848,-0.03066401833295822,0.10865502050817012
1746276238887327500,9.149327392578124,0.28000191338136793,-0.035572833162546155,0.12105302204936742
1746276238897307400,9.159307373046875,0.23195947474613784,-0.06072130294442177,0.11875702006667851
1746276238907287300,9.169287353515625,0.17085589448586105,-0.0762485424220562,0.0958349941626191
1746276238917268500,9.1792685546875,0.12567571341395378,-0.0813718767851591,0.1007698202162981
1746276238927248400,9.189248291015625,0.06965747359395026,-0.0950005891650915,0.05259674093872308
1746276238937228500,9.199228515625,0.015755787536501885,-0.12034545830190181,0.037593525335192675
1746276238947208400,9.20920849609375,-0.007187281155586242,-0.11063128901720046,0.010992518657445906
1746276238957188400,9.219188232421875,-0.017271598926931617,-0.08388707447648049,0.0030859833166003224
1746276238967169500,9.22916943359375,-0.017636778977513312,-0.08080079889893531,0.01738981847912073
1746276238977149400,9.2391494140625,-0.021755466342717408,-0.06169686997830867,0.025866262662410735
1746276238987129300,9.24912939453125,-0.029352351212501526,-0.05439911418557167,0.030235856048762798
1746276238997109500,9.259109619140625,-0.046021746462583536,-0.08405717034637927,0.034487960535287854
1746276239007089400,9.26908935546875,-0.05686915756091475,-0.0946615664690733,0.03413783192336559
1746276239017070600,9.279070556640624,-0.07863646047189832,-0.13293196815252303,0.0032400048345327375
1746276239027050500,9.289050537109375,-0.07499883462190628,-0.11622867063283919,-0.020629531052708625
1746276239037030400,9.299030517578124,-0.05087693140879273,-0.11495908908843994,-0.08602788589745759
1746276239047010300,9.30901025390625,-0.028128946897387503,-0.13187982875108717,-0.08051467543393373
1746276239056990500,9.318990478515625,-0.028382044875621792,-0.13982465027570723,-0.10996639536768198
1746276239066970400,9.328970458984376,-0.03197042475640774,-0.1344359429746866,-0.08866291057616471
1746276239076951600,9.33895166015625,0.0004712707735598087,-0.10200900662243366,-0.051150633783638474
1746276239086931500,9.348931396484375,0.009929857861995696,-0.09591770401000976,-0.020716917075216768
1746276239096911400,9.358911376953126,0.019785627574473618,-0.06422200454175472,0.0010822422787547111
1746276239106891500,9.3688916015625,0.0017811843283474444,-0.0684229633629322,0.024332184962928292
1746276239116871400,9.378871337890626,-0.015313888987898826,-0.058657940673828124,0.031656828762590884
1746276239126852600,9.3888525390625,-0.06747954503297805,-0.048101475346088406,0.04793664017319679
1746276239136832500,9.39883251953125,-0.1448375100016594,-0.037332244050502776,0.062464054958522315
1746276239146812400,9.4088125,-0.1895838297009468,-0.00535655859708786,0.06958294705301522
1746276239156792300,9.418792236328125,-0.22928864810168742,-0.018600071051716804,0.08052285874038934
1746276239166772500,9.4287724609375,-0.2276959720827639,-0.014991232904791832,0.07179886953681706
1746276239176752600,9.438752685546875,-0.1878635817795992,-0.007466682618856429,0.06510434033423662
1746276239186733600,9.448733642578125,-0.15110124657154084,-0.013556816187500953,0.05537526574134826
1746276239196713500,9.45871337890625,-0.1276378072671592,-0.05358429067134857,0.031028175470232962
1746276239206693400,9.468693359375,-0.09851312733069062,-0.060926470127701755,-0.013923895934224127
1746276239216673300,9.47867333984375,-0.07666340683326124,-0.07517068405747414,-0.03739128076136112
1746276239226653700,9.48865380859375,-0.07413608031272888,-0.07336275785267353,-0.04454758225679397
1746276239236634400,9.49863427734375,-0.09039791767522692,-0.08116437151432036,-0.04886895258724689
1746276239246614500,9.508614501953126,-0.07630757913291454,-0.09025017976760864,-0.02949409777075052
1746276239256594400,9.518594482421875,-0.09623568391799926,-0.06166822840571403,-0.022858897539973257
1746276239266574300,9.52857421875,-0.09330898281633854,-0.06040332303643226,0.012754267632961272
1746276239276554200,9.53855419921875,-0.04875847795009613,-0.052097851505875585,0.044940088705718514
1746276239286534700,9.54853466796875,-0.025432109028846024,-0.06241816999018192,0.0553039540708065
1746276239296515600,9.558515625,-0.0025846096657216548,-0.06701485013067722,0.08752601550072431
1746276239306495500,9.56849560546875,0.026647622298449275,-0.04691138877868652,0.1008285646662116
1746276239316475400,9.578475341796874,0.042476475071161986,-0.020824176841974257,0.11453911011070013
1746276239326455300,9.588455322265625,0.03732245330885053,-0.03445698087513446,0.10800824703723191
1746276239336435500,9.598435546875,0.04052256452441215,-0.04838672202825546,0.09645312606096267
1746276239346416400,9.60841650390625,0.032335166415572165,-0.06786649852395057,0.05410480741411447
1746276239356396500,9.618396484375,0.04284837712347507,-0.09161679194569587,0.04489478825926781
1746276239366376400,9.62837646484375,0.021510551670938727,-0.09391337845027446,0.01754939295500517
1746276239376356400,9.6383564453125,0.00014846855998039245,-0.07220657355487346,0.022715105155110358
1746276239386336500,9.64833642578125,-0.003048720046132803,-0.038403672674298284,0.04315115946233272
1746276239396316700,9.658316650390624,-0.0006774608701467514,-0.03256780612766742,0.058576107609272
1746276239406297600,9.668297607421875,0.025214374624937773,0.01756020660996437,0.08374298983067274
1746276239416277800,9.67827783203125,0.03068257690295577,0.046725510817766186,0.12163725167810917
1746276239426258000,9.6882578125,0.028475422247499226,0.057204819256067276,0.14623276375234126
1746276239436237800,9.69823779296875,0.03148512545749545,0.06436579692661762,0.18153320971429346
1746276239446217700,9.7082177734375,0.005920768351107835,0.0355623117685318,0.20003771143704652
1746276239456198700,9.71819873046875,-0.0026876316487789154,0.02135959889292717,0.19835428839474914
1746276239466178600,9.728178466796875,-0.014484598556905984,0.0068073419272899624,0.1482934956744313
1746276239476159000,9.738158935546876,-0.04958148477077484,-0.0014081132322549819,0.12587591216117142
1746276239486139000,9.748138916015625,-0.08309139405414462,-0.008785364001989364,0.08049158681929111
1746276239496118800,9.758118896484374,-0.11555924693867564,-0.016744214051961897,0.04050093721449375
1746276239506098700,9.7680986328125,-0.10116729510128497,-0.04566285002231597,0.024745149677991865
1746276239516079600,9.77807958984375,-0.06548033403977752,-0.06774842510223389,0.009959960739314556
1746276239526059800,9.788059814453124,-0.0467195194683969,-0.09482289451062678,0.050257776597142215
1746276239536040000,9.7980400390625,0.001996872905641794,-0.11566285344362258,0.0772916217342019
1746276239546019800,9.808019775390624,0.057605362880975,-0.11811083111763,0.06083937636613845
1746276239555999700,9.817999755859375,0.10134732784330844,-0.11408230625391005,0.05803279451280832
1746276239565980700,9.827980712890625,0.1128634319834411,-0.08397709084749222,0.07811550533771515
1746276239575960800,9.8379609375,0.09515256485641002,-0.061329205709695814,0.11260054326355456
1746276239585940700,9.847940673828125,0.05920052311792969,-0.034601357781887054,0.13328063545972108
1746276239595921000,9.8579208984375,0.022825725922733544,-0.008527005326747893,0.14342968903034925
1746276239605900800,9.86790087890625,-0.05041691268160939,-0.012215922972559929,0.1437763105109334
1746276239615880700,9.877880615234375,-0.11029928058385849,0.003242342922091484,0.157367321228981
1746276239625861600,9.887861572265624,-0.13283975982442497,0.019988310539722443,0.15559125146716832
1746276239635841800,9.897841796875,-0.1509774740613997,0.048587213036417956,0.17699673532843588
1746276239645821700,9.90782177734375,-0.19889716309979558,0.05132920522093773,0.18968056807368994
1746276239655801900,9.9178017578125,-0.2513045189462602,0.04483224441707134,0.14906214195936918
1746276239665781800,9.92778173828125,-0.21093466076552866,-0.009241875597834586,0.12292144626975059
1746276239675762700,9.9377626953125,-0.17325404166877267,-0.024702479580044744,0.11930588612109422
1746276239685742800,9.947742919921875,-0.1714151358038187,-0.039674423262476916,0.10320318484306334
1746276239695722800,9.95772265625,-0.13705927721560002,-0.07094634436070918,0.06574263823777436
1746276239705702700,9.96770263671875,-0.10440729993581771,-0.059651627886295314,0.03148351802229881
1746276239715682800,9.977682861328125,-0.04674933008477092,-0.07260755557119845,0.023655016353726386
1746276239725662700,9.987662841796874,0.00781739575266838,-0.09042495181262493,0.01198182195574045
1746276239735644000,9.997643798828125,0.03858370541632175,-0.08706336642503738,0.019052783255279062
1746276239745623800,10.007623779296875,0.06576762654855847,-0.09311024537384509,-0.0075832947358489035
1746276239755603700,10.017603759765626,0.05411036037206649,-0.0871492911428213,-0.00913929200619459
1746276239765584000,10.027583984375,-0.005287731144577265,-0.09662205288708209,-0.00931055691987276
1746276239775563800,10.037563720703124,-0.030584523355960843,-0.09035305562019348,0.023682781143486497
1746276239785545000,10.047544921875,-0.05030409995689988,-0.09281097016632556,0.040752573888003824
1746276239795524900,10.05752490234375,-0.07616802453175187,-0.06220306593477726,0.03361410031020641
1746276239805504800,10.0675048828125,-0.07797638912796974,-0.0314098682641983,0.0833741565182805
1746276239815484700,10.077484619140625,-0.0688543405175209,-0.04462415462434292,0.1174330779865384
1746276239825464800,10.08746484375,-0.06433350209221243,-0.016186580169200895,0.1127405362561345
1746276239835444700,10.09744482421875,-0.05388546557500958,-0.0152671272367239,0.10793518180102109
1746276239845426000,10.107426025390625,-0.02805588166117668,-0.04666238245368003,0.02859013466835022
1746276239855405800,10.11740576171875,0.0030529578298330307,-0.06601122604608535,-0.023214579109847543
1746276239865385700,10.1273857421875,0.03233925806879997,-0.08939853137433529,-0.06424041698127984
1746276239875365600,10.13736572265625,0.04912504624016582,-0.11933189734518528,-0.091596041418612
1746276239885345800,10.147345703125,0.09598901568055153,-0.0803483789563179,-0.10773176818341017
1746276239895325700,10.15732568359375,0.10450959126651287,-0.03745382460355758,-0.067296881942451
1746276239905307000,10.167306884765624,0.062037134783342475,-0.024024434188008308,0.00805792651027441
1746276239915286800,10.177286865234375,0.011400003479793667,-0.010330255356431006,0.04704349072575569
1746276239925266700,10.1872666015625,-0.023676205272227524,0.03125087831020355,0.09812690449208021
1746276239935246600,10.19724658203125,-0.038462709385156627,0.011883914539217949,0.13118424770236015
1746276239945226800,10.207226806640625,-0.04006546840667724,-0.014780220502614974,0.1399012226432562
1746276239955208000,10.2172080078125,0.012486629672721027,-0.043623453149199486,0.13661124118715523
1746276239965187800,10.227187744140625,0.06540726880356669,-0.06867898395061492,0.0854614841863513
1746276239975167700,10.237167724609375,0.10576982046067714,-0.07882394586801529,0.06848200007379054
1746276239985147600,10.247147705078126,0.11499065327048301,-0.0648591334015131,0.04349544285535812
1746276239995127600,10.25712744140625,0.0944563992857933,-0.10468027165830135,0.0022235212683677672
1746276240005107700,10.267107666015624,0.07568805899508298,-0.11732581821978091,-0.04512801249325275
1746276240015089000,10.2770888671875,0.051933016332983965,-0.09897592253684998,-0.09889993469119071
1746276240025068800,10.28706884765625,0.01649060461707413,-0.0804220287144184,-0.09836948107630014
1746276240035048700,10.297048583984376,-0.004708835278078914,-0.10822656596302986,-0.05878010574877262
1746276240045028600,10.307028564453125,0.010389365132525563,-0.11538520554602145,-0.023523791189491747
1746276240055008800,10.3170087890625,0.04979205878153443,-0.0723223088890314,-0.01722936722040176
1746276240064989700,10.32698974609375,0.11021584008410572,-0.06946750397980213,-0.010087094250321388
1746276240074969900,10.336969970703125,0.11499898270741105,-0.08085866656601429,0.02345131047517061
1746276240084949800,10.34694970703125,0.13202727439776063,-0.07258768182694912,0.011541969233751297
1746276240094929700,10.3569296875,0.12548515927791595,-0.08681903627514839,-0.01689618974328041
1746276240104909600,10.36690966796875,0.09218494722247123,-0.08236848660707473,-0.027642624685168263
1746276240114890000,10.376889892578125,0.05942015721797943,-0.08213233976364136,-0.043725159958004946
1746276240124870700,10.38687060546875,0.03717617670595646,-0.10931669928729533,-0.0749213854715228
1746276240134850800,10.396850830078124,0.025805472385883328,-0.10356968006789684,-0.10305939245820045
1746276240144830700,10.406830810546875,0.00972585972249508,-0.1138970128148794,-0.0772726247727871
1746276240154810600,10.416810546875,0.0051198272317647935,-0.11131108797490596,-0.0796010677203536
1746276240164790800,10.426790771484375,0.02153013315424323,-0.11359598404169081,-0.08033785756230354
1746276240174771000,10.43677099609375,0.026385902622342108,-0.10363865365087985,-0.0731762953698635
1746276240184751900,10.446751953125,0.03163432466983795,-0.10210077655911445,-0.04994681095182895
1746276240194731800,10.456731689453125,0.013783172289282082,-0.07728431521058082,-0.02868687304109335
1746276240204711700,10.466711669921875,0.013189809506013988,-0.09419745608866215,-0.027005203564465043
1746276240214691600,10.476691650390626,-0.0012911357890814542,-0.10423954215347767,-0.03226736187636852
1746276240224671700,10.486671630859375,-0.02122040961794555,-0.09633739072680472,-0.059335693804919716
1746276240234652700,10.496652587890624,-0.0806454622067511,-0.08353168516755104,-0.06274667129218578
1746276240244632800,10.5066328125,-0.10141089459881186,-0.06840484318435192,-0.05032032043933868
1746276240254612700,10.51661279296875,-0.10321852854266762,-0.08743512234687804,-0.028938217453658578
1746276240264592600,10.526592529296876,-0.09549231820479034,-0.08541150756478309,-0.02303308506309986
1746276240274572800,10.53657275390625,-0.08901230853572488,-0.061818450531363485,-0.0015551204875111579
1746276240284552700,10.546552734375,-0.07997888805679977,-0.09118307670354843,0.049454058998823165
1746276240294533600,10.55653369140625,-0.0787700237236917,-0.10742343288660049,0.06706044283807278
1746276240304513800,10.566513671875,-0.062168579143285746,-0.09480886598527431,0.0682379621848464
1746276240314493700,10.57649365234375,-0.03391571360528469,-0.09125906454920768,0.06006663842797279
1746276240324473900,10.586473876953125,-0.030676804749295114,-0.10138239915668963,0.09317951121777296
1746276240334453800,10.596453857421874,-0.04422434165179729,-0.0752326433777809,0.11118453898578881
1746276240344433700,10.60643359375,-0.07272380236200988,-0.033308979883790016,0.10905249539315699
1746276240354414600,10.61641455078125,-0.05349230153895914,-0.014573299753665923,0.15095950001329184
1746276240364394800,10.626394775390626,-0.05474997344985604,-0.018083938223123548,0.14689444253146647
1746276240374375000,10.636375,-0.02933941866569221,-0.014604279413819312,0.1359723587617278
1746276240384354800,10.646354736328124,-0.012598784810304641,0.011077274331450462,0.13684884933531283
1746276240394334700,10.656334716796875,0.05292217350080609,0.0455003529369831,0.13390548935979604
1746276240404316200,10.666316162109375,0.06427417312040924,0.08964110795855522,0.1722030713111162
1746276240414296000,10.676296142578124,0.09577508066892623,0.10132336244583129,0.1709533635109663
1746276240424276200,10.686276123046875,0.08931026856899262,0.131150929954648,0.17031857273876666
1746276240434256400,10.69625634765625,0.07375380299687385,0.09569090951681136,0.17651245894283055
1746276240444236300,10.706236328125,0.056388242176175114,0.05259001893699169,0.19675503650456666
1746276240454216200,10.71621630859375,0.06624269671440124,0.012906243324279785,0.15589870998114347
1746276240464197000,10.726197021484374,0.09164441060498356,-0.001440261936187744,0.12896744843572377
1746276240474177300,10.73617724609375,0.10866334994509816,0.007452069571614265,0.1187596504151821
1746276240484157400,10.746157470703125,0.14368600187897682,-0.033661446583271026,0.13303338270038365
1746276240494137300,10.756137451171876,0.17368205782249568,-0.047315877926349635,0.10298369687348603
1746276240504117200,10.7661171875,0.20501462306678295,-0.07575520594716072,0.05342880784869194
1746276240514097200,10.77609716796875,0.2437954584904015,-0.06640168666839599,0.03909077815562487
1746276240524078300,10.786078369140625,0.25871757168173787,-0.05526888275742531,0.04338350691348314
1746276240534058200,10.796058349609375,0.2728735228061676,-0.08260755605995655,0.041722295702993864
1746276240544038400,10.806038330078126,0.23331088935509323,-0.10020575659275055,0.02277589543163776
1746276240554018300,10.816018310546875,0.1988352037794888,-0.10030044913887977,-0.005514379507303237
1746276240563998200,10.825998291015624,0.13524506740048528,-0.08970774345397949,-0.02188274598419666
1746276240573978000,10.83597802734375,0.06844225258529185,-0.04155424565970897,-0.006952595616877079
1746276240583959300,10.845959228515625,0.015254267755150794,-0.0425812506198883,0.04536182124912738
1746276240593939200,10.855939208984376,-0.03283712458834052,-0.06346095704138278,0.04579582875221967
1746276240603919400,10.86591943359375,-0.06562091155424714,-0.05818973864018917,0.016711188565194605
1746276240613899300,10.875899169921874,-0.08598024736344814,-0.06006722294986248,0.0015577508360147476
1746276240623879200,10.885879150390625,-0.13200740065351127,-0.052771220722794526,0.00923515359610319
1746276240633860400,10.8958603515625,-0.13756189297549426,-0.07433306418955325,0.061516837236285205
1746276240643840300,10.90584033203125,-0.15493571016788482,-0.10183072744607925,0.05159194781035185
1746276240653820200,10.915820068359375,-0.16094751780331135,-0.10547989760339259,-0.007055471469461917
1746276240663800300,10.92580029296875,-0.18475450984835623,-0.09192658854722977,-0.0013344634741544723
1746276240673780200,10.9357802734375,-0.18895605319142342,-0.1094096382677555,-0.014500526778399943
1746276240683760000,10.945760009765625,-0.19407880303263664,-0.10405541775822638,-0.024318156437575816
1746276240693741300,10.9557412109375,-0.16771350480690597,-0.08420330081880092,-0.06100011988580226
1746276240703721200,10.96572119140625,-0.1695592788040638,-0.08287760517299175,-0.04740326394885778
1746276240713701400,10.975701416015625,-0.18320041227415204,-0.054203299352526664,-0.0092608725592494
1746276240723681300,10.985681396484376,-0.18570494244098662,-0.0532692333728075,0.012306231604516505
1746276240733661200,10.9956611328125,-0.19395619956627486,-0.0366121130824089,0.015461188504099844
1746276240743641000,11.00564111328125,-0.209046655061841,-0.01833703620135784,0.039244799673557276
1746276240753622300,11.015622314453125,-0.23386297027990222,-0.012627426382899284,0.07583119379281997
1746276240763602200,11.025602294921875,-0.23347375176660715,-0.02970540243387222,0.07521189285069704
1746276240773582300,11.035582275390626,-0.22267770552933214,-0.019130232405662535,0.05394581746011972
1746276240783562200,11.045562255859375,-0.22159093320593237,-0.03297521788477897,0.01511895093768835
1746276240793542100,11.055542236328124,-0.2248094568610191,-0.03532908753454685,0.011170505572855472
1746276240803522300,11.065522216796875,-0.2264391038894653,-0.06670797613859177,0.007956511962413787
1746276240813503200,11.075503173828125,-0.2107883841626346,-0.10117197127640247,-0.027938100500404833
1746276240823483100,11.085483154296876,-0.16398761615157126,-0.13207272097468375,-0.06358370663821697
1746276240833463300,11.09546337890625,-0.08642733354382216,-0.13108487898111343,-0.0834659264549613
1746276240843443200,11.105443115234374,-0.03404372389912605,-0.0869488001346588,-0.043321255332231516
1746276240853423400,11.11542333984375,0.02152326502203941,-0.05592471631765365,0.07908961106687784
1746276240863404300,11.125404296875,0.055751770903542636,-0.0670633654475212,0.10790244857519865
1746276240873384200,11.13538427734375,0.07177636544406414,-0.08588730838298797,0.09635463412255048
1746276240883364000,11.145364013671875,0.04981353996098041,-0.14584113408625124,0.03628565760701895
1746276240893344300,11.15534423828125,0.04274374770522117,-0.12618717006742952,-0.03812544025480747
1746276240903324400,11.165324462890625,0.02561126498803496,-0.0712596480935812,-0.014287468549609184
1746276240913304300,11.17530419921875,0.04631035414561629,-0.03815817348062992,0.027589433193206784
1746276240923285200,11.18528515625,0.06629223494455218,-0.04282908790111541,0.06040624564588069
1746276240933265200,11.19526513671875,0.09209902250468731,-0.044424248138070103,0.05484393534362316
1746276240943245000,11.2052451171875,0.0992636534370482,-0.019753332740068436,0.044802433800697324
1746276240953225500,11.2152255859375,0.0427601143181324,0.011379472148418427,0.07952741796225309
1746276240963205400,11.225205322265625,0.0038578444719314575,0.0027688801914453505,0.16262655693143604
1746276240973185300,11.235185302734376,-0.013653846821188927,-0.010450666865706443,0.16168021599203347
1746276240983166200,11.245166259765625,0.0037842677790671585,-0.023345804274082182,0.1462763106331229
1746276240993146000,11.25514599609375,0.003772650406509638,-0.06341945598721503,0.1408686063706875
1746276241003126300,11.265126220703126,-0.024233693024516105,-0.07441898890733718,0.08002659965604543
1746276241013106400,11.2751064453125,-0.02799450686275959,-0.028623452416062352,0.08853460802137851
1746276241023086300,11.28508642578125,-0.012920271849632263,-0.030787936973571777,0.1641363769724965
1746276241033066200,11.295066162109375,0.05453063161075115,-0.048856677627563475,0.1613219040736556
1746276241043047200,11.305047119140625,0.0825876823157072,-0.07268295889496802,0.09711480484008789
1746276241053027000,11.315027099609376,0.05824760630726814,-0.10557166754007338,0.056443771755695336
1746276241063007200,11.32500732421875,-0.0013104980766773223,-0.11939853284060954,0.044319034197926516
1746276241072987400,11.3349873046875,-0.03560322830080986,-0.09812719675302504,0.04659574695825577
1746276241082967300,11.34496728515625,-0.07001403194665909,-0.09649053546190262,0.04151917434632778
1746276241092948200,11.3549482421875,-0.07722286734692752,-0.1012491281658411,0.015346622213721274
1746276241102928100,11.36492822265625,-0.07949804573729634,-0.06768763482570647,0.01785743599087
1746276241112908300,11.374908203125,-0.09954225118272006,-0.01670972726047039,0.09296265359669924
1746276241122888400,11.384888427734374,-0.07997720755636692,0.010161328530311584,0.16321838534474373
1746276241132868400,11.394868408203125,-0.057815060108900064,-0.006374211207032203,0.1689443617761135
1746276241142848300,11.40484814453125,-0.05901975972354412,-0.035030981370806694,0.11825491576343775
1746276241152829200,11.4148291015625,-0.05495616354644298,-0.024474516043066975,0.07598784565925598
1746276241162809300,11.424809326171875,-0.06330196708738803,-0.0433048887193203,0.07805676088780164
1746276241172789200,11.434789306640624,-0.042132922330498694,-0.07412029822170733,0.07821545858085155
1746276241182769400,11.444769287109375,-0.023098551514744756,-0.0966214683651924,0.03113368167132139
1746276241192749300,11.454749267578125,-0.0019961422532796856,-0.1310907242000103,-0.013842062869668006
1746276241202729200,11.464729248046876,0.027525574176758525,-0.12511398787796496,-0.07547200509160756
1746276241212710100,11.474710205078125,0.005603226834535599,-0.13389058405160903,-0.0923711174443364
1746276241222690300,11.484690185546874,0.011079174027591943,-0.14564473473131656,-0.10823007309436797
1746276241232670200,11.494670166015625,0.0075232351116836065,-0.130427291855216,-0.1152154019370675
1746276241242650400,11.504650390625,-0.006162541217729449,-0.09342471815049648,-0.12324936304986477
1746276241252630300,11.51463037109375,-0.021271189957112073,-0.05238368270993232,-0.04639028751403093
1746276241262610200,11.524610107421875,-0.05858129524104297,-0.05521627578735351,0.008541033852100371
1746276241272591400,11.53459130859375,-0.1228904666095972,-0.07083528520166874,-0.00419189873188734
1746276241282571300,11.5445712890625,-0.17096578460112213,-0.08582710262835025,-0.026687515917420385
1746276241292551200,11.55455126953125,-0.2136988647818565,-0.05929448501169681,-0.026289748771488666
1746276241302531300,11.56453125,-0.19423677007332443,-0.06493278315961361,0.01111439147144556
1746276241312511200,11.57451123046875,-0.1630576418250799,-0.10054887094199656,0.011533493666350841
1746276241322491100,11.5844912109375,-0.14290851470045746,-0.13842472034990785,-0.043186523036658764
1746276241332472300,11.594472412109376,-0.10300444740056991,-0.12973287985026835,-0.05882862106561661
1746276241342452200,11.6044521484375,-0.052501756131649015,-0.12947627474069595,-0.058092708006501195
1746276241352432000,11.61443212890625,-0.036395986113697286,-0.10362111799418926,-0.032955344140529634
1746276241362412300,11.624412353515625,-0.02937222495675087,-0.099240710952878,0.02200958723425865
1746276241372392200,11.63439208984375,0.03660027651414275,-0.14116963514387607,0.030028058516979216
1746276241382372000,11.6443720703125,0.033553894555568696,-0.11381284166276454,0.07468699219375849
1746276241392353300,11.654353271484375,0.030114713887125253,-0.03832359317541122,0.11507482442259788
1746276241402332700,11.664332763671876,0.03622939737513661,-0.005391045388579368,0.18961977779716252
1746276241412312600,11.6743125,0.03500014784112573,-0.01880582275688648,0.22169658553749322
1746276241422292500,11.68429248046875,0.014832973603159189,-0.038977088648080825,0.16015753646939992
1746276241432272600,11.694272705078125,-0.01146422782242298,-0.06406476815342903,0.12548428249508142
1746276241442252500,11.70425244140625,-0.02884951625689864,-0.02459901920557022,0.07286562198549508
1746276241452233500,11.7142333984375,-0.028004882126301527,0.028111411240696906,0.07384031223654747
1746276241462213600,11.724213623046875,-0.03620280162915587,0.029828736552596092,0.0988181016266346
1746276241472193500,11.734193603515624,-0.029508418557047843,-0.007491817060112952,0.1077455044478178
1746276241482173700,11.744173583984375,-0.02980462502464652,-0.043403088396787644,0.06073182433843612
1746276241492153600,11.754153564453125,-0.043523353775590655,-0.10171148498058319,0.01559124462455511
1746276241502134500,11.764134521484374,-0.054359951218962664,-0.08538169694840908,-0.02201835506260395
1746276241512114400,11.774114501953125,-0.041429157975316044,-0.051012978878617284,-0.010552081413567066
1746276241522094600,11.784094482421875,-0.0059796589314937585,-0.03812660929858684,0.01817190876752138
1746276241532074800,11.79407470703125,0.05227963781356811,-0.05764905589222908,0.05027911164611578
1746276241542054700,11.8040546875,0.09411796111166476,-0.08417232115864753,0.03844634277224541
1746276241552034600,11.81403466796875,0.10392214676737785,-0.07423311094641685,-0.0005447744011878967
1746276241562015500,11.824015380859375,0.07759425794258713,-0.036888591936230654,0.015777122585475443
1746276241571995400,11.833995361328125,0.04810512860789895,-0.028100889846682547,0.06288549524098634
1746276241581975800,11.843975830078126,0.06211524152085185,-0.046238019561767575,0.05943652383089065
1746276241591955700,11.853955810546875,0.09105681997537612,-0.07516893049180508,0.02035831289589405
1746276241601935600,11.863935546875,0.1304858901746571,-0.0894932239204645,-0.010277356125414371
1746276241611915500,11.87391552734375,0.12557239916995167,-0.08073767053484916,-0.010892857675254344
1746276241621896400,11.883896484375,0.12086465987041592,-0.010673369705677033,-0.0032487726628780363
1746276241631876600,11.893876708984376,0.08715688992738724,0.004397358176112175,0.04494768749028444
1746276241641856800,11.903856689453125,0.050841860095411535,-0.03070493486523628,0.07313830144703387
1746276241651836700,11.913836669921874,0.02860635515078902,-0.0523106174737215,0.03029197015017271
1746276241661816600,11.923816650390625,0.010982727915793657,-0.05940554417073726,-0.01695844132453203
1746276241671796500,11.93379638671875,0.00018719313517212867,-0.06091185708045959,-0.04176350449621677
1746276241681777400,11.94377734375,-0.005862170031666755,-0.009085223731398582,-0.012658406043052673
1746276241691757600,11.953757568359375,-0.01894143183529377,-0.025056699845194815,0.019031740467250344
1746276241701737700,11.96373779296875,-0.020607465351372957,-0.05662497354149818,0.028204642482101916
1746276241711717600,11.973717529296875,0.016370266173034904,-0.06113280635476112,0.03018295681774616
1746276241721697500,11.983697509765625,0.02000394650027156,-0.060984922316670416,0.03884644800573587
1746276241731677400,11.993677490234376,0.011210106930881737,-0.022573650857806205,0.051067339414358134
1746276241741658600,12.00365869140625,-0.018236060044914484,0.013961889857053756,0.08958733194470406
1746276241751638500,12.013638427734374,-0.062039399805665016,0.006583470043540001,0.0966544938519597
1746276241761618700,12.02361865234375,-0.09952318115606903,-0.007342179456353187,0.09833236393630504
1746276241771598600,12.0335986328125,-0.09737842421233653,0.003007365122437477,0.06314736104756594
1746276241781578500,12.04357861328125,-0.08446808923482894,0.02338379819691181,0.023685703752934932
1746276241791558400,12.053558349609375,-0.13995309896096586,0.06500467935204506,0.042812136766314506
1746276241801539600,12.06353955078125,-0.11909399693608283,-0.018297873234748838,0.03302227189689874
1746276241811519700,12.073519775390626,-0.10201558249369264,-0.0648503655731678,0.026209669272601602
1746276241821499600,12.083499755859375,-0.1074086737088859,-0.06259411107897758,0.05057078806906938
1746276241831479600,12.0934794921875,-0.07517536023259162,-0.07678337995111942,0.04247808250635862
