time,seconds_elapsed,z,y,x
1746475660542253000,0.778253173828125,-0.2033516582906246,0.034096038608253,-0.05895747160967439
1746475660552250000,0.78825,-0.1700590450197458,0.016907880181074142,-0.033985637036338445
1746475660562246100,0.79824609375,-0.139015671980381,-0.00488163456171751,0.012292970264144241
1746475660572243200,0.8082431640625,-0.10086801989376544,-0.03856412393301725,0.058102425682917236
1746475660582240000,0.818239990234375,-0.0391565368682146,-0.03447860818505287,0.09307309170123189
1746475660592236000,0.828236083984375,0.005226210215687752,-0.02504734749495983,0.0644446708491072
1746475660602233000,0.838233154296875,0.06355448054373264,-0.03426438091248274,0.06310914792902768
1746475660612230100,0.848230224609375,0.020125088661909103,-0.013197335225343703,0.14840576040986925
1746475660622227200,0.858227294921875,-0.014253566280007362,0.0328194428011775,0.14562387460637838
1746475660632223200,0.86822314453125,-0.030943419796228406,0.06965484324544667,0.10345894970241934
1746475660642220000,0.878219970703125,-0.03436287285089493,0.08152356021553278,0.06054510612729937
1746475660652217000,0.888217041015625,-0.02311316456198692,0.07662994295507669,0.05541742438264191
1746475660662213000,0.898213134765625,-0.01546528015732765,0.047317923752963544,0.010577252387441694
1746475660672210200,0.908210205078125,0.024385668715834617,0.02275982107967138,-0.03268949627857655
1746475660682207200,0.918207275390625,0.051314592173695564,0.0033539866030216216,-0.04155282088760286
1746475660692204300,0.928204345703125,0.0665144993931055,-0.0024260581031441686,-0.015906813379749654
1746475660702200000,0.938199951171875,0.09412439085245132,0.00048661447316408155,0.030783735722489654
1746475660712197000,0.948197021484375,0.09957798008322716,0.03329465909749269,0.025252076286822557
1746475660722194200,0.958194091796875,0.034573885253071784,0.03194441353231668,0.01889046883303672
1746475660732190200,0.968190185546875,-0.03806055832505226,0.04929594582766294,-0.019489311509020626
1746475660742187000,0.97818701171875,-0.060796706268191336,0.06308306363970041,-0.07865414225906134
1746475660752184000,0.98818408203125,-0.06658581106364726,0.04851560910493135,-0.08297463580667971
1746475660762180000,0.99818017578125,-0.12631868749260902,-0.005904840129613876,-0.11727080009691417
1746475660772177200,1.00817724609375,-0.12250409764051437,-0.006758242088556289,-0.11036503929644823
1746475660782174200,1.01817431640625,-0.045991351324319835,0.03490180203318596,-0.09152144181244075
1746475660792171300,1.028171142578125,0.01483399651646614,0.04160013062804937,-0.09125471716765314
1746475660802167300,1.038167236328125,0.03457271620929241,0.03516922079771757,-0.07916234750952571
1746475660812164000,1.0481640625,-0.0321072028785944,0.0003077507749199867,-0.012888890330679715
1746475660822161200,1.0581611328125,-0.13875263713002203,0.035353637453913685,0.030432365001551807
1746475660832157200,1.0681572265625,-0.16370003138184547,0.08671265329122543,0.028586810200102626
1746475660842154000,1.078154052734375,-0.13971183755099773,0.08836743476092815,0.019363712367974222
1746475660852151000,1.088151123046875,-0.03970715648829937,0.0847229407787323,0.025250870710425078
1746475660862147000,1.09814697265625,0.07997545399069786,0.09304273309558629,0.052331294935569164
1746475660872144100,1.10814404296875,0.1253477966338396,0.08466098145842552,0.04388710905406624
1746475660882141200,1.11814111328125,0.14259060785770417,0.07583937709927559,0.027945041697844862
1746475660892137000,1.128136962890625,0.20269757829606533,0.07733838348537683,-0.010953611419163643
1746475660902134300,1.13813427734375,0.1979664581209421,0.06408230381011963,-0.025552009081467986
1746475660912131000,1.148131103515625,0.06258534325063228,0.015461188504099844,-0.027670170279219745
1746475660922128100,1.158128173828125,-0.029293899023532865,0.034495267058908936,-0.06718644383791833
1746475660932124200,1.168124267578125,-0.02492927407324314,0.07629530417323112,-0.11887410710770636
1746475660942121000,1.178120849609375,-0.05254208814203739,0.09696136784404516,-0.1111575048483908
1746475660952118300,1.1881181640625,-0.09418518112897872,0.07505114933103323,-0.09131152538880705
1746475660962114000,1.198114013671875,-0.07714636804461479,0.0425792047932744,-0.09968268256671727
1746475660972111000,1.208111083984375,-0.050935237467288966,0.041134558942914005,-0.06426156936716287
1746475660982108200,1.218108154296875,0.0314841025441885,0.04716360997408628,-0.019827895813621578
1746475660992104000,1.22810400390625,0.0879471635222435,0.047155426667630666,0.010598587436415254
1746475661002101200,1.238101318359375,0.0959767407208681,0.04566577263176441,0.027524076339416205
1746475661012098000,1.24809814453125,0.0366080214291811,0.026141864733397958,0.009859349909052252
1746475661022095000,1.25809521484375,-0.03627893560528755,0.040079204671084875,0.015438903607055543
1746475661032091100,1.268091064453125,-0.07141513091623783,0.04430442115068436,0.002990340922400355
1746475661042088000,1.278087890625,-0.09073182580471038,0.04629968662112951,-0.01432173614539206
1746475661052085200,1.288085205078125,-0.12763269270062447,0.03863689690828323,-0.023031916019320486
1746475661062081000,1.2980810546875,-0.11662848360538482,0.020890227815508842,-0.013426467806100845
1746475661072078300,1.308078369140625,-0.055524318823218344,0.020678046369552613,-0.036295594479143614
1746475661082075100,1.3180751953125,0.011278349861502647,0.006631400838494301,-0.06838544436413795
1746475661092071200,1.3280712890625,0.07644026560187339,-0.012879647578299045,-0.08631806448306888
1746475661102068200,1.338068115234375,0.09680559276044368,-0.023283552692830563,-0.062219615210779004
1746475661112065000,1.34806494140625,0.07684709283709526,-0.04546528162360191,-0.08630929665472357
1746475661122061000,1.35806103515625,0.0005360065728425979,-0.061903790727257726,-0.12405140014775097
1746475661132058000,1.36805810546875,-0.06231295605003834,-0.039703064835071564,-0.11851557599361985
1746475661142055000,1.378054931640625,-0.12596914340257645,-0.008946399782598018,-0.08021046832296996
1746475661152051200,1.38805126953125,-0.1674976700991392,0.03398673301488161,-0.05491681791674345
1746475661162048000,1.398048095703125,-0.1496031169682741,0.05823357778191566,-0.07244352411590516
1746475661172045300,1.40804541015625,-0.1174310321599245,0.03204962747246027,-0.0997234164359048
1746475661182042000,1.4180419921875,-0.06501753883361816,0.020149054059386252,-0.0917243074407801
1746475661192038100,1.4280380859375,-0.024727029499411583,-0.0043748540833592415,-0.08327398407943547
1746475661202035200,1.43803515625,0.009731120419502257,-0.012464929297566414,-0.09293930925372987
1746475661212032000,1.448031982421875,0.031527357164025306,-0.03816109609007835,-0.0903599968176335
1746475661222028000,1.458028076171875,0.03963350673019886,-0.013844693218171595,-0.07763747602980584
1746475661232025000,1.468025146484375,0.020769231784343718,-0.0010100538253784179,-0.024154928699880836
1746475661242022100,1.478022216796875,-0.02202010862827301,0.012621288903057575,0.01553279243558645
1746475661252018200,1.48801806640625,-0.029480946028232573,0.029734044006466863,0.023844255315512417
1746475661262015200,1.49801513671875,-0.07662965069413184,0.01846826136559248,0.03611976298820227
1746475661272012300,1.50801220703125,-0.17457856827080248,0.02270838315337896,0.05690342515669763
1746475661282009000,1.518009033203125,-0.2410749474853277,0.0384159476339817,0.057787697177939114
1746475661292005000,1.528005126953125,-0.21874679582118986,0.043538112953305244,0.03829075035173446
1746475661302002200,1.538002197265625,-0.14653729965686796,0.04687573294341564,-0.01672006599139422
1746475661311999000,1.5479990234375,-0.07814823856353759,0.03935732013732195,-0.07847359806038438
1746475661321995000,1.5579951171875,-0.0113327103972435,0.042324060988426206,-0.10466386851277201
1746475661331992000,1.567991943359375,0.022816227442026136,0.045940497919917105,-0.059364591105841094
1746475661341989000,1.577989013671875,0.028475568377971647,0.0380696184143424,-0.033987792460806666
1746475661351985200,1.587985107421875,0.0027419921845197675,0.04006166901439428,-0.036483737462386485
1746475661361982200,1.597982177734375,-0.07612228569388389,0.03997632881850004,0.006322042628377675
1746475661371979300,1.607979248046875,-0.14811433971524238,0.051986207824945445,0.02150664268080145
1746475661381975300,1.617975341796875,-0.1494862125903368,0.080542147962749,0.03175605135336518
1746475661391972000,1.62797216796875,-0.11360708995759486,0.08432721945941447,0.04397398361992091
1746475661401969200,1.63796923828125,-0.08267652964293956,0.055580140663683414,0.054865708784013985
1746475661411966200,1.64796630859375,-0.049258244165778155,0.04452712399065494,0.020299349250271916
1746475661421962000,1.6579619140625,-0.014465163204073905,0.05088642988950014,-0.005152085533551872
1746475661431959000,1.667958984375,0.022794600132107733,0.031826340110599996,-0.029074484119191765
1746475661441956000,1.6779560546875,0.06667524291276931,0.0315057298541069,-0.028849260528571903
1746475661451952000,1.6879521484375,0.05454466013610363,0.021769056476652622,-0.016740816518478096
1746475661461949200,1.69794921875,0.024782559078931808,0.036927170380949975,-0.0005636617647483944
1746475661471946200,1.7079462890625,0.0022129998743534085,0.04549100058674812,-0.0026599033916369077
1746475661481942300,1.7179423828125,0.030384616869688033,0.07613894456773995,0.03697163057718426
1746475661491939000,1.72793896484375,0.08032032190561295,0.0946893312588334,0.0532591138375923
1746475661501936000,1.73793603515625,0.05789280152022838,0.10850479838252067,0.07234020987190305
1746475661511932200,1.74793212890625,-0.0018763152658939361,0.11149550463110208,0.0479698117904365
1746475661521929000,1.757928955078125,-0.15027181001007556,0.11170943964272737,0.03254621535036713
1746475661531926300,1.76792626953125,-0.24682722740173338,0.1235419162556529,0.045457682839035986
1746475661541923000,1.777923095703125,-0.2747872474730015,0.1278995269432664,0.020153803299739956
1746475661551919000,1.787919189453125,-0.24251637846529484,0.11096008258014917,0.004338248400017619
1746475661561916200,1.797916259765625,-0.17235212439298628,0.07604892819672822,-0.0012629326079040765
1746475661571913200,1.807913330078125,-0.0985392846852541,0.03644815469235182,0.00535966386962682
1746475661581909200,1.8179091796875,-0.018557400953769683,0.024835458309948443,0.023026107333041727
1746475661591906000,1.827906005859375,-0.006105331137776375,-0.0028209026396274566,0.04809047902803868
1746475661601903000,1.837903076171875,-0.028423545929789542,-0.026601298938691613,0.03885441211648285
1746475661611899100,1.847899169921875,-0.060599722391366954,-0.05249123473763465,0.03692592827193439
1746475661621896000,1.85789599609375,-0.09477087206244468,-0.05194733711928129,0.005692439487949013
1746475661631893200,1.867893310546875,-0.11896715568602084,-0.0372898662135005,-0.02507624479588121
1746475661641889000,1.877888916015625,-0.11196750605702399,-0.047853638064861294,-0.00897949833460152
1746475661651886300,1.88788623046875,-0.05904606320858001,-0.04767798923701048,0.026775997918471694
1746475661661883100,1.897883056640625,-0.06876081701517105,-0.03794073133766651,0.03871942409258335
1746475661671880000,1.9078798828125,-0.041050387790799135,-0.007865618808567523,0.02509820089936256
1746475661681876200,1.917876220703125,-0.020663433322310448,0.009507248535752296,0.017104352601245043
1746475661691873000,1.927873046875,0.016317513072490693,0.033057050949335094,0.00697710900362581
1746475661701870000,1.9378701171875,-0.0033346973806619644,0.030787352451682088,-0.035037886035628615
1746475661711866000,1.9478662109375,0.0056336219727993,0.03796995743215084,-0.05349463962651789
1746475661721863000,1.95786279296875,0.04546352805793285,0.036946167342364784,-0.05856321159508079
1746475661731860200,1.967860107421875,0.07402794376313686,0.05464344433546066,-0.03885411985553801
1746475661741856000,1.97785595703125,0.08286708377897739,0.03133680302798748,0.06655939798075705
1746475661751853300,1.987853271484375,0.07313830144703387,-0.006156769064068794,0.03178487558905035
1746475661761850000,1.99785009765625,0.07693886277377605,-0.009563362637162207,0.020346878186427057
1746475661771847000,2.007846923828125,0.0959597895860672,-0.017574819657206534,0.0457244440164417
1746475661781843200,2.01784326171875,0.10713760168254374,-0.04633241984695196,0.08315331684183329
1746475661791840000,2.027840087890625,0.10402736070752143,-0.04981646257042884,0.08749945628736168
1746475661801837300,2.03783740234375,0.0705927086174488,-0.030771862621605396,0.07276530341617762
1746475661811833000,2.0478330078125,0.04471592456102371,-0.040810733816027636,0.034661855797469616
1746475661821830100,2.057830078125,-0.006632569882273674,-0.08657850551754236,-0.02335424330886453
1746475661831827200,2.0678271484375,-0.09374445162415504,-0.09743541509658098,-0.11855104916580021
1746475661841823000,2.077822998046875,-0.08264905711412429,-0.049342415317893025,-0.20107629723716525
1746475661851820300,2.0878203125,-0.015919453665614126,0.005770107834041118,-0.23198183270841835
1746475661861817000,2.097817138671875,0.013076923716068268,0.00016980360895395277,-0.25982699422836303
1746475661871814000,2.10781396484375,0.033413609302043915,-0.02928074728101492,-0.09457571481652557
1746475661881810200,2.11781005859375,0.010441899037361145,-0.04064209925085306,0.09163381614573299
1746475661891807000,2.127806884765625,-0.022618659043312072,-0.020974983489513398,0.040701062896475196
1746475661901804300,2.13780419921875,-0.0658913990586996,0.015381985788047312,-0.04288275431711226
1746475661911800000,2.147800048828125,-0.05356207883954048,0.01812047084122896,-0.041372495884634555
1746475661921797000,2.157797119140625,-0.06267243701219559,-0.0550534864410758,0.027029826549068093
1746475661931794200,2.167794189453125,-0.190049693647027,-0.09232084856182336,0.2039706304391846
1746475661941790200,2.177790283203125,-0.3458008118510246,-0.05078443081974983,0.4248540364302695
1746475661951787300,2.187787353515625,-0.44641281115710735,0.0020025719940662385,0.4661364794112742
1746475661961784000,2.1977841796875,-0.4127735764056444,0.06883797390460968,0.35134142177812755
1746475661971781000,2.207781005859375,-0.18551731091439722,0.09532149168252944,0.2616800382165238
1746475661981777200,2.217777099609375,0.003235328659415245,0.05726677857637405,0.1049661759275943
1746475661991774200,2.227774169921875,-0.02204407402575016,-0.004028817124664783,-0.1485309211594984
1746475662001771300,2.237771240234375,0.023199673801660537,-0.03795826699435711,-0.2572259448844939
1746475662011767000,2.24776708984375,0.03872925136685371,-0.03368833459019661,-0.1931637705469504
1746475662021764000,2.25776416015625,0.11294716474413871,-0.10738456218093632,-0.08592497351225466
1746475662031761200,2.26776123046875,0.10200959114432334,-0.10761953998059033,-0.12678630500435828
1746475662041757200,2.277757080078125,0.11454115593731402,-0.0628702976718545,-0.23209179588891565
1746475662051754200,2.287754150390625,0.17725977017879485,-0.037975218129158016,-0.3226051566373557
1746475662061751000,2.2977509765625,0.24678397278189657,-0.03637947337031364,-0.2553213168395683
1746475662071748000,2.307748046875,0.17360533932447433,-0.04697480940371752,-0.1685621940581128
1746475662081744100,2.317744140625,-0.002514028647542,-0.014700141003727912,-0.09432115553356707
1746475662091741200,2.3277412109375,-0.15554536649882791,0.09152034583389758,-0.07453439544793218
1746475662101738200,2.33773828125,-0.23573124836981296,0.13798019145280122,-0.08552256672382354
1746475662111734300,2.347734375,-0.2604296362966299,0.17336422404497862,0.01688647206686437
1746475662121731000,2.35773095703125,-0.16363690301775932,0.29862901857048274,0.3699905196033418
1746475662131728100,2.36772802734375,-0.10504735140502452,0.24832564926594494,0.4506588512290269
1746475662141725200,2.37772509765625,-0.2064671599626541,0.09942045143395661,-0.016183328766189515
1746475662151721200,2.38772119140625,-0.3384720763981342,-0.05397328998893499,-0.20065741423796862
1746475662161718000,2.397718017578125,-0.4263274699836969,-0.17531126645952463,-0.11330270018354058
1746475662171715000,2.407715087890625,-0.3777577926039696,-0.12906447906941174,-0.11917838728390634
1746475662181711000,2.417711181640625,-0.2540811440527439,-0.05219897379279136,-0.2439189752722159
1746475662191708200,2.427708251953125,-0.1834182928085327,-0.06077887835055589,-0.462044095531106
1746475662201705200,2.437705322265625,-0.1540221024543047,-0.09892448461055756,-0.5382595394011587
1746475662211701200,2.447701171875,-0.12380465884506701,-0.04591097956448793,-0.38590591814834624
1746475662221698000,2.457697998046875,-0.45524376786649223,-0.01291997958868742,-0.20650840528849512
1746475662231695000,2.467695068359375,0.014348843348026274,-0.1686769430115819,0.02709726576209068
1746475662241692200,2.477692138671875,0.12857377294301986,-0.13751169715821743,0.30805498203095044
1746475662251688200,2.487688232421875,0.49379766266644,0.018778642489016055,0.002955963728763163
1746475662261685200,2.497685302734375,0.4135141656398773,0.22887071495056152,-0.09926354383919388
1746475662271682000,2.50768212890625,0.22227146281599997,0.14746756624430418,-0.007409472538903355
1746475662281678000,2.517677978515625,-0.00023731588721275328,0.11030658710747956,0.071598524659127
1746475662291675100,2.527675048828125,-0.12900456557571888,0.21855302681475877,0.20300624238643794
1746475662301672200,2.537672119140625,-0.1788566839814186,0.31023411616832014,0.2647813287001103
1746475662311669800,2.547669677734375,-0.24883389104902742,0.31659897502511736,0.2806924894614145
1746475662321665800,2.557665771484375,-0.27640871119499205,0.2196671255365014,0.2876194026477635
1746475662331662600,2.56766259765625,-0.3049965077757835,-0.018233575826883314,0.39430630142074075
1746475662341660000,2.577659912109375,-0.19592589220404624,-0.1360445472151041,0.6266960208103061
1746475662351655700,2.58765576171875,0.04455635008513927,-0.012969663949310779,0.5813053387928754
1746475662361652700,2.59765283203125,0.05914426288604736,0.14508447050005197,-0.0066183221612125635
1746475662371649800,2.60764990234375,-0.15125965200364588,0.19026392091959715,-0.4249245443832129
1746475662381646600,2.617646484375,-0.2773877853602171,0.145466747815907,-0.4102117265610024
1746475662391643000,2.627642822265625,-0.39068040254116054,0.08857932394593954,-0.17991662309681997
1746475662401639700,2.6376396484375,-0.335218043038249,0.0442804557532072,-0.006798300104308873
1746475662411636700,2.64763671875,-0.12197335176467895,-0.005402443565428257,0.11300961725478992
1746475662421632800,2.6576328125,0.006653612670302391,-0.10642273141145706,-0.0032976167732849714
1746475662431629600,2.667629638671875,-0.013016133439540863,-0.15817045430541038,-0.09993265700610354
1746475662441627000,2.677626953125,0.04149988512396812,-0.13457038300931454,-0.050487219705153255
1746475662451622700,2.68762255859375,0.11633037744164466,-0.10238806906789541,0.00913691738601774
1746475662461620000,2.697619873046875,0.026712065836787223,-0.14030337370336055,-0.05874134464096278
1746475662471616800,2.70761669921875,-0.047939562782645224,-0.13235767539590595,-0.14276402819585055
1746475662481613600,2.717613525390625,-0.12330956880450249,-0.03990443262606859,-0.13500612581176683
1746475662491609900,2.72760986328125,0.0022188450932502744,0.04519464798867702,-0.16041317346459252
1746475662501606700,2.737606689453125,0.14343115033507348,0.03941635684818029,-0.035247391467308625
1746475662511603700,2.747603759765625,0.30232407369613645,-0.013379413793981075,0.048855828244192524
1746475662521600800,2.757600830078125,0.5214741896212101,-0.07167115150392055,-0.018017257061926646
1746475662531596500,2.767596435546875,0.6959931366592645,-0.08956658141762018,-0.11826938268020748
1746475662541593900,2.77759375,0.628012656366825,0.037138182783126826,-0.16954820942077783
1746475662551590700,2.787590576171875,0.37047289629280566,0.18349661874175072,-0.20937404211899263
1746475662561587000,2.7975869140625,0.1768874297350645,0.2831160998791456,-0.19550401353016494
1746475662571583700,2.807583740234375,0.15191197843253612,0.27237434111237524,-0.13737257181531748
1746475662581580500,2.81758056640625,0.20611469326317308,0.1656006043061614,-0.14340293802074155
1746475662591576800,2.827576904296875,0.27317572062313555,0.13387450969964265,-0.22247473030313847
1746475662601573600,2.83757373046875,0.362891062861681,0.2343395017504692,-0.2710818536164239
1746475662611571000,2.847571044921875,0.4522130218684673,0.2854138554275036,-0.1457879243279807
1746475662621567700,2.857567626953125,0.7543301748156547,0.00803746824413538,0.14146819796534255
1746475662631563800,2.867563720703125,0.5160281991750002,-0.04479921893030405,0.09296376784155144
1746475662641560800,2.877560791015625,0.2328098079651594,0.17779373092502354,-0.12184594425903633
1746475662651557600,2.8875576171875,0.08173720296621322,0.16063713667988777,-0.2544033617444336
1746475662661554700,2.8975546875,0.09175532363355159,0.02967500729560852,0.018654212391749022
1746475662671550700,2.90755078125,0.03512567391693592,0.02792991719394922,0.3416651368184015
1746475662681547500,2.917547607421875,-0.029323125118017195,0.022772680561244485,0.41835744095258415
1746475662691544800,2.927544921875,-0.029449966368079183,-0.06572481032013892,0.2784710140196606
1746475662701540600,2.93754052734375,-0.10224281537830829,-0.14975713848620653,0.1318623296270147
1746475662711538000,2.947537841796875,-0.24843758520781992,-0.15189122790545223,-0.015625859280209986
1746475662721534700,2.95753466796875,-0.41039924848973747,-0.08229279102236033,-0.13913515190789474
1746475662731531800,2.96753173828125,-0.4909603934139013,0.05474953505843878,-0.2050426070522517
1746475662741527800,2.97752783203125,-0.4905179103434086,0.1427428758099675,-0.15491506923865525
1746475662751524600,2.987524658203125,-0.41852118014693257,0.1481368438079953,-0.08150061773136258
1746475662761522000,2.99752197265625,-0.25041794537007805,0.11412760670036076,-0.03204796523833647
1746475662771517700,3.007517578125,-0.042405894052982326,0.09341039736419915,0.013445081175025552
1746475662781514800,3.0175146484375,0.0689238986223936,0.06015431671142578,0.05934579507382586
1746475662791511800,3.02751171875,0.10635317330658435,0.07009206561893225,0.10157479818994179
1746475662801508600,3.037508544921875,0.13834405632913113,0.07998597538471222,0.11095164354536682
1746475662811505000,3.0475048828125,0.16470073285698889,0.05014993230849504,0.05399126403704285
1746475662821501700,3.057501708984375,0.21373510513901708,0.08655746272951365,0.04970169535065069
1746475662831498800,3.067498779296875,0.21493103692531584,0.08211071245372295,0.06101628556931391
1746475662841494800,3.077494873046875,0.2213414884895086,0.06513239738494157,0.0440536247273907
1746475662851491600,3.08749169921875,0.21291969710290432,0.048293783047795295,0.014013985370472073
1746475662861489000,3.097489013671875,0.14889058478474615,0.06387070688605308,-0.008738602250814437
1746475662871485700,3.107485595703125,0.07447977918386459,0.07025105557292699,-0.044907866936549544
1746475662881481700,3.117481689453125,0.013923311412334442,0.04221767800450325,-0.018133385121729222
1746475662891478800,3.127478759765625,0.01053659158349037,-0.006192424899339676,0.03578349850485101
1746475662901475600,3.1374755859375,0.06010346330702304,-0.0402110143572092,0.040375904329027976
1746475662911473000,3.147472900390625,0.11482055740058421,-0.04652852694094181,0.127208676868584
1746475662921468700,3.15746875,0.11519815854132175,-0.027218261793255805,0.13194907632870598
1746475662931466000,3.167466064453125,0.06283376505374907,-0.017634440889954566,0.11277611902616917
1746475662941462800,3.177462890625,-0.03466565518975258,0.03001432225257158,0.22511680577713994
1746475662951458800,3.187458740234375,-0.17686697146892547,0.03318213863372803,0.09021015828447417
1746475662961455900,3.197455810546875,-0.2944745292395353,-0.020705226637423038,0.06868194309268147
1746475662971452700,3.20745263671875,-0.35393911012113094,0.03005523878484964,0.05852826814586296
1746475662981449700,3.21744970703125,-0.4025374290734529,0.07968202400207519,-0.24148891684738918
1746475662991445800,3.22744580078125,-0.44945700115859505,0.10359452224820852,-0.4020848630003631
1746475663001442600,3.237442626953125,-0.47754152439236636,0.13121259701400995,-0.602577770859003
1746475663011439900,3.24743994140625,-0.46638884673714637,0.22584932130277155,-0.7864442458264529
1746475663021436700,3.257436767578125,-0.6027858606517315,0.6276958455026149,0.061436648139543824
1746475663031433000,3.267432861328125,-0.6529319935679435,0.3557765546813607,-0.07988993113171308
1746475663041429800,3.2774296875,-0.1894751086294651,0.24927666638046503,-0.24088282244671136
1746475663051426600,3.287426513671875,0.2570318105518818,0.45242111166119575,-0.3804328570321202
1746475663061423900,3.297423828125,0.16954758836627007,0.38672698874026534,-0.4000901089865714
1746475663071419600,3.307419677734375,0.03847323077917099,0.2131140506312251,-0.35979616558626293
1746475663081417000,3.3174169921875,-0.025498598393797874,0.09933481897711753,-0.2787190522302873
1746475663091413800,3.327413818359375,-0.1707780069440603,-0.07529080330580472,-0.02594007681729272
1746475663101409800,3.337409912109375,-0.2766372592538595,-0.19378537304401397,0.26430149102760475
1746475663111406800,3.34740673828125,-0.23865970303714273,-0.217894270645082,0.49532998680025336
1746475663121403600,3.357403564453125,-0.11342647269368171,-0.17230916203409433,0.5328679094906896
1746475663131400700,3.367400634765625,0.019258827221393583,-0.12730565270334482,0.3968354911047965
1746475663141396700,3.377396728515625,0.11887187861800193,-0.07371434776932001,0.21128899062853304
1746475663151393500,3.3873935546875,0.2148275765508413,-0.060818041317164895,-0.009579217793419957
1746475663161390800,3.397390869140625,0.23083646206557748,-0.03474398112297058,-0.2022025978533551
1746475663171387600,3.4073876953125,0.22027356699705122,-0.052502925175428386,-0.23124873266089707
1746475663181384000,3.417384033203125,0.2147626946210861,-0.0554606059372425,-0.15636172438301146
1746475663191380700,3.427380615234375,0.1348211428999901,-0.022372283066809176,-0.050143940959125756
1746475663201377500,3.43737744140625,0.19926351219415664,0.04641512969434261,0.023070859790220857
1746475663211374800,3.447374755859375,0.21760639361441134,0.018789163883030414,0.07917414754517375
1746475663221370600,3.45737060546875,-0.001263151803612709,-0.019180793549120424,-0.08362703530080616
1746475663231368000,3.467367919921875,-0.12662205435335636,0.006002455285191536,-0.22143424480687826
1746475663241364700,3.47736474609375,-0.07934417034983635,0.015970599330961704,-0.2079584944989532
1746475663251361800,3.48736181640625,0.035623686566948885,-0.007156593756377697,-0.10092333027757704
1746475663261357800,3.49735791015625,0.14951719225049018,-0.018034546123445034,0.04639236987326294
1746475663271354600,3.507354736328125,0.2469692662209272,-0.02293897703886032,0.12904109819382428
1746475663281351700,3.5173515625,0.3098556382447481,0.014434768065810203,0.2015390193780884
1746475663291348700,3.5273486328125,0.3961117799401283,0.10720599074363708,0.2396665419921279
1746475663301344500,3.537344482421875,0.27964930055141446,0.20726415555924177,0.11659816153235733
1746475663311340800,3.5473408203125,0.08122749987840652,0.27214082461744543,-0.03710318453498185
1746475663321337900,3.557337890625,-0.24214988324046133,0.20520956111699343,-0.2757657371163368
1746475663331335000,3.5673349609375,-0.4435346253722906,0.20085048912465572,-0.40780645551756023
1746475663341330700,3.57733056640625,-0.3687485567182302,0.24753303758352993,-0.36395839983224865
1746475663351328000,3.587327880859375,-0.05770516999363899,0.25402269186377524,-0.2534801459522918
1746475663361324800,3.59732470703125,0.33809973595440385,0.2230912547662854,-0.05005980633962899
1746475663371321900,3.60732177734375,0.7492945187360048,0.13599953902959822,0.26601569280065596
1746475663381318000,3.61731787109375,0.9342366601109504,0.05249094247668981,0.5919238730387761
1746475663391315000,3.62731494140625,0.8834908077359199,0.023726620285212992,0.7366978528175503
1746475663401312000,3.63731201171875,0.640775107306242,0.06587883183807135,0.641866117413342
1746475663411307800,3.647307861328125,0.28410861804783344,-0.14624211610257626,0.18616214815657584
1746475663421304800,3.657304931640625,-0.1353612411260605,-0.2492535777658224,-0.1212553762210533
1746475663431302000,3.667302001953125,-0.222722713714838,0.07644874116927385,0.1999039655221626
1746475663441299000,3.677298828125,-0.4501987594366073,0.24385376454889773,0.41782446658704425
1746475663451295700,3.687295654296875,-0.5445440995633601,0.26945728462189433,0.5255877258872613
1746475663461291800,3.697291748046875,-0.4637719422370195,0.195723063108325,0.5032346589775756
1746475663471288800,3.707288818359375,-0.3040086657822132,0.1336778180837631,0.5130364700131118
1746475663481286000,3.717285888671875,-0.229472187975049,0.17948299918621777,0.567326607398875
1746475663491283000,3.727282958984375,-0.33817864640951156,0.3486374965816736,0.6717370856724679
1746475663501279000,3.737279052734375,-0.7607394573360681,0.5252630605101585,0.82264953167364
1746475663511275800,3.74727587890625,-1.2006845337837935,0.42917818323969836,0.5488860742904246
1746475663521272800,3.75727294921875,-1.3186714462608098,0.15204261907488106,0.024185999691579488
1746475663531270000,3.767269775390625,-0.9475643437176943,-0.13427753754258154,-0.404969003601931
1746475663541266000,3.777265869140625,-0.35931612698435783,-0.3469719014570117,-0.600507686586678
1746475663551263000,3.787262939453125,0.2316384260982275,-0.410584834189713,-0.5973321618231013
1746475663561260000,3.797260009765625,0.73712477299273,-0.33555677347332236,-0.38783473078645764
1746475663571256800,3.8072568359375,1.0829711775511504,-0.21115181064754723,-0.0980334997207392
1746475663581252900,3.8172529296875,1.105845857182145,-0.11362170300483702,0.005511940955044701
1746475663591250000,3.82725,0.765413294366002,-0.0727320587337017,-0.0346612256098073
1746475663601246700,3.837246826171875,0.21043664811551568,0.027032968354225157,-0.0930629721660167
1746475663611244000,3.847244140625,-0.32263562484085556,0.16735066284388303,-0.0888560128623154
1746475663621239800,3.85723974609375,-0.5791589013487101,0.30565555620640517,-0.05117535723294131
1746475663631236900,3.86723681640625,-0.5224228686481714,0.3252338246405124,0.04599953463077545
1746475663641234000,3.87723388671875,-0.34389117883741854,0.25665011775791646,0.10687778170257806
1746475663651230700,3.887230712890625,-0.15999416260123253,0.17544862910360096,0.09667920816810802
1746475663661227000,3.89722705078125,-0.04371346952021122,0.1453466285675764,0.011597681476362049
1746475663671223800,3.907223876953125,-0.05400573095381259,0.09111468764245509,-0.1258818669779226
1746475663681220900,3.917220947265625,-0.15806757845282554,0.010167758271098136,-0.1917677130786702
1746475663691218000,3.927218017578125,-0.2539665777623653,-0.06593786854892969,-0.22470687326937913
1746475663701214000,3.9372138671875,-0.1618815837830305,-0.11472820294201373,-0.16732731850091367
1746475663711211000,3.9472109375,0.6963461878806352,-0.21737521520704028,-0.1008238154258579
1746475663721207800,3.957207763671875,1.8846943871825932,-0.6452899543821812,-0.4346851100929081
1746475663731204900,3.967204833984375,0.9126374072432517,-0.5036258137196302,-0.3112414300473407
1746475663741201000,3.977200927734375,0.8844880020797252,-0.12273469152599573,0.04110628269650042
1746475663751197700,3.98719775390625,0.8422872752100229,-0.03445464278757572,0.13763514087479561
1746475663761195000,3.997195068359375,0.13460019362568854,-0.137816525323689,-0.27552586394585665
1746475663771191800,4.00719189453125,-0.7124550266385078,-0.23393004416674373,-0.638501609416306
1746475663781187800,4.017187744140625,-0.9744920981317758,-0.26077421195060013,-0.5825254186397418
1746475663791185000,4.027184814453125,-0.6926566857129335,-0.20745295612961054,-0.31314277015663683
1746475663801181700,4.037181640625,-0.3790764739871025,-0.12541443212926387,-0.06910290845111013
1746475663811179000,4.047178955078125,-0.18224515737593172,-0.01075315694361925,0.10132043983638286
1746475663821174800,4.0571748046875,-0.19362346048057077,0.0830979699254036,0.21746406253427267
1746475663831172000,4.067172119140625,-0.30721593739092345,-0.004565408219397068,0.12211904384568333
1746475663841169000,4.0771689453125,-0.36523499563932416,-0.09129267455786466,0.042617783237993714
1746475663851165700,4.087165771484375,-0.4573731811106205,-0.14925561870485543,-0.07401004278026521
1746475663861162000,4.097161865234375,-0.46759179278612134,-0.1250602118641138,-0.157819595041126
1746475663871158800,4.10715869140625,-0.4156283813148737,-0.022400924639403817,-0.1550199543852359
1746475663881155800,4.11715576171875,-0.34542905592918394,0.029503157860040662,-0.098673724719882
1746475663891153000,4.12715283203125,-0.3370253847211599,0.0512412346765399,-0.055356707171350716
1746475663901148700,4.137148681640625,-0.4035521590739488,0.06257715994417667,-0.13612988741099832
1746475663911146000,4.14714599609375,-0.4687620056092739,0.01926291887462139,-0.27178974615745244
1746475663921142800,4.157142822265625,-0.5260089104413986,-0.005378478167951107,-0.39069384654462336
1746475663931139800,4.167139892578125,-0.7941665106415748,-0.10369447549134492,-0.6885895824044942
1746475663941136000,4.177135986328125,-1.0678273844331503,-0.304682327260077,-1.1660540229726581
1746475663951132700,4.187132568359375,-0.9878548530519008,-0.6568769318014382,-1.4952452800020575
1746475663961130000,4.1971298828125,-0.5900760166823864,-0.8314616375520825,-1.2244063317634164
1746475663971126800,4.207126708984375,0.02840484122931957,-0.795059660089016,-0.6188261642180383
1746475663981123000,4.217123046875,0.6473275976896286,-0.5484492903083562,-0.045447088379785415
1746475663991120000,4.227119873046875,1.1212789886355399,-0.21416122159659862,0.3628757922273129
1746475664001117000,4.237116943359375,1.2395417954444885,0.0310655848711729,0.4719858264939859
1746475664011114000,4.247114013671875,1.305763449370861,0.07070932073444128,0.34657829902954396
1746475664021109800,4.25710986328125,1.248880701676011,0.011821662957966326,0.25454266061726954
1746475664031107000,4.267107177734375,1.0144675501674414,-0.02035918967872858,0.2045875567611307
1746475664041104000,4.277103759765625,0.5494447310864925,0.0750672236829996,0.15792853530831635
1746475664051101000,4.287100830078125,0.1548281581401825,0.26789514987170693,0.15461102652447298
1746475664061097000,4.297096923828125,-0.08745324252545833,0.5926961360529065,0.3087703272260725
1746475664071093800,4.30709375,-0.173928579929471,0.8201593222931027,0.6602958003342151
1746475664081090800,4.3170908203125,-0.18423253180086613,0.7944833215057849,0.8630040461547672
1746475664091088000,4.327087890625,-0.22932781106829642,0.8956216827735304,0.7735503505270928
1746475664101083600,4.337083740234375,-0.4794359598368406,0.9482505724161863,0.40776674456167966
1746475664111081000,4.3470810546875,-0.8911655801475048,0.8067407455325126,-0.19592556341048328
1746475664121077800,4.357077880859375,-0.6255810453057289,0.5204302335262299,-0.13510843540877104
1746475664131074800,4.36707470703125,-0.680512658932805,0.24603169310986994,-0.2502367435842752
1746475664141070800,4.37707080078125,-0.8312550090640782,0.19053075516223905,-0.4449024431267753
1746475664151068000,4.38706787109375,-0.9542805002301931,0.18460194963514803,-0.30554310880787666
1746475664161065000,4.39706494140625,-0.8029588889062405,0.22648528111875055,-0.05388057020418346
1746475664171060700,4.407060791015625,-0.27286709306538104,0.29844430965334173,0.08390511245667003
1746475664181058000,4.41705810546875,0.3223310889363289,0.2768161229521036,0.2411005203180015
1746475664191054800,4.427054931640625,0.5105938991665839,0.02365180148333311,0.49926571881398557
1746475664201052000,4.437052001953125,0.21735271111428736,-0.37936405875682827,0.5648682179287076
1746475664211048000,4.4470478515625,-0.038001521614193914,-0.5409115882799029,0.23779369732495395
1746475664221044700,4.457044677734375,-0.04376490744650364,-0.42005467332452534,-0.11825115290377289
1746475664231041800,4.467041748046875,0.031948212924599644,-0.18315788830667734,-0.20497061952827497
1746475664241038800,4.477038818359375,0.22745734102129936,0.005984335106611251,-0.10127604357223026
1746475664251035000,4.487034912109375,0.45429450431764123,0.10366291130930184,0.14892097992300987
1746475664261032000,4.497031982421875,1.5361837318509817,0.11830489238500594,0.28903686823025343
1746475664271028700,4.50702880859375,1.8774860632389783,-0.2829769836694002,0.26841084430888296
1746475664281025800,4.51702587890625,0.38615795668065545,0.06479951216876506,0.4571667718183249
1746475664291021800,4.527021728515625,0.020653496450185774,0.29184651882350443,0.43443544618077573
1746475664301019000,4.537018798828125,0.05694762962460517,0.16443302183151245,0.3458203202690929
1746475664311016000,4.547015869140625,-0.2163011562347412,0.02377513560205698,0.1400973206040915
1746475664321012200,4.55701220703125,-0.5004641348183155,0.10649638116955756,-0.014435631148912944
1746475664331009300,4.56700927734375,-0.6112357090890407,0.1726581216022372,-0.2502149701438844
1746475664341006300,4.57700634765625,-0.8320026125609874,0.06665595369040965,-0.6792115132063626
1746475664351003400,4.58700341796875,-1.0957575938880444,-0.0022518705800175665,-0.750152377674356
1746475664360999400,4.59699951171875,-1.4662690686255693,0.009739595986902713,-0.6429477021049708
1746475664370996200,4.606996337890625,-1.7125912691146135,-0.05547931063771248,-0.5769646792400628
1746475664380993300,4.6169931640625,-1.053575571718812,-0.25871961750835176,-0.2998488244227134
1746475664390990300,4.626990234375,0.12780395761430263,-0.6047182900190353,-0.1993708632924594
1746475664400986000,4.636986083984375,0.8940151243597269,-0.7628016505628824,-0.26878119372492654
1746475664410983400,4.6469833984375,1.2513327710032462,-0.46031800239086146,-0.06141639080280438
1746475664420980200,4.656980224609375,1.3482868323236703,-0.07648527378737927,0.18015415817974134
1746475664430976500,4.6669765625,1.104521915102005,0.14491758950054645,0.21152849847283214
1746475664440973300,4.676973388671875,0.5790928503751754,0.20060440540909766,0.038225229101162404
1746475664450970000,4.68697021484375,0.105462361946702,0.026935353198647496,-0.30834801016077396
1746475664460967400,4.696967529296875,-0.22308862441778182,-0.1940253192797303,-0.5851879158472642
1746475664470963200,4.706963134765625,-0.39675884567201136,-0.2694198752209544,-0.5644791090132668
1746475664480960300,4.716960205078125,-0.3060708590090275,-0.14114479296356439,-0.30259403147762637
1746475664490957300,4.726957275390625,-0.08698387144804,0.035948388476669785,-0.026331140227802096
1746475664500954400,4.736954345703125,0.06332417891919613,0.20245967788696287,0.2423859935512766
1746475664510950400,4.746950439453125,0.12052315295636654,0.3398632384955883,0.4471107302933931
1746475664520947200,4.756947265625,0.20191314992010592,0.4125070344239473,0.5203276499345898
1746475664530944300,4.7669443359375,0.1971697547852993,0.34288404762148855,0.3812644490180537
1746475664540940300,4.776940185546875,0.16081424681246279,0.2099883198261261,0.14288564528152345
1746475664550937000,4.78693701171875,0.1083896475702524,0.11204553972929715,-0.006971629110909998
1746475664560934400,4.796934326171875,0.018341712376475333,0.08141746949255466,-0.015580284839123486
1746475664570931200,4.80693115234375,-0.0836293003231287,0.12127601715028286,0.12382606695927678
1746475664580927500,4.816927490234375,-0.20034838482141493,0.24221856456249952,0.32955282035078853
1746475664590924300,4.82692431640625,-0.1057674823731184,0.3578448853880167,0.5260510690826923
1746475664600921300,4.83692138671875,0.1894347766190767,0.3714955173388123,0.6871773775190114
1746475664610917400,4.84691748046875,0.3191840230822563,0.304991831600666,0.7000315983951091
1746475664620914200,4.8569140625,0.4901023152798414,0.176907011218369,0.5875322870163247
1746475664630911200,4.8669111328125,1.8831342982590198,-0.45135260564684865,0.025821738534094765
1746475664640907300,4.8769072265625,0.7070499527245759,-0.12153145321607589,-0.13650404535247943
1746475664650904000,4.886904052734375,-0.09420447035133839,0.5114844182655215,0.08206482748538255
1746475664660901400,4.8969013671875,-0.17997487435638904,0.7907964496865868,0.5246730587277562
1746475664670898200,4.906898193359375,0.05805939025878906,0.5334899138465523,0.6428939260911196
1746475664680894500,4.91689453125,-0.01372340492606163,0.11537059249877929,0.4387422765292227
1746475664690891300,4.926891357421875,-0.413691860294342,-0.0774772074341774,0.03424591367403045
1746475664700888300,4.936888427734375,-0.594535918700695,-0.2759068991526961,-0.3608228052202612
1746475664710885400,4.946885498046875,-0.4442331290304661,-0.5015633282318711,-0.5386655629187822
1746475664720881200,4.956881103515625,-0.2228840417563915,-0.5987172960385679,-0.5420627676090225
1746475664730878500,4.96687841796875,-0.14131518109440802,-0.5198515568554402,-0.38790428889133033
1746475664740875300,4.976875244140625,-0.3047486704945564,-0.3665010700523853,-0.13429437907952815
1746475664750871300,4.986871337890625,-0.45322950543463225,-0.1767120731681585,0.1422252999429591
1746475664760868400,4.996868408203125,-0.5387099865823984,-0.09966799645423889,0.02214596349764615
1746475664770865200,5.006865234375,-0.5571475605487823,-0.1783624707236886,-0.3517808361086994
1746475664780861400,5.016861328125,-0.5085077405422925,-0.1789776800125837,-0.623941461405158
1746475664790858200,5.026858154296875,-0.40104222207963464,-0.14831278489679098,-0.7131580603413283
1746475664800855300,5.036855224609375,-0.28268296915888785,-0.12719663937091827,-0.6249653976254165
1746475664810852400,5.046852294921875,-0.23085633580982684,-0.10148585953116417,-0.5960168779734522
1746475664820848000,5.05684814453125,-0.2248012735545635,-0.12337737334370612,-0.6596148323327302
1746475664830845400,5.066845458984375,-0.22187281888723373,-0.19548194782882927,-0.7987883252233267
1746475664840842200,5.07684228515625,-0.09620704234540461,-0.29919015958458184,-0.918828297772631
1746475664850838300,5.08683837890625,0.10493804581165313,-0.3318523659974336,-0.8035135271143168
1746475664860835300,5.09683544921875,0.42768940598666666,-0.29306641600728034,-0.580287686182931
1746475664870832000,5.10683203125,0.8234545644462108,-0.17986089258790014,-0.19368812321461737
1746475664880829400,5.116829345703125,0.9024450990527868,-0.051607729901373384,0.10841627984885126
1746475664890825200,5.1268251953125,0.6992413248002529,0.06502192274779081,0.2911773873902857
1746475664900822500,5.136822509765625,0.30672903065681456,0.16516893489062784,0.3351903513137251
1746475664910819300,5.1468193359375,-0.19715572625994682,0.2393541150420904,0.23628910144828258
1746475664920815000,5.156815185546875,-0.601247983559966,0.28084873946905137,0.18036270463019607
1746475664930812400,5.1668125,-0.667040013897419,0.33452129294574257,0.1021065852453932
1746475664940809200,5.176809326171875,-0.41992286363840103,0.28050299477130175,0.16425423119850455
1746475664950805200,5.18680517578125,-0.12088380296230315,0.22495967898666858,0.4467420431114733
1746475664960802300,5.19680224609375,0.10622282492518424,0.309348565505445,0.7280222328003495
1746475664970799000,5.206799072265625,-0.0892623377740383,0.3765381876811385,0.8206765511002391
1746475664980796400,5.21679638671875,-0.5254390015989542,0.24037205991297958,0.3573468727380037
1746475664990792200,5.226792236328125,-1.263420099160075,0.10478840820789337,0.22567566350260748
1746475665000789500,5.23678955078125,-0.8978992723166942,0.1200368307441473,0.054368362854281434
1746475665010786300,5.246786376953125,-0.29988427932858464,0.048506256754696365,0.3005995514584705
1746475665020782300,5.2567822265625,-0.6718243255645037,0.0317825009688735,0.38954303254168476
1746475665030779400,5.266779296875,-0.3187602447122335,0.031046880170702933,0.39015049691554154
1746475665040776200,5.276776123046875,0.003745616269111633,-0.056393502873182295,0.09854042632956989
1746475665050773500,5.2867734375,0.14700550169050694,-0.0331461905375123,0.09012111002784222
1746475665060769300,5.296769287109375,0.29216800586283204,-0.01594634167253971,0.07236023887977935
1746475665070766300,5.306766357421875,0.35696634898781776,-0.035388124245405196,-0.06143156097247265
1746475665080763400,5.316763427734375,0.29442601392269135,-0.17325462619066237,-0.2909701013151556
1746475665090759200,5.32675927734375,0.1753004528045654,-0.35122955890148877,-0.48952294448930767
1746475665100756500,5.336756591796875,0.05613865132927894,-0.32348055123239755,-0.4852994450427591
1746475665110753300,5.346753173828125,0.007989245188236236,-0.03342851461023092,-0.24145689600761977
1746475665120749300,5.356749267578125,0.06640402475595474,0.15600187809467314,-0.13643456944599747
1746475665130746400,5.366746337890625,0.06527823559641838,0.20831600269973277,-0.1364752302499488
1746475665140743200,5.3767431640625,-0.08626841665506363,0.086763798956573,-0.15990880413902922
1746475665150740500,5.386740478515625,-0.16518471698164938,-0.050452130125463006,-0.13604219086123628
1746475665160736300,5.396736328125,-0.16886077514588832,-0.07659457938075065,-0.11325299755660817
1746475665170733300,5.4067333984375,-0.09466799620985984,-0.025429332549870013,-0.10983078628927469
1746475665180730400,5.41673046875,0.007194879940152167,0.09294774828851222,-0.07599944476550445
1746475665190726400,5.426726318359375,0.09485153608322143,0.1652913922265172,-0.023000625831913202
1746475665200723200,5.43672314453125,0.16488076559901235,0.18370295496881006,-0.00024507906856015326
1746475665210720300,5.44672021484375,0.20801789653599262,0.24595219813287256,-0.021003606795798987
1746475665220717300,5.45671728515625,0.27194822465479374,0.2730094241455197,-0.020921152676735073
1746475665230713300,5.46671337890625,0.3834159644961357,0.27464608543664215,-0.0741527939855121
1746475665240710100,5.476710205078125,0.4250900371432304,0.18516659778058528,-0.12989919459419325
1746475665250707500,5.48670751953125,0.41287236060500143,0.14618892461061478,-0.09646167469359934
1746475665260703200,5.496703125,0.4286842622429132,0.16834318101257084,0.049917548324726516
1746475665270700300,5.5067001953125,0.46559389696717257,0.09793050513714552,0.03642190600624308
1746475665280697300,5.516697265625,0.5179191274881363,0.09152151487767696,0.026882216505613177
1746475665290694100,5.526694091796875,0.47044893578290936,0.07851970222443341,0.09447930523734539
1746475665300690200,5.536690185546875,0.4120066836863756,0.05086684840619564,0.13871623237608
1746475665310687200,5.546687255859375,0.3831219499856233,-0.026724048535525798,0.16164764716299249
1746475665320684300,5.556684326171875,0.24863690717220305,-0.052556116667389866,0.018760339647345244
1746475665330680000,5.56668017578125,0.28700141687989233,0.06418108800947665,-0.14549911571554838
1746475665340677400,5.576677490234375,0.05794190135896206,-0.015241700534522533,-0.24943004857758058
1746475665350674200,5.586674072265625,-0.2534662270247936,0.11574556329101324,-0.2612640412941575
1746475665360670200,5.596670166015625,-0.40587680262923237,-0.007445055308938026,-0.26427798228785393
1746475665370667300,5.606667236328125,-0.5601619399338961,-0.0017845453292131422,-0.023690854852087793
1746475665380664000,5.6166640625,-0.8029729174315929,0.19130407762229443,0.2146498453637585
1746475665390661000,5.6266611328125,-1.0572241573542356,0.14247282669693231,0.17432872169557959
1746475665400657200,5.6366572265625,-1.0677730238974095,0.10238894585072994,0.06355597838107496
1746475665410654000,5.646654052734375,-0.8058604555666447,0.08854951332956552,-0.05267097521871328
1746475665420651300,5.6566513671875,-0.40555297750234603,0.056421852184832096,-0.053040100792050356
1746475665430647000,5.66664697265625,-0.06028992578983307,-0.036706805628538126,0.13517200216427444
1746475665440644400,5.676644287109375,0.03637479719519615,-0.14133505483865738,0.18033271135073153
1746475665450641200,5.68664111328125,-0.1531716231048107,-0.1865945847570896,0.2194739775845781
1746475665460638000,5.696637939453125,-0.31464696417450905,-0.14816022468358278,0.18461005987636744
1746475665470634200,5.70663427734375,-0.23419804745316505,-0.09989216059893369,0.014580496679432689
1746475665480631000,5.716631103515625,0.15372341176867485,-0.04279401658773422,-0.06748312522955238
1746475665490628400,5.72662841796875,0.6388122828006744,-0.005645312410593032,-0.1491831745231524
1746475665500624100,5.7366240234375,1.3478648075193167,0.01187339314520359,-0.3582497033292427
1746475665510621200,5.74662109375,0.9602204116731882,-0.0870128052815795,-0.3515659512490034
1746475665520618200,5.7566181640625,0.7604436892598867,0.08310556870996952,-0.47205355796795334
1746475665530615000,5.766614990234375,0.3871744402468204,-0.049882805804908274,-0.2101070873675868
1746475665540611300,5.776611328125,-0.21292028162479398,-0.1969645876020193,-0.2097864405784756
1746475665550608100,5.786608154296875,-0.6780068135917187,-0.2048246534526348,-0.3181902262719348
1746475665560605000,5.79660498046875,-0.7631009257704019,0.24234920520484446,-0.11556998752839863
1746475665570601200,5.806601318359375,-0.5434247401446104,0.334009544031322,-0.0699446199722588
1746475665580598000,5.816597900390625,0.11410568712949752,-0.1371881642922759,-0.4537540407653898
1746475665590595300,5.82659521484375,0.7869026571184397,-0.4846396659597754,-0.43564379905723033
1746475665600592100,5.836592041015625,1.0794874270886181,-0.11831395247429609,0.06482581565380097
1746475665610588200,5.846588134765625,0.8486006961405277,0.1451230489447713,0.28007658605277536
1746475665620585200,5.856585205078125,0.5521048902064561,0.21284049438685176,0.30563122548274696
1746475665630582000,5.86658203125,0.2796136447161436,0.11219780768156051,0.14356252162978053
1746475665640578300,5.876578369140625,0.06446341208219528,-0.03252659733444452,0.04409165518283844
1746475665650575000,5.8865751953125,-0.06974281378984451,-0.0783966603666544,0.0273323166269809
1746475665660572200,5.896572265625,-0.10905658704638481,0.009522153843939304,0.10476802300699055
1746475665670569200,5.9065693359375,-0.046212885120511055,0.1061880458727479,0.16745003156512975
1746475665680565000,5.91656494140625,0.10770867956876753,0.07938742496967315,0.14172529626525937
1746475665690562300,5.926562255859375,0.20602409237027167,-0.015590075580775737,0.2358193650446832
1746475665700559000,5.93655908203125,0.26655250309109685,-0.12082388946861028,0.4822657033700496
1746475665710555100,5.94655517578125,0.2616717453122139,-0.05339695140570402,0.41062129374258216
1746475665720552200,5.95655224609375,0.18836685512661933,0.1662169826388359,0.09192162011116743
1746475665730549000,5.966549072265625,0.04663023374974727,0.2338473343193531,-0.10576244087181985
1746475665740546300,5.97654638671875,-0.5068728328168391,0.31514176195412874,-0.38476226453855633
1746475665750542000,5.9865419921875,-1.404496795323491,0.571887449041009,-0.8203508262772112
1746475665760539100,5.9965390625,-0.8702420345842837,0.6666007456973194,-0.3483075339749455
1746475665770536200,6.0065361328125,-1.0742945346206425,-0.08955810585021973,0.10822430094070731
1746475665780532200,6.0165322265625,-0.7406383340716362,-0.15488251867592334,0.5234218896228819
1746475665790529300,6.026529296875,-0.7594032402962446,0.021526772153377532,0.5704134309656917
1746475665800526000,6.036526123046875,-0.7978110046237706,0.17117811217755077,0.4870181585941463
1746475665810523400,6.0465234375,-0.8569570210754871,0.19383505740463733,0.16313947488963604
1746475665820519200,6.056519287109375,-0.6887269450485706,0.13739859217256306,0.10478950418643652
1746475665830516200,6.06651611328125,-0.21400398520827293,0.14727116688936948,0.1351197605203837
1746475665840513300,6.07651318359375,0.07900807026326656,0.028804654201865194,0.009745806531980632
1746475665850510000,6.086510009765625,0.3216431066721678,-0.1391466048836708,-0.03871281168870628
1746475665860506000,6.096506103515625,0.5425660774886608,-0.21223814457952975,-0.05538878281004726
1746475665870503200,6.106503173828125,0.5272878443360328,-0.16883417939990758,-0.08727920113280414
1746475665880500000,6.1165,0.5541226597696542,-0.15057196200042963,-0.09885616861470044
1746475665890496300,6.126496337890625,0.3994143286168575,-0.10538988123238086,-0.09410429791249335
1746475665900493000,6.1364931640625,0.12028466802537441,-0.041406361621618266,-0.03126775637976825
1746475665910490400,6.146490478515625,-0.05351823969781398,0.02279869178533554,0.031229908587411044
1746475665920487200,6.156487060546875,-0.12856208250522613,0.08836042049825191,0.11616422709450125
1746475665930483200,6.166483154296875,-0.10429799434244633,0.15509791499227285,0.12693981506563723
1746475665940480300,6.176480224609375,0.03911854294538498,0.12778963682800532,0.015855594649165868
1746475665950477000,6.18647705078125,0.2170364847719669,0.07844955959767103,-0.042220965940132735
1746475665960474400,6.196474365234375,0.2983142535328865,0.04268441873341799,-0.0249364344663918
1746475665970470100,6.20647021484375,0.2606944247126579,0.05638122791349887,-0.04494783362075686
1746475665980467200,6.21646728515625,0.07204699907898902,0.03768821788132191,-0.15150843913294373
1746475665990464300,6.22646435546875,-0.09125964907109736,0.09705459908545017,-0.17813100005537272
1746475666000460000,6.2364599609375,-0.17460370271205902,0.1761152763187885,-0.13596432158574462
1746475666010457300,6.246457275390625,-0.1865823097974062,0.16896482004225252,-0.06811703921891749
1746475666020454100,6.2564541015625,-0.1527314781218767,0.07420183902531861,-0.06092515495344996
1746475666030451000,6.266450927734375,-0.03772445823848247,-0.03348813584297895,-0.03418349769599736
1746475666040447200,6.276447265625,0.03401742041409016,-0.09569412438720463,0.07731164160892368
1746475666050444000,6.286444091796875,-0.013532850790023802,-0.1075254319563508,0.1146509729873389
1746475666060441300,6.29644140625,-0.005622516056895256,-0.08583440915197134,0.06348609148263931
1746475666070437000,6.30643701171875,0.03531330544352531,-0.04748538927435875,0.016375015413388608
1746475666080434200,6.31643408203125,-0.0040951603591442105,-0.030222119784355163,0.008383139876648783
1746475666090431200,6.32643115234375,-0.1517120719462633,-0.019411387434601784,-0.05184380367957055
1746475666100428000,6.336427978515625,-0.2136035877138376,-0.0011024082839488983,-0.10319865479841828
1746475666110424300,6.34642431640625,-0.23393267451524732,0.06501490848511457,-0.10243168901391327
1746475666120421000,6.356421142578125,-0.18700141199231146,0.0979068320006132,-0.10106127744354307
1746475666130418200,6.366418212890625,-0.15253858589828012,0.045378480122983456,-0.08761025971807539
1746475666140415200,6.376415283203125,-0.10374386759102344,0.03485737836956978,-0.10110153638869523
1746475666150411000,6.386410888671875,-0.08104279096126556,0.1000838837787509,-0.16129779254570603
1746475666160408300,6.396408203125,0.0925000045210123,0.1924395113930106,-0.27151494780406354
1746475666170405000,6.406405029296875,0.40902679109275336,0.2582657362610102,-0.32499000594727695
1746475666180401200,6.416401123046875,0.7832254299104213,0.012291326296329497,-0.047003743237257
1746475666190398200,6.426398193359375,0.6553951688110828,-0.35164603074789047,0.386281509995088
1746475666200395000,6.43639501953125,0.42873920730054377,-0.29264059181064367,0.19302388715222477
1746475666210392300,6.446392333984375,0.26162147642970085,0.10383768335431813,-0.08020575561523437
1746475666220388000,6.45638818359375,0.04905541507005691,0.1557300754159689,-0.16633067214637995
1746475666230385200,6.46638525390625,-0.055386956179141994,0.04448854554593563,-0.05019282160215079
1746475666240382200,6.47638232421875,-0.010966799694299697,0.022314415399730204,0.24285744698792694
1746475666250379000,6.48637890625,-0.07608779890239238,0.021600714172422885,0.336861134070158
1746475666260375300,6.496375244140625,-0.23629706555902957,-0.005542728818953037,0.197628166077286
1746475666270372000,6.5063720703125,-0.2966881136357784,-0.006491407845914363,0.056912923637405036
1746475666280369400,6.516369384765625,-0.19933190125524997,-0.012893091581761836,0.018512319703027604
1746475666290365200,6.526365234375,-0.11181962201893329,0.02693301511108875,0.0775967421606183
1746475666300362000,6.536362060546875,0.09293898046016692,0.01208469780832529,0.054672158973291515
1746475666310359300,6.546359375,0.03706745563447475,-0.046721126903593535,0.028767317866161463
1746475666320356600,6.556356689453125,-0.051961073383688924,0.12199117968231439,-0.08252681897394358
1746475666330352600,6.5663525390625,-0.19028700953423977,-0.018356909945607184,0.03324424408450723
1746475666340349700,6.576349609375,-0.4548597369849682,0.20485943250507116,0.24188067437764255
1746475666350346500,6.586346435546875,-0.8467109368711709,0.29353227995336056,0.12010222413055598
1746475666360343800,6.59634375,-1.0250585022866725,0.013854630090296268,-0.02012428494431078
1746475666370339600,6.606339599609375,-0.8266068909972906,0.00428688353896141,-0.04033803827036172
1746475666380336600,6.616336669921875,-0.45394905188083645,0.04528758696913719,-0.24585724985841662
1746475666390333700,6.626333740234375,-0.04229775750339031,0.07054390103965998,-0.34500122243855147
1746475666400330500,6.63633056640625,0.3345066798985004,0.008560907596349716,-0.2504053781494498
1746475666410326800,6.646326904296875,0.49305941151976584,-0.10765928746908902,-0.1220020298698917
1746475666420323600,6.656323486328125,0.43773383013904094,-0.13596066832393408,0.039306430200301105
1746475666430320600,6.666320556640625,0.30647710172235965,-0.04570844272971153,0.1574726082343608
1746475666440316700,6.676316650390625,0.2799140889674425,0.04124766392856836,0.20080968219023196
1746475666450313500,6.6863134765625,0.5680816270172596,0.11097995632439851,0.22825959731489417
1746475666460310800,6.696310791015625,0.9682499888718128,0.10072013585567474,0.2659587749816477
1746475666470307600,6.7063076171875,0.9974351668238639,-0.07929244016259908,0.009633834057487547
1746475666480303600,6.7163037109375,0.7623597520142793,-0.18361001598834992,-0.46082262744475155
1746475666490300700,6.72630078125,0.641931291604042,-0.18076748603880405,-0.8345232901450246
1746475666500297500,6.73629736328125,-0.0406295320302248,-0.03043926966637373,-0.6584757453002035
1746475666510294800,6.746294677734375,-0.394644629997015,0.14912468580156563,-0.40361773512344806
1746475666520290600,6.75629052734375,-0.632843145263195,-0.07321458155363798,-0.11944354102611542
1746475666530287600,6.76628759765625,-0.7697510313093662,-0.02063362270593643,0.0020112302245572206
1746475666540284700,6.77628466796875,-0.7623246807008981,0.201836577552557,0.04382701289728284
1746475666550280400,6.786280517578125,-0.7727244941622018,0.25903350576311346,0.037985812588408586
1746475666560277800,6.79627783203125,-0.7415829214453696,0.22589257592260836,0.0417738066945225
1746475666570274600,6.806274658203125,-0.39562721129357814,0.2147884135842323,0.07104593227766454
1746475666580271600,6.816271728515625,-0.01744037962257862,0.19375351660102605,0.11703019627407192
1746475666590267600,6.826267578125,0.30777064866423604,0.12845131560713052,0.18009784314893185
1746475666600264400,6.836264404296875,0.5847744031429291,-0.1261801558047533,0.37473077293299134
1746475666610261800,6.84626171875,0.41033962725698947,-0.5335568416029215,0.7805369945440441
1746475666620257500,6.856257568359375,0.1769657556682825,-0.607143471339345,0.5606169171597808
1746475666630254600,6.866254638671875,0.015843465819954872,-0.31650954317599533,0.28361783885620534
1746475666640251600,6.876251708984375,-0.315232655107975,-0.14187106141149997,0.094540862698853
1746475666650248400,6.88624853515625,-0.5074854117572307,0.059980129188299175,0.15219327959194778
1746475666660244700,6.89624462890625,-0.4768903670072555,0.263676363132894,0.3896403919689357
1746475666670241500,6.906241455078125,-0.22648995729386806,0.25139351240396496,0.4976431956460699
1746475666680238800,6.91623876953125,0.08588672386109829,0.13835107059180735,0.40100715076625343
1746475666690235600,6.926235595703125,0.23483634535670278,0.08200023781657219,0.1260714712658897
1746475666700231700,6.936231689453125,-0.039868484529852866,-0.005564940650761127,-0.057680729672126466
1746475666710228700,6.946228759765625,-0.4637327792704105,-0.08501081780940294,-0.23563823632411657
1746475666720225500,6.9562255859375,-0.5328256047189235,0.06921177565306424,-0.4107029441440478
1746475666730222600,6.96622265625,-0.269099849486351,0.42561493780016896,-0.3678443744201213
1746475666740218600,6.976218505859375,0.14498597856163978,0.6428636040180922,-0.20926442599836736
1746475666750215400,6.98621533203125,0.5240513466328383,0.04908113403320312,0.34220362760927525
1746475666760212700,6.996212646484375,0.5419365474134683,-0.3564674595549702,0.3329719811445102
1746475666770208500,7.00620849609375,0.7204214754730462,-0.3603445932492614,-0.008535645290929823
1746475666780205800,7.016205810546875,0.7724281415641308,-0.1163043662175536,-0.440545234297961
1746475666790202600,7.02620263671875,0.6913806744277476,0.16536825685501097,-0.8213783426940441
1746475666800199400,7.036199462890625,0.41439211751818655,0.377570453338325,-0.8614335089024155
1746475666810195700,7.04619580078125,0.2148456967294216,0.11767828491926192,-0.5808573392970487
1746475666820192500,7.056192626953125,0.07883914343714714,-0.22095921117365358,0.034257969438005235
1746475666830189800,7.06618994140625,-0.26985855889916416,-0.2758332493945956,0.363359995547682
1746475666840186600,7.0761865234375,-0.565708468145132,-0.06807312701195478,0.3599768193827942
1746475666850182700,7.0861826171875,-0.6688678138464689,0.2594549460455775,0.11130776350665837
1746475666860179700,7.0961796875,-0.5710626886546611,0.35196254935115573,-0.06187803523149341
1746475666870176500,7.106176513671875,-0.34456279448866844,0.300681859447062,0.03875453193858266
1746475666880172800,7.1161728515625,-0.31862989633083344,0.3435311133533716,0.0848835747005418
1746475666890169600,7.126169677734375,-0.09550386251211165,-0.1258817573800683,0.22963322375565767
1746475666900166400,7.13616650390625,-0.18012509648203848,-0.30295068116188045,0.10242704937141388
1746475666910163700,7.146163818359375,-0.1518780761629343,-0.055960372152924535,-0.22081764727849512
1746475666920159500,7.156159423828125,-0.10087269606888294,0.059577101345360275,-0.3613623189244419
1746475666930156800,7.16615673828125,-0.013408932149410246,0.07554185545742512,-0.25207977763507516
1746475666940153600,7.176153564453125,0.048129532396793365,0.11724866133034229,-0.08009824012015014
1746475666950150700,7.186150634765625,0.13011165003478525,-0.021018530370295045,0.08532963796760887
1746475666960146700,7.196146728515625,0.16410627409517764,-0.08097440190017223,0.21377733684554695
1746475666970143500,7.2061435546875,0.09319792365729808,-0.04900865331888198,0.15470529894549398
1746475666980140800,7.216140869140625,0.00897591813802719,-0.04845511108934879,0.0017231339981779454
1746475666990136600,7.226136474609375,-0.07583762353360653,-0.05191343484967947,-0.12255027486979961
1746475667000133600,7.236133544921875,-0.2244961531281471,0.0038692426487803456,-0.11145246920697391
1746475667010130700,7.246130615234375,-0.25298516550958156,0.08892594542652368,-0.07949965317249298
1746475667020127500,7.25612744140625,-0.1727525218874216,0.12189736391901969,-0.05427789895869791
1746475667030123800,7.266123779296875,-0.02975157966315746,0.12149871999025344,-0.0479988186892122
1746475667040120600,7.27612060546875,0.1738333028614521,0.08871873241662978,-0.054961022384651004
1746475667050117600,7.28611767578125,0.37623745116889473,0.074115329785645,-0.08619575327765196
1746475667060114700,7.29611474609375,0.576378330719471,0.05449088412225246,-0.12884363939296453
1746475667070110500,7.3061103515625,0.6838321587443351,0.02909545384198427,-0.1951072692975402
1746475667080107800,7.316107666015625,0.5832312653541565,-0.008657645969092846,-0.1655236300798133
1746475667090104600,7.3261044921875,0.24513036035597324,-0.02875643114596605,-0.1539416941618547
1746475667100101600,7.3361015625,-0.10500175869762897,-0.0029211481437087057,-0.18240253989472985
1746475667110097700,7.34609765625,-0.30331717638671396,0.09977934787422418,-0.23616912833042442
1746475667120094500,7.356094482421875,-0.3225648976922035,0.13502864817082882,-0.23389763973448424
1746475667130091800,7.366091796875,-0.24235095877051352,0.1213587269976735,-0.14141988357789814
1746475667140087600,7.376087646484375,-0.09600187516212463,0.07651771475225687,-0.04364091574065387
1746475667150084600,7.386084716796875,-0.06837737065553665,0.014160042777657507,0.01534976401887834
1746475667160081700,7.39608154296875,-0.20483575936853884,-0.01511544380635023,0.08823197181299328
1746475667170078500,7.406078369140625,-0.022925533035397527,0.01009615433961153,-0.05231423420291394
1746475667180074800,7.41607470703125,0.14369360066354273,-0.006483809061348438,-0.11959632043503224
1746475667190071600,7.426071533203125,0.09040741615593433,-0.007302724228799342,-0.0122751423465088
1746475667200068600,7.436068603515625,0.02966448590159416,0.052908291105926035,0.15359733770359307
1746475667210065700,7.446065673828125,-0.024936872857809066,0.0605304565474391,0.1464158652342856
1746475667220061400,7.4560615234375,-0.062196051672101016,0.019380407774448393,0.0760319039966911
1746475667230058800,7.466058837890625,-0.07641863829195499,0.0297106631308794,0.06176138658188283
1746475667240055600,7.4760556640625,-0.02963175267577171,0.04188128565698862,0.07861370065081864
1746475667250051800,7.4860517578125,0.07255436407923697,0.06329232247620821,0.10876512981913983
1746475667260048600,7.496048583984375,0.1487877089321613,0.017791385017335414,0.10585183618832379
1746475667270045400,7.50604541015625,0.19849545043110847,-0.037441257382929326,0.09843078280948102
1746475667280042800,7.516042724609375,0.21689678404033183,-0.03227116126865148,0.07500413185153156
1746475667290038500,7.52603857421875,0.22963819219172,-0.0163324183806777,0.08810480176936834
1746475667300035800,7.536035888671875,0.17729601053595542,-0.01320055009573698,0.11455215225536376
1746475667310032600,7.54603271484375,0.020911855125427245,0.05024667068123817,0.13670830835346132
1746475667320029200,7.556029296875,-0.13941782304048536,0.08385989420861005,0.12740933227352796
1746475667330025200,7.566025146484375,-0.16348726541399955,0.10371581054031849,0.07312061965987086
1746475667340022300,7.576022216796875,-0.7162795533627271,0.14467793552577496,-0.21182375509236007
1746475667350019300,7.586019287109375,-0.4541425286263227,0.1058957849279046,-0.4162221459569409
1746475667360016400,7.596016357421875,-0.012032383099198341,-0.010676000054180622,0.059662514606490726
1746475667370012200,7.60601220703125,-0.11325637682378291,0.10308277333378792,0.08687880363836883
1746475667380009200,7.61600927734375,-0.06679857703149318,0.1896981037303805,-0.030881643139012156
1746475667390006300,7.62600634765625,-0.06873100639879703,0.07461655730605125,-0.09302059432901441
1746475667400003000,7.636003173828125,0.17879355561733246,-0.010761924771964549,-0.19949538472127168
1746475667409999400,7.645999267578125,0.21887772872447966,-0.12152443895339965,-0.34212373077347874
1746475667419996200,7.65599609375,0.2841659011930227,0.12430851671397686,-0.6917541839152574
1746475667429993500,7.665993408203125,-0.1250900224804878,-0.02549655256718397,-0.6882464680552483
1746475667439989200,7.6759892578125,-0.4284188893049955,0.04217646921128034,-0.3232297182764858
1746475667449986300,7.685986328125,-0.9488456156998872,0.14609277075976132,-0.14666483502667396
1746475667459983400,7.6959833984375,-1.3568746279269457,0.24742870042622087,0.04793481354229152
1746475667469980200,7.705980224609375,-1.3325170162618158,0.39274727194309234,0.09088190179988741
1746475667479976200,7.71597607421875,-0.9715303257167339,0.4937058927297592,0.21820421337708829
1746475667489973200,7.72597314453125,-0.5614367821753025,0.25353140121549367,0.19387597393691539
1746475667499970300,7.73597021484375,-0.13703589634001254,0.004074409832060337,0.02034340758770704
1746475667509967400,7.74596728515625,0.1762999852359295,-0.10409633429050445,-0.10036730383001267
1746475667519963400,7.75596337890625,0.2222048273205757,-0.14844897849708794,-0.0330273864634335
1746475667529960400,7.76596044921875,0.21137597479224204,-0.12150631877481936,0.022435119169950484
1746475667539957200,7.775957275390625,0.057815060108900064,-0.04876315412521362,0.0837717775337398
1746475667549954000,7.7859541015625,-0.10617314056456088,0.044970191583037375,0.2747923620395362
1746475667559950300,7.795950439453125,-0.025541268491744994,0.00822743785828352,0.31397257204428314
1746475667569947100,7.805947021484375,0.15766718095839022,-0.1460609143167734,0.11735709014087915
1746475667579944400,7.8159443359375,0.39260581764578817,-0.24000264207869768,-0.2677358676567674
1746475667589941200,7.825941162109375,0.8273094863086938,-0.0946589361205697,-0.43893414583951235
1746475667599937300,7.835937255859375,0.9748264446526765,0.10831979720443487,-0.22329729873239992
1746475667609934300,7.845934326171875,0.3337263431757688,0.27065350866913795,-0.31759792293459177
1746475667619931100,7.85593115234375,-0.10512859994769096,0.5030743173167109,-0.6855883547618985
1746475667629927400,7.865927490234375,-0.15825988615453243,0.35504648684114215,-0.43616643469184635
1746475667639924200,7.87592431640625,-0.2864005283772945,0.17532704855054615,-0.31809082101806996
1746475667649921300,7.88592138671875,-0.25044307981133457,0.10304799428135156,-0.3745096044629812
1746475667659918300,7.89591845703125,0.043623453149199486,0.14551526313275098,-0.4262808543629944
1746475667669914400,7.905914306640625,0.39426644433438773,0.1299856855675578,-0.3874471197083592
1746475667679911400,7.915911376953125,0.5883908400744199,-0.12985475266426802,-0.3237387637771666
1746475667689908200,7.925908203125,0.6402391007333994,-0.36607875298708675,-0.1488847395658493
1746475667699905300,7.9359052734375,0.6851549317806959,-0.3849909587278962,0.07085925059914588
1746475667709901300,7.9459013671875,0.6363134517222643,-0.2320057981058955,0.31431042569652196
1746475667719898000,7.955898193359375,0.7896797206163406,-0.2243096906453371,0.7895384124495088
1746475667729895400,7.9658955078125,0.46667292437553404,-0.3933504985332489,1.144612225688994
1746475667739892200,7.975892333984375,0.12711071465313434,-0.4572729356065392,1.1591903477482497
1746475667749888300,7.98588818359375,-0.10526128641664981,-0.24089286891669034,0.7716320227503776
1746475667759885300,7.99588525390625,-0.2888683797955513,0.032654899889230725,0.4164394054368138
1746475667769882000,8.005882080078125,-0.5707207433491945,0.18355390188693999,0.16956570854485034
1746475667779879400,8.01587939453125,-0.14041151025295256,0.06774959414601325,0.2395984451919794
1746475667789875200,8.025875244140625,0.3934767552614212,-0.21556904256790876,0.6185811034157872
1746475667799872500,8.03587255859375,0.35849195111989973,-0.3362202058181166,0.5696385010704398
1746475667809869300,8.045869384765625,0.3133972563743591,-0.3119450117394328,0.42441739857867355
1746475667819866000,8.0558662109375,0.305480491900444,-0.24071225165277718,0.3489309265702963
1746475667829862400,8.0658623046875,0.21806290521025656,-0.0654512540757656,0.2207600353397429
1746475667839859200,8.075859130859374,0.028198505002260208,0.11230799005776643,-0.1009703112244606
1746475667849856300,8.085856201171875,-0.37468203842043873,0.39248336030989883,-0.40080052227824925
1746475667859853300,8.095853271484375,-0.7995055335819721,0.4271718118533492,-0.6166701552279293
1746475667869849000,8.10584912109375,-0.8670826937705278,0.41148061398565766,-0.6074198040626942
1746475667879846400,8.115846435546874,-0.6797030961155891,0.42888299968540666,-0.40625674185752864
1746475667889843200,8.12584326171875,-0.6869494139820337,0.5445414692148566,-0.1862900488525629
1746475667899840300,8.13584033203125,-0.04134147969186306,-0.2225280679255724,-0.08442878013774752
1746475667909836300,8.145836181640625,0.18164777600467205,-0.3617594284832477,-0.24992497422136364
1746475667919833000,8.1558330078125,0.1723392649114132,-0.12257803965955973,-0.45551125969626005
1746475667929830400,8.165830322265625,0.026831892824172972,0.22131401596069333,-0.47563064926974474
1746475667939827200,8.1758271484375,-0.15369360115230082,0.3129688018292188,-0.3975338486324996
1746475667949823500,8.185823486328125,-0.2387999882906675,0.14559943428486585,-0.1882492200963199
1746475667959820300,8.1958203125,-0.21277590471804142,-0.01033580831438303,0.062499199337139724
1746475667969817300,8.2058173828125,-0.09998013114333153,-0.082121818369627,0.2763097808651626
1746475667979813400,8.2158134765625,-0.15239070186018944,-0.049562487809360026,0.3277600551825017
1746475667989810200,8.22581005859375,-0.20657880364358425,0.035006431451439855,0.25195808748416604
1746475667999807200,8.23580712890625,-0.17634966959655285,0.0668459233045578,0.14404175651408732
1746475668009804300,8.24580419921875,-0.08917290592491627,0.023651216961443424,0.07728139260113238
1746475668019801300,8.25580126953125,0.07977496298253536,0.012070669282972813,0.0034775399174541235
1746475668029797400,8.26579736328125,0.2562982355803251,-0.013763152414560317,-0.029526173409447073
1746475668039794200,8.275794189453125,0.32618484175503254,-0.05573650026917457,-0.06114763859771192
1746475668049791200,8.285791259765626,0.35117899775803085,-0.051528819446265695,-0.1332105658981949
1746475668059787300,8.295787353515625,0.3894277721315622,-0.01469546482861042,-0.21516411502882837
1746475668069784300,8.305784423828126,0.45522447864413257,0.026654490430653092,-0.25998320770338174
1746475668079781400,8.315781494140625,0.4960574242919683,-0.03569675180315971,-0.19864311527349054
1746475668089778200,8.325778076171876,0.4647562770992517,-0.08238339191526174,-0.05552497641034424
1746475668099774500,8.3357744140625,0.12028700611293315,0.04816255788356066,-0.09973733536340296
1746475668109771300,8.345771240234376,-0.26997721684277054,0.21904081033170222,-0.3666227967359125
1746475668119768300,8.355768310546875,-0.4888140290349722,0.311051277770102,-0.4952543642807752
1746475668129765400,8.365765380859376,-0.5537853906393051,0.2685541983023286,-0.37158034607805307
1746475668139761200,8.37576123046875,-0.4826344636172056,0.22873072195798158,-0.1113836417544633
1746475668149758500,8.385758544921876,-0.3581283785045147,0.13446692263484,0.05402757745943963
1746475668159755300,8.39575537109375,-0.33610008656978607,-0.04104395805001258,0.11466880090497433
1746475668169752300,8.40575244140625,-0.3627665596991777,-0.06613689825236797,0.15127273068092761
1746475668179748400,8.415748291015625,-0.32395781335532664,-0.002831716294586658,0.09711663147099316
1746475668189745200,8.4257451171875,-0.20976444794237611,0.0004091653227806091,-0.012160977914929389
1746475668199742200,8.4357421875,-0.04190378974974155,-0.039139585733413695,-0.09789119604006409
1746475668209739300,8.4457392578125,0.1959586254298687,-0.07643062099069356,-0.07499499869700521
1746475668219735300,8.4557353515625,0.354478039303422,-0.15227350522130728,-0.08026862825099379
1746475668229732400,8.465732421875,0.37489129725694653,-0.2446522214502096,-0.09722407390084117
1746475668239729400,8.4757294921875,0.3055062108635902,-0.23566899678856132,-0.054750667569600044
1746475668249726200,8.485726318359376,0.17496493723988532,-0.14161591760665176,-0.03473649193625897
1746475668259722200,8.49572216796875,0.049373394978046416,-0.0407490667566657,-0.11323369006793946
1746475668269719300,8.50571923828125,0.025428455767035483,0.035253976471722126,-0.1672991153197363
1746475668279716400,8.51571630859375,0.07619710449576378,0.05051671979427337,-0.12146258923094719
1746475668289713400,8.52571337890625,0.12492343374192715,0.05755436334609985,-0.07192234978601336
1746475668299709400,8.53570947265625,0.14925941809713839,0.06936375134438276,-0.02432264994960278
1746475668309706200,8.545706298828126,0.006325695890188217,0.047179976586997505,0.06281812909319996
1746475668319703300,8.555703369140625,-0.2603326056629419,0.09801233820170163,0.1715428173040971
1746475668329700400,8.565700439453124,-0.47660512032508845,0.26063801835030315,0.16653043250218033
1746475668339696400,8.5756962890625,-0.5674573576390743,0.38698008671849965,0.1497393836338073
1746475668349693200,8.585693115234376,-0.6142699622184038,0.3529910156160593,0.12851086377464235
1746475668359690200,8.595690185546875,-0.5766144775629043,0.28437603681236506,0.10743760754242539
1746475668369687300,8.605687255859374,-0.41800796992778777,0.2682186827376485,0.134066634738259
1746475668379683300,8.615683349609375,-0.2168324866324663,0.21621435473412273,0.16960107211917638
1746475668389680400,8.625680419921874,0.06535714605152607,0.1108192128047347,0.11722495166119187
1746475668399677200,8.63567724609375,0.30483985590934753,-0.005732406172156333,0.05517042735163122
1746475668409674500,8.645674560546874,0.4253349518150091,-0.07508622064441442,0.009659954879432915
1746475668419670300,8.655670166015625,0.440258964702487,-0.07804127105772495,0.024371494060009716
1746475668429667300,8.665667236328124,0.2909720740765333,-0.024283377385139464,0.07919369249586015
1746475668439664400,8.675664306640625,0.13343816410899162,0.05962035596519708,0.038407654729671774
1746475668449661200,8.6856611328125,-0.04627952061593532,0.07080956623852253,-0.07621902406662702
1746475668459657200,8.6956572265625,-0.14239537754654882,0.024928981812298297,-0.11104443639535456
1746475668469654300,8.705654296875,-0.17613164293169975,-0.019081717088818548,-0.07316124393120407
1746475668479651300,8.7156513671875,-0.11630465847849845,-0.0006862286984920501,-0.009570559562928974
1746475668489648400,8.7256484375,0.0016565350353717804,-0.01761252131909132,0.000664382192865014
1746475668499644200,8.73564404296875,0.1272428166002035,-0.030852818903326987,-0.04761153640467673
1746475668509641500,8.745641357421874,0.22971359551548956,-0.06665303108096123,-0.06250891701355576
1746475668519638300,8.75563818359375,0.2095522664964199,-0.0829082925722003,0.017258812510594725
1746475668529635000,8.765635009765624,0.08797522057294845,-0.035650866834819314,0.07904211866334081
1746475668539631400,8.77563134765625,-0.032736732953786846,0.06495762533992529,0.15928689111471175
1746475668549628200,8.785628173828124,-0.14473054249584674,0.11736615023016929,0.14991130613461137
1746475668559625500,8.79562548828125,-0.24864625952243805,0.10975275261700153,0.12309282078128307
1746475668569621200,8.805621337890624,-0.3072632836639881,0.09799158767461776,0.09725096190776675
1746475668579618300,8.815618408203125,-0.27526421733498574,0.09751403329074382,0.07972389038242399
1746475668589615400,8.825615478515624,-0.175640644544363,0.09532090716063976,0.048183198812790214
1746475668599612200,8.835612060546875,-0.14704700274467467,0.01891308252364397,-0.014217581651173532
1746475668609608200,8.845608154296874,-0.04293079470992088,-0.037061610415577886,-0.08633987445607781
1746475668619605200,8.855605224609375,0.10836626669466495,0.03582593114078045,0.005012384801916778
1746475668629602300,8.865602294921874,0.1342658471047878,0.03820785784125328,0.046402452875860034
1746475668639599400,8.875599365234375,0.08501344815790653,0.006907879692316055,0.08288761511035263
1746475668649595100,8.88559521484375,0.012379589101672172,0.0029600188493728637,0.09226594003681093
1746475668659592400,8.895592529296875,-0.032549101427197455,0.007268237437307834,0.06606635376680642
1746475668669589200,8.90558935546875,-0.06436579692661762,0.032843700459599494,0.012724091690406203
1746475668679586000,8.9155859375,-0.10176643003821373,0.01904635351449251,-0.00995769571699202
1746475668689582300,8.925582275390624,-0.061657122489809986,0.026365152095258235,-0.0066045493641868225
1746475668699579100,8.9355791015625,0.005470540365576744,0.017783786232769487,-0.008605879249237476
1746475668709576400,8.945576416015625,0.06457447124123573,0.008465630528330803,-0.025217772158421574
1746475668719573200,8.9555732421875,0.12404665090739726,0.009037877458333968,-0.035521577899344264
1746475668729569300,8.9655693359375,0.05818447794318199,-0.026990005995333192,-0.061418820221908386
1746475668739566300,8.97556640625,0.009563362637162207,-0.015764847625792024,-0.06640146747268735
1746475668749563100,8.985563232421875,-0.018220131823420523,0.06323299350440502,0.032283034369535744
1746475668759560400,8.995560546875,-0.07197919453978538,0.05127426016330719,-0.04046462379209697
1746475668769556200,9.00555615234375,-0.051940615117549896,0.04209142127633095,-0.0657840296940878
1746475668779553300,9.01555322265625,-0.0033680151283740994,0.044264381401240824,-0.04632938763964921
1746475668789550300,9.02555029296875,-0.013341127610206603,0.046101241439580914,-0.015982435899227855
1746475668799547100,9.035547119140626,-0.00021568857729434965,0.06668634882867336,-0.02831800319608301
1746475668809543400,9.04554345703125,-0.05028232651650905,0.05155103127807378,-0.05988503478337079
1746475668819540200,9.055540283203126,-0.06730594203174114,0.07267477558851242,-0.05356938536316156
1746475668829537300,9.065537353515625,-0.050907764938473696,0.10997428641319275,-0.01405778797958046
1746475668839533300,9.075533203125,-0.011582885766029357,0.11030132641047238,-0.016875841074995696
1746475668849530000,9.085530029296875,0.003633388066291809,0.06058715517073869,0.009777626442350447
1746475668859527400,9.09552734375,0.00710544809103012,0.05417816491127014,0.027043599346093832
1746475668869524200,9.105524169921875,0.0038502456873655317,0.07830722851753234,0.02842920848559588
1746475668879520300,9.115520263671876,0.0008744447469711303,0.07707096472084522,-0.011834558972157537
1746475668889517300,9.125517333984375,0.016827216160297392,0.055116322544217104,-0.04592267000228166
1746475668899514000,9.13551416015625,0.06532324378192425,0.04016863652020693,-0.046597463991306716
1746475668909511400,9.145511474609375,0.07972761670947075,0.01821165625602007,-0.00867193022277206
1746475668919507200,9.155507080078126,0.04717150101959705,0.04177490267306566,0.005769048388116062
1746475668929504500,9.16550439453125,0.020324995148181913,0.0826505184188485,-0.02890197709649801
1746475668939501300,9.175501220703126,0.00001987374424934387,-0.00962386065274477,-0.12356854853425174
1746475668949498000,9.185498046875,-0.02552665544450283,-0.013887363316118716,-0.11583291278090327
1746475668959494400,9.195494384765626,0.01939969699680805,0.010174188011884688,-0.01636869527045637
1746475668969491200,9.2054912109375,0.0018652093499898909,-0.004611293187737464,-0.01730002130381763
1746475668979488300,9.21548828125,-0.04519640155434608,-0.002393032616376877,-0.06889445333220064
1746475668989485300,9.2254853515625,-0.11801204691827297,0.027024492786824703,-0.10372081550899892
1746475668999481000,9.235481201171876,-0.21413316454589365,0.04909340899288654,-0.092971238761954
1746475669009478400,9.245478515625,-0.25994156051874157,0.08084960647672414,-0.08218969597406685
1746475669019475200,9.25547509765625,-0.28967560452520846,0.08073445566445589,-0.09094722212105989
1746475669029471500,9.265471435546875,-0.2920388265252113,0.02991378448754549,-0.07988003079220653
1746475669039468300,9.27546826171875,-0.2425660628259182,0.02828209163248539,-0.042798911958560344
1746475669049465000,9.285465087890625,-0.13899462919235228,0.05362608398646116,-0.03152363083697855
1746475669059462400,9.29546240234375,-0.016645429852604865,0.030685061120986935,-0.0707749698491767
1746475669069458200,9.305458251953125,0.15493863277733325,-0.015670447340607643,-0.07309906541518867
1746475669079455500,9.31545556640625,0.285163095536828,-0.04028115698397159,-0.044538412569649515
1746475669089452300,9.325452392578125,0.3298053703397512,-0.03342529973983764,0.012723762896843254
1746475669099449300,9.335449462890624,0.28099253185391426,-0.04830781157314777,-0.006419073262065649
1746475669109445400,9.3454453125,0.1815180121451616,-0.03099164285212755,0.003389094449020922
1746475669119442200,9.355442138671876,0.13245967446565626,0.06498597465157509,0.06679232995379716
1746475669129439200,9.365439208984375,0.08482114045619964,0.09742840083390474,0.05414919454511255
1746475669139436300,9.375436279296874,-0.032192543074488635,0.09665858550518751,0.050937648620083924
1746475669149432000,9.38543212890625,-0.10200023879408836,0.08978840747475623,0.031091267301701007
1746475669159429400,9.395429443359374,-0.177371413859725,0.0765031017050147,0.026605536722391843
1746475669169426200,9.40542626953125,-0.17690204278230667,0.07658581155240535,0.06608812720719724
1746475669179423200,9.41542333984375,-0.1811567776173353,0.07674129437506198,0.13254527038987726
1746475669189419300,9.425419189453125,-0.1803384469717741,0.04482610693722963,0.16208101534526795
1746475669199416300,9.435416259765624,-0.17653320946991444,0.020650573840737343,0.1370154746064916
1746475669209413400,9.445413330078125,-0.17394845367372036,0.02022708773165941,0.06371588165052235
1746475669219409200,9.4554091796875,-0.17205810988247394,0.04495733210146427,0.04145728809125721
1746475669229406500,9.465406494140625,-0.14485679922401903,0.0668999915793538,0.08771766561530529
1746475669239403300,9.4754033203125,-0.09531330837607384,0.06711246528625488,0.11961509820073843
1746475669249400300,9.485400390625,-0.020386369946599005,0.048559740507602686,0.1300106373457238
1746475669259396400,9.495396240234374,0.07077098779380321,0.05497311468124389,0.13801771045159547
1746475669269393200,9.50539306640625,0.1735492252230644,0.04615004901736974,0.0898961421655491
1746475669279390200,9.51539013671875,0.2939829463303089,0.04111994589567184,0.03777275435961783
1746475669289387300,9.52538720703125,0.36258944956660266,0.03990735523551702,0.06514485500771552
1746475669299383300,9.53538330078125,0.3878916486054659,0.0441238038867712,0.09621142625957727
1746475669309380400,9.54538037109375,0.3491173890531063,0.06300444544553756,0.06096077425610274
1746475669319377400,9.55537744140625,0.20931962678432464,0.05128361251354217,-0.018286328927427528
1746475669329374500,9.56537451171875,0.07418518015146255,0.0703010321944952,-0.06314378085099161
1746475669339370500,9.57537060546875,-0.004527122035622597,0.09704115508198738,-0.023953195582702754
1746475669349367300,9.5853671875,-0.05115910935103893,0.09886690920442343,0.027351203990541396
1746475669359364600,9.595364501953124,-0.05888298160135746,0.10149228927195071,0.0365216583199799
1746475669369361400,9.605361328125,-0.0366863473623991,0.10201718992888927,0.009136405929364263
1746475669379357700,9.615357666015624,-0.033168110108375545,0.09624299044162034,0.00326108415517956
1746475669389354500,9.6253544921875,-0.16129881545901298,0.06528904925137757,0.031027590948343276
1746475669399351600,9.6353515625,-0.2495066757440567,0.025865385879576205,-0.01321446902323514
1746475669409347600,9.64534765625,-0.26131401791572567,-0.00014700725525617598,-0.062321175889112054
1746475669419344400,9.655344482421874,-0.23610300429165362,-0.04844634326100349,-0.07329221336711197
1746475669429341400,9.665341552734375,-0.169144852784276,-0.06902823577970266,-0.09203914554361253
1746475669439338500,9.67533837890625,-0.10765724164247512,-0.11011018775254487,-0.11808292019739747
1746475669449334300,9.685334228515625,-0.0707493604838848,-0.11989420740306377,-0.10467029825355857
1746475669459331600,9.69533154296875,-0.012934884896874428,-0.09978197822272777,-0.12443429851811379
1746475669469328400,9.705328369140625,0.0010182371318340302,-0.11038871243298053,-0.15376173448506741
1746475669479325400,9.715325439453125,0.021557167291641234,-0.11908172197639942,-0.17371026100367307
1746475669489321500,9.725321533203125,0.02436287236213684,-0.1073965448796749,-0.13550079572722315
1746475669499318500,9.735318603515625,0.010994856745004652,-0.07412555891871452,-0.07530797363631427
1746475669509315600,9.745315673828125,-0.00549684385061264,-0.06579115355461836,-0.06922785000503062
1746475669519312400,9.7553125,-0.05554302352368831,-0.06778408093750476,-0.06314191768746823
1746475669529308700,9.76530859375,-0.09785305598676204,-0.02404167758375406,-0.04569576591122895
1746475669539305500,9.775305419921875,-0.06780337015986442,0.02113338892161846,-0.05111446649171412
1746475669549302500,9.785302490234375,0.00599485650062561,0.04123568122982978,-0.003624072248674929
1746475669559299600,9.795299560546875,0.14494798463881015,0.05926496665626764,0.0861332459680736
1746475669569295400,9.80529541015625,0.2757400181531906,0.0921408158197999,0.16227337784590198
1746475669579292400,9.81529248046875,0.45778293095529077,0.10570786114037037,0.20136033834293485
1746475669589289500,9.82528955078125,0.49583004527688024,-0.02275982107967138,0.002595770380552858
1746475669599286500,9.83528662109375,0.36729309721291065,-0.1877861326292157,-0.45635256935860957
1746475669609282600,9.845282470703125,0.5033037421584129,-0.21495266423523424,-0.7973528855927288
1746475669619279400,9.855279296875,0.28292379217743874,-0.23044746274799108,-0.7194660744443535
1746475669629276400,9.8652763671875,-0.0383767846673727,0.011850596791505814,-0.5899458874966949
1746475669639273500,9.8752734375,-0.27700375447869297,-0.028953122761845588,-0.31515330626145005
1746475669649269500,9.88526953125,-0.39211072760522364,0.15489362459182737,0.10097155333347618
1746475669659266600,9.8952666015625,-0.305745280316472,0.312332549752295,0.1289871760495007
1746475669669263600,9.905263671875,-0.09770341838300227,0.4238558191731572,0.03160524470582604
1746475669679260400,9.915260498046875,0.38319501522183413,0.11513386113345622,0.14244842290803789
1746475669689256400,9.92525634765625,0.4933955116063356,-0.2634127437606454,0.6080271223060786
1746475669699253500,9.93525341796875,0.22689561548531054,-0.2876005518168211,0.41748379992321133
1746475669709250600,9.94525048828125,0.11960194645822048,-0.05554185447990894,0.008195325686968862
1746475669719246300,9.955246337890625,-0.13671440930068493,-0.08348258532881736,-0.29431904641687867
1746475669729243400,9.965243408203126,-0.3469166641384363,-0.11831745960563421,-0.12365144104473293
1746475669739240400,9.975240478515625,-0.4363642953515052,0.035814240702986715,0.2696894128773361
1746475669749237500,9.985237548828126,-0.5385334609717131,0.08299567859470844,0.4962558694735169
1746475669759234300,9.995234375,-0.6017150165498256,0.08543167356997727,0.4604033060541376
1746475669769230600,10.005230712890626,-0.5830751980096102,0.15515198326706886,0.28265944215282796
1746475669779227400,10.015227294921875,-0.48182548532187935,0.17737375194728375,0.10375183170177042
1746475669789224400,10.025224365234376,-0.32862872777581215,0.10657178449332713,0.010392433872446417
1746475669799220500,10.035220458984375,-0.154657477748394,0.010162497574090957,-0.0416988782947883
1746475669809217500,10.045217529296876,0.04106792344748974,0.03213204505890608,-0.05014280844796449
1746475669819214600,10.055214599609375,0.10083587118983268,0.16613105792105196,-0.1331903268277645
1746475669829211400,10.06521142578125,0.11812895129621029,0.07302958037555217,-0.09995454004434869
1746475669839207400,10.07520751953125,0.09344050024151801,-0.2622901694715023,0.0541259232673794
1746475669849204500,10.08520458984375,-0.0745581051170826,-0.09786386964172124,-0.19753610387966036
1746475669859201500,10.095201416015625,-0.11154665029644965,0.07525251712203025,-0.35870479015298184
1746475669869198600,10.105198486328124,-0.11202128207087517,0.07214023032039403,-0.33530232378821817
1746475669879194600,10.115194580078125,-0.0718956079095602,0.08881956244260072,-0.19817421912010758
1746475669889191400,10.12519140625,0.01368073482811451,0.04212766163349151,0.022068660477735102
1746475669899188500,10.1351884765625,0.13542846114337442,0.010423194336891173,0.2128334983904846
1746475669909185500,10.145185546875,0.11452303575873374,-0.03139525521695614,0.21323068101452664
1746475669919181600,10.155181640625,-0.001662380254268646,-0.011540215668082237,0.06485102316029369
1746475669929178400,10.165178466796876,-0.09509352814555168,-0.002842237688601017,-0.03192086825994774
1746475669939175700,10.17517578125,-0.13061843051314354,-0.009407879814505577,0.004095123826526105
1746475669949172500,10.18517236328125,-0.11146423271000384,-0.0014554595053195953,0.09587150851441546
1746475669959168500,10.19516845703125,-0.038084523722529406,0.0003998129725456238,0.0979999536441639
1746475669969165600,10.20516552734375,0.04041968867182731,-0.027385435053706168,0.08293919916711748
1746475669979162400,10.215162353515625,0.10618716908991337,-0.05481763185858726,0.07699503167411312
1746475669989159700,10.22515966796875,0.1244803661495447,-0.015055530312657356,0.0565174397801049
1746475669999155500,10.235155517578125,0.0974672715395689,0.016633154892921446,0.011268467788305134
1746475670009152500,10.245152587890624,0.05964987432062625,-0.005669862329959869,0.008246635749097913
1746475670019149600,10.255149658203125,-0.05349427430033683,-0.04422141904234886,-0.015079915835242718
1746475670029146400,10.265146484375,-0.15128654001057146,-0.02739449514299631,0.011947371696867048
1746475670039142700,10.275142578125,-0.15736264505386352,0.005698796163499355,0.10392664027940482
1746475670049139500,10.285139404296874,-0.18656594318449496,-0.01838379795253277,0.1726766253733076
1746475670059136500,10.295136474609375,-0.23370061932504177,0.00388473247885704,0.18932410105252637
1746475670069133600,10.305133544921874,-0.2752005044490099,0.018527590337395667,0.18540749386437236
1746475670079129300,10.31512939453125,-0.2411795769035816,0.04621814581751823,0.14610120979454366
1746475670089126700,10.325126708984374,-0.15361410617530344,0.05052811797112226,0.08236145407808944
1746475670099123500,10.33512353515625,-0.06443243242204189,0.07506108620315789,0.1018827316279523
1746475670109120500,10.34512060546875,-0.015468202766776084,0.053254035803675645,0.10125718360813334
1746475670119117600,10.35511767578125,-0.03682546357214451,0.035382863548398015,0.11967726758359931
1746475670129113300,10.36511328125,-0.0483370376676321,0.033929449869692326,0.1902130675151944
1746475670139110700,10.375110595703125,0.08514905723631382,0.002381049917638302,0.2321444941905327
1746475670149107500,10.385107421875,0.13440788592398165,-0.060299862661957734,0.031946176231140266
1746475670159104500,10.3951044921875,0.32097266006469727,-0.011807634432613848,-0.32773744149189443
1746475670169100500,10.4051005859375,0.3874935891985893,-0.14154431367516518,-0.5282730194484815
1746475670179097300,10.415097412109375,0.28455694633722306,0.002836100208759308,-0.5873496239257976
1746475670189094700,10.4250947265625,0.13229191668331622,-0.17555676565319298,-0.4540202174209058
1746475670199091500,10.435091552734375,-0.17872399751245974,-0.11527356186509131,-0.0017334635959472507
1746475670209087500,10.44508740234375,-0.650851680162549,0.21548194880634544,0.19895895802332086
1746475670219084500,10.45508447265625,-0.9477554823756218,0.34544776062965393,0.18804458263600243
1746475670229081300,10.465081298828125,-0.8087515008330345,0.30039339789450165,0.11842221688805148
1746475670239078400,10.475078369140626,-0.2590647776842117,0.2134820071607828,-0.04224712329469621
1746475670249074400,10.485074462890625,0.4537514834821224,0.14584201086908577,-0.160307977790758
1746475670259071500,10.495071533203125,1.2341682857125997,-0.23668927974700926,0.1310873997317627
1746475670269068500,10.505068603515625,1.242291386413574,-0.5640940186858177,0.4063933007840067
1746475670279065600,10.515065673828126,0.956127004879713,-0.49169338386356826,0.08938205516356974
1746475670289061600,10.5250615234375,0.48195232657194137,-0.26146424004137514,-0.20011830239258704
1746475670299058400,10.535058349609375,0.046180151894688604,-0.08390694822072982,-0.2015027242220007
1746475670309055500,10.545055419921875,0.06016074645221233,0.1622305433511734,0.0931629254091531
1746475670319052800,10.555052734375,0.323136560100317,0.16127748041003942,0.4134009145237505
1746475670329048600,10.565048583984375,0.713974783551693,0.044376025082170964,0.35595527224913237
1746475670339046000,10.5750458984375,1.2182155142992734,-0.34249855543524027,-0.11485740054594352
1746475670349042700,10.585042724609375,0.6433908427625894,-0.1315396370112896,-0.3007964988026768
1746475670359039700,10.595039794921876,-0.019886603730916975,-0.037725627282261844,-0.6527252920147031
1746475670369036800,10.605036865234375,-0.811574157038331,0.1706017735943198,-0.5590069246798753
1746475670379032800,10.61503271484375,-1.3616162694960832,0.31804683574587106,-0.34797114162743087
1746475670389029600,10.625029541015625,-1.4658248319894074,0.270069571301341,-0.37597737546060234
1746475670399026700,10.635026611328126,-1.153276885920763,0.4073573965758085,-0.2873519290843047
1746475670409023700,10.645023681640625,-0.37982700009346004,-0.19057722465246915,0.13094501385269686
1746475670419019800,10.655019775390626,-0.03148702515363693,-0.14024579829722641,-0.16824406801965086
1746475670429016800,10.665016845703125,0.16684534367024897,-0.04388356539011001,-0.5305860090985894
1746475670439013600,10.675013671875,0.07251929276585578,-0.07844225307404995,-0.6200795252799988
1746475670449011000,10.685010986328125,-0.010291092389822006,-0.017828502157330513,-0.6065706398874521
1746475670459006700,10.6950068359375,-0.16481354558169842,0.06040069268792867,-0.4016495768556371
1746475670469003800,10.705003662109375,-0.09797931271493435,-0.0358303150549531,-0.14353117664344608
1746475670479000800,10.715000732421874,0.0484983657091856,-0.03783288704901933,0.16036303244624286
1746475670488997600,10.72499755859375,0.09150397922098637,0.057769467401504515,0.3354610945465043
1746475670498995000,10.734994873046874,0.015310966378450393,0.10853548578172921,0.294580473832041
1746475670508990700,10.74499072265625,-0.08993395342528819,0.0969683821067214,0.2272443558577448
1746475670518987800,10.75498779296875,-0.12195464706420897,0.05121551571339369,0.26459939626194534
1746475670528984800,10.76498486328125,-0.2328098079651594,0.01279664546996355,0.34519904656559225
1746475670538981600,10.774981689453124,-0.3884498670101166,0.08011866185367107,0.35089528544582427
1746475670548978000,10.78497802734375,-0.5703910730034113,0.20838819115310905,0.3078291008532047
1746475670558974700,10.794974609375,-0.7529992184728383,0.2639969733893871,0.24610505060702562
1746475670568971500,10.804971435546875,-0.862237007305026,0.3037096828356385,0.1034526295594871
1746475670578968800,10.81496875,-0.7700432922542094,0.3011354484334588,0.08921747571900486
1746475670588964600,10.824964599609375,-0.626140432754159,0.32019173882007596,0.07887976770848035
1746475670598962000,10.8349619140625,-0.3504471763521433,0.27050094845592976,0.029831951422989368
1746475670608958700,10.844958740234375,-0.04489361921548843,0.1267021338522434,-0.02411269699335098
1746475670618955800,10.854955810546874,0.2123848595738411,0.03548106322586536,-0.06633738926053047
1746475670628952800,10.864952880859375,0.40786709966361523,-0.0432481900960207,-0.13676855064071713
1746475670638948600,10.874948486328124,0.613648615449667,-0.1006847722813487,-0.07935315737389027
1746475670648946000,10.88494580078125,0.5854840127170086,-0.10335691410005092,0.029625322934985158
1746475670658942700,10.894942626953124,0.4984031106352806,-0.12257540931105614,0.04790368775166571
1746475670668939800,10.904939697265625,0.30665479637682436,-0.027186113089323043,0.004370104843005537
1746475670678935800,10.914935791015624,0.14641221197247503,-0.0730371791601181,-0.08779204602576791
1746475670688932600,10.9249326171875,0.1360445472151041,-0.10885755734294653,-0.2639327490467578
1746475670698929700,10.9349296875,0.06885667860507964,-0.22183044105023145,-0.15623890172094107
1746475670708926700,10.9449267578125,0.08186579778194426,-0.24738544580638408,0.022895722419023514
1746475670718923800,10.954923828125,0.148797645804286,-0.18412877916544676,-0.004275850688293576
1746475670728919800,10.964919921875,0.07570142993330956,0.019728782820701597,0.10597301488257944
1746475670738916600,10.97491650390625,-0.16699965744912623,0.07995031954944133,0.16444770794399083
1746475670748913700,10.98491357421875,-0.2956599396318197,-0.029999709205329416,0.014168079953640698
1746475670758910700,10.99491064453125,-0.21164485486149787,-0.06024170273393392,-0.183154308110103
1746475670768906800,11.00490673828125,-0.04951075762212276,-0.047966158528625964,-0.22585333989076314
1746475670778903800,11.01490380859375,0.07099018350243567,0.017192250080406663,-0.10001761360950767
1746475670788900900,11.02490087890625,0.09860358209311962,0.06448474713116883,0.0635022388998419
1746475670798897700,11.034897705078125,0.034518940195441244,0.07435673732608557,0.17724544939249753
1746475670808893700,11.044893798828125,-0.002623334240913391,0.03668517831861973,0.18078217215128242
1746475670818890800,11.054890869140625,-0.05120119492709636,-0.02052344032973051,0.11404328941777347
1746475670828887800,11.0648876953125,-0.029222002831101417,-0.004406126004457473,0.019625614707171914
1746475670838884900,11.074884765625,0.008960136047005653,0.060741761210560796,-0.04597111225388944
1746475670848881700,11.084881591796876,0.07624912694394588,0.11395546500384807,-0.04056830336228013
1746475670858877700,11.094877685546875,0.13204700201153755,0.0930360110938549,-0.01591744437161833
1746475670868874800,11.104874755859376,0.0650111090928316,0.049938043123483655,0.1010034463090822
1746475670878871600,11.11487158203125,-0.02025543704330921,0.06577507920265198,0.1416584781067446
1746475670888868900,11.124868896484376,-0.03500760049521923,0.09689677817523479,0.032296807166561484
1746475670898864600,11.13486474609375,0.03183715376555919,0.07481587927043437,-0.06271295168567448
1746475670908861700,11.14486181640625,0.0997977603137493,0.054497606123983855,-0.1287699165696278
1746475670918858800,11.154858642578125,0.12840367707312106,0.008566460554301738,-0.1162854057887569
1746475670928855600,11.16485546875,0.10728899285197258,0.054531216132640836,-0.08488193073272704
1746475670938852900,11.174852783203125,0.0840343739926815,0.1440820154592395,-0.0930346959196031
1746475670948848600,11.1848486328125,0.04327507810294628,0.16039865174889564,-0.18915362159013746
1746475670958846000,11.194845947265625,0.0018792378753423689,0.12352291929423809,-0.2811989776788279
1746475670968842800,11.2048427734375,-0.07314297762215137,0.09259294350147247,-0.2554184936037287
1746475670978839600,11.214839599609375,-0.15869535496234893,0.09048369626253842,-0.13326894502192735
1746475670988836900,11.2248369140625,-0.3165332163125276,0.04377455205768346,0.00827982563264668
1746475670998832600,11.23483251953125,-0.4409674052327871,0.08385989420861005,0.12087912678718567
1746475671008830000,11.244829833984374,-0.4175362607628107,0.15128098705261944,0.07972451143693178
1746475671018826800,11.25482666015625,-0.3327385011821985,0.10600509052127599,0.020076354149356483
1746475671028823800,11.26482373046875,-0.21882103010118006,0.027985154512524604,0.001299903617426753
1746475671038819800,11.27481982421875,-0.04358429018259048,-0.03463672135621309,0.052684638417884705
1746475671048816600,11.284816650390624,0.12238836230635643,-0.08928075021356344,0.08032167361248284
1746475671058813700,11.294813720703125,0.2064414409995079,-0.1299672731280327,0.048662652892805636
1746475671068810800,11.304810791015624,0.19278057991564274,-0.11501783353835343,0.04051598865315318
1746475671078807800,11.314807861328125,0.14368541735708712,-0.0524672693401575,0.024045951900072395
1746475671088803800,11.324803955078124,0.06636895344257354,0.011027005448937416,-0.015859138313122093
1746475671098800600,11.334800537109375,-0.046027591681480406,0.05613543645888567,-0.06345270066969096
1746475671108797700,11.344797607421874,-0.11357669481933116,0.07598521531075239,-0.09557875437922775
1746475671118794800,11.354794677734375,-0.06363572908639907,0.10905191087126731,-0.08022095318436623
1746475671128791800,11.364791748046875,0.003113748106360435,0.10368541540205478,-0.06192245889510959
1746475671138787800,11.374787841796875,0.07334405315220356,0.0636567718744278,-0.04078545324429869
1746475671148784600,11.38478466796875,0.11854454635977744,0.02878010428249836,-0.005443871554359794
1746475671158781700,11.39478173828125,0.1166775834441185,0.02250146240442991,0.012333813731186092
1746475671168778800,11.40477880859375,0.07074760691821574,0.01998188079893589,0.010213131782785058
1746475671178774800,11.41477490234375,0.04712006309330463,0.01816752485334873,0.016843984632007775
1746475671188771800,11.424771728515625,0.050507951965928076,0.07480009717941284,0.14243121604491024
1746475671198769000,11.434768798828125,0.07061784305870533,0.09999445192962884,0.19837576957419514
1746475671208765700,11.444765625,0.1420265442341566,0.08415624680668116,0.16837306469418106
1746475671218762800,11.4547626953125,0.1964250738978386,0.04132482081800699,0.13178188480194658
1746475671228758800,11.4647587890625,0.2333329550564289,0.03246609931886196,0.08462696959096938
1746475671238755600,11.474755615234375,0.2600882755130529,0.010056699112057685,-0.038527956641092896
1746475671248753000,11.4847529296875,0.265548879006505,-0.019287468793988228,-0.09419815020840615
1746475671258749700,11.494749755859376,0.26301965278983114,0.007153671146929263,-0.10467683759219944
1746475671268746800,11.504746826171875,0.2879243769437074,0.01748129615485668,-0.09756700558699667
1746475671278742800,11.51474267578125,0.3092003892064094,0.011887421670556068,-0.10140895837005227
1746475671288739600,11.524739501953125,0.2470177815377712,0.003536357432603836,-0.14339403319507837
1746475671298737000,11.53473681640625,0.14153203871548176,0.003967150065302848,-0.188100221813377
1746475671308733700,11.544733642578125,-0.10857494100928305,0.004179039250314235,-0.19447342837341128
1746475671318730200,11.554730224609376,-0.36690088302493096,0.1496826119452715,-0.2542067066611722
1746475671328726300,11.564726318359375,-0.5830693527907133,0.16815613400787113,-0.2388916851621121
1746475671338723000,11.57472314453125,-0.668891779243946,0.11497720926702022,-0.05896872365605086
1746475671348720400,11.584720458984375,-0.7123188330382109,0.13595131597369908,0.054567894881218666
1746475671358717200,11.59471728515625,-0.6522972027957439,0.17391250557750462,0.11033391350582242
1746475671368714200,11.60471435546875,-0.46195758629143235,0.17004998493045567,0.1701069758147001
1746475671378710300,11.614710205078126,-0.18018237962722777,0.12164338915795087,0.22105682632923124
1746475671388707000,11.62470703125,0.091698625010252,0.01887304277420044,0.23798936602752654
1746475671398704400,11.634704345703126,0.26193068850934503,-0.0687868282392621,0.13562482396569103
1746475671408701200,11.644701171875,0.27942250605821606,-0.08647446062117814,0.04352379216700792
1746475671418697500,11.654697509765626,0.22740531857311724,-0.08028934224545956,-0.012678864309191703
1746475671428694300,11.6646943359375,0.15410510456264018,-0.06658055036664008,-0.029147549355402588
1746475671438691000,11.674691162109376,0.09526011688411236,-0.05049538474529981,0.012187500595673919
1746475671448688400,11.6846884765625,0.034516602107882495,-0.020135025534033773,0.07357826376687734
1746475671458685200,11.694685302734374,0.03218260620236397,0.0629790187433362,0.10554492566362023
1746475671468681200,11.70468115234375,0.19107202243208884,0.09449585451334715,0.019071670618839562
1746475671478678300,11.71467822265625,0.6986889516144991,0.0863587252870202,-0.16159915011245757
1746475671488675300,11.72467529296875,0.7951525990694761,-0.059251522652804846,-0.3307409706894308
1746475671498672000,11.734672119140624,0.4650888700544834,0.17846797692477703,-0.5213017921963706
1746475671508669200,11.744669189453125,0.19558979211747646,0.11307254468947649,-0.5084851999169215
1746475671518665200,11.754665283203124,-0.0988134254515171,0.007053133381903171,-0.0952779813343659
1746475671528662300,11.764662353515625,-0.5032359376192093,0.0733577894166112,0.09678447690717876
1746475671538659300,11.774659423828124,-0.7650859621077776,0.14325170211493968,0.2027859872318804
1746475671548656000,11.78465625,-0.8212918334543704,0.18516221386641263,0.19499825596511364
1746475671558653400,11.7946533203125,-0.631582331547141,0.21370500226169822,0.15352164211887864
1746475671568649200,11.804649169921875,-0.3841396025955677,0.1288286244869232,0.1262976447045803
1746475671578646300,11.814646240234374,-0.14009002321362496,-0.010759002162516117,0.04764993218630552
1746475671588643300,11.824643310546875,0.10014964249134063,-0.08530278649330139,-0.039978739971294995
1746475671598640000,11.83464013671875,0.29412790775895115,-0.12518617633134127,-0.07757069440390914
1746475671608637400,11.844637451171875,0.3802829271674156,-0.1305073713541031,-0.11656506298035382
1746475671618633200,11.85463330078125,0.32635844475626946,-0.13475392288267612,-0.12252747851610182
1746475671628630300,11.86463037109375,0.18174363759458065,-0.14651041164994238,-0.14554397777058184
1746475671638627300,11.87462744140625,0.03563771509230137,-0.09645371058285236,-0.10850889003574847
1746475671648624000,11.8846240234375,-0.13040332645773886,-0.030461189237236976,-0.007073007126152515
1746475671658621200,11.89462109375,-0.26745968106389045,0.02425911972671747,0.07319551152698696
1746475671668617200,11.9046171875,-0.3329442528873682,0.051468613691627974,0.0759225253380835
1746475671678614000,11.914614013671875,-0.3057031947404146,0.1005754666879773,0.055354076822847126
1746475671688611300,11.924611328125,-0.22966215758919714,0.1520496333375573,0.08906484244056045
1746475671698608000,11.934608154296875,-0.13770283581614493,0.14216770627051592,0.0976874170962721
1746475671708605200,11.944605224609376,0.0005652326673269272,0.10845715984851122,0.012322232891246676
1746475671718601200,11.954601318359375,0.1549099912047386,0.08251432481855153,-0.02301357664503157
1746475671728598300,11.964598388671876,0.18895079249441624,0.04323533061444759,0.019449819748848674
1746475671738595300,11.97459521484375,0.1024994204878807,0.062223524200916286,-0.0016577771443873643
1746475671748592000,11.984592041015626,-0.07532149070501327,0.05951660332977771,-0.024874036754667758
1746475671758589200,11.994589111328125,-0.20113573580682276,0.029412556967139243,-0.027578108081594107
1746475671768585200,12.004585205078126,-0.2783709511786699,0.048097968214750285,0.020262159045040605
1746475671778582300,12.014582275390625,-0.2380985620230436,0.07132832941561937,0.013598244176432489
1746475671788579300,12.024579345703126,-0.12917232335805892,0.018807868583500385,-0.038789749382436275
1746475671798576400,12.034576416015625,0.05663374136984348,-0.0450061396792531,-0.10674056518897414
1746475671808573200,12.0445732421875,0.23768472052514553,-0.12126783384382724,-0.14663126155063508
1746475671818569200,12.0545693359375,0.33154549200534816,-0.13674918835312128,-0.193468269918859
1746475671828566300,12.064566162109376,0.32423896838426586,-0.11879033781439065,-0.2321016596958041
1746475671838563300,12.074563232421875,0.2542927409768104,-0.08016688490957022,-0.26473383629657327
1746475671848560400,12.084560302734374,0.11690320889353752,-0.07748889787197112,-0.25068514493890104
1746475671858557200,12.09455712890625,-0.04703355385363102,-0.05313274751156568,-0.20473544079922137
1746475671868554200,12.10455419921875,-0.18680209002792833,0.0015679799690842627,-0.22256481973938644
1746475671878550300,12.11455029296875,-0.16415946558713912,0.07997720755636692,-0.2941124179288745
1746475671888547000,12.124547119140624,-0.0487204840272665,0.13112170386016367,-0.31774712214693424
1746475671898544400,12.13454443359375,0.13032032434940338,0.14431114803999662,-0.1727363014049828
1746475671908541200,12.144541259765624,0.2997814034759998,0.14163666813373565,-0.00853643074221909
1746475671918538200,12.154538330078125,0.5355114828020334,-0.04847118544131517,0.09239077199287712
1746475671928534300,12.1645341796875,0.40824002462923525,-0.24942542720139024,0.26019158975705503
1746475671938531000,12.174531005859375,0.16762509587109087,-0.2274266536220908,-0.0403068759471178
1746475671948528400,12.1845283203125,0.17749416345655916,0.020283786354959008,-0.3011206892557442
1746475671958525200,12.194525146484375,0.13565584015846252,0.009582067337632179,-0.1710595272991806
1746475671968522200,12.204522216796875,0.12094167062938213,0.03372252912074327,0.12132928170748054
1746475671978518300,12.214518310546875,0.19798282473385334,0.15149550658613442,0.3862452696379274
1746475671988515000,12.22451513671875,0.2674123347908258,0.21629121936261653,0.48210137965381145
1746475671998512400,12.234512451171875,0.2768517787873745,0.10979337688833475,0.43551644635051484
1746475672008509200,12.24450927734375,0.23289573268294333,-0.07987462396472692,0.32252668457366523
1746475672018506200,12.25450634765625,0.009010989451408385,-0.2391016015857458,0.29831732227280733
1746475672028502300,12.264502197265625,-0.11618366244733333,-0.19128215805143117,0.21939196185693144
1746475672038499300,12.274499267578125,-0.14005086024701593,-0.007304477794468403,0.08392755261734128
1746475672048496000,12.28449609375,-0.12988193293213843,0.1311710959598422,-0.012746230456978081
1746475672058493200,12.2944931640625,-0.17023264802098273,0.14945757101774215,-0.21264372970573603
1746475672068490200,12.304490234375,-0.21890461673140524,0.06290303089767695,-0.18090448335669934
1746475672078486300,12.314486328125,-0.1817979981303215,0.05796820484399795,-0.10410685568451881
1746475672088483300,12.3244833984375,-0.23215280536115168,-0.002994505640864372,-0.21646606447286904
1746475672098480000,12.334480224609376,-0.3011199586033821,-0.08696078283339738,-0.32031923765726383
1746475672108477400,12.3444775390625,-0.22486849357187746,0.1025932362511754,-0.0413701212644577
1746475672118474200,12.35447412109375,-0.09583528642356395,0.39486967092454434,0.1793432984545827
1746475672128470300,12.36447021484375,-0.0739174691259861,0.45654666715860365,0.13807839113026857
1746475672138467300,12.37446728515625,-0.12082009007632731,0.3791398946121335,0.12639379855543376
1746475672148464000,12.384464111328125,0.09001929362118244,-0.1374459384456277,0.30625841747038063
1746475672158461400,12.39446142578125,-0.09524199670553207,-0.21852233941555022,0.08042560891099274
1746475672168458200,12.404458251953125,-0.09370996483266353,0.005963292318582535,-0.2725813714591786
1746475672178455300,12.414455322265624,-0.14951543868482112,0.3110276046335697,-0.2448931905992329
1746475672188451300,12.424451416015625,-0.17613047388792036,0.2888125579550862,-0.06168112441990524
1746475672198448000,12.4344482421875,-0.018656185153126715,0.17081190921366213,0.18256379487104712
1746475672208445200,12.444445068359375,-0.14230302308797835,0.09070552231967449,0.19282043700199572
1746475672218442200,12.454442138671874,-0.7596241895705461,0.025347791746258733,-0.21254465324543415
1746475672228439300,12.464439208984375,-0.7177852817505598,-0.14041501738429069,-0.3013623890571296
1746475672238435300,12.474435302734374,-0.36685236770808693,-0.2500333299666643,-0.09891538798864931
1746475672248432000,12.48443212890625,-0.491693968385458,-0.14803718282580375,-0.014311032088287174
1746475672258429200,12.49442919921875,-0.39077567960917947,-0.0010316811352968215,0.008600545486994087
1746475672268426200,12.50442626953125,-0.19335574945509432,0.01644523110538721,-0.03298767550755292
1746475672278423300,12.51442333984375,0.02784545378088951,0.0005626023188233376,-0.04761489740554243
1746475672288419300,12.52441943359375,0.3042611792385578,-0.06046528235673904,0.0029174218166619537
1746475672298416000,12.534416015625,0.4693254847109318,-0.11597732622027397,-0.00583593961186707
1746475672308413200,12.5444130859375,0.4557593161731958,-0.11074176365435123,-0.11109013870060443
1746475672318410200,12.55441015625,0.32355332420766353,-0.045129181537032124,-0.20353622107729313
1746475672328407600,12.564407470703125,-0.03106616939306259,0.01861936027407646,-0.44438240130804474
1746475672338404400,12.574404296875,-0.34989538768827916,-0.07092033313661814,-0.7462207373138516
1746475672348400600,12.584400634765625,-0.21864742709994314,0.028244682231545446,-0.31509419648535547
1746475672358397400,12.5943974609375,-0.20691841086149215,0.05528875650167465,0.09539777178913354
1746475672368394500,12.60439453125,-0.19545418303906917,0.04898088852912187,0.15098580349832771
1746475672378391600,12.6143916015625,-0.2214946332246065,0.19680764347463844,0.18861534999497234
1746475672388388400,12.624388427734376,-0.21279636298418045,0.3227148275569081,0.24269663040302691
1746475672398384600,12.634384521484375,-0.20644611717462538,0.31974691766202445,0.21609832713901994
1746475672408381400,12.64438134765625,-0.2133428909510374,0.19524960037767886,0.17107136386744676
1746475672418378500,12.65437841796875,-0.22421675166487692,0.06288900237232446,0.07411240717619658
1746475672428375600,12.66437548828125,-0.20194296053647995,-0.021809680747985838,0.0014086246889084577
1746475672438372600,12.67437255859375,-0.13752280307412146,-0.0347737917393446,-0.03516074523031711
1746475672448368600,12.68436865234375,-0.045884968340396876,-0.006197101074457168,0.01520779826492071
1746475672458365400,12.694365478515625,0.0192103119045496,-0.0011778116077184677,0.04694331828691065
1746475672468362500,12.704362548828126,0.10193944851756095,0.019928104785084725,0.015692805302888153
1746475672478359600,12.714359619140625,0.16485329307019708,0.00715162532031536,0.0003932371012866497
1746475672488356600,12.724356689453124,0.1693494354456663,0.012541501665115355,-0.0692985040884465
1746475672498353400,12.734353515625,0.10829846215546131,0.018874504078924655,-0.1751836214918643
1746475672508349400,12.744349365234376,0.1131745437592268,-0.015336685341596603,-0.027817396730184553
1746475672518346500,12.754346435546875,-0.04652735789716243,0.11869856787770985,-0.0476882914353162
1746475672528343600,12.764343505859374,-0.17836276298463344,0.18400924443900585,-0.03811659936122596
1746475672538340600,12.774340576171875,-0.17542495596706867,0.14567162273824213,-0.060127501769736406
1746475672548337400,12.78433740234375,-0.03431435753405094,0.0831783416852355,-0.06515745876096189
1746475672558333400,12.79433349609375,0.11065759250223636,-0.062434536603093144,0.08110445802062749
1746475672568330500,12.80433056640625,0.25065467673540115,-0.09739274499863386,0.12038191785477101
1746475672578327300,12.814327392578125,0.24363339979648588,-0.031192426121234892,0.07618263757899403
1746475672588324600,12.82432470703125,0.12616554275751113,-0.10187193623930216,0.02845620609037578
1746475672598321400,12.8343212890625,0.12354630016982554,-0.13421382465660572,0.014466259182617068
1746475672608318500,12.844318359375,0.1995084268659353,-0.1179386894211173,-0.024962811016663908
1746475672618314500,12.854314453125,0.19191256490945816,-0.0441454311966896,-0.06413059993125497
1746475672628311300,12.864311279296874,0.11466507457792759,0.04206161065995693,-0.07017221818305551
1746475672638308600,12.87430859375,0.04892798929810524,0.03966594769507646,-0.00846007757037878
1746475672648305400,12.884305419921875,-0.0737818600475788,0.033439912787079806,0.032850714722275735
1746475672658302500,12.894302490234375,-0.18385025448501108,0.06145137078464031,0.0013691694613546133
1746475672668298500,12.904298583984374,-0.22089082211256025,0.09861351896524428,-0.006931041372194886
1746475672678295600,12.914295654296875,-0.16503800198733806,0.1340428520038724,-0.021922420407459137
1746475672688292600,12.924292724609375,0.012993921607732772,0.16171324147880076,-0.09335413713231683
1746475672698289400,12.934289306640625,0.16203531304001806,0.11001900233775376,0.024225217457115648
1746475672708286500,12.944286376953125,0.07200549802482127,-0.03819879775196314,0.25362090612985194
1746475672718283500,12.954283447265626,0.0027817396730184553,0.04261486062854528,0.121817065224424
1746475672728279600,12.964279541015625,0.09115501965284346,0.06172434250712394,-0.21024850513227283
