time,seconds_elapsed,z,y,x
1746475490000022300,0.717022216796875,0.041185996869206425,-0.2595123753212392,-0.08958320375885814
1746475490010019300,0.727019287109375,0.0003477905243635177,-0.24166326876729724,-0.0729169503139332
1746475490020015400,0.737015380859375,-0.009271686214208602,-0.12236848856210708,-0.08839593020305037
1746475490030012400,0.747012451171875,0.042538580521941184,0.009437836561352013,-0.06211487619467079
1746475490040008200,0.75700830078125,0.20307459491491317,0.09480053654834628,-0.028197555154189466
1746475490050005200,0.767005126953125,0.3537093930184841,0.09035130205452442,0.03585234422367066
1746475490060002300,0.777002197265625,0.37535482311546803,0.05524871675223112,0.0958234133226797
1746475490069998300,0.786998291015625,0.2366092002481222,0.06954802187010646,0.06770674138497561
1746475490079995400,0.796995361328125,-0.03901215996146202,0.1363711488209665,-0.04939597213603556
1746475490089991400,0.806991455078125,-0.345449514195323,0.16527283365651965,-0.13012527670133858
1746475490099988200,0.81698828125,-0.5262830512076616,0.19772227410152554,-0.18006810559779404
1746475490109985300,0.8269853515625,-0.5390466711908578,0.20819120727628468,-0.24797131940294057
1746475490119981300,0.836981201171875,-0.42060090903043745,0.21864216640293596,-0.22642036265637724
1746475490129978000,0.84697802734375,-0.31196751583218574,0.19735650952905415,-0.14688242330010978
1746475490139975400,0.856975341796875,-0.3103863841205835,0.20454759007692336,-0.08636508196257055
1746475490149971000,0.866970947265625,-0.3760661862552166,0.2760311100542545,-0.10290000064540654
1746475490159968300,0.87696826171875,-0.4350573044061661,0.3219166629165411,-0.12932389719057827
1746475490169964000,0.886964111328125,-0.3950573024511337,0.3108914110332727,-0.16287753601782023
1746475490179961000,0.896961181640625,-0.28298808958530425,0.23396657678484914,-0.19814919427670538
1746475490189958100,0.906958251953125,-0.14670973361432552,0.113287941005826,-0.2174865666270256
1746475490199954000,0.916953857421875,-0.03783142574429512,-0.020718378379940984,-0.17841942507531494
1746475490209951200,0.926951171875,0.048525838238000864,-0.07620587232410907,-0.15198909878935665
1746475490219947000,0.936947021484375,0.12341712083220481,-0.06641133127957582,-0.1761267110282555
1746475490229944300,0.9469443359375,0.09070902945101261,-0.07491846286207438,-0.25318920018170027
1746475490239941000,0.956941162109375,0.06394903281927108,-0.0658671414002776,-0.3072241937626153
1746475490249937200,0.966937255859375,0.16125205370783804,-0.06013064357489347,-0.3389154362514615
1746475490259934200,0.976934326171875,0.3240589356422424,-0.10351561179310083,-0.2729455285964534
1746475490269930200,0.98693017578125,0.4353460582196712,-0.17141805841326713,-0.1427657452289015
1746475490279927000,0.996927001953125,0.45113340993821616,-0.17102818231284617,-0.0277225215209648
1746475490289924000,1.006924072265625,0.3349292892247438,-0.08348053950220347,0.029967487436160442
1746475490299920100,1.016920166015625,0.19811726476848124,0.021424773083627224,0.050085488770157095
1746475490309917200,1.026917236328125,0.09357903192937374,0.06901537629812955,0.030753632845170794
1746475490319914000,1.0369140625,0.031876316732168196,0.012284604294598102,0.004681764608062804
1746475490329910000,1.046909912109375,0.030858079600334164,-0.0333446357190609,-0.04293583621121943
1746475490339907000,1.056906982421875,0.051146249869465824,-0.12269377499371767,-0.06910499081034213
1746475490349903000,1.066903076171875,-0.029321371552348135,-0.16430179666727782,-0.12747220490928737
1746475490359900200,1.076900146484375,-0.2705254983752966,-0.07383826640993356,-0.1914132370851934
1746475490369897200,1.086897216796875,-0.6123264269351959,0.06537117457687855,-0.2900419536195695
1746475490379893000,1.09689306640625,-0.8586544726431369,0.16302198598980902,-0.3263918355692178
1746475490389890300,1.106890380859375,-0.9204401899486779,0.19841303284466266,-0.32654147317297755
1746475490399886000,1.116885986328125,-0.7900801181107759,0.15862667364031074,-0.29722028428371994
1746475490409883100,1.126883056640625,-0.5749222866922616,0.03609481121003628,-0.22092450518645346
1746475490419880200,1.136880126953125,-0.38947511840462684,-0.09664426471889019,-0.084015139569249
1746475490429876000,1.1468759765625,-0.22669863160848616,-0.15747691908329725,-0.00208683447772637
1746475490439873300,1.156873291015625,-0.04982347683310508,-0.18948504550158976,0.034179168580751866
1746475490449869000,1.166869140625,0.10387421597242355,-0.20463234575092792,0.05150348407560959
1746475490459866000,1.1768662109375,0.2524362994551658,-0.20856091737151145,0.048334389052819456
1746475490469863200,1.18686328125,0.4139584022760391,-0.21637451373189687,0.044320495502650735
1746475490479859200,1.196859130859375,0.4842407297700643,-0.253569979660213,0.03948569575734436
1746475490489856000,1.20685595703125,0.48757425810694693,-0.28407588482201096,0.037216380852181465
1746475490499853000,1.21685302734375,0.5143745867490768,-0.27395605734586714,0.04023459616219625
1746475490509849000,1.22684912109375,0.5721423005849122,-0.22352409322559832,0.04018445514384657
1746475490519846100,1.23684619140625,0.6074234573245049,-0.16660218256413936,0.027956330276839435
1746475490529842200,1.24684228515625,0.4782511339664459,-0.12858604790270328,0.006841792186163365
1746475490539839000,1.2568388671875,0.2362684239864349,-0.07812865708023309,-0.07841079848986118
1746475490549836000,1.2668359375,0.06627133828699588,-0.046885377554595466,-0.14917654385296628
1746475490559832000,1.27683203125,0.023320669832825658,-0.03929565307796001,-0.18253676073364913
1746475490569829000,1.2868291015625,0.08124737362265587,-0.03158931648433208,-0.16576660852283237
1746475490579825200,1.2968251953125,0.18486673805117607,-0.009600479777157306,-0.09642371730338782
1746475490589822000,1.306822021484375,0.20744214247465131,0.016382687263190747,-0.0053370867116376754
1746475490599819300,1.3168193359375,0.15419687449932098,0.073259297478199,0.04594669019868597
1746475490609815000,1.32681494140625,0.06167115101516246,0.17500702281594274,0.05808794049983844
1746475490619812000,1.33681201171875,-0.03023439474403858,0.2523664490893483,0.042128410552162675
1746475490629808000,1.34680810546875,-0.019576807129383086,0.3115966366931796,0.04418221954312175
1746475490639805200,1.35680517578125,0.10243044690489768,0.2976420533597469,0.047263197891041636
1746475490649802200,1.36680224609375,0.20675766734182832,0.23450579822808504,0.10549412705814465
1746475490659798300,1.37679833984375,0.19708967528641222,0.20582009423077105,0.15311956412401048
1746475490669795000,1.386795166015625,0.03639700902700424,0.24955723688751458,0.12202847948540001
1746475490679791000,1.396791015625,-0.19831015699207782,0.3278226720899343,0.04245389791317284
1746475490689788200,1.4067880859375,-0.3269435511678457,0.3354699719727039,-0.03390910120140761
1746475490699785200,1.41678515625,-0.27352877184450625,0.282052270039916,-0.07279577161967754
1746475490709781200,1.42678125,-0.11354805324673652,0.21101357122063635,-0.06032693333197385
1746475490719778000,1.436778076171875,0.04185001373589039,0.12311959919035434,-0.012756824916228652
1746475490729774300,1.4467744140625,0.1368593707293272,0.056636079457402226,0.0018045652039349078
1746475490739771100,1.456771240234375,0.10514087490737438,0.03920885157734155,-0.011430252487584948
1746475490749768000,1.466767822265625,-0.015163082340359686,0.09736527246981859,-0.061968599591776724
1746475490759764200,1.47676416015625,-0.08326981936097144,0.13726298309415577,-0.060042746095731854
1746475490769761000,1.486760986328125,-0.0005032733470201492,0.14539748197197913,-0.0581804958878085
1746475490779758300,1.49675830078125,0.15417174005806444,0.10938567287027835,-0.03728645041370764
1746475490789754000,1.506754150390625,0.30741233674585816,0.06077946287244558,-0.016522789853625
1746475490799751200,1.516751220703125,0.35211131017208097,-0.03673018650412559,0.001401774823013693
1746475490809747200,1.526747314453125,0.24551848289072511,-0.11649316678792238,-0.0005748042132705449
1746475490819744000,1.536743896484375,0.04744213465452194,-0.11708441067934036,-0.026579890824481842
1746475490829741000,1.546740966796875,-0.138340549197793,-0.07602291697263718,-0.09116495652496814
1746475490839737000,1.556737060546875,-0.3026473143011331,-0.08062982624620199,-0.1159539818773046
1746475490849734100,1.566734130859375,-0.38244448911547657,-0.1114165941759944,-0.11378924159146844
1746475490859730000,1.57672998046875,-0.3891039470046758,-0.13480945246219633,-0.10934837306719272
1746475490869727200,1.586727294921875,-0.44872050357758997,-0.06476327181160449,-0.11658221504455432
1746475490879724000,1.59672412109375,-0.6282581555604935,0.005585983438789844,-0.18225355987809597
1746475490889720300,1.60672021484375,-0.9005746290057897,0.04520429259985685,-0.2432726949916221
1746475490899717000,1.616717041015625,-1.0503151086181401,0.02099018105864525,-0.20431365345688535
1746475490909713200,1.626713134765625,-1.0086521418869494,-0.01004559319615364,-0.14850301023926585
1746475490919710200,1.636710205078125,-0.8196580947726965,-0.019864391899108887,-0.08810165996421128
1746475490929707000,1.64670703125,-0.545624296015501,-0.009560440027713776,-0.040432676017563784
1746475490939703300,1.656703369140625,-0.2681798120319843,-0.026143326038122177,0.0454378136613639
1746475490949700000,1.6667001953125,0.0034247137516736983,-0.04614361927658319,0.1456909119606018
1746475490959696100,1.676696044921875,0.17909750699996949,-0.07150047111213206,0.2075229891585186
1746475490969693200,1.686693115234375,0.19860592506825922,-0.13500263694673775,0.21668894997593013
1746475490979690000,1.69668994140625,0.14062252265512942,-0.1790773409947753,0.18681027333438396
1746475490989686000,1.70668603515625,0.10605857427418232,-0.16531068144887684,0.10490797946695238
1746475490999683000,1.71668310546875,0.13555822500288486,-0.1353106799826026,0.054367093345802274
1746475491009679000,1.72667919921875,0.18552081804573534,-0.07748246813118458,0.056836771394964306
1746475491019676200,1.73667626953125,0.23015198693275452,-0.026883038489520547,0.077366687131254
1746475491029673200,1.746673095703125,0.23815759873390197,0.01833265228718519,0.0598384419955546
1746475491039669000,1.7566689453125,0.18089374276697634,0.03946750251352787,0.04390005073403008
1746475491049666000,1.766666015625,0.10103227054476738,0.010023965886235237,0.025577038491447456
1746475491059662000,1.776662109375,0.03780278417170047,0.042378129263222215,0.01278376543879276
1746475491069659100,1.7866591796875,0.00866787510216236,0.04756693007797003,0.0017687952042324468
1746475491079655200,1.7966552734375,-0.05282967291176319,0.042649639680981635,-0.011636622963973785
1746475491089652000,1.80665185546875,-0.11867021856606005,0.06439911467432975,-0.013200324050162452
1746475491099649300,1.816649169921875,-0.12423194434642791,0.09811375274956226,-0.03127971396233188
1746475491109645000,1.82664501953125,-0.09621347208619117,0.11956687514483928,-0.03360319760699058
1746475491119642000,1.83664208984375,0.00044482115805149076,0.13636077355742454,-0.02162986263509374
1746475491129638100,1.84663818359375,0.046855274677276605,0.1717959518149495,-0.019059468724392355
1746475491139635200,1.85663525390625,0.09918693493902683,0.19159195465296505,-0.002399480623472482
1746475491149632300,1.86663232421875,0.06441840389668942,0.2133732860893011,0.015487829915853216
1746475491159628000,1.8766279296875,0.012350363007187842,0.20712094769626854,0.015266474216175266
1746475491169625300,1.886625244140625,-0.02319733571410179,0.21063889268934727,-0.0070458999235183
1746475491179621000,1.89662109375,-0.03579962765574455,0.1737766042381525,-0.02358541258308105
1746475491189618400,1.906618408203125,-0.01073532902598381,0.15679858143031597,-0.030989998884312808
1746475491199615200,1.916615234375,-0.002957096239924431,0.14263649282604454,-0.005750097092473879
1746475491209611300,1.926611328125,0.007867664635181426,0.18243541925102472,0.038184883391042236
1746475491219608300,1.9366083984375,0.09245032016038894,0.23751959309130904,0.09931805963856168
1746475491229604400,1.946604248046875,0.23578210177421569,0.2472837389975786,0.1648074446344748
1746475491239601200,1.95660107421875,0.2927092731326818,0.21820114463716744,0.20403043433502316
1746475491249598200,1.96659814453125,0.2835544912964105,0.1687500082477927,0.1840170624192804
1746475491259594200,1.97659423828125,0.27207038972973824,0.12194617149680852,0.14788520713448525
1746475491269591300,1.98659130859375,0.21079145290255547,0.08536328450888395,0.12401136953146197
1746475491279587300,1.99658740234375,0.11109481487572193,0.0799649325966835,0.12349011300317943
1746475491289584000,2.006584228515625,0.010308043524622917,0.12757394825071094,0.11534718422372825
1746475491299581200,2.016581298828125,-0.04134031064808368,0.15684446639865635,0.16055344045180828
1746475491309577200,2.0265771484375,-0.07749123595952988,0.18429945955723523,0.2072832255858928
1746475491319574300,2.03657421875,-0.0867050545066595,0.19653087235987185,0.19814966920074073
1746475491329570300,2.0465703125,-0.05243161350488663,0.19064210658222436,0.15205947887813673
1746475491339567000,2.056567138671875,0.06985679555833339,0.14250439087897537,0.14708968197577632
1746475491349564400,2.066564453125,0.17851473867595194,0.06804185509085654,0.14117003700267522
1746475491359560200,2.076560302734375,0.2150111164242029,0.04082505460232496,0.11341924836845137
1746475491369557200,2.08655712890625,0.21539339374005792,0.0007242226213216781,0.12367551604006438
1746475491379553300,2.09655322265625,0.150588036352396,-0.059577685867249965,0.16578461910355835
1746475491389550300,2.10655029296875,-0.03111760731935501,-0.06401040761768817,0.18179628109727053
1746475491399547400,2.11654736328125,-0.19926877289116382,-0.00376753583997488,0.11151137805366888
1746475491409543200,2.126543212890625,-0.30339784040749074,0.056036652259528634,0.007125641495687887
1746475491419540200,2.136540283203125,-0.2782330040127039,0.0697062811717391,-0.07567266962970606
1746475491429536300,2.146536376953125,-0.16351707603037358,0.041669688732922074,-0.16198650546222923
1746475491439533300,2.156533203125,0.027726795837283134,0.02131985140442848,-0.251715492633637
1746475491449529000,2.166529052734375,0.17700842576622963,-0.04910568395256996,-0.2935681915169582
1746475491459526400,2.1765263671875,0.2790875750154257,-0.0921495836481452,-0.28180881667286156
1746475491469523200,2.186523193359375,0.38669980847239493,-0.1106909102499485,-0.26508805656172335
1746475491479519200,2.196519287109375,0.4596814580529928,-0.11993804654479026,-0.1778427211659029
1746475491489516300,2.206516357421875,0.45795302682518957,-0.10614859064519405,-0.05607772405543364
1746475491499512300,2.21651220703125,0.3867132524758577,-0.07990881849527358,0.06167723369607701
1746475491509509400,2.22650927734375,0.3042886517673731,-0.062163026185333724,0.11786755128051153
1746475491519506200,2.236506103515625,0.18641455201506613,-0.03771335232257843,0.1352226911718957
1746475491529502200,2.246502197265625,0.055944590061903,-0.02560819624811411,0.14677836013743653
1746475491539499300,2.256499267578125,-0.05306698879897594,0.010859832188487052,0.12020278016189112
1746475491549495300,2.266495361328125,-0.12505787377655506,0.014621522809565066,0.10922993431929498
1746475491559492400,2.276492431640625,-0.19706337180137634,-0.0074903557553887366,0.12368086806861683
1746475491569489200,2.2864892578125,-0.3017085721462965,0.007752806083858013,0.14820159787358717
1746475491579485200,2.296485107421875,-0.3506184412658214,0.09119213679283857,0.17892154764486476
1746475491589482200,2.306482177734375,-0.30766660376787186,0.165066059038043,0.21936794166052712
1746475491599478300,2.316478271484375,-0.2203928094625473,0.1849438949406147,0.26002929360112176
1746475491609475000,2.32647509765625,-0.15110416918098926,0.1397676593914628,0.2911298036552034
1746475491619471400,2.336471435546875,-0.1531336291819811,0.07245207274854183,0.33344073116742073
1746475491629468200,2.34646826171875,-0.29052140769958495,0.08390636369884014,0.30317623354606327
1746475491639465200,2.35646533203125,-0.48368952562808987,0.15638415541052816,0.22301939510647206
1746475491649461200,2.366461181640625,-0.6159878720521926,0.23603987592756748,0.12521081758225336
1746475491659458000,2.3764580078125,-0.6067512571513652,0.2739434901252389,0.0888278736132197
1746475491669454300,2.386454345703125,-0.4811351649701595,0.2546536832436919,0.07652882066816091
1746475491679451100,2.396451171875,-0.3163151896476745,0.20597820740193126,0.05275998694272711
1746475491689448400,2.406448486328125,-0.20407295830249786,0.12582388971298933,0.10063183651771396
1746475491699444200,2.4164443359375,-0.1232996319323778,0.15038520725667476,0.11498595882905646
1746475491709441300,2.426441162109375,-0.048931496429443354,0.18689590579122303,0.08113109029922634
1746475491719437300,2.436437255859375,0.06321019715070725,0.19629589456021784,0.06362924454668537
1746475491729434400,2.446434326171875,0.17983634266853332,0.12398147671669721,0.07704592161113395
1746475491739431200,2.45643115234375,0.25333821673095225,-0.004803308628499508,0.09830967718046157
1746475491749427200,2.46642724609375,0.27172376824915406,-0.08143091349601746,0.09639770607929676
1746475491759424300,2.47642431640625,0.2322866608738899,-0.07279226448833942,0.05313009889675304
1746475491769420000,2.486419921875,0.196036366841197,-0.01291296532601118,0.01610971554070711
1746475491779417300,2.496417236328125,0.15070903238356112,0.02523293319493532,0.04834032560326159
1746475491789413000,2.5064130859375,0.14888123243451118,0.06526829872429371,0.07502155791036784
1746475491799410400,2.516410400390625,0.12656710929572582,0.08834054675400256,0.1196770575210452
1746475491809407200,2.5264072265625,0.09435644604265689,0.10682926638573408,0.17556315886136142
1746475491819403300,2.5364033203125,0.07683949405252934,0.13081249178051949,0.18498177926559
1746475491829400300,2.546400390625,0.00927402430176735,0.10774842705726623,0.13919166786810383
1746475491839396400,2.556396240234375,-0.059227849516272545,0.09467150334119796,0.08447243661638348
1746475491849393200,2.56639306640625,-0.1272252809435129,0.08999386691898106,0.026214674241282043
1746475491859390200,2.57639013671875,-0.1736538546413183,0.04336012603789568,-0.009432922924216837
1746475491869386200,2.58638623046875,-0.18174831376969813,0.008057341988384724,-0.016223843439668414
1746475491879383300,2.59638330078125,-0.22349603617489336,-0.010211889673769474,-0.007189308715891092
1746475491889379300,2.60637939453125,-0.2902086884886026,0.0129556354239583,-0.028411818959377704
1746475491899376000,2.616376220703125,-0.3433978423625231,0.023375322629511357,-0.05455985770523548
1746475491909373200,2.626373291015625,-0.3620329847276211,0.020210428857803345,-0.07764617079291493
1746475491919369200,2.636369140625,-0.3844564134597778,0.015356266824901103,-0.13159447247106582
1746475491929366300,2.6463662109375,-0.4266869509458542,0.00850011731982231,-0.1908414650792256
1746475491939362300,2.6563623046875,-0.4230307665258646,0.005839373677968979,-0.22449830855261532
1746475491949359000,2.666359130859375,-0.3414893783926964,0.050582478506863114,-0.25064789993474257
1746475491959355400,2.67635546875,-0.22797522741556167,0.08683043445199727,-0.2685038928871974
1746475491969352200,2.686352294921875,-0.13504384573996067,0.07712678656131029,-0.24548196853892876
1746475491979349200,2.696349365234375,-0.07368132228255271,0.07911649907380341,-0.22047405800521372
1746475491989345300,2.70634521484375,-0.059596682828664774,0.09457125783711672,-0.2252548990735784
1746475491999342000,2.716342041015625,-0.042160979381203646,0.14007131851315496,-0.2506037685320712
1746475492009338000,2.726338134765625,0.021308160966634748,0.15388415528833865,-0.2837242766390554
1746475492019335200,2.736335205078125,0.11520049662888049,0.15509206977337597,-0.3116325847893953
1746475492029332200,2.746332275390625,0.23550386935472487,0.1388920456007123,-0.33727355079594995
1746475492039328300,2.756328369140625,0.3199152599662542,0.12450550059080123,-0.3629196313690394
1746475492049325300,2.7663251953125,0.3246493027508259,0.10473112506270409,-0.37288572958819566
1746475492059321000,2.776321044921875,0.29854806228876113,0.06073270112127065,-0.387370108949393
1746475492069318400,2.786318359375,0.25240999597013,0.018517068943381308,-0.3917520503606647
1746475492079315200,2.796315185546875,0.21735446467995642,0.018359540294110775,-0.3908166326740756
1746475492089311500,2.8063115234375,0.22326690359413623,0.028206396047770976,-0.39407223693653937
1746475492099308300,2.816308349609375,0.24369068294167517,0.025070143848657606,-0.3418157608028501
1746475492109304000,2.826303955078125,0.2766927888333797,0.023311317482590674,-0.25870151559608057
1746475492119301400,2.83630126953125,0.3089280020058155,-0.017312953850626943,-0.19970709124319255
1746475492129298200,2.846298095703125,0.309745748129487,-0.04762245965749025,-0.19505197718003764
1746475492139294200,2.856294189453125,0.23729952059984205,-0.06052198098003864,-0.17672372707333414
1746475492149291300,2.866291259765625,0.11211597461700439,-0.0516767034843564,-0.21233652692008761
1746475492159287300,2.876287353515625,-0.03661678925752639,-0.049371056890487666,-0.23044114260505882
1746475492169284000,2.8862841796875,-0.14535890352725983,-0.05845306575149297,-0.2585771768303588
1746475492179280400,2.8962802734375,-0.18924129987359045,-0.055174774733185765,-0.26848403740925714
1746475492189277200,2.906277099609375,-0.17288462383449077,-0.06887275295704602,-0.24396323453905058
1746475492199274000,2.91627392578125,-0.14183189844489097,-0.0861453747972846,-0.20574129337351768
1746475492209270300,2.926270263671875,-0.10951777481734752,-0.08018880448043346,-0.15956983624193816
1746475492219267000,2.93626708984375,-0.10965572198331355,-0.08679244052916765,-0.13506618543593213
1746475492229263000,2.94626318359375,-0.12181728442013263,-0.09909311917573213,-0.12306344855632632
1746475492239260200,2.95626025390625,-0.15267185688912868,-0.09042436729073523,-0.10392349847424774
1746475492249257000,2.966257080078125,-0.25722002660036086,-0.10490443580299615,-0.04834010640755296
1746475492259253200,2.976253173828125,-0.3654728960484266,-0.07205079847127199,-0.030361327325645834
1746475492269250000,2.98625,-0.39993046144545075,-0.0587023643374443,0.020453315969277172
1746475492279246000,2.99624609375,-0.3788800746321678,-0.03274199365079403,0.07254252751097083
1746475492289243100,3.0062431640625,-0.30002807171344753,0.01001987423300743,0.10688991053178906
1746475492299240200,3.016240234375,-0.18620412413477896,0.044887189474701876,0.11529460465312004
1746475492309236000,3.026236083984375,-0.11654781958460807,0.06579612199068069,0.11977772315023466
1746475492319233300,3.0362333984375,-0.07054127069115639,0.07051292137950659,0.1304970143568702
1746475492329229000,3.04622900390625,-0.062088499644398686,0.06689677670896053,0.1303436869586818
1746475492339226400,3.056226318359375,-0.05065115982890129,0.054909109534323215,0.15428398652719333
1746475492349222100,3.06622216796875,-0.10116729510128497,0.07968173174113034,0.15287622035481035
1746475492359219200,3.07621923828125,-0.12184300338327884,0.11839520101696252,0.1493763224750757
1746475492369216300,3.08621630859375,-0.09492927749454974,0.11920008765906095,0.14908610735684633
1746475492379212000,3.0962119140625,-0.02208499055802822,0.13490356048643587,0.15396449051555244
1746475492389209300,3.106209228515625,0.06549626226127148,0.15612550447434187,0.14159692064523696
1746475492399205000,3.116205078125,0.11694821707904338,0.16482231341004372,0.14277761832978575
1746475492409202200,3.1262021484375,0.1529635333120823,0.17466946142464876,0.14087149244751782
1746475492419199200,3.13619921875,0.16732289805412293,0.17642682648599148,0.1271752677893266
1746475492429195300,3.1461953125,0.1890560064345598,0.16213555854409933,0.11924538810551166
1746475492439192000,3.156192138671875,0.16437223155498504,0.12251111190319061,0.10867489425241947
1746475492449188400,3.166188232421875,0.13433014451265335,0.08457154960930346,0.11229776092469691
1746475492459185200,3.17618505859375,0.09793547357320785,0.08005144183635711,0.13142477845996617
1746475492469182200,3.18618212890625,0.07534370253682136,0.06770107882916927,0.1497394932316616
1746475492479178200,3.19617822265625,0.039926936718821526,0.09244447494149208,0.1752531430641189
1746475492489175000,3.206175048828125,0.019308511582016945,0.09897504575401544,0.21304471172206102
1746475492499171300,3.21617138671875,0.03527238891124725,0.0996606899306178,0.2313651255821809
1746475492509168000,3.226168212890625,0.05224690458774566,0.0803653300911188,0.20166202470324932
1746475492519164200,3.2361640625,0.08700900588929653,0.0643359863102436,0.1646399425804615
1746475492529161200,3.2461611328125,0.09267243847846984,0.032145196801424025,0.1380058008180931
1746475492539158000,3.256157958984375,0.08242284714281559,0.00705839407891035,0.1536273675156757
1746475492549154000,3.266154052734375,0.03685702775418758,0.032087329134345054,0.16364168879073113
1746475492559151000,3.276151123046875,-0.018656185153126715,0.06918342634141444,0.14341262829769402
1746475492569147100,3.286147216796875,-0.08113982159495353,0.08429916240870952,0.1307673374645412
1746475492579144200,3.296144287109375,-0.11698738004565239,0.08794833256602287,0.07463884220309555
1746475492589141200,3.306141357421875,-0.10127835426032543,0.06493365994244814,0.05601586519982665
1746475492599137000,3.316136962890625,-0.042481297376751895,0.03277501913756132,0.0647160716690123
1746475492609134000,3.326134033203125,0.007912672820687293,0.013046820838749407,0.07089366432540119
1746475492619130000,3.336130126953125,0.03483516653776168,-0.009048983374238014,0.0657637906236574
1746475492629127200,3.346127197265625,0.027104864546656608,-0.031178397595882413,0.04938157828450203
1746475492639124200,3.356124267578125,-0.005126841494441032,-0.06077595574110746,-0.002642440800182521
1746475492649120000,3.3661201171875,-0.056204702302813526,-0.05507277566343546,-0.07969305685274303
1746475492659117300,3.376117431640625,-0.09702186585962772,-0.05691226605027914,-0.13921579766236244
1746475492669113000,3.386113037109375,-0.06185995158553123,-0.05321984127312898,-0.16544081063456834
1746475492679110100,3.396110107421875,0.006171382111310958,-0.04686258120089769,-0.16166140169370918
1746475492689106200,3.406106201171875,0.05969488250613212,-0.056900867873430246,-0.13573529860284178
1746475492699103200,3.416103271484375,0.07968085495829581,-0.07840133654177188,-0.08761215941421686
1746475492709100300,3.426100341796875,0.04250584729611873,-0.045373511686921116,-0.07289298491645604
1746475492719096000,3.436095947265625,-0.05337269374728203,-0.008677811974287032,-0.061201268481090663
1746475492729093000,3.446093017578125,-0.1768564500749111,0.03576923251748085,-0.0681178794691339
1746475492739089200,3.456089111328125,-0.23896540798544882,0.08826368212550878,-0.06321081820521503
1746475492749086200,3.466086181640625,-0.18783552472889423,0.12680764005333184,-0.0323982217144221
1746475492759083300,3.476083251953125,-0.08445406070947646,0.09488456156998872,0.0031934257464483378
1746475492769079300,3.486079345703125,0.02527472651004791,0.07976473384946585,0.007567147318646311
1746475492779076000,3.496076171875,0.12775953395068645,0.022553192591667173,0.01402300892714411
1746475492789072400,3.506072265625,0.18237784384489059,-0.02749474064707756,0.02741407662630081
1746475492799069200,3.516069091796875,0.1692676023811102,-0.03993628906905651,0.02982307399678975
1746475492809066000,3.52606591796875,0.0642617520302534,-0.03038344782590866,0.0055003144493326545
1746475492819062300,3.536062255859375,-0.042886955568194385,0.047260932868719095,-0.0004389028739184141
1746475492829059000,3.54605908203125,-0.057092591053247446,0.10588350996822118,0.007514467283338308
1746475492839055000,3.55605517578125,0.007855389675498009,0.09563537993729114,0.03943115255851298
1746475492849052200,3.56605224609375,0.11702303588092326,0.060903089252114295,0.07772047813814133
1746475492859049000,3.576049072265625,0.15435878706276415,0.015028934566676616,0.08344729481972754
1746475492869045200,3.586045166015625,0.08612345522642136,0.002554068396985531,0.018860402488335967
1746475492879042000,3.5960419921875,0.00954407341480255,0.02269493914991617,-0.05626830559093505
1746475492889038000,3.6060380859375,-0.005453004708886146,0.006923077261447906,-0.06373078695870936
1746475492899035100,3.61603515625,0.005630114841461181,-0.05181231256276369,-0.021734898478724063
1746475492909031200,3.62603125,-0.020848726761341092,-0.07605360437184572,0.01993226950354874
1746475492919028000,3.636028076171875,-0.13432605285942553,-0.07033785707354545,0.0311830372383818
1746475492929025300,3.646025390625,-0.3084656451910734,-0.009447335042059421,0.010631868651509285
1746475492939021000,3.65602099609375,-0.4358838183581829,0.05278261889964342,-0.028800927874818444
1746475492949018000,3.66601806640625,-0.4302086953312158,0.07795037790387868,-0.0699222620099783
1746475492959014100,3.67601416015625,-0.26479309220314023,0.052097851505875585,-0.06558426933828741
1746475492969011000,3.686010986328125,-0.05931085162460804,-0.022810966745018958,-0.01898545364011079
1746475492979008300,3.69600830078125,0.08440554539263248,-0.06394318760037422,0.012437749029695987
1746475492989004000,3.706004150390625,0.14435878657400608,-0.05341214897483587,0.018425079810991882
1746475492999001300,3.71600146484375,0.11743337024748325,-0.020474048230051993,-0.014154526352323591
1746475493008997000,3.7259970703125,-0.00028232407271862027,-0.012055179452896117,-0.06611260406132786
1746475493018994200,3.735994140625,-0.07307517308294773,0.033924773694574833,-0.08736921750381589
1746475493028991200,3.7459912109375,-0.05333119269311428,0.04351911599189043,-0.0831790358049795
1746475493038987300,3.7559873046875,0.0005266542226076126,0.0454638203188777,-0.020411394790001213
1746475493048984000,3.765984130859375,0.04041793510615825,0.07121084051579236,0.022681056755036115
1746475493058980400,3.77598046875,0.07006488535106181,0.10859539927542208,0.042054084940627214
1746475493068977200,3.78597705078125,0.07827274172604083,0.14103461058735847,0.06660038757827133
1746475493078974200,3.79597412109375,0.0011848258703947066,0.12302373760044574,0.0541934355456382
1746475493088970200,3.80597021484375,-0.059360535985231395,0.07247370005846022,0.006611454029008746
1746475493098967000,3.815967041015625,-0.08346972584724426,0.058846156722307204,-0.028197555154189466
1746475493108963300,3.82596337890625,-0.06684183165133,0.040650282557308674,-0.032688692560978234
1746475493118960000,3.835960205078125,-0.018344634985923765,0.009827858792245387,-0.04512951033059508
1746475493128956200,3.8459560546875,0.02430442017316818,0.01116407583206892,-0.033284795290604234
1746475493138953200,3.855953125,0.03415653662383556,0.03454261333197355,-0.022156119565479457
1746475493148950000,3.865949951171875,-0.011579378634691238,0.030859540905058384,-0.036287557303160425
1746475493158946600,3.875946533203125,-0.05982990706264972,0.03685381288379431,-0.03416132239680737
1746475493168943600,3.885943603515625,-0.045998365586996076,0.049535892063379286,-0.042215157253853976
1746475493178939600,3.895939697265625,0.01032791726887226,0.07527268312722445,-0.04426752320639789
1746475493188936700,3.905936767578125,0.04564706793129444,0.08100158216804265,-0.04587411815281957
1746475493198933500,3.91593359375,0.05684592281579971,0.08471914138644933,-0.039902642527781425
1746475493208929500,3.925929443359375,0.050131519868969916,0.08497925362735986,-0.04681929004844278
1746475493218926600,3.935926513671875,0.02094692643880844,0.08834288484156132,-0.0436262661607936
1746475493228922600,3.945922607421875,0.03948094651699066,0.1005626072064042,-0.0327809739543125
1746475493238919700,3.955919677734375,0.04847323126792907,0.09720043729692697,-0.01429251005090773
1746475493248916700,3.965916748046875,0.024374562799930572,0.10997340963035822,-0.00800601365994662
1746475493258912500,3.97591259765625,0.034363457372784616,0.11028612884134054,-0.03221873696167022
1746475493268909600,3.98590966796875,-0.0056266077101230615,0.09892039295732974,-0.030908421548083424
1746475493278905600,3.995905517578125,-0.058416533133387565,0.11707330476343632,-0.04319211252722889
1746475493288902400,4.00590234375,-0.07756020954251289,0.19080752627700567,-0.10412070154678076
1746475493298898700,4.015898681640625,-0.043398412221670145,0.24518647445738315,-0.11999675446208566
1746475493308895500,4.0258955078125,0.10518062239587306,0.23783552717268466,-0.0978663173271343
1746475493318892800,4.035892822265625,0.29787586211562156,0.17880758414268494,-0.017085867096483708
1746475493328888600,4.045888671875,0.41197102785110473,0.14781857163906095,0.04804192717857659
1746475493338885600,4.0558857421875,0.37063422433435916,0.15578122108131645,0.05271715244799852
1746475493348881700,4.065881591796875,0.2836947765499353,0.16942016259431839,0.043443749200738964
1746475493358878700,4.075878662109375,0.17125030063092708,0.1811979864105582,0.05180328900609165
1746475493368875500,4.08587548828125,0.06133680449426174,0.17050620426535606,0.05531012808326632
1746475493378871600,4.09587158203125,-0.07318857032954693,0.1821206542134285,0.09360555461011827
1746475493388868600,4.10586865234375,-0.20872692158818243,0.20335487316101789,0.09092588707208633
1746475493398864400,4.115864501953125,-0.30379122363924976,0.23224749790728091,0.07962864984702318
1746475493408861700,4.12586181640625,-0.3234066092133522,0.2443383331954479,0.05534297090694308
1746475493418858500,4.1358583984375,-0.3056470806390047,0.22902970490455626,0.015357837727479636
1746475493428854800,4.145854736328125,-0.2143535292983055,0.1847805210724473,-0.010392415606137365
1746475493438851600,4.1558515625,-0.0981686978071928,0.08038695740103721,0.01508667436959222
1746475493448847600,4.16584765625,-0.0645931759417057,-0.011626432646811008,0.059838711423613127
1746475493458844700,4.1758447265625,-0.061550154983997345,-0.009006313276290893,0.041114630399737506
1746475493468841500,4.185841552734375,-0.06550444556772708,0.01146598138809204,0.0003686141166836023
1746475493478837800,4.195837646484375,-0.05214636682271957,-0.005351882421970367,-0.03147843998838216
1746475493488834600,4.20583447265625,0.00741173756122589,-0.05319587587565183,-0.009920450712833553
1746475493498830600,4.21583056640625,0.031200024905800816,-0.10461334390193223,0.020199852664861826
1746475493508827600,4.22582763671875,0.024259996509552,-0.13585633116662502,0.0712708088084124
1746475493518823700,4.23582373046875,-0.08345277471244335,-0.11941197684407233,0.09096828317539767
1746475493528820500,4.245820556640625,-0.195351891708374,-0.05732639980912208,0.06998445879230275
1746475493538817500,4.255817626953125,-0.2621668353527784,-0.0013464461728930472,0.020248934237286447
1746475493548813600,4.2658134765625,-0.2790419823080301,-0.0047463177442550655,0.00914603227423504
1746475493558810600,4.275810546875,-0.24878946738541124,-0.035116321566700935,-0.00026045930078253147
1746475493568806700,4.285806640625,-0.18263444895446299,-0.04384557146728039,-0.014967925094440579
1746475493578803500,4.295803466796875,-0.10803893443644046,-0.0440279422968626,-0.0416732689294964
1746475493588800800,4.30580078125,-0.0015682722300291061,-0.016421557968854902,-0.017540643392968923
1746475493598796500,4.315796630859375,0.05105331088900566,0.006839782892167568,0.03062817983459681
1746475493608793900,4.3257939453125,0.055823594030737875,0.03627952012717724,0.056755358455516394
1746475493618789600,4.33578955078125,-0.006406359910964965,0.06666618282347918,0.06806677033640444
1746475493628786700,4.34578662109375,-0.1183113221257925,0.12232464942038059,0.03583888195389882
1746475493638783700,4.35578369140625,-0.195195239841938,0.14465163204073905,-0.008947349630668759
1746475493648779500,4.365779541015625,-0.23531857591569422,0.12676935386955737,-0.0164944405419752
1746475493658776600,4.375776611328125,-0.2449216860413551,0.11926759993731975,-0.03913363091666251
1746475493668772600,4.385772705078125,-0.2255851174086332,0.1262307169482112,-0.05394616451999172
1746475493678769700,4.395769775390625,-0.18380407725572584,0.15720248605608939,-0.032089356694649906
1746475493688766700,4.4057666015625,-0.1163724630177021,0.17338965074717996,0.0172181517066434
1746475493698762800,4.4157626953125,-0.06903378873765469,0.19380407774448394,0.04723252875814214
1746475493708759600,4.425759521484375,0.009482114094495772,0.21782237445265054,0.07373783824276178
1746475493718755800,4.435755859375,0.07027414418756961,0.1913511316344142,0.08910232490673661
1746475493728752600,4.445752685546875,0.09244622850716114,0.16463497414439915,0.13328505590651182
1746475493738748700,4.455748779296875,0.09476853397488594,0.1034945690050721,0.17289448764137924
1746475493748745700,4.465745849609375,0.054176995867490765,0.059356152071058745,0.17782829078175127
1746475493758742500,4.475742431640625,-0.035832360881567,-0.0026198271095752715,0.17631620571836829
1746475493768738600,4.485738525390625,-0.13634148433506488,-0.045811026321351526,0.180689835959021
1746475493778735600,4.495735595703125,-0.22064415387511252,-0.06518354305028914,0.1771047988127917
1746475493788731600,4.505731689453125,-0.357775327283144,-0.08277969775646925,0.1354642813754268
1746475493798728700,4.515728759765625,-0.47846156184673305,-0.09577537292987108,0.06071333883367479
1746475493808725500,4.5257255859375,-0.5179126977473497,-0.09399433473199606,-0.033661501382198186
1746475493818721500,4.535721435546875,-0.5085206000238657,-0.10326923581659793,-0.10394262329982593
1746475493828718600,4.545718505859375,-0.5469003073006868,-0.09722732530385256,-0.1599207137725316
1746475493838714600,4.555714599609375,-0.5835182656019926,-0.061655953446030615,-0.2769145052926615
1746475493848711700,4.565711669921875,-0.530226820397377,-0.03182809367626905,-0.3468990554165095
1746475493858708700,4.575708740234375,-0.4058808942824602,-0.03211041774898767,-0.341411965774931
1746475493868704500,4.58570458984375,-0.30839024186730385,-0.05650982272922992,-0.3139356740999967
1746475493878701600,4.59570166015625,-0.24921558384299278,-0.03767009770274162,-0.30554559302590784
1746475493888697600,4.605697509765625,-0.16457973682582377,-0.04695025948435068,-0.32652547188624736
1746475493898694400,4.6156943359375,-0.13699965598285196,-0.06565992839038372,-0.3057591992439702
1746475493908691700,4.625691650390625,-0.09136427848935126,-0.032415245914459226,-0.31161461074128743
1746475493918687500,4.6356875,-0.043674306553602216,0.023589842163026332,-0.295193911288958
1746475493928684800,4.645684814453125,0.005763385832309722,0.06960574340671301,-0.26628449980467556
1746475493938680600,4.6556806640625,0.04583820658922195,0.06588818418830633,-0.254159853578452
1746475493948677600,4.665677734375,0.08820026150047779,0.025964754600822926,-0.2437351614042185
1746475493958673700,4.675673583984375,0.12360241427123546,-0.006286825184524059,-0.21995244528390465
1746475493968670700,4.685670654296875,0.17804770568609238,-0.005194061511754989,-0.20988034767331554
1746475493978667800,4.695667724609375,0.20630057122409343,0.025633038428425788,-0.22987598300296813
1746475493988663600,4.70566357421875,0.19948621503412722,0.06265899300873279,-0.276735166670382
1746475493998660600,4.71566064453125,0.24672025989592075,0.06514087295234203,-0.2636919260282069
1746475494008656400,4.725656494140625,0.33784722249805926,0.07432984931915998,-0.19969143701633438
1746475494018653700,4.73565380859375,0.4081500082582235,0.04811813421994447,-0.12994802043829112
1746475494028650500,4.745650390625,0.4273626582503319,0.02988923456817865,-0.09634003934161738
1746475494038646800,4.755646728515625,0.37919922358393665,0.03996434611976146,-0.11232748020952567
1746475494048643600,4.7656435546875,0.2974216886073351,0.0742550305172801,-0.12728892076425252
1746475494058639600,4.7756396484375,0.2385749473631382,0.09111176503300666,-0.14974005948724226
1746475494068636700,4.78563671875,0.18758067318499086,0.08559563196003436,-0.15529237811844795
1746475494078633500,4.795633544921875,0.16674714399278162,0.06559037028551101,-0.154461662915349
1746475494088629800,4.805629638671875,0.17090893984735012,0.039866438703238964,-0.11840053477920591
1746475494098626600,4.81562646484375,0.1514163038700819,0.052908291105926035,-0.08213517104154452
1746475494108622600,4.82562255859375,0.0884568666100502,0.06685995182991028,-0.06778166978470981
1746475494118619600,4.83561962890625,-0.027070962277054786,0.0865741216033697,-0.037842056736163796
1746475494128615700,4.84561572265625,-0.11434475658237933,0.1315025198712945,0.010475600377563387
1746475494138612500,4.855612548828125,-0.11802724448740481,0.19026625900715588,0.08516514985458924
1746475494148609500,4.865609619140625,-0.04317044868469238,0.2214972635731101,0.2240676803166978
1746475494158604800,4.875604736328125,0.05434650721549988,0.21431495085358618,0.3548511103995144
1746475494168601900,4.885601806640625,0.131630237904191,0.21487463056296108,0.40508053768500685
1746475494178598000,4.895597900390625,0.1953296798765659,0.20733838983923195,0.4066533034270629
1746475494188595000,4.905594970703125,0.21514731002449988,0.1569438351199031,0.38164029659312215
1746475494198592000,4.915592041015625,0.17244214076399803,0.10365677382946013,0.34831769004277885
1746475494208587800,4.925587890625,0.09624912792146205,0.05969166763573885,0.3081341116817668
1746475494218584800,4.935584716796875,-0.00010404489636421203,0.02806377270668745,0.32066001391895116
1746475494228580900,4.945580810546875,-0.11680617825984954,0.036439971385896205,0.3349691463110968
1746475494238578000,4.955577880859375,-0.24681670600771902,0.08246697854548692,0.3042980954491533
1746475494248575000,4.965574951171875,-0.28939094236493107,0.08083762377798556,0.31721776451058686
1746475494258571000,4.975571044921875,-0.25015666408538817,0.05821107368916273,0.33337555697672067
1746475494268567800,4.98556787109375,-0.19176409634947775,0.045801966232061384,0.3170802557360381
1746475494278564000,4.995564208984375,-0.12268763751387596,0.024342121835052966,0.2757692077150568
1746475494288561000,5.005560791015625,-0.019817045626044274,-0.029574177269637583,0.24199885739721355
1746475494298557700,5.0155576171875,-0.009907646030187607,-0.09300327786803245,0.22279950527809558
1746475494308554000,5.025553955078125,-0.050288756257295605,-0.09175853850394487,0.19989295093780382
1746475494318550800,5.03555078125,-0.0912672478556633,-0.05046031343191862,0.15314303633114323
1746475494328546800,5.045546875,-0.07931786686480045,-0.007310323013365269,0.13043441571574657
1746475494338543900,5.0555439453125,-0.05413023411631584,0.01298661508411169,0.13628131511304525
1746475494348540700,5.065540771484375,-0.002407645663619041,0.06307166546285152,0.10757716214358806
1746475494358537000,5.075536865234375,0.04801262801885604,0.11503595371693372,0.08419080666340888
1746475494368533800,5.08553369140625,0.053451604202389716,0.10926409231722355,0.036419111260958016
1746475494378529800,5.09552978515625,0.10128887565433979,0.08096504954993725,-0.008253339484520256
1746475494388526800,5.10552685546875,0.12637713968157768,0.07237082420587539,-0.04836003495072946
1746475494398523000,5.11552294921875,0.13015899630784988,0.06701806500107049,-0.08535100954920052
1746475494408520000,5.12552001953125,0.13597674267590046,0.09188099583983421,-0.09691548287570476
1746475494418517000,5.13551708984375,0.08486088794469833,0.07752455370724201,-0.0843253928285092
1746475494428512800,5.1455126953125,0.02898351790010929,0.08252280038595199,-0.0562210871820338
1746475494438509800,5.155509765625,-0.003665536770224571,0.12762100226283074,-0.059631936805136496
1746475494448505900,5.165505859375,0.004127893584966659,0.1784016336902976,-0.07454548309752718
1746475494458502700,5.175502685546875,0.011102993294596672,0.16484247941523789,-0.10609913461343384
1746475494468500000,5.1855,0.07448562440276145,0.11242284860908984,-0.12378018199093639
1746475494478495700,5.195495849609375,0.16756313655078411,0.054255029539763924,-0.14081534181348979
1746475494488493000,5.2054931640625,0.17905425238013267,0.005761632266640663,-0.1542301922470331
1746475494498488800,5.21548876953125,0.1211170271962881,-0.040266251675784584,-0.13721536282645538
1746475494508486000,5.22548583984375,0.005297521886229515,-0.07276888361275195,-0.12964473577593452
1746475494518483000,5.23548291015625,-0.113004447889328,-0.07068710890263319,-0.12577194033004344
1746475494528479000,5.24547900390625,-0.22206688015460968,-0.06643091276288032,-0.13084595565870402
1746475494538475800,5.255475830078125,-0.254191034168005,-0.07229220601171255,-0.13124191444003955
1746475494548471800,5.265471923828125,-0.2098439429193735,-0.08052987300306558,-0.12013527701678685
1746475494558468900,5.27546875,-0.14011515765488147,-0.08967939414232969,-0.09138242606739513
1746475494568466000,5.2854658203125,-0.06775310127735137,-0.09968874698132275,-0.11295157605777494
1746475494578462000,5.2954619140625,-0.04288111034929752,-0.0906570070028305,-0.13202645241385325
1746475494588458800,5.305458740234375,-0.051069677501916884,-0.11888999879658221,-0.10392547123562544
1746475494598455000,5.315455078125,-0.0783697723597288,-0.1292228845015168,-0.05571237047491595
1746475494608451800,5.325451904296875,-0.12429390366673469,-0.07467179462462663,-0.07979697388494386
1746475494618448000,5.33544775390625,-0.14607494284212588,-0.026073475672304627,-0.09927882360671646
1746475494628445000,5.34544482421875,-0.0724836369305849,0.005293722493946552,-0.0742506283367984
1746475494638441700,5.355441650390625,0.004857961425185203,0.010711655889451503,-0.030388790721306576
1746475494648438000,5.36543798828125,0.09718319390118121,0.010865385146439074,0.0030718999923206865
1746475494658434800,5.375434814453125,0.10934300277233124,0.011066460676491259,0.054976073823310434
1746475494668430800,5.385430908203125,0.050875616234540934,0.015373510220646857,0.06261781161497347
1746475494678428000,5.395427978515625,-0.037412323549389837,0.03788403271436691,0.058099658337095746
1746475494688424700,5.4054248046875,-0.11932488308250903,0.07645341734439134,0.007533117184881121
1746475494698420700,5.415420654296875,-0.16549685167074202,0.10787965222150087,-0.02375928044579923
1746475494708417800,5.425417724609375,-0.14661504106819628,0.09511603223830462,-0.08176348818494006
1746475494718413800,5.435413818359375,-0.05698796163499355,0.07073883908987044,-0.0525352656756062
1746475494728411000,5.445410888671875,0.07774199585020541,0.05990823299586773,-0.011620861422549932
1746475494738408000,5.455407958984375,0.1940063223183155,0.05277998855113983,-0.009970646530110388
1746475494748403700,5.46540380859375,0.23114392057955263,0.007623919007182121,0.010539285864075645
1746475494758401000,5.475401123046875,0.17873802603781222,-0.02463438277989626,0.006059441602858715
1746475494768396800,5.485396728515625,0.026454291683435438,-0.05016746796518564,-0.01310388478823006
1746475494778393900,5.495393798828125,-0.11362170300483702,-0.0031119945406913757,-0.08480764165380969
1746475494788391000,5.505390869140625,-0.13831541475653647,0.03928630072772503,-0.13042500856658443
1746475494798386700,5.51538671875,-0.1317968266427517,0.039922552804648875,-0.13538898764951154
1746475494808384000,5.525384033203125,-0.1269762746185064,-0.0038540450796484944,-0.10288801794666796
1746475494818379800,5.5353798828125,-0.10454583162367344,0.0037219431325793265,-0.08071975128566845
1746475494828376800,5.545376953125,-0.11094693083763121,0.012937222984433174,-0.09568809650521724
1746475494838372900,5.555372802734375,-0.1532891120046377,-0.005507072983682156,-0.08260814058184623
1746475494848370000,5.565369873046875,-0.15443302134275436,-0.015486322945356368,-0.03191789998472668
1746475494858367000,5.575366943359375,-0.14046294817924498,-0.032987492844462396,0.06288407046888023
1746475494868363000,5.585363037109375,-0.13223755614757537,-0.006485562627017497,0.10709178977943956
1746475494878359800,5.59535986328125,-0.10063362661600113,0.03398322588354349,0.1304386900320649
1746475494888356000,5.605356201171875,-0.0828442874252796,0.039922552804648875,0.16053553946893662
1746475494898353000,5.615352783203125,-0.10973580148220062,0.013772504764795303,0.16079212631219997
1746475494908349700,5.625349609375,-0.19520283862650392,0.002637362766265869,0.15206497703716157
1746475494918346000,5.635345947265625,-0.2381213583767414,0.028092706540226935,0.11873915561642497
1746475494928342800,5.6453427734375,-0.22821488139033316,0.04984568866491317,0.07820857218233868
1746475494938338800,5.6553388671875,-0.2329272968649864,0.0251335644736886,0.04854341042730957
1746475494948335900,5.6653359375,-0.16490297743082047,0.0010354805275797844,0.0028122581088682636
1746475494958332700,5.675332763671875,-0.06913783363401889,-0.0016422142490744589,-0.054742817623284645
1746475494968329000,5.685328857421875,0.016281272715330124,-0.012061024671792984,-0.04768264257924165
1746475494978325800,5.69532568359375,0.04525368469953537,0.0026449615508317946,-0.02679231429903302
1746475494988321800,5.70532177734375,0.042031800043582916,0.04307166448533535,-0.02344816410343628
1746475494998318800,5.71531884765625,-0.01624035618305206,0.0654363487675786,-0.0014115107657387852
1746475495008316000,5.72531591796875,-0.11909633502364157,0.10792290684133768,-0.008174209833703934
1746475495018312000,5.73531201171875,-0.19375147077441215,0.14267945518493652,-0.013090057192277162
1746475495028309000,5.74530908203125,-0.15561434008181094,0.1793041354879737,-0.021526808685995637
1746475495038304800,5.7553046875,-0.07469955941438675,0.1945160254061222,-0.022391243495605884
1746475495048301800,5.7653017578125,-0.0220335526317358,0.1733884817034006,-0.04326001753113232
1746475495058297900,5.7752978515625,0.04697977783977985,0.18868980347067116,-0.06175352293583564
1746475495068294700,5.785294677734375,0.17500410020649432,0.2122480814516544,-0.058289390489226205
1746475495078292000,5.7952919921875,0.21730653388500212,0.1934852210536599,0.012667849724832921
1746475495088287700,5.805287841796875,0.16962766786515712,0.2096913827061653,0.03742363952784799
1746475495098285000,5.81528515625,0.09844985283613204,0.24834990692436693,-0.0005918649459257722
1746475495108280800,5.82528076171875,0.08236205686628818,0.2729986104905605,-0.03207704520234838
1746475495118278000,5.83527783203125,0.11947452068626879,0.2224702002584934,-0.06808299081884324
1746475495128275000,5.84527490234375,0.1435819569826126,0.20266016889512536,-0.11473586565866134
1746475495138271000,5.85527099609375,0.20109891092777252,0.15389438442140815,-0.14928077141242102
1746475495148268000,5.86526806640625,0.308091551181674,0.08739391355365514,-0.16029429632527753
1746475495158264600,5.8752646484375,0.31536066540181634,0.0013859014004468917,-0.10367999944142066
1746475495168262000,5.885261962890625,0.17357669775187967,-0.09746230310350656,-0.0622916301342193
1746475495178258700,5.8952587890625,-0.010366495713591575,-0.07939063984006643,-0.08761484456164761
1746475495188254700,5.905254638671875,-0.1481920811265707,-0.0037692894056439398,-0.11483115185983478
1746475495198251800,5.915251708984375,-0.1870475892215967,0.038088323114812375,-0.09985135366450995
1746475495208247600,5.92524755859375,-0.11812485964298247,0.038624914209544656,-0.06720364156789146
1746475495218244600,5.93524462890625,-0.05849895071983337,-0.009324293184280396,-0.05881915455095004
1746475495228241700,5.94524169921875,-0.07211480361819267,-0.026183073526620863,-0.07033800320401787
1746475495238237700,5.95523779296875,-0.12139701318144798,-0.03703764501810074,-0.08030780948391184
1746475495248234800,5.96523486328125,-0.14980185441076754,-0.043727790306508536,-0.08192971159731968
1746475495258230800,5.975230712890625,-0.18679624480903148,-0.05067191035598516,-0.037071241327025925
1746475495268227600,5.9852275390625,-0.19948153885900974,-0.01251519818007946,0.004537816959572956
1746475495278224000,5.995223876953125,-0.20183365494310854,0.03488631220310926,0.046217552162474015
1746475495288220700,6.005220703125,-0.15342238299548625,0.05395166267901659,0.06295522687579505
1746475495298217700,6.0152177734375,-0.06243336755931377,0.049612464430928226,0.07660179913940374
1746475495308213800,6.0252138671875,-0.010201660540699958,0.0345557650744915,0.07650575031982734
1746475495318210600,6.03521044921875,0.022919103294610974,0.01330547177493572,0.04461371999529656
1746475495328206800,6.045206787109375,0.033219548034667964,-0.024997078612446783,0.01015715467869304
1746475495338203600,6.05520361328125,0.025112813946604726,-0.0645890842884779,0.006104061629297212
1746475495348200400,6.065200439453125,0.02069675107002258,-0.05386661474406719,0.014468702301452866
1746475495358196700,6.07519677734375,0.025239655196666717,-0.0008344049975275993,0.011806876380788162
1746475495368193500,6.085193603515625,0.016881576696038247,0.025564357106387613,0.027150900212046688
1746475495378189600,6.095189453125,-0.015341361516714095,0.02723112127482891,0.049680995055916714
1746475495388186600,6.1051865234375,-0.03115501672029495,0.04001753761172294,0.04768431394651997
1746475495398183700,6.11518359375,-0.03677519468963146,0.0586456657141447,0.03229497140250168
1746475495408179700,6.1251796875,-0.1148994678556919,0.054420156973600385,-0.0028036638104589656
1746475495418176800,6.1351767578125,-0.1850911944568157,0.06695669020265341,-0.03898381064981222
1746475495428172500,6.145172607421875,-0.169653971350193,0.094667703948915,-0.04301763730973471
1746475495438169600,6.155169677734375,-0.1234872634589672,0.11237813268452881,-0.05311579637676477
1746475495448165600,6.16516552734375,-0.05419160891473293,0.10016688588708639,-0.023295663255732506
1746475495458162400,6.175162353515625,0.05469488226175308,0.09461597376167774,0.009584848383185454
1746475495468159700,6.18515966796875,0.13152911561727523,0.10125497338473796,0.028809901199140585
1746475495478155500,6.195155517578125,0.19619886392652988,0.08975567424893378,0.050549279490159825
1746475495488152800,6.20515283203125,0.23104630542397497,0.09123071523755788,0.029076438614260403
1746475495498148600,6.215148681640625,0.21142682819664477,0.09119418261945247,-0.005077408295567147
1746475495508145700,6.225145751953125,0.15523849250674246,0.07316898884624243,0.03639705012619961
1746475495518142700,6.235142822265625,0.0914022724121809,0.08352525542676448,0.03059755636746995
1746475495528138800,6.245138671875,0.0073883566856384275,0.09943097282797098,0.011211006546602583
1746475495538135800,6.2551357421875,-0.04128945724368095,0.12493512417972087,0.02008934606167022
1746475495548131600,6.265131591796875,-0.04906593646407127,0.11214052453637123,0.04308805849771015
1746475495558128600,6.275128662109375,-0.020873861202597616,0.11540566381216048,0.05141478287884965
1746475495568125700,6.285125732421875,0.015232640445232391,0.10554974796921014,0.04278524875938892
1746475495578121700,6.295121826171875,0.04406535169780254,0.08846446539461612,0.051389182646712286
1746475495588118500,6.305118408203125,-0.008122516179084778,0.07264817984253168,0.05590766015157569
1746475495598114800,6.31511474609375,-0.057741410350799556,0.0698217242449522,0.05907529843621887
1746475495608111600,6.325111572265625,-0.07687339632213115,0.09452478834688663,0.07999646024610847
1746475495618107600,6.335107666015625,-0.07288695703446865,0.10156126285493373,0.10173420826904475
1746475495628104700,6.345104736328125,-0.04427694862186909,0.1293137776553631,0.1153770405058749
1746475495638101500,6.3551015625,0.013875380617380141,0.11888210775107144,0.09559678322626278
1746475495648097800,6.365097900390625,0.06592588585019112,0.07519464945495129,0.09750614224523306
1746475495658094600,6.375094482421875,0.07310849083065986,0.03877688990086317,0.07745143367210403
1746475495668090600,6.385090576171875,0.0051256724506616586,0.0018345219507813453,0.027428584642265923
1746475495678087700,6.395087646484375,-0.12543605943918226,0.01265460665076971,0.03500240373029374
1746475495688084500,6.40508447265625,-0.2732213133305311,0.08630757962167263,0.043725698814122006
1746475495698080800,6.415080810546875,-0.34886078394353387,0.1738698354795575,0.03765430191198829
1746475495708077600,6.42507763671875,-0.3665788114637136,0.23437018914967775,0.052639808328892104
1746475495718073600,6.435073486328125,-0.3223176449328661,0.23145313265919684,0.042116149292211046
1746475495728070700,6.445070556640625,-0.22665303890109062,0.21651538350731134,0.05251565222626086
1746475495738067700,6.455067626953125,-0.13316577690839768,0.17712328431755303,0.025733658391842617
1746475495748063500,6.4650634765625,-0.07034720942378044,0.13383476221114396,-0.00674103522542864
1746475495758060800,6.475060791015625,-0.026636077991127965,0.11542349172979592,-0.057089723242726174
1746475495768056600,6.485056640625,0.04103109856843948,0.1399675658777356,-0.08998051424706355
1746475495778054000,6.495053955078125,0.09596972645819186,0.159739603318274,-0.11534802447394467
1746475495788050700,6.50505078125,0.1398445240199566,0.12655395755320786,-0.11612323749698698
1746475495798046500,6.51504638671875,0.15699439626336098,0.07852613196521997,-0.07788428126457146
1746475495808043800,6.525043701171875,0.1129869122326374,0.048970367135107516,-0.06710924128270708
1746475495818039600,6.53503955078125,0.04852291562855243,0.03838964414894581,-0.07819144751760176
1746475495828036600,6.54503662109375,-0.04168576308488846,0.022186697366833687,-0.09926622898662463
1746475495838033700,6.55503369140625,-0.04070844248533249,-0.00833586666882038,-0.08431414078213274
1746475495848029700,6.56502978515625,0.038081601113080975,-0.03797112647593021,-0.07223164863062556
1746475495858026800,6.57502685546875,0.11122340969145297,-0.04716448675692081,-0.050227070931624616
1746475495868022800,6.585022705078125,0.14041677094995975,-0.06147621296495199,-0.03030098229040159
1746475495878019600,6.59501953125,0.1166775834441185,-0.1120174826785922,-0.007216731012356467
1746475495888016600,6.6050166015625,-0.0016658873856067657,-0.13669248972982168,0.0007472861197893507
1746475495898012700,6.6150126953125,-0.09708557874560356,-0.11735738240182399,-0.0013839240724919362
1746475495908009700,6.625009765625,-0.18681494950950145,-0.09289046514332294,0.00887059460002929
1746475495918005800,6.635005859375,-0.283930338871479,-0.058527592292428016,0.03476001437574159
1746475495928002600,6.64500244140625,-0.3308101634681225,-0.04142798893153667,0.031495021230424754
1746475495937998800,6.654998779296875,-0.2446522214502096,-0.03595890987068415,0.022117541120760142
1746475495947995600,6.66499560546875,-0.1898795977771282,-0.07956833449453116,0.04428867559228092
1746475495957992400,6.674992431640625,-0.20411738196611404,-0.12124182261973619,0.03072927472204901
1746475495967988700,6.68498876953125,-0.22381869225800036,-0.08543108904808759,0.0056320921694161365
1746475495977985500,6.694985595703125,-0.17711714683771132,-0.05405892244577407,0.004713662150246091
1746475495987981600,6.704981689453125,-0.10750234334170818,-0.05117226109355688,0.06332206002734601
1746475495997978600,6.714978515625,-0.07975859636962414,-0.02007423525750637,0.1320737073553726
1746475496007975700,6.7249755859375,-0.07838555445075035,0.0479340098246932,0.14249744968153535
1746475496017971700,6.7349716796875,-0.0846270791888237,0.10477496420443057,0.09971249318309128
1746475496027968800,6.74496875,-0.04619067328870296,0.11853636305332182,0.054643567633046765
1746475496037964500,6.754964599609375,0.015302198550105095,0.10970219147354364,-0.014370488924253732
1746475496047961600,6.764961669921875,0.09801906020343303,0.11047639071643352,-0.0336246308373753
1746475496057958700,6.774958740234375,0.15861469094157218,0.10981208158880472,-0.04070493992057163
1746475496067954700,6.78495458984375,0.17201777787208555,0.12036124039292335,-0.03805194119375665
1746475496077951700,6.79495166015625,0.16994740133881567,0.13806319356113672,-0.031439546449831685
1746475496087947500,6.804947509765625,0.12678747404813764,0.16007044270783663,-0.011271993185952305
1746475496097944800,6.81494482421875,0.005182371073961258,0.2024517868414521,-0.01402082610321231
1746475496107941600,6.824941650390625,-0.06705459761917591,0.19760376228839158,-0.031665349995763974
1746475496117937700,6.834937744140625,-0.04312485597729682,0.16456249343007803,-0.03296196111098397
1746475496127934700,6.844934814453125,0.045883799296617504,0.12291940044313668,-0.036277519966335964
1746475496137930800,6.8549306640625,0.1193307283014059,0.09236761031299828,-0.048570837290352206
1746475496147927800,6.864927734375,0.15313655179142951,0.03321750220805406,-0.07524474024095107
1746475496157924000,6.874924072265625,0.08995908786654472,-0.007215922728180885,-0.0918281422745902
1746475496167920000,6.884920166015625,0.01488894157409668,-0.005483984369039535,-0.09451815767670049
1746475496177917200,6.894917236328125,-0.04215162703096866,0.011558043585717678,-0.05999259137765038
1746475496187913200,6.904913330078125,-0.0978898808658123,0.029124972197413442,-0.015692070083948784
1746475496197910000,6.914909912109375,-0.09342121101915836,0.05410919132828712,0.039055898638488726
1746475496207907000,6.924906982421875,-0.11510229695141315,0.04835281975865364,0.052692232635873366
1746475496217903000,6.934903076171875,-0.16169979747533797,0.020089140565693376,0.022613101518782784
1746475496227900200,6.944900146484375,-0.15499591592252254,-0.008224222987890243,-0.039382692040596155
1746475496237896200,6.954896240234375,-0.0775467655390501,-0.07655190928280353,-0.10591763143353164
1746475496247893000,6.96489306640625,-0.018283260187506676,-0.12104893039613962,-0.10620636698072776
1746475496257890300,6.974890380859375,0.017773557099699973,-0.14967793577015398,-0.08717048006132244
1746475496267886000,6.984885986328125,-0.06673194153606891,-0.1341045190632343,-0.06124741374433506
1746475496277883100,6.994883056640625,-0.17189269018769263,-0.05262625929415226,-0.08208258233778178
1746475496287879200,7.004879150390625,-0.22805589143633842,0.022796645958721638,-0.08700107831116766
1746475496297876200,7.014876220703125,-0.2067547447323799,0.0304208572268486,-0.0810163961446844
1746475496307873300,7.024873291015625,-0.11018939046859741,0.01746872893422842,-0.07633823456608224
1746475496317869300,7.034869384765625,0.028850831431150435,-0.020509996326267717,-0.08785102793769911
1746475496327866000,7.0448662109375,0.15973697296977044,-0.04881020813733339,-0.0936354748243466
1746475496337862100,7.054862060546875,0.18691373370885847,-0.04487140738368034,-0.1435465386093594
1746475496347859200,7.064859130859375,0.15126140556931494,-0.01599602603316307,-0.19355519928364082
1746475496357855000,7.07485498046875,0.049580315726995464,0.0068967737764120095,-0.19338543220730497
1746475496367852300,7.084852294921875,-0.05561901136934757,0.05646159967333078,-0.17556376164956017
1746475496377849000,7.09484912109375,-0.09780395614802836,0.10310235481709241,-0.13927425898448564
1746475496387845400,7.104845458984375,-0.08216390394568443,0.12487871781736612,-0.06351018017770256
1746475496397842200,7.11484228515625,-0.06709025345444679,0.10123889903277158,0.01708483505002223
1746475496407838200,7.124838134765625,-0.06980301954448223,0.11444967826157808,0.059379701910004946
1746475496417835300,7.134835205078125,-0.07304419342279433,0.10894318979978561,0.07966447921223006
1746475496427832000,7.14483203125,0.00037117139995098113,0.10726970362961291,0.07484678586535155
1746475496437828000,7.154828125,0.08007540723383426,0.08839403050690889,0.09239810591596179
1746475496447825200,7.1648251953125,0.11040566356778145,0.037407062852382655,0.13488321181815116
1746475496457821200,7.1748212890625,0.10277531481981277,0.02124970877766609,0.10774914857647382
1746475496467818200,7.184818359375,0.056384735044836994,0.04498538915216922,0.10152817343608475
1746475496477815000,7.19481494140625,-0.054370472612977026,0.04928600895553827,0.0981096793626435
1746475496487811000,7.20481103515625,-0.13329437172412872,0.08772007676810026,0.0701168986660894
1746475496497808100,7.21480810546875,-0.11863456273078918,0.1287426997691393,0.07938220080528408
1746475496507804200,7.22480419921875,-0.07150047111213206,0.1256152153983712,0.1038803351859562
1746475496517801000,7.234801025390625,-0.0052110126465559,0.12314239554405211,0.13011230762191117
1746475496527798300,7.24479833984375,0.04684124615192413,0.09228080881237984,0.16243059596791862
1746475496537794000,7.2547939453125,0.05700608181357383,0.0820171889513731,0.19550061599668114
1746475496547791400,7.264791259765625,-0.005913023436069489,0.08499941963255404,0.20295706948246806
1746475496557787100,7.274787109375,-0.11245675087869167,0.12842647342681884,0.19090952534675598
1746475496567784200,7.2847841796875,-0.20454232937991618,0.1419745217859745,0.16129307983797042
1746475496577781200,7.29478125,-0.2656453251183033,0.1340793846219778,0.12228282870580441
1746475496587777000,7.304777099609375,-0.3158931648433208,0.13649316776543854,0.09894507074085995
1746475496597774300,7.3147744140625,-0.3266846079707145,0.14094284065067766,0.04596980621279217
1746475496607770000,7.32477001953125,-0.212998607558012,0.1316045189410448,-0.012222370979655534
1746475496617767200,7.33476708984375,-0.06784545573592185,0.10000994175970554,-0.03546940932068974
1746475496627763200,7.34476318359375,0.034200960287451745,0.04281710520237684,-0.01848771498473361
1746475496637760300,7.35476025390625,0.07310323013365268,0.019243629652261732,-0.06003880057297647
1746475496647757000,7.364757080078125,0.12176058579683303,0.04479775762557983,-0.11004033738672733
1746475496657753300,7.37475341796875,0.12378069344758987,0.005075695829093456,-0.07202886976725421
1746475496667750100,7.384750244140625,0.07731938652396202,-0.019789573097229004,-0.015218876781361176
1746475496677746200,7.39474609375,0.0044505496680736535,0.05071107332259416,0.014438503526011481
1746475496687743200,7.4047431640625,-0.04277706545293331,0.1124400920048356,0.01754192203460261
1746475496697740000,7.414739990234375,-0.027435119414329526,0.12978081064522265,0.028060000713868063
1746475496707736300,7.424736328125,0.032439795833826064,0.10321604432463645,0.03512886138786562
1746475496717733000,7.434733154296875,0.0933668504834175,0.05204495227485895,0.00205122430822812
1746475496727729200,7.444729248046875,0.10131576366126537,-0.00003682487905025482,-0.07419772910578176
1746475496737726200,7.454726318359375,0.0955284124314785,-0.04941927994638681,-0.12705395209775305
1746475496747723000,7.464722900390625,0.03032850276827812,-0.0779579766884446,-0.16292824329175054
1746475496757719300,7.47471923828125,-0.09056289897859096,-0.056524728037416934,-0.15676413117144256
1746475496767716000,7.484716064453125,-0.1739689119398594,0.021093933694064617,-0.14482938149413094
1746475496777712000,7.494712158203125,-0.17426643358170985,0.07086831068843602,-0.1313819074326195
1746475496787709200,7.504709228515625,-0.14704057300388812,0.06341857920438052,-0.1124688249089755
1746475496797705200,7.514705322265625,-0.055717795568704605,0.06447831739038229,-0.08817297163475304
1746475496807702000,7.524701904296875,0.047403556209802626,0.043564124177396295,-0.09488663479606621
1746475496817699000,7.534698974609375,0.10500000513195991,0.01619768608510494,-0.088811169073591
1746475496827695000,7.544695068359375,0.08151625369191169,-0.004373977300524711,-0.08987635061969049
1746475496837692200,7.554692138671875,-0.04457973096072673,0.007400339384377002,-0.12374152134782634
1746475496847688200,7.564688232421875,-0.16017653343081473,0.02169979063272476,-0.12789077738123014
1746475496857685000,7.57468505859375,-0.21444354566931723,0.029328093554079532,-0.09384724527834915
1746475496867682300,7.584682373046875,-0.20605039585530757,0.04245031771659851,-0.02254076236835681
1746475496877678000,7.594677978515625,-0.15358312651515005,0.07735942627340554,0.021025371103035286
1746475496887675100,7.604675048828125,-0.021392332118749618,0.10937339791059493,0.025978755726711822
1746475496897671200,7.614671142578125,0.11890285827815532,0.07601268783956766,0.03222914875783026
1746475496907668200,7.624668212890625,0.16376608235538004,0.03081862437278032,0.0004230385845061391
1746475496917664000,7.6346640625,0.18108020524978638,-0.009276070128381251,-0.052047920550080014
1746475496927661000,7.6446611328125,0.18606266983747483,-0.034844226627051826,-0.06898044198206625
1746475496937658000,7.654658203125,0.11329670883417128,-0.05781535236984491,-0.012874916604254393
1746475496947654100,7.664654052734375,-0.027210078486800193,-0.009080839817225933,-0.019521985369338652
1746475496957651200,7.674651123046875,-0.12374562213420867,0.09324234732091426,-0.09458848296655341
1746475496967647000,7.68464697265625,-0.19646482138633728,0.10384294405132531,-0.1162526542966254
1746475496977644300,7.694644287109375,-0.18951544063985346,0.061060325640439984,-0.09626284591956064
1746475496987640000,7.70464013671875,-0.17777882561683653,0.031069968785345552,-0.05983952427436597
1746475496997637400,7.714637451171875,-0.1575368325769901,0.04205722674578428,-0.03797791240974329
1746475497007634200,7.72463427734375,-0.10454173997044562,0.03972235405743122,-0.04003474447485059
1746475497017630200,7.734630126953125,-0.020470541098713872,0.016760288403928278,-0.004870099387550726
1746475497027627300,7.744627197265625,0.01246376025378704,-0.03158376352638006,0.02657764406846836
1746475497037623000,7.754623046875,0.02564648243188858,-0.010656418570876122,0.04311788738039322
1746475497047620000,7.7646201171875,0.02258943294882774,-0.006732230864465236,0.022769356092996892
1746475497057617200,7.7746171875,0.03411912722289562,0.0051990299478173255,0.019011775391455737
1746475497067613200,7.78461328125,0.05536883600056171,0.024862346316874027,-0.0030270470704417676
1746475497077610200,7.7946103515625,0.058169280374050135,0.02909545384198427,-0.027842512905132025
1746475497087606300,7.804606201171875,0.011413374418020247,0.03156710465252399,-0.04261023011920042
1746475497097603000,7.81460302734375,-0.08437105860114097,0.04689443764388561,-0.04764787722653709
1746475497107599400,7.824599365234375,-0.1492985810637474,0.06801262899637221,-0.04282331574745476
1746475497117596200,7.83459619140625,-0.1861293053328991,0.10616086560487746,-0.05032401936692185
1746475497127593200,7.84459326171875,-0.16406126590967177,0.12986527405828235,-0.030325863286620004
1746475497137589200,7.85458935546875,-0.07030453932583332,0.1249272331342101,0.018258445406658573
1746475497147586000,7.8645859375,0.04297755646109581,0.09451339017003774,0.07692865190701559
1746475497157582000,7.87458203125,0.09462006541490554,0.08805851494222879,0.08227811404303648
1746475497167579100,7.8845791015625,0.0919599062949419,0.08921236115247011,0.04584687395286746
1746475497177576200,7.894576171875,0.09835457576811313,0.09450316103696822,-0.00832823135163635
1746475497187572200,7.904572265625,0.09474281501173973,0.08214227663576602,-0.020926851765159515
1746475497197569000,7.914569091796875,0.09297463629543781,0.08422785073816776,-0.020287731877714394
1746475497207565000,7.92456494140625,0.0937415290147066,0.09480623563677072,-0.0388898487560451
1746475497217562000,7.93456201171875,0.04371873021721839,0.09353168565630912,-0.05538073650090955
1746475497227558100,7.94455810546875,-0.017602292186021804,0.03742781337946653,-0.03416640956387855
1746475497237555200,7.95455517578125,-0.11418985828161239,0.04138356526792049,-0.0052535640134941785
1746475497247552300,7.96455224609375,-0.15890227571129797,0.10203735593408346,-0.008449364380119367
1746475497257548000,7.974548095703125,-0.15137071116268633,0.14960136340260505,-0.002935806856723502
1746475497267545300,7.98454541015625,-0.06364098978340625,0.11230214483886956,0.02710403342959471
1746475497277541000,7.994541015625,0.04786182137131691,0.0893757350206375,0.06405836581210606
1746475497287538200,8.0045380859375,0.14076806860566138,0.046695407940447325,0.04789582410561852
1746475497297534200,8.0145341796875,0.15439678098559378,0.0018713468298316,-0.02542490296992473
1746475497307531000,8.024531005859375,0.14752747973799704,-0.0909770327374339,-0.06168039376754313
1746475497317528300,8.0345283203125,0.014100421544909477,-0.11865560551881789,-0.04845564994546585
1746475497327524000,8.044524169921875,-0.12199088742136954,-0.06974836674779653,-0.016085987605247647
1746475497337521200,8.054521240234376,-0.2490969258993864,0.018321546371281146,0.029872667025867848
1746475497347517200,8.06451708984375,-0.2998240735739469,0.07698387095928191,0.05998953633746132
1746475497357514200,8.07451416015625,-0.29507950939536093,0.10778554419726133,0.05924617062425241
1746475497367511300,8.08451123046875,-0.23486381788551805,0.0768318952679634,0.04013727326756343
1746475497377507300,8.09450732421875,-0.14925883357524872,0.03283580941408872,0.006521528989542275
1746475497387504000,8.104504150390625,-0.04914835405051708,0.001339139649271965,-0.028597276795189825
1746475497397500200,8.114500244140626,0.04403787916898727,0.0034708909809589386,-0.0604478014989756
1746475497407497200,8.124497314453125,0.06443009433448314,-0.011100947467982769,-0.042509226563293485
1746475497417493000,8.134492919921875,-0.002362052956223488,0.013686287786066531,-0.004460641803825274
1746475497427490300,8.144490234375,-0.05240764810740947,0.048806993266940116,0.00997872937186621
1746475497437487000,8.154487060546876,-0.0801040488064289,0.07727145572900772,0.011048934152955188
1746475497447483100,8.164483154296875,-0.09151742322444915,0.07759411181211472,0.028467622533533722
1746475497457480200,8.174480224609376,-0.056874564388394354,0.06540156971514224,0.03130522057963535
1746475497467476200,8.184476318359375,0.00980593922138214,0.07517682153731584,0.008474845881247892
1746475497477473300,8.194473388671875,0.06515548599958419,0.0561363132417202,-0.0037004345536697653
1746475497487469300,8.20446923828125,0.0783399617433548,0.03028349458277225,-0.031434500381955874
1746475497497466000,8.214466064453125,0.028549218136072158,0.02979308071732521,-0.07154613688476383
1746475497507463200,8.224463134765625,0.04724047460258007,0.05699848302900791,-0.11995209333645179
1746475497517459200,8.234459228515625,0.051396425238251685,0.043019934298098084,-0.08872250440944918
1746475497527456000,8.2444560546875,0.0615343728929758,0.021484978838264942,-0.03814900379348546
1746475497537452300,8.254452392578125,0.06753332104682921,0.050019876188039776,0.006320608723117039
1746475497547449000,8.264448974609374,0.04231587768197059,0.08085691300034523,0.01660707973674871
1746475497557445000,8.274445068359375,-0.008550386202335357,0.09648673606961965,0.012315547422133385
1746475497567442200,8.284442138671874,-0.07333060914874076,0.10531886182278394,-0.013908981492882593
1746475497577439000,8.29443896484375,-0.11546236243546008,0.10765285772830248,-0.02130876375483349
1746475497587435300,8.304435302734374,-0.14849310989975928,0.1004296284765005,-0.016406853590067477
1746475497597432000,8.31443212890625,-0.14297873039245604,0.07463906139880418,0.022941433857427907
1746475497607428000,8.324427978515626,-0.11714286286830901,0.06880465615689754,0.040125391033524645
1746475497617425200,8.334425048828125,-0.10260872608125209,0.07139233456254004,0.04691803771518171
1746475497627421200,8.344421142578126,-0.0963993500471115,0.07018792720884084,0.03775521870292723
1746475497637418200,8.354418212890625,-0.035163667839765544,0.07208353169709443,0.030815738295949992
1746475497647415000,8.3644150390625,0.017826748591661452,0.096349957947433,0.057361498521966856
1746475497657411000,8.3744111328125,0.05845452705621719,0.089522157754004,0.08640177897745743
1746475497667408100,8.384408203125,0.07628127564787865,0.08292582822889089,0.07200329236800317
1746475497677404200,8.394404052734375,0.07093173131346703,0.09294862507134675,0.021552313020010476
1746475497687401000,8.40440087890625,0.0008598316997289657,0.07269348028898238,-0.026173109255032613
1746475497697398300,8.414398193359375,-0.04395604610443115,0.060307753707468506,-0.07452920324958395
1746475497707394000,8.42439404296875,-0.07125321835279465,0.06329992126077413,-0.10571863826271145
1746475497717391400,8.434391357421875,-0.050125090128183364,0.08219605264961719,-0.06640101538153831
1746475497727387100,8.44438720703125,-0.032518121767044064,0.09208207136988639,-0.04036137348017655
1746475497737384200,8.45438427734375,0.0017220014870166778,0.11780220355987549,0.011291647734493017
1746475497747380200,8.464380126953126,-0.012365560576319694,0.1116185464888811,0.05250025372772943
1746475497757377000,8.474376953125,-0.010575170028209686,0.0885810775116086,0.08821575133055448
1746475497767374300,8.484374267578126,-0.0006868132203817367,0.08805062389671801,0.09253198882816359
1746475497777370000,8.4943701171875,0.007304185533523559,0.07136398525089024,0.09708384344624355
1746475497787367200,8.5043671875,0.01306932493150234,0.03877192146480083,0.08672083659768104
1746475497797363000,8.514363037109375,-0.006741875475645065,0.040865094351768494,0.07489520071749575
1746475497807360300,8.5243603515625,-0.057099020794034,0.04405950647890568,0.02959311029897071
1746475497817356000,8.53435595703125,-0.08586743463873862,0.025110768119990825,-0.010667561019398272
1746475497827353300,8.544353271484376,-0.09288403540253638,-0.014681436303257942,-0.04900528318486176
1746475497837350100,8.55435009765625,-0.08026771493554115,-0.027192835091054437,-0.0973481569382362
1746475497847346200,8.56434619140625,-0.06625555619597434,-0.0194715931892395,-0.12294340237323194
1746475497857343200,8.57434326171875,-0.05369827243983745,-0.040427871978282924,-0.11092369609251618
1746475497867339000,8.584339111328125,-0.0867313579916954,-0.02622808171212673,-0.09356166066946461
1746475497877336300,8.59433642578125,-0.10999006850421428,0.021423019517958164,-0.09858330649007112
1746475497887332000,8.60433203125,-0.09160100985467433,0.020986966188251972,-0.09754311325475573
1746475497897329200,8.6143291015625,-0.03537409572005272,-0.008446925827860831,-0.04822654019759502
1746475497907326200,8.624326171875,0.0373573784917593,-0.01882978815436363,-0.0353108760244213
1746475497917322200,8.634322265625,0.08476794896423816,0.004337736943364143,-0.028842150367773135
1746475497927319000,8.644319091796875,0.10513736777603626,0.01969078889787197,-0.06126381232328713
1746475497937315300,8.6543154296875,0.0666495239496231,-0.0150187054336071,-0.07616241677487269
1746475497947312000,8.66431201171875,-0.01871054568886757,-0.020303660099208354,-0.09141283947196789
1746475497957308200,8.67430810546875,-0.12404255925416946,0.0007154547929763794,-0.11602310159076004
1746475497967305200,8.68430517578125,-0.1583960797548294,0.05753770447224378,-0.11414982766532339
1746475497977302000,8.694302001953124,-0.12809388047158718,0.06998685167878865,-0.09055888039059937
1746475497987298300,8.70429833984375,-0.03388181133568287,0.07837824792712926,-0.035732407638430594
1746475497997295000,8.714295166015624,0.02308569203317165,0.07721212675720453,-0.030100687645061405
1746475498007291100,8.724291015625,0.06837444804608822,0.04202010960578918,-0.03923714609006419
1746475498017288200,8.7342880859375,0.0986959365516901,0.029929566578567025,-0.031907485905278005
1746475498027285000,8.744284912109375,0.07521393867731094,0.012697569009661673,-0.011211680116748902
1746475498037281300,8.75428125,-0.024991233393549916,0.012647007866203784,-0.028506518355372826
1746475498047278000,8.764278076171875,-0.09542845918834209,0.022871172499656676,-0.088900409126468
1746475498057274000,8.774274169921876,-0.108289694327116,0.03029489275962114,-0.09843579691131599
1746475498067271200,8.784271240234375,-0.05091711728870869,0.050582770767807955,0.0036939842632855288
1746475498077267200,8.79426708984375,-0.04274783935844898,0.041166999907791615,0.08713232174171134
1746475498087264000,8.804263916015625,-0.08748831383883952,0.012732348062098026,0.1172136265495792
1746475498097261300,8.81426123046875,-0.14837854360938071,0.02683803030401468,0.1173404038675595
1746475498107257000,8.824257080078125,-0.20209961240291593,0.07495704130679369,0.08883133507878518
1746475498117254100,8.834254150390626,-0.14274725972414015,0.1114572184473276,0.05739604467896279
1746475498127250200,8.844250244140625,-0.0796031135469675,0.07065905185192824,0.060233565093250944
1746475498137247000,8.8542470703125,0.008196165937185288,0.0313031930193305,0.05244631788367405
1746475498147243300,8.8642431640625,0.09355448201000689,0.014958791939914225,0.01927931973686209
1746475498157240600,8.874240478515626,0.12366495811343192,-0.038084815983474254,0.03467398690996924
1746475498167237600,8.884237548828125,0.07834580696225166,-0.025258359897136685,0.030456284733256324
1746475498177233700,8.894233642578126,0.010496259573101997,0.016750936053693294,-0.037371322535432405
1746475498187230500,8.90423046875,-0.06734568952023982,0.05657295109331607,-0.09134008476301096
1746475498197226500,8.9142265625,-0.0880734202504158,0.05283142647743225,-0.09806034206189215
1746475498207223600,8.9242236328125,-0.09720715929865836,0.03721826228201389,-0.06986188272540457
1746475498217219600,8.934219482421875,-0.09067337361574172,0.04524900852441788,-0.05118393783161882
1746475498227216600,8.944216552734375,-0.0764706607401371,0.052421384371817106,-0.03234998039221391
1746475498237213700,8.954213623046876,-0.08221651091575623,0.05534370155930519,0.006541713261045515
1746475498247209500,8.96420947265625,-0.08391513152718544,0.06741641666889191,0.01788577616936527
1746475498257206800,8.974206787109376,-0.04457739287316799,0.05923223343044519,0.016695685035386123
1746475498267202600,8.98420263671875,0.039271687680482864,0.03960661872327328,0.0494645210273331
1746475498277199600,8.99419970703125,0.11870470535755157,0.015486322945356368,0.10092894716761075
1746475498287196700,9.00419677734375,0.1113484973758459,0.02481120065152645,0.11436461206031963
1746475498297192400,9.0141923828125,0.08106558731496334,0.05958440786898136,0.06728134188002441
1746475498307189800,9.024189697265625,0.04693301608860492,0.062139353048801416,0.009959935623139607
1746475498317185500,9.034185546875,0.0196457807123661,0.050497430571913714,0.010110343836812535
1746475498327182600,9.0441826171875,-0.02172901672720909,0.06618073739409447,0.007152397071872837
1746475498337178600,9.0541787109375,-0.047962359136343,0.05978226852864027,0.018634487061260734
1746475498347175700,9.06417578125,-0.05893968022465706,0.09305325448960065,0.05551615834964905
1746475498357172700,9.0741728515625,-0.07762158434092999,0.12805296393930912,0.0793988779454492
1746475498367168800,9.084168701171874,-0.07521393867731094,0.15185411076545716,0.11535253625228069
1746475498377165600,9.09416552734375,-0.10353811588585377,0.125203419727087,0.1337944758665282
1746475498387161900,9.104161865234374,-0.11388707594275474,0.13131810321509838,0.10668659737887792
1746475498397158700,9.11415869140625,-0.09483341590464114,0.12639525986015795,0.055644319340540094
1746475498407154700,9.12415478515625,-0.05799509285092354,0.08442688044160604,0.02032496089885244
1746475498417151700,9.13415185546875,-0.02730827816426754,0.06827566384673119,0.008897496306686662
1746475498427148500,9.1441484375,-0.01300268943607807,0.037274668644368646,-0.0068856370361114385
1746475498437144600,9.15414453125,-0.045669279763102526,0.012967325861752033,0.023832720141345635
1746475498447141600,9.1641416015625,-0.12132803959846496,0.042886663307249544,0.03521277909494238
1746475498457137700,9.1741376953125,-0.12519757450819013,0.0678626991316676,0.00672811751999543
1746475498467134700,9.184134765625,-0.07436521289348602,0.054979544422030444,0.004420216178603004
1746475498477130800,9.194130859375,-0.0028927988320589064,0.03029752310812473,0.03855362993846647
1746475498487127600,9.20412744140625,0.08125731049478054,0.04141629849374294,0.0121678095145151
1746475498497124600,9.21412451171875,0.15668226157426834,0.01820055034011602,-0.043079441366414534
1746475498507120600,9.22412060546875,0.21017010613381862,-0.014344751694798468,-0.06949097618693485
1746475498517117700,9.23411767578125,0.16999708569943903,-0.051640755388140676,-0.07944980441508814
1746475498527113700,9.24411376953125,0.01752455077469349,-0.0363663216277957,-0.1100310763680376
1746475498537110500,9.254110595703125,-0.08756430168449879,0.017314707416296003,-0.13468842903156764
1746475498547106600,9.2641064453125,-0.13615677541792393,0.05292056606560945,-0.12935078519750387
1746475498557103600,9.274103515625,-0.1359521927565336,0.061548401418328284,-0.05443665601725224
1746475498567100400,9.284100341796876,-0.17369477117359639,0.04168956247717142,-0.03167216789561789
1746475498577096700,9.2940966796875,-0.23096564140319822,0.05564326902776956,-0.04250002491010818
1746475498587093500,9.304093505859376,-0.24106267252564428,0.07702011131644249,-0.08257181802629493
1746475498597089500,9.314089599609375,-0.16198095250427721,0.039271103158593175,-0.12185926039833575
1746475498607086600,9.324086669921876,-0.042188451910018916,0.011854396183788776,-0.09709505896000191
1746475498617083600,9.334083740234375,0.050884968584775925,-0.03976736224293709,-0.06731512085204013
1746475498627079700,9.34407958984375,0.017309446719288826,-0.03238894242942333,-0.04453906102362089
1746475498637076700,9.35407666015625,-0.09006371728479862,0.0007315291449427605,-0.04664610717231407
1746475498647072500,9.364072509765625,-0.14190671724677084,0.05507686731666326,-0.06980680980361066
1746475498657069600,9.374069580078125,-0.13439853357374668,0.06442863302975893,-0.06930386525015346
1746475498667065600,9.384065673828125,-0.07168751811683177,0.0502846646040678,-0.05907833977667615
1746475498677062400,9.3940625,0.026899697363376617,0.03888414966762066,-0.06053925177524797
1746475498687059700,9.404059814453126,0.12446867571175098,0.03086655516773462,-0.05035355598866008
1746475498697055500,9.414055419921874,0.18345219507813454,0.028837679688632486,-0.04273888886701315
1746475498707052800,9.424052734375,0.1866997986972332,0.019245383217930793,-0.02890234698925633
1746475498717048600,9.434048583984374,0.10151333205997944,0.005336684852838516,0.006322139668144518
1746475498727045600,9.444045654296875,-0.04241407735943794,0.03390402316749096,0.04578886928847059
1746475498737041700,9.454041748046874,-0.14117080418765543,0.08836392762959003,0.05636603947752155
1746475498747038700,9.464038818359375,-0.15236849002838135,0.14648703077435493,0.06749135420178062
1746475498757035800,9.474035888671875,-0.08654957168400287,0.1646028254404664,0.07903009943198412
1746475498767031600,9.484031494140625,-0.007962357181310654,0.10824410161972045,0.04135082747552078
1746475498777028600,9.494028564453124,0.08499532797932624,0.04665361462533474,-0.006013283210704685
1746475498787024600,9.504024658203125,0.08821838167905807,0.009937748907506466,-0.055388472282793366
1746475498797021700,9.514021728515624,0.02039747586250305,-0.012889584450423716,-0.07679330769008956
1746475498807017500,9.524017578125,-0.12504150716364382,0.02289747598469257,-0.11197788132056594
1746475498817014800,9.534014892578124,-0.2531862410396337,0.1025710244193673,-0.14162090430902316
1746475498827011600,9.544011474609375,-0.2432978842318058,0.15110124657154084,-0.14920169656053184
1746475498837007600,9.554007568359374,-0.16781038931012152,0.12222411165535449,-0.10791797493789344
1746475498847004700,9.564004638671875,-0.12389175260663032,0.05532587364166975,-0.04109295742404647
1746475498857000700,9.574000732421876,-0.08926642942726612,0.030374387736618515,-0.04739161917683668
1746475498866997800,9.583997802734375,-0.04243453562557697,0.050076282550394535,-0.058152402304485436
1746475498876994600,9.59399462890625,0.05595101980268955,0.04625087904334068,-0.055658046471793204
1746475498886990600,9.603990478515625,0.14373568623960017,0.014442366850376129,0.00013244643824145895
1746475498896987600,9.613987548828124,0.13805413347184659,0.003573182311654091,0.022230310462985653
1746475498906983700,9.623983642578125,0.132402391320467,0.025506489439308642,0.01420378716290579
1746475498916980500,9.63398046875,0.11929273437857627,0.056765551055967804,-0.01789593908706447
1746475498926976800,9.643976806640625,0.13578618853986263,0.05056318928450346,-0.019293097100465093
1746475498936973600,9.6539736328125,0.1251560734540224,0.0198725752055645,-0.005745321594300913
1746475498946970600,9.663970703125,0.04436053525209427,0.0026686346873641014,0.019757917583640663
1746475498956966700,9.673966552734376,-0.09917232189178467,0.055341655732691286,0.0012737439795746468
1746475498966963500,9.68396337890625,-0.14719196417331695,0.11792816802710294,-0.002695394830126315
1746475498976959700,9.693959716796876,-0.14641981075704097,0.14177315399497747,0.03659074150081724
1746475498986956500,9.70395654296875,-0.12506605708301066,0.14402093292176724,0.09057380396509543
1746475498996952600,9.71395263671875,-0.12853460997641086,0.12241904970556497,0.11676697876062243
1746475499006949600,9.72394970703125,-0.15838848097026348,0.08606675660312176,0.12865372457774354
1746475499016946400,9.733946533203126,-0.20270634612441063,0.08832301109731197,0.12028878707806578
1746475499026942700,9.743942626953125,-0.2202747360408306,0.0922907456845045,0.10069520234381779
1746475499036939500,9.753939453125,-0.20622925955355167,0.10990122117698192,0.11015296744834631
1746475499046935600,9.763935546875,-0.15084054980874062,0.11610124486088752,0.08744343351749703
1746475499056932600,9.7739326171875,-0.08814239383339881,0.08558043439090252,0.03829899074040586
1746475499066928600,9.7839287109375,-0.09746434893012046,0.03621434593647718,-0.009853892849222756
1746475499076925400,9.793925537109375,-0.07505144159197807,-0.0011725509107112884,-0.08515364207988604
1746475499086922800,9.8039228515625,0.007729717469215393,-0.02624503284692764,-0.12313869661646894
1746475499096918500,9.81391845703125,0.12304010421335697,-0.038815468345582485,-0.09438619272694923
1746475499106915800,9.823915771484375,0.23701719652712344,-0.0290004690349102,-0.06063087558145634
1746475499116911600,9.83391162109375,0.3011561989605427,0.0011629062995314598,-0.03772092827425804
1746475499126908400,9.843908447265624,0.2764297539830208,0.01262362699061632,-0.008627133241464616
1746475499136904700,9.85390478515625,0.07699673044085502,0.014207389050722122,-0.012019891227094922
1746475499146901500,9.863901611328124,-0.12078092710971831,0.054474517509341236,-0.06198506666938774
1746475499156898800,9.87389892578125,-0.20077859293222428,0.1056122918114066,-0.06656193699771538
1746475499166894000,9.88389404296875,-0.19549042339622974,0.13545827175974845,-0.05767390263911802
1746475499176891400,9.893891357421875,-0.120624859765172,0.11585516114532947,-0.04718697258336469
1746475499186887200,9.90388720703125,-0.02408697803020477,0.0966416343703866,-0.08643737088064662
1746475499196884200,9.91388427734375,0.02143967839181423,0.0441805025100708,-0.11532850692272185
1746475499206881300,9.92388134765625,-0.048565585726499556,0.0022974632874131202,-0.11230651961988769
1746475499216877300,9.933877197265625,-0.20229893436729907,-0.013832418258488178,-0.1252038672516588
1746475499226874400,9.943874267578124,-0.2986053454339504,0.02758534153997898,-0.10474370141648687
1746475499236870400,9.953870361328125,-0.24980478190779684,0.07227993105202912,-0.030539556269650346
1746475499246867200,9.9638671875,-0.10178338117301464,0.056714697651565074,0.08575615628398954
1746475499256863200,9.97386328125,0.020420856738090513,0.013746201279759406,0.1357527429279871
1746475499266860300,9.9838603515625,0.10184300240576266,-0.014988018034398556,0.12502630046135746
1746475499276857000,9.993857177734375,0.08839081563651562,-0.02991466127038002,0.057055053788144135
1746475499286853400,10.003853271484376,-0.06924772374927997,-0.0448231843277812,-0.016681006914417956
1746475499296850200,10.01385009765625,-0.20418986268043518,0.008355740413069725,-0.11268915312876925
1746475499306846200,10.02384619140625,-0.19649170939326285,0.07031476845890283,-0.13864465584405697
1746475499316843300,10.03384326171875,-0.13213818742632866,0.106577629712224,-0.10886270844209939
1746475499326840000,10.043840087890626,0.007371990072727203,0.1286538524419069,-0.07770332607394084
1746475499336836400,10.05383642578125,0.13979834679067135,0.14075024068802594,-0.05855371768095065
1746475499346833200,10.063833251953126,0.18964111284613608,0.10374591341763734,-0.051551300706132314
1746475499356829200,10.0738291015625,0.1550841787278652,0.07717705544382333,-0.039349063765630125
1746475499366826200,10.083826171875,0.0911450827807188,0.04716156414747238,-0.011207267661468357
1746475499376822300,10.093822265625,-0.025458850905299184,0.05173807828277349,0.02556031340222107
1746475499386819300,10.1038193359375,-0.07476677943170071,0.1061550203859806,0.05772634064583108
1746475499396816100,10.113816162109375,-0.06842179431915282,0.12866437383592128,0.09544999516671523
1746475499406812200,10.123812255859375,-0.04233984307944774,0.1037476669833064,0.08199676721785217
1746475499416809200,10.133809326171875,-0.008795885396003723,0.06856032600700855,0.03965535323582589
1746475499426805200,10.14380517578125,0.010472294175624846,0.03686667236536741,0.0071103811361186665
1746475499436802000,10.153802001953125,0.011629647517204285,-0.0015144962161779403,-0.013703169280564179
1746475499446798300,10.16379833984375,-0.0722445674777031,-0.010199906975030898,-0.018118333683069796
1746475499456795100,10.173795166015625,-0.11067921981215477,0.03598725918233395,-0.033270830697333435
1746475499466792400,10.18379248046875,-0.06964169150292873,0.08201777347326278,-0.06304267226380761
1746475499476788200,10.193788330078124,-0.012443886509537696,0.07189268530011177,-0.056649085069447755
1746475499486785300,10.203785400390625,0.005196399599313736,0.04738894316256046,-0.05368191952665802
1746475499496781300,10.21378125,-0.04748831188380718,0.0013923311412334441,-0.041854466148721986
1746475499506778400,10.2237783203125,-0.17207915267050267,0.009637304656207562,-0.016195246391202088
1746475499516774100,10.233774169921874,-0.2173684932053089,0.0677735595434904,0.02704664296983974
1746475499526771200,10.243771240234375,-0.20522621999084947,0.1320236211359501,0.08686271102009341
1746475499536768300,10.253768310546874,-0.09575637596845626,0.15573796646147967,0.1200091755522415
1746475499546764000,10.263763916015625,0.0006061491996049881,0.15045330405682325,0.09717934884312562
1746475499556761300,10.27376123046875,0.055714872959256166,0.11717530383318663,0.07324641516373959
1746475499566757000,10.283757080078125,0.11494272247552871,0.07365121940523385,0.05451768079763278
1746475499576754400,10.29375439453125,0.1101461358487606,0.06784487121403217,0.03161506969680777
1746475499586750200,10.303750244140625,0.06718319243490696,0.10675357080101966,0.0005932783015887253
1746475499596747300,10.313747314453124,0.028155834904313087,0.12828735721707343,-0.026917936272965744
1746475499606744300,10.323744384765625,-0.010887889239192008,0.12199205646514892,-0.04291844668500125
1746475499616740400,10.333740234375,-0.04746843813955783,0.10611907228976487,-0.03421864664119202
1746475499626737400,10.3437373046875,-0.08201426634192466,0.10762421615570783,-0.042587789958529174
1746475499636733200,10.353733154296876,-0.09586626608371734,0.10295096364766358,-0.04819574776710942
1746475499646730200,10.363730224609375,-0.0490559995919466,0.1026803300127387,0.006588979619008023
1746475499656727300,10.373727294921874,-0.01618891825675964,0.09765841019749641,0.09097850317531264
1746475499666723300,10.383723388671875,-0.019897125124931334,0.10175532412230968,0.13363413420566356
1746475499676720000,10.39372021484375,-0.04161211332678794,0.11987258009314536,0.08871586460610852
1746475499686716400,10.40371630859375,-0.0025870938837528226,0.10944500184208154,0.03763970713105518
1746475499696713200,10.413713134765626,0.033059389036893844,0.047102235175669194,-0.011833302021765848
1746475499706709200,10.423709228515625,0.10409925689995288,-0.006529694029688835,-0.044693055142089724
1746475499716706300,10.433706298828126,0.12271803265213965,-0.03161503544747829,-0.05346841833987273
1746475499726703000,10.443703125,0.05665419963598251,-0.04308949240297079,-0.01592311720222351
1746475499736699400,10.453699462890626,-0.08137129226326942,0.010270049601793289,-0.031972192021808586
1746475499746696200,10.4636962890625,-0.18571254122555256,0.0817141143515706,-0.007801348800165578
1746475499756692200,10.473692138671876,-0.20201661029458046,0.12135288177877664,0.015699783032946286
1746475499766689300,10.483689208984375,-0.13949322636425493,0.0999962054952979,0.03127114934667479
1746475499776685300,10.493685302734375,-0.013739187017083166,0.08469020755290985,0.017640926571312592
1746475499786682000,10.50368212890625,0.07457797886133194,0.053659401734173294,-0.03536571148419752
1746475499796679200,10.51367919921875,0.10033025975525378,-0.023839725270867345,-0.07804427586556412
1746475499806675200,10.52367529296875,0.033716391640901566,-0.05200462026447057,-0.10008882481534964
1746475499816672300,10.53367236328125,-0.04124854071140289,-0.025667525219917296,-0.12126163243190384
1746475499826668300,10.543668212890625,-0.10092588756084442,0.011234510719776153,-0.12771104603330605
1746475499836665000,10.5536650390625,-0.14427519994378088,0.021345278106629846,-0.09234237540704197
1746475499846662400,10.563662353515625,-0.1536772345393896,0.024224340674281118,-0.07589826311308424
1746475499856658200,10.573658203125,-0.15261106661260126,0.013656477169692515,-0.0652034670268884
1746475499866655200,10.5836552734375,-0.14951836129426954,0.008334697625041007,-0.08679311638260259
1746475499876651300,10.5936513671875,-0.16231880615651606,-0.020462650053203104,-0.08621457670913077
1746475499886648000,10.60364794921875,-0.13370412156879902,-0.03486205454468727,-0.07955480829267762
1746475499896644400,10.613644287109375,-0.09567512742578983,-0.029954993280768394,-0.06931470173799897
1746475499906641200,10.62364111328125,-0.04466740924417972,-0.042298926547169685,-0.04226430275836028
1746475499916638200,10.63363818359375,-0.011829554003477096,-0.038570845934748646,-0.02646057301046094
1746475499926634200,10.64363427734375,-0.000813069948554039,-0.037764497987926006,-0.016942643250490073
1746475499936631300,10.65363134765625,-0.006887421426177025,-0.0440866867467761,-0.020567857143480795
1746475499946627000,10.663626953125,-0.015301614028215407,-0.04000760073959827,-0.010137548079213592
1746475499956624400,10.673624267578125,-0.01012275008559227,-0.05292641128450632,0.004417142872104886
1746475499966620200,10.6836201171875,0.023764321947097777,-0.04088029192090034,0.020518828086694703
1746475499976617200,10.6936171875,0.03361293126642704,-0.021423311778903005,0.016965624550567007
1746475499986614300,10.7036142578125,0.012710428491234778,0.00945697965323925,0.010449148478766436
1746475499996610000,10.713610107421875,0.015232055923342704,0.02327712295204401,0.02107494814909296
1746475500006607400,10.723607421875,-0.025992519390583037,0.037570728981494904,0.028674949707859193
1746475500016603100,10.73360302734375,-0.14403613049089908,0.05105097280144691,0.04717729600614402
1746475500026600400,10.743600341796874,-0.24892449194192884,0.12979308560490607,0.04504659498722758
1746475500036597200,10.75359716796875,-0.2763222019553184,0.2034919435441494,0.04565546130030416
1746475500046593300,10.76359326171875,-0.22435002265572546,0.21298516355454922,0.06317672413936816
1746475500056590300,10.77359033203125,-0.12095277654528618,0.22587007182985544,0.08951714365216903
1746475500066586400,10.78358642578125,0.00029752164185047145,0.2479278821200132,0.05922227829201147
1746475500076583200,10.793583251953125,0.1540694487273693,0.22969401403218506,0.024226918507146183
1746475500086579200,10.8035791015625,0.26822189760804177,0.18127660460472106,0.007876310307584936
1746475500096576300,10.813576171875,0.2993155395299196,0.13317834412902593,0.013898734093504025
1746475500106573300,10.8235732421875,0.2408575053423643,0.09342121101915836,0.03265281296342146
1746475500116569300,10.8335693359375,0.14831950689852236,0.11236410415917635,0.022987508338724726
1746475500126566100,10.843566162109376,0.09072481154203414,0.14751257442981003,0.0011068572718475479
1746475500136562400,10.8535625,0.06510872424840927,0.12325579279065131,-0.03480901831635274
1746475500146559200,10.863559326171876,0.06424713898301124,0.06836363439112901,-0.05603523662057705
1746475500156555300,10.87355517578125,0.04984568866491317,0.014674422040581702,-0.07509096988476813
1746475500166552000,10.883552001953126,-0.001143324816226959,-0.06731763246953487,-0.08302556227631866
1746475500176548900,10.893548828125,-0.12181669989824294,-0.10906944652795791,-0.05436669148700311
1746475500186545000,10.903544921875,-0.23040216230154037,-0.07854688249230385,-0.04104182545843068
1746475500196542000,10.9135419921875,-0.2961398321032524,-0.018665245242416858,-0.01321290040394524
1746475500206538000,10.9235380859375,-0.2795592841804027,0.0051166123613715165,0.04544189161485992
1746475500216535000,10.93353515625,-0.26763796024024483,-0.023415362378954887,0.08096194427739828
1746475500226532000,10.943531982421876,-0.2294850474566221,-0.01657382592111826,0.08921546642500906
1746475500236527900,10.95352783203125,-0.1811918489307165,-0.009988017790019512,0.0688828633591067
1746475500246525000,10.96352490234375,-0.14759762236475943,-0.03309942878633737,0.04241017750245519
1746475500256521000,10.97352099609375,-0.1645043335020542,-0.0500341969743371,-0.014225874555483459
1746475500266517800,10.983517822265625,-0.1927566145181656,-0.027872049526870248,-0.06623138073594309
1746475500276514000,10.99351416015625,-0.218231832036376,-0.0007762450695037841,-0.08738088967530057
1746475500286510800,11.0035107421875,-0.19073007712662218,0.012607844899594782,-0.08138738488154486
1746475500296508200,11.013508056640624,-0.11528174517154693,0.02935994999706745,-0.05929390048980712
1746475500306504000,11.02350390625,-0.007353285372257232,0.06975859588086605,-0.03164391219880199
1746475500316501000,11.0335009765625,0.10904314304292201,0.08320113803893327,-0.014335190423653693
1746475500326497000,11.0434970703125,0.19162498013973234,0.058333531025052066,0.012843508827482582
1746475500336494000,11.053494140625,0.20278467205762862,0.04328033879995346,0.02031481168088503
1746475500346489900,11.06348974609375,0.1474813025087118,0.05616524707525968,-0.01986665463814279
1746475500356487000,11.07348681640625,0.0820996065378189,0.07647182978391646,-0.05049105563005432
1746475500366484000,11.08348388671875,0.05222235466837883,0.11034282746464014,-0.07035826510733459
1746475500376480000,11.09347998046875,0.07879121264219284,0.10939765556901693,-0.06161659868317656
1746475500386477000,11.10347705078125,0.10285539431869983,0.1021443234398961,-0.04887537319487892
1746475500396472800,11.113472900390626,0.08436638242602348,0.09463380167931318,-0.08738590377713554
1746475500406470100,11.12347021484375,0.04627776705026626,0.10227584086507559,-0.15513441107776016
1746475500416467000,11.133467041015624,0.01589490374624729,0.12523469164818524,-0.1324644967712462
1746475500426463000,11.143462890625,-0.013725743013620376,0.12566665332466362,-0.08283380256388335
1746475500436460000,11.1534599609375,-0.015627777242660523,0.14086948315352202,-0.028116726736631244
1746475500446456000,11.1634560546875,0.0006347907721996307,0.17317279312610626,0.04178852933961898
1746475500456453000,11.173453125,0.022597616255283354,0.16962503751665353,0.08432444298043847
1746475500466449000,11.183448974609375,0.03823825297951698,0.16666969484239816,0.07912606148659251
1746475500476446000,11.193446044921876,0.10474632263183593,0.14870762943327426,0.0747185015768744
1746475500486443000,11.203443115234375,0.10725801319181918,0.1055602693632245,0.08451185531131923
1746475500496439000,11.21343896484375,0.0718342331111431,0.08933803335875272,0.070692588795349
1746475500506436000,11.22343603515625,0.013372107270359992,0.08301993625313044,0.044910177624644707
1746475500516432100,11.23343212890625,-0.02101882263123989,0.0898226020053029,0.02320777262643678
1746475500526429000,11.243428955078125,-0.053044776967167855,0.08148030559569597,0.0557983545582043
1746475500536425200,11.25342529296875,-0.08854337584972381,0.1032946625187993,0.10483784597334452
1746475500546422000,11.263422119140625,-0.14679098215699196,0.128221013982594,0.10527589946389197
1746475500556418800,11.273418701171876,-0.18632102851271629,0.1227946050196886,0.11341765006640925
1746475500566415000,11.2834150390625,-0.21560499066412447,0.11101707346439361,0.10668412229400127
1746475500576412000,11.293411865234376,-0.2501245153814554,0.10849310794472694,0.07027233125639613
1746475500586408000,11.303407958984375,-0.1828214959591627,0.07767711392045021,0.021112738859234377
1746475500596405000,11.313405029296876,-0.11575754598975181,0.05295213024765253,0.01393604759632144
1746475500606402000,11.323402099609375,-0.03178805392682552,0.020854864241182804,-0.009823698640358633
1746475500616398000,11.333398193359375,0.062140522092580794,0.011856149749457836,-0.019543822741811163
1746475500626395000,11.343394775390625,0.08851590332090854,-0.013607085070014,0.005916233739885501
1746475500636391000,11.353390869140625,0.05391337649524212,-0.030302491544187068,0.013808704022760502
1746475500646388000,11.363387939453125,0.009125555741786957,0.020011983676254747,-0.012686079501267522
1746475500656384000,11.373384033203125,0.03917699513435364,0.07803834844827652,0.007444973110547289
1746475500666380800,11.383380859375,0.10011340213418006,0.09489508296400308,0.07556431845098267
1746475500676378000,11.393378173828125,-0.024491467177867886,0.04867167644947767,0.0010678575603757052
1746475500686374000,11.403373779296874,-0.1369423728376627,0.06705196727067232,-0.10526610872223972
1746475500696371200,11.41337109375,-0.1342009651750326,0.11373393120765686,-0.15581189021421596
1746475500706367000,11.423366943359374,-0.11186872185766697,0.09329816916137933,-0.1399746714719571
1746475500716364000,11.433364013671875,-0.04596037166416645,0.08515665602087974,-0.1237193277823273
1746475500726361000,11.443361083984374,0.03245440888106823,0.049855333276093004,-0.10374684499939903
1746475500736356900,11.45335693359375,0.061223407247662544,0.02867284451574087,-0.05149049672987312
1746475500746354200,11.463354248046874,0.08483516898155212,0.0010173603489995002,0.011826932788128033
1746475500756350000,11.473349853515625,0.031573534393310544,-0.015189385825395583,0.0366270823226776
1746475500766347000,11.483346923828124,-0.02298866139948368,0.015517010344564914,0.01366639120893087
1746475500776343000,11.493343017578125,-0.03378068904876709,0.03828472246974706,-0.020411540920473634
1746475500786340000,11.503340087890624,-0.027156302472949027,0.01887245825231075,-0.05523671122060623
1746475500796337000,11.5133369140625,-0.012288988208770751,-0.0023111995518207548,-0.06699351051512639
1746475500806333200,11.523333251953124,-0.014008067086338996,-0.03727992934137583,-0.08843006080151534
1746475500816330000,11.533330078125,-0.058545712471008295,-0.03510638469457626,-0.11262538544386624
1746475500826326000,11.543325927734376,-0.14997779549956322,-0.016264321580529213,-0.10214641493228263
1746475500836323000,11.553322998046875,-0.22188509384691715,0.03247545166909695,-0.10184891155674122
1746475500846319900,11.56331982421875,-0.2402998714596033,0.09597440263330936,-0.050198159930971445
1746475500856316200,11.573316162109375,-0.18033435531854627,0.13452449804097413,0.0467465170731768
1746475500866313000,11.58331298828125,-0.05022153623998165,0.13349018655717373,0.10095069320853799
1746475500876309000,11.59330908203125,0.059545244902372355,0.12605273003280162,0.1248519576746039
1746475500886306000,11.60330615234375,0.09506137944161891,0.08541939861029386,0.13133320031953044
1746475500896302000,11.613302001953125,0.07299275549650192,0.05575725079625845,0.06248598366254009
1746475500906299100,11.623299072265626,0.032850714722275735,0.037081776420772074,-0.029377796181011943
1746475500916296000,11.6332958984375,-0.0015823007553815841,0.028300796332955357,-0.06761519977715798
1746475500926292000,11.6432919921875,0.031845921593904494,0.020190555113554,-0.08769819372985511
1746475500936289000,11.6532890625,0.07502689167261123,0.005730360345542431,-0.06166039672570768
1746475500946285000,11.66328515625,0.12238134804368019,0.012430150245130061,-0.01615615306489635
1746475500956281900,11.67328173828125,0.11720482218861579,0.022392449072003363,0.06345239014243707
1746475500966278100,11.683278076171876,0.03146481332182884,0.02865004816204309,0.10137381399143487
1746475500976275000,11.69327490234375,-0.07204933716654777,0.0627218291118741,0.09996464131325483
1746475500986272000,11.70327197265625,-0.1540869843840599,0.0902694689899683,0.09764417160958982
1746475500996268000,11.71326806640625,-0.20313304710388183,0.10367547852993012,0.09203459723265842
1746475501006264800,11.723264892578126,-0.22303251031637192,0.08935673805922269,0.07706904675839468
1746475501016261000,11.73326123046875,-0.19494447995126246,0.07721943328082562,0.041327131506102156
1746475501026258000,11.7432578125,-0.17351999912858007,0.07597820104807615,0.005061238045478239
1746475501036255000,11.7532548828125,-0.14463175829648972,0.04821341128796339,-0.041929654843360184
1746475501046251000,11.7632509765625,-0.1247773032695055,0.01822685382515192,-0.03763351028570905
1746475501056248000,11.773248046875,-0.12358546313643455,-0.011632277865707873,-0.08670421425644308
1746475501066243800,11.783243896484375,-0.11156301690936088,-0.011668518222868442,-0.09195800659880042
1746475501076241000,11.793240966796875,-0.035679216146469114,-0.002568389183282852,-0.08236662344355136
1746475501086237000,11.80323681640625,0.05650865368545055,-0.0006523264288902282,-0.07837287763226777
1746475501096234000,11.81323388671875,0.15643617785871028,-0.0064566287934780114,-0.05239169248645194
1746475501106231000,11.82323095703125,0.23696400503516196,-0.021996435491740702,-0.05186256317896768
1746475501116226800,11.833226806640624,0.2495107673972845,-0.022877017718553543,-0.06818214947753586
1746475501126224100,11.84322412109375,0.19429390708804128,-0.025974399212002754,-0.07810066396160982
1746475501136220000,11.853219970703124,0.0791670602172613,-0.00914630626887083,-0.06718772247955203
1746475501146217200,11.86321728515625,-0.05229191277325153,0.02312339369505644,-0.07308300019637681
1746475501156213000,11.873212890625,-0.16248013419806956,0.07488719094097614,-0.06509651322080753
1746475501166210000,11.8832099609375,-0.21162439659535884,0.1046717960909009,-0.03559125473522581
1746475501176207000,11.89320703125,-0.2058224323183298,0.10069704724103212,-0.005411320991627872
1746475501186203100,11.903203125,-0.18667174164652822,0.09301701413244008,-0.00010683964164927601
1746475501196200200,11.9132001953125,-0.14775953492820262,0.0620724252924323,0.014834224845329298
1746475501206196000,11.923196044921875,-0.12368249377012253,0.04325169722735882,0.025230120183341205
1746475501216193300,11.933193359375,-0.11428162821829319,0.035436639562249184,0.02894139579143375
1746475501226190000,11.943190185546875,-0.13101239826679228,0.055021045476198197,0.021197658930020406
1746475501236186400,11.953186279296874,-0.13904782068431376,0.05751987655460834,0.030944808035716413
1746475501246183200,11.96318310546875,-0.10919804134368896,0.05910626896321773,0.025002786834025754
1746475501256179200,11.97317919921875,-0.06117781454026699,0.068906362965703,0.016448893500352276
1746475501266176300,11.98317626953125,-0.01772270369529724,0.04240793987959623,0.002815943336719647
1746475501276172300,11.99317236328125,0.05401742139160633,0.02537672557979822,-0.04661032347287983
1746475501286169000,12.003169189453125,0.09946166022717952,0.016503391033411027,-0.07121600074809975
1746475501296166100,12.013166259765624,0.07738602201938628,0.009796002349257468,-0.07144611970954574
1746475501306162200,12.023162109375,0.048753801774978636,0.02036094324439764,-0.06587480411692521
1746475501316159200,12.0331591796875,0.020728315252065657,0.06390577819943427,-0.07465897167567163
1746475501326155300,12.0431552734375,0.00988134254515171,0.0849950357183814,-0.028434606179920954
1746475501336152000,12.053152099609376,-0.05706979469954967,0.10096271243989467,0.04207194025772623
1746475501346148400,12.0631484375,-0.15994038658738136,0.16826339377462862,0.01936559379780665
1746475501356145200,12.073145263671876,-0.17367782003879545,0.18742811297178266,-0.039037732794135804
1746475501366142200,12.08314208984375,-0.09834814602732658,0.16100392416566608,-0.10397371255783364
1746475501376138200,12.09313818359375,0.03243336609303951,0.08268997364640235,-0.11323568109562619
1746475501386135000,12.103135009765625,0.16065584138035774,0.03725713298767805,-0.10646580336820334
1746475501396131300,12.11313134765625,0.2621820329219103,0.015574293489754198,-0.09981946068890392
1746475501406128000,12.123128173828125,0.26008886003494264,-0.01912789431810379,-0.1255379306447692
1746475501416125200,12.133125244140626,0.1435860486358404,-0.03135638451129198,-0.07714056849149055
1746475501426121200,12.143121337890625,-0.04354162008464336,-0.009690203887224197,-0.09350405786386691
1746475501436118000,12.153117919921876,-0.180042094373703,0.08046703689992428,-0.13046318515250457
1746475501446114000,12.163114013671875,-0.24135902512371538,0.10855623630881309,-0.10684685684135183
1746475501456111000,12.173111083984375,-0.22986381764113903,0.05982493862658739,-0.05317948186327703
1746475501466107100,12.183107177734374,-0.15962883642017842,0.05184826065897941,-0.020507950499653815
1746475501476104200,12.193104248046875,-0.07141688448190689,0.041599546106159686,-0.02881573271830566
1746475501486101200,12.203101318359375,0.03383621862828731,0.007288403442502022,-0.0345868177998811
1746475501496097000,12.213096923828125,0.06065174483954906,-0.013472645035386085,-0.034493093368131666
1746475501506094300,12.22309423828125,0.045161914762854576,-0.025967384949326513,-0.024897052304074168
1746475501516090000,12.233090087890625,0.020483985102176666,-0.0037257425248622893,0.01766275366898626
1746475501526087200,12.243087158203124,-0.016087795969843863,0.026261399459838866,0.02392668203511275
1746475501536083200,12.253083251953125,-0.060737669557332986,0.0495002362281084,0.03140456190141849
1746475501546080000,12.263080078125,-0.09505553422272205,0.04808598551601171,0.01510535167059861
1746475501556077300,12.273077392578125,-0.12308978857398033,0.040022213786840434,-0.01090461204512976
1746475501566073000,12.283072998046874,-0.137508774548769,0.0420431982204318,-0.05350647619478404
1746475501576070100,12.293070068359375,-0.11479834556877612,0.041051264573633665,-0.07326412891694344
1746475501586066200,12.303066162109374,-0.10154664980769157,0.02177168682515621,-0.05602397544104606
1746475501596063200,12.313063232421875,-0.13545476462841033,0.05851765542030334,-0.03192216516789049
1746475501606059000,12.32305908203125,-0.12263210793435572,0.0988181016266346,0.010215296340407803
1746475501616056300,12.333056396484375,-0.08369242868721484,0.13251140465289354,0.09340015909797511
1746475501626053000,12.34305322265625,-0.06505377919077873,0.13259236093461513,0.12572007314548828
1746475501636049200,12.353049072265625,-0.02294599130153656,0.14135259049534796,0.10769769238387233
1746475501646046200,12.363046142578124,0.05991115560531616,0.12078034258782863,0.04667147907558828
1746475501656042000,12.3730419921875,0.13352525787055491,0.0889449423879385,0.01819174597915262
1746475501666039300,12.383039306640624,0.17344401128292083,0.01812836188673973,0.009737878953851758
1746475501676036000,12.3930361328125,0.20974165158867836,-0.0021788053438067433,-0.014480799164623021
1746475501686032100,12.4030322265625,0.19265373866558075,-0.006932721872627735,-0.03132304849727079
1746475501696029200,12.413029296875,0.07290916886627674,-0.010355097536742687,0.0176424232670106
1746475501706025200,12.423025146484376,-0.10981821906864643,0.041111178067326545,0.040197004098165776
1746475501716022300,12.433022216796875,-0.2268845095694065,0.1318731067493558,0.0006700721481349319
1746475501726018300,12.443018310546876,-0.21805881355702875,0.14668956760913132,0.00040119207887910304
1746475501736015000,12.45301513671875,-0.10863339319825172,0.09691343704909086,0.009234888734621926
1746475501746012200,12.46301220703125,0.05689151552319526,0.048315994879603384,0.014154864279041066
1746475501756008200,12.47300830078125,0.13505144452452658,0.012194295662641524,0.0015513758941553533
1746475501766005200,12.483005126953126,0.11671323927938937,-0.010872399409115314,-0.027285317413788288
1746475501776001300,12.493001220703125,0.0074205053895711895,-0.009497311663627625,-0.05663290111962706
1746475501785998000,12.502998046875,-0.13308452836573123,0.015832944425940514,-0.05399879888952709
1746475501795994000,12.512994140625,-0.23001637785434723,0.05696779562979936,-0.03190489437268115
1746475501805991200,12.5229912109375,-0.21697043379843234,0.0714271136149764,-0.023743443555850535
1746475501815988000,12.532988037109375,-0.1582610551983118,0.04049304616898298,-0.015379026645980775
1746475501825984300,12.542984375,-0.10557926632463932,-0.004461655583977699,-0.04090696986527182
1746475501835981000,12.55298095703125,-0.07279051092267036,-0.013740648321807384,-0.08305188402766361
1746475501845977000,12.56297705078125,-0.034247722038626666,-0.008785071741044521,-0.07684517487464472
1746475501855974100,12.57297412109375,-0.004504910203814506,-0.011109715296328067,-0.025817254155222326
1746475501865970200,12.58297021484375,-0.039299744731187816,0.019840134240686893,-0.004566933456202969
1746475501875967200,12.59296728515625,-0.03849485808908939,0.09934826298058032,-0.023292521450575438
1746475501885964000,12.602964111328125,-0.02666296599805355,0.13535948756039143,-0.02508851975556463
1746475501895960000,12.6129599609375,-0.012988660910725593,0.10658668980151415,-0.005611401007836685
1746475501905957000,12.62295703125,0.02337912202179432,0.10438801071345806,-0.04083534766747616
1746475501915953200,12.632953125,0.06613748277425766,0.09767156194001436,-0.07175868365690112
1746475501925950000,12.642949951171875,0.09777297648787497,0.07011807684302329,-0.08507735284012742
1746475501935947300,12.652947265625,0.055008770516514774,0.03388035003095865,-0.07073819063589908
1746475501945943000,12.662943115234375,0.02017126589119434,0.06380494817346334,-0.07163527647294103
1746475501955940400,12.6729404296875,0.04460252731442451,0.09475538223236799,-0.037442554290872065
1746475501965936000,12.68293603515625,0.049072950726747507,0.06092091716974973,0.06462005481547675
1746475501975933200,12.69293310546875,0.020377602118253707,0.05175006098151207,0.09641104961805977
1746475501985929200,12.70292919921875,-0.06710954267680645,0.06523147384524346,0.06901977847861125
1746475501995926000,12.712926025390624,-0.10679156472384929,0.06747253077030181,0.02572110943752341
1746475502005923300,12.72292333984375,-0.15558336042165755,0.043785950234532356,-0.0194898229656741
1746475502015919000,12.732919189453124,-0.16261632779836654,0.018647125063836572,-0.059655189816560594
1746475502025916200,12.742916259765625,-0.08652326819896697,0.025637130081653595,-0.059502803133288394
1746475502035912200,12.752912109375,0.005555296039581299,0.0003632803544402122,0.024269266661396248
1746475502045909200,12.7629091796875,0.031054478955268857,-0.007767419131100177,0.08160322872246616
1746475502055905000,12.772905029296876,0.006184241592884063,0.016272504886984823,0.08603397771152667
1746475502065902300,12.78290234375,-0.03780336869359016,0.04851356327831745,0.03427940495167859
1746475502075899100,12.792899169921874,-0.08827566482424735,0.03364654127508402,-0.05811745885526761
1746475502085895200,12.802895263671875,-0.10325520729124546,-0.008334989885985852,-0.11578571263831108
1746475502095892200,12.812892333984376,-0.09962941800951958,-0.052586219544708726,-0.12138440942820161
1746475502105888300,12.82288818359375,-0.12811141612827778,-0.05027443547099828,-0.09001107378210872
1746475502115885300,12.83288525390625,-0.1701554911315441,-0.0032619244053959844,-0.07083611631873063
