time,seconds_elapsed,z,y,x
1745855022195138300,0.01813818359375,2.508838093161583,1.5172022602662443,-0.6700609691537917
1745855022205110000,0.028110107421875,2.9584435628801584,-0.5799556046843528,-1.0555655764922498
1745855022215081200,0.038081298828125,3.8191993917167184,-1.0102098927229641,-0.2668402339912951
1745855022225052200,0.04805224609375,4.080235761734843,-0.39208354733735323,0.40300212397575375
1745855022235024100,0.058024169921875,3.259081290924549,0.22924217861145735,0.030667379333823918
1745855022244995000,0.0679951171875,1.9577251366019248,1.5084247873097658,-0.5904448499947786
1745855022254966300,0.07796630859375,0.9422042779892682,2.9984046941295266,-0.8852519721895455
1745855022264938200,0.087938232421875,0.3169616708576679,3.6598718763306737,-0.6630848465308546
1745855022274909200,0.0979091796875,-0.31547523169219494,3.827131938281655,-0.2870721440285444
1745855022284880100,0.107880126953125,0.05387304448485374,3.863369372832775,-0.346643107894063
1745855022294852400,0.117852294921875,1.285386431774497,3.861125393298268,0.2005237413883209
1745855022304823000,0.127822998046875,4.981722244888544,5.087708922970295,1.4924899899445474
1745855022314794000,0.1377939453125,6.431615348252654,5.8266883839190005,1.2848412189818919
1745855022324766200,0.14776611328125,3.677641049516201,2.326853924809396,0.17674612156823277
1745855022334737200,0.157737060546875,0.12597148149013518,1.168121988353133,-2.2233976419880985
1745855022344708000,0.1677080078125,-2.1815222015500066,2.5001231640473005,-2.7024323275476694
1745855022354680000,0.17768017578125,-4.465656636312604,1.2160133280798793,-1.8069605746388435
1745855022364651300,0.1876513671875,-4.082643991920352,1.9575816364780068,-0.46542069582473483
1745855022374622200,0.197622314453125,-2.0046751038253308,3.8393393856868148,0.7534092605784535
1745855022384594200,0.20759423828125,-0.8327835338056087,3.9842648662328717,2.2461676922008396
1745855022394565000,0.217565185546875,0.5096346987456083,3.8078205040901896,4.243703737926483
1745855022404536300,0.227536376953125,2.420903789120912,3.711180915546417,5.808179498282074
1745855022414508000,0.237508056640625,4.4552451324135065,3.116374363210797,5.44343024033308
1745855022424479200,0.247479248046875,5.3617392145961515,3.4445910030543803,2.7216166282281278
1745855022434450200,0.2574501953125,5.3542731164991855,4.505903891026973,0.4460547914996743
1745855022444422100,0.267422119140625,4.852336571040749,4.629956387153268,-0.8651981951981782
1745855022454393000,0.27739306640625,4.07306134006083,3.5959862641364335,-1.3204124447092414
1745855022464364300,0.2873642578125,4.007931573024392,2.6606255684316156,-1.2710136230289935
1745855022474336300,0.297336181640625,4.261662588465214,2.480989132249355,-1.3767857815772295
1745855022484307200,0.30730712890625,4.695709254524111,2.597179808959365,-1.4493079969525335
1745855022494278100,0.317278076171875,5.176522932454944,2.684616100350022,-1.7184101845264435
1745855022504250400,0.32725048828125,5.441890609675646,3.2373265552341937,-1.9437182385593652
1745855022514221300,0.33722119140625,5.391176906004548,3.5967531568557023,-2.0065268691718576
1745855022524192000,0.34719189453125,5.698657631811499,2.8844805010467764,-1.2465671640366316
1745855022534164200,0.357164306640625,5.118645328503847,1.9445570274710655,-0.15170856481492517
1745855022544135200,0.36713525390625,4.591654421287775,1.2494304445132614,0.659587359803915
1745855022554106000,0.377106201171875,4.159567657124996,0.8062517929717898,2.0042086553573606
1745855022564078000,0.387078125,3.091779435658455,1.3027815109506249,2.2370605488985777
1745855022574049300,0.39704931640625,3.4674104453667995,2.0275456918030974,0.6679454383045434
1745855022584020200,0.407020263671875,3.4588223575025796,1.8900421779513359,0.022746669337153434
1745855022593992200,0.4169921875,2.942828645119071,1.648907901494205,-0.23940438392460345
1745855022603963100,0.426963134765625,2.2281647102594375,1.2070219201117753,-0.49670449002385136
1745855022613934300,0.436934326171875,1.2130980251550674,0.38457258718535303,-0.5624404062598943
1745855022623906000,0.446906005859375,0.0890530789375305,-0.05885390163734555,-0.19361644621789453
1745855022633877200,0.456877197265625,-1.0692612166285513,0.11944397941753268,0.10760521919429301
1745855022643848200,0.46684814453125,-2.196456735831499,0.39195816739201544,0.03265080823600292
1745855022653820200,0.476820068359375,-2.8254303461849686,0.576048441177979,0.08307984974682331
1745855022663791000,0.486791015625,-3.123674457091093,0.7837621671356261,0.40076691226959227
1745855022673762000,0.496761962890625,-3.376768928194046,0.9935409358642995,0.6407447121679782
1745855022683734300,0.506734375,-3.313573344090581,0.6878396408200264,0.5850771854817867
1745855022693705000,0.516705078125,-3.539067276084423,0.08779379959143697,0.656582917290926
1745855022703676200,0.52667626953125,-3.6177386617392298,-0.37468481489941474,0.7946236067593098
1745855022713648000,0.536648193359375,-3.521122454071045,-0.8386332827471196,1.0201771599859
1745855022723619300,0.546619384765625,-3.356576034992933,-1.1550539785958827,1.2113596570551395
1745855022733590000,0.556590087890625,-3.351814519679546,-0.9514575517639517,1.382821554610133
1745855022743562200,0.566562255859375,-3.501997774623334,-0.3905722659915685,1.509787892356515
1745855022753533200,0.576533203125,-4.131023115164041,0.2887362778484821,2.195270156395435
1745855022763505200,0.586505126953125,-4.8926150976762175,1.1061974470987916,3.0622979051083323
1745855022773476000,0.59647607421875,-5.484091921067238,1.7437910017594693,3.385094273468852
1745855022783447300,0.606447265625,-5.463785630619525,1.9469158655568957,3.231180307564139
1745855022793419000,0.6164189453125,-4.893569621922076,1.9341107445195316,3.1820868985712525
1745855022803390200,0.62639013671875,-4.217553397625685,1.935288848388195,3.4802269645810124
1745855022813361200,0.636361083984375,-3.3816911870270965,1.4391238720685242,3.2048528571307657
1745855022823333400,0.64633349609375,-2.547646547244489,0.9608388358324765,2.6498253574758768
1745855022833304000,0.656303955078125,-1.7674980405613778,0.7959405345767736,2.2652345039814707
1745855022843275000,0.66627490234375,-1.2591780776761472,0.8968243365615606,2.0134259810358284
1745855022853247200,0.676247314453125,-1.1480803401909767,1.297281452229619,2.201530970355868
1745855022863218200,0.68621826171875,-1.2652291944086551,1.6609733100801705,2.5647160477280617
1745855022873189000,0.696189208984375,-1.6646172195404767,1.9174059856951235,3.355475964796543
1745855022883161000,0.7061611328125,-2.1648270873367785,2.1280618295192717,3.958969681456685
1745855022893132300,0.71613232421875,-2.690228095012903,2.298117951929569,4.079976234015822
1745855022903103200,0.726103271484375,-3.031050533929467,2.297392560264468,4.111166906571388
1745855022913075200,0.7360751953125,-3.035735476875305,2.1604951956123113,4.308640612739325
1745855022923046100,0.746046142578125,-2.9905531038463113,2.065740690162778,4.615463166898489
1745855022933017300,0.756017333984375,-2.82442146140337,1.6977321381568908,4.39941744672954
1745855022942989000,0.765989013671875,-2.64349673897624,1.2326760013282299,4.1150305962622165
1745855022952960300,0.775960205078125,-2.550701550900936,0.862550311037898,3.9145179607897993
1745855022962931200,0.78593115234375,-2.4992040033757683,0.4207213205397129,3.285810307896137
1745855022972903200,0.795903076171875,-2.4152407949231565,0.18293197059631347,2.9141192679852246
1745855022982874000,0.8058740234375,-2.2349194452166556,0.43991175870001314,2.8972707167759535
1745855022992845000,0.815844970703125,-2.392328852021694,0.2391144610673189,2.503133159518242
1745855023002817300,0.8258173828125,-2.658219676333666,-0.24567747284471989,2.3634131386607886
1745855023012788000,0.8357880859375,-2.644218038988113,-0.4337655110299587,2.336977843938768
1745855023022759200,0.84575927734375,-2.4636066202938554,-0.3507067040711641,2.2118048193499447
1745855023032731100,0.855731201171875,-2.1940555199086664,-0.08141863853633403,1.924106067855656
1745855023042702000,0.8657021484375,-1.9582628967404365,0.20588848329186438,1.7234645453065633
1745855023052673000,0.875673095703125,-1.8255064312852918,0.4318266519218683,1.7071847338959574
1745855023062645200,0.885645263671875,-1.8224717397645114,0.6045861880719662,1.9847063747689127
1745855023072616200,0.8956162109375,-1.9949929371140895,0.6960054116189479,2.402789455759525
1745855023082587100,0.905587158203125,-2.260989121496677,0.5828904890924692,2.7210917275711894
1745855023092559000,0.91555908203125,-2.3760138231672343,0.4923199913293123,2.74859874317795
1745855023102530300,0.9255302734375,-2.255257153715938,0.6182552324622869,2.60222423286736
1745855023112501200,0.935501220703125,-2.1328512557528914,0.9985644631147385,2.3648174525007604
1745855023122473200,0.94547314453125,-2.110917656364292,1.3034773842602967,1.6935852476105093
1745855023132444200,0.955444091796875,-2.107335852354765,1.4523013335496187,0.7194625673130154
1745855023142416100,0.965416015625,-1.6688777995944022,1.5551117196828126,-0.410165147472918
1745855023152387000,0.975386962890625,-0.7309842974763363,1.6677081712931394,-1.2474775568798184
1745855023162358300,0.985358154296875,0.4766355154633522,1.696347990322113,-1.9739795213103293
1745855023172330200,0.995330322265625,1.766330458086729,1.4877555087685583,-2.589790283229947
1745855023182301200,1.00530126953125,2.907273932135105,1.0554986487358808,-2.8297151838973162
1745855023192272100,1.015272216796875,3.8135710304409263,0.46514790676534173,-2.6804449521452187
1745855023202244400,1.025244384765625,4.360288966912031,-0.13280454238057135,-2.206887821213901
1745855023212215300,1.03521533203125,4.967613640037179,-0.5291372715950012,-1.6245310006067155
1745855023222186200,1.045186279296875,5.414385347634553,-0.8587807293713092,-1.0950459384873508
1745855023232158200,1.055158203125,5.302528316214681,-0.9783388366878032,-0.4838315644472837
1745855023242129400,1.06512939453125,4.9911406460970635,-0.89738489305377,0.11942542084753513
1745855023252100400,1.075100341796875,4.4830987695008515,-0.8824678944289683,0.5753586322829127
1745855023262072300,1.085072265625,3.8671296021491286,-0.9445219072818756,0.8518249188840389
1745855023272043300,1.095043212890625,3.1992998991787434,-0.8191782023012638,0.8341621286824346
1745855023282014200,1.10501416015625,2.533043729135394,-0.49377661987841126,0.6185246970534324
1745855023291986200,1.114986083984375,1.8633897333472966,-0.19763269612193107,0.38289778584092854
1745855023301957000,1.12495703125,1.1648702930808066,0.0741045161306858,0.19943360806405544
1745855023311928300,1.13492822265625,0.5162701912373304,0.21902736632823944,0.045299569667875766
1745855023321900000,1.144900146484375,-0.0840776286125183,0.3284907806098461,-0.008523790456354617
1745855023331871200,1.154871337890625,-0.6338520300447941,0.5039817875504493,0.05940349834412336
1745855023341842200,1.16484228515625,-1.089986024749279,0.6653174278885126,0.13178688977062702
1745855023351814100,1.174814208984375,-1.4508978964924812,0.8106026816576719,0.18457038545310497
1745855023361785000,1.18478515625,-1.665105295318365,0.8856400947242975,0.27122195620685813
1745855023371756300,1.19475634765625,-1.8158441383183002,0.8571955060064792,0.361854121029377
1745855023381728300,1.204728271484375,-1.8718997875392436,0.6967617829442024,0.43933512785583734
1745855023391699200,1.21469921875,-1.7272002247035503,0.5709709187179803,0.39755759483426806
1745855023401670100,1.224670166015625,-1.3265069621920584,0.44755788953900333,0.28524872799366713
1745855023411642400,1.234642333984375,-0.7575110698740929,0.45130116772055623,-0.02139993090331554
1745855023421613300,1.24461328125,-0.2209505164105445,0.4866600658714771,-0.47179275160729883
1745855023431584000,1.254583984375,0.21458616901040076,0.4439139800786972,-0.7831172933608294
1745855023441556200,1.26455615234375,0.55060559155941,0.4155412875533104,-1.0040887794941664
1745855023451527200,1.274527099609375,0.6182558169841766,0.4742044889241457,-1.2466869910240173
1745855023461498400,1.284498291015625,0.4667442360460758,0.7326648709744215,-1.505617328673601
1745855023471470000,1.294469970703125,0.14950667085647582,0.7509165669798851,-1.7179875752002
1745855023481441300,1.304441162109375,-0.2733785497188568,0.5850719247847795,-1.5253531257569788
1745855023491412200,1.314412109375,-0.6676140143930912,0.363107335960865,-0.9046481620550155
1745855023501384200,1.32438427734375,-0.8108417511105537,0.11115151349902153,-0.38207039510607715
1745855023511355100,1.334355224609375,-0.8115466845095157,-0.07082008763253689,-0.09251929374337196
1745855023521326300,1.344326416015625,-0.7251088295716792,-0.15557225450575352,0.04629004200994968
1745855023531298000,1.354298095703125,-0.585519157095626,-0.2262052951335907,0.057987201805412766
1745855023541269200,1.364269287109375,-0.4328957424581051,-0.22071780363321303,0.022620412608981132
1745855023551240200,1.374240234375,-0.2614005636880174,-0.19605740962922572,0.029592881970107555
1745855023561212400,1.38421240234375,-0.026738369321823118,-0.18254560162723063,-0.015127134244143962
1745855023571183000,1.39418310546875,0.24401322942692785,-0.2311971120715141,0.008311609010398388
1745855023581154000,1.404154052734375,0.4019160823047161,-0.2606125916481018,0.18590338762253522
1745855023591126300,1.414126220703125,0.41845330254249274,-0.24103461547493935,0.36491701573133467
1745855023601097200,1.42409716796875,0.44062889399342237,-0.25938977185487744,0.4312681412562728
1745855023611068200,1.434068115234375,0.40559966618828475,-0.24871347953975198,0.5259051578059792
1745855023621040000,1.4440400390625,0.31505028427839277,-0.18864742563366887,0.6385743823915719
1745855023631011300,1.45401123046875,0.17155366749167442,-0.2407745032340288,0.747481331834197
1745855023640983000,1.463983154296875,0.02480243282318115,-0.20463526836037635,0.8821250723406672
1745855023650954200,1.473954345703125,-0.017747290147282182,-0.16862345925867556,0.8492772802278399
1745855023660925200,1.48392529296875,-0.029885544773750005,-0.15557985329031943,0.713875707091391
1745855023670897200,1.493897216796875,-0.008231237250566481,-0.17418401599526404,0.5990130641147494
1745855023680868000,1.5038681640625,-0.01764196660928428,-0.18926175813972948,0.5735793476507067
1745855023690839300,1.51383935546875,0.028567849771305918,-0.17591069365739823,0.5015744341477751
1745855023700811300,1.523811279296875,-0.022744952304102478,-0.1288555124938488,0.2917360441863537
1745855023710782200,1.5337822265625,-0.16809567252490668,-0.06834288386404513,0.0562342206582427
1745855023720753200,1.543753173828125,-0.014954444558359682,-0.2369756954729557,0.3334589244112372
1745855023730725400,1.553725341796875,-0.017527546449378133,-0.3455097199499607,0.4571697674930095
1745855023740696000,1.563696044921875,-0.055277066063880914,-0.30326690750420093,0.3442041903093457
1745855023750667300,1.573667236328125,0.018277999490499495,-0.2556406484544277,0.2446218263119459
1745855023760639200,1.58363916015625,0.09677351712174713,-0.16180091976225375,0.07522124520093203
1745855023770610400,1.5936103515625,0.17077154067065567,-0.18475392532646656,-0.14512012633532284
1745855023780581000,1.6035810546875,0.22043131484203038,-0.21277532019615172,-0.20004004952460527
1745855023790553300,1.61355322265625,0.2537457015533,-0.21038287210166454,-0.09659545714110135
1745855023800524300,1.623524169921875,0.2923708349585533,-0.18522797257900236,-0.034226679250597955
1745855023810495200,1.6334951171875,0.29641568990256634,-0.16678922956883907,-0.031302900758385654
1745855023820467200,1.64346728515625,0.2926361348312348,-0.10013736753165721,-0.04992109198868274
1745855023830438100,1.653438232421875,0.3061877268543467,-0.07328326287567614,-0.05219108274728059
1745855023840409300,1.663409423828125,0.32617497794814404,-0.052259764069318766,0.007131459315121174
1745855023850381000,1.673381103515625,0.33962826069593427,-0.011118775385618208,0.013140636602044104
1745855023860352300,1.683352294921875,0.37383689283318816,0.04109188884496689,-0.08349281446188687
1745855023870323200,1.6933232421875,0.40954643105268473,0.10296236182451247,-0.1834858050867915
1745855023880295200,1.703295166015625,0.4128384583353996,0.10685410856604576,-0.2912520600616932
1745855023890266000,1.71326611328125,0.35305231734924014,0.07516893049180508,-0.37495471788197754
1745855023900237300,1.7232373046875,0.25355266319923103,-0.004260580053925514,-0.37993952055722474
1745855023910209300,1.733209228515625,0.1411036572355777,-0.05587386291325092,-0.34943069278597827
1745855023920180200,1.74318017578125,-0.005465206603333354,-0.06833996125459671,-0.22740677987784147
1745855023930151200,1.753151123046875,-0.1159316604476422,-0.09122165514826774,-0.07205752047300339
1745855023940123400,1.763123291015625,-0.1915267073970288,-0.14555822549164293,0.06755027218163014
1745855023950094300,1.77309423828125,-0.253092059950158,-0.21002514470517633,0.1914247813925147
1745855023960065000,1.78306494140625,-0.29953714639134704,-0.2578676768541336,0.36796032894998787
1745855023970037200,1.793037353515625,-0.29144034917540845,-0.30825463278889653,0.5509910837456584
1745855023980008200,1.80300830078125,-0.2758698550779372,-0.34129823973476886,0.6515285565108061
1745855023989979400,1.8129794921875,-0.25344759538955985,-0.383120780941844,0.7259677114233374
1745855023999951000,1.822951171875,-0.22662848898172377,-0.38854105242490766,0.7789227642804384
1745855024009922300,1.83292236328125,-0.16681078381352127,-0.3294435512900352,0.8396668635785579
1745855024019893200,1.842893310546875,-0.1326232675295323,-0.2984463554799557,0.8685290931865572
1745855024029865200,1.852865234375,-0.05911730181388557,-0.2482113752365112,0.8595210263445973
1745855024039836200,1.862836181640625,0.03136303344778717,-0.13717559707164764,0.8250251747637987
1745855024049807400,1.872807373046875,0.15358436862416563,-0.05056581963300705,0.6728782185316086
1745855024059779000,1.882779052734375,0.22265600515417752,0.05021686006486416,0.4904939449459314
1745855024069750300,1.892750244140625,0.26829562043137845,0.08048983325362205,0.24804478649795053
1745855024079721200,1.90272119140625,0.25445867212824524,0.02715922508239746,0.07050386129021644
1745855024089693200,1.912693115234375,0.15905658949017523,-0.01447451555430889,0.014331892213225363
1745855024099664100,1.9226640625,-0.04105681753158569,-0.044157121634483334,0.04314385293871164
1745855024109636400,1.93263623046875,-0.347726153890416,-0.03699380587637424,0.11202303563654423
1745855024119607300,1.942607177734375,-0.5406769758064299,-0.03076338705420494,0.06494096646606921
1745855024129578200,1.952578125,-0.7447989608824253,0.03833528361320496,0.2034542418822646
1745855024139549200,1.962549072265625,-0.8815699957411736,0.12588088059723376,0.2725496976792812
1745855024149520600,1.972520751953125,-0.99841942862086,0.14279460599720478,0.2893547020077705
1745855024159491600,1.98249169921875,-1.0446401317216456,0.07255904025435447,0.285220963203907
1745855024169463600,1.992463623046875,-0.8114240079779177,-0.017418752312660216,0.22941782743930816
1745855024179434500,2.0024345703125,-0.4407470404803753,-0.04159925384521484,0.17311784806847572
1745855024189405400,2.012405517578125,-0.0029623569369316097,-0.017286065843701362,0.05990881751775741
1745855024199377700,2.022377685546875,0.4424900847554207,-0.07920505414009094,-0.11658230637609958
1745855024209348400,2.032348388671875,0.7308978613018989,-0.22680735267996788,-0.2975286561131477
1745855024219319600,2.042319580078125,0.9275696765024214,-0.2976163343966007,-0.37923546394109725
1745855024229291500,2.05229150390625,0.9887526786744594,-0.26021745485067366,-0.4184200578600168
1745855024239262500,2.062262451171875,0.9858826761960983,-0.198619369071722,-0.3868856864333153
1745855024249233400,2.0722333984375,0.9146154293179511,-0.08927227464616298,-0.2724666955709457
1745855024259205600,2.08220556640625,0.7204571313083171,0.11559271081686019,-0.07102174768447876
1745855024269176600,2.092176513671875,0.5142319634079933,0.26172142967283724,0.1263625266343355
1745855024279147500,2.1021474609375,0.31388357858657834,0.3068523647755384,0.20506313838362691
1745855024289119500,2.112119384765625,0.22218035046644508,0.3355465443402529,0.17826164069771766
1745855024299090700,2.122090576171875,0.2177647259812802,0.4014823670625686,0.09820435364246367
1745855024309061600,2.1320615234375,0.25176409928202625,0.4315396516740322,-0.03974982658624649
1745855024319033600,2.14203369140625,0.29060324076414107,0.4262836308419704,-0.18037819446027278
1745855024329004500,2.152004638671875,0.2870587000250816,0.3726327046751976,-0.3627887715309858
1745855024338975700,2.161975830078125,0.2504185298919678,0.26318039630949497,-0.5540829122811556
1745855024348947500,2.171947509765625,0.1634288132250309,0.1927075146794319,-0.6629968759864568
1745855024358918700,2.181918701171875,0.07865326547622681,0.12409516622424124,-0.7086760926216841
1745855024368889600,2.1918896484375,-0.03915602541156113,0.08710428295731544,-0.7149737314611673
1745855024378861600,2.201861572265625,-0.17777663365975022,0.044108021795749665,-0.6865513545751571
1745855024388832500,2.21183251953125,-0.28437223742008205,-0.010887304717302322,-0.6605383769184351
1745855024398803500,2.221803466796875,-0.4169992312766611,-0.02201952410638332,-0.6116963123381137
1745855024408775700,2.231775634765625,-0.5118565395135433,-0.02218435927927494,-0.5458692106872797
1745855024418746400,2.241746337890625,-0.5207774395287037,-0.02067278567254543,-0.463101495629549
1745855024428717600,2.251717529296875,-0.46814131642766293,0.02852291465103626,-0.40057577361166474
1745855024438689500,2.261689453125,-0.40291912186741824,0.03976736224293709,-0.351242126122117
1745855024448660700,2.27166064453125,-0.33764205531477925,0.008660860839486122,-0.29602058963775635
1745855024458631400,2.28163134765625,-0.2851413951616734,-0.017260346880555152,-0.23177929587364196
1745855024468603600,2.291603759765625,-0.21417693062238394,-0.03814122234582901,-0.16929098325669764
1745855024478574600,2.30157470703125,-0.22922727330327033,-0.09199030143320559,-0.11204232485890388
1745855024488545500,2.311545654296875,-0.38604514395594597,-0.11768646822571754,-0.09452537286877631
1745855024498517500,2.321517578125,-0.5453882222373038,-0.03647182782888412,-0.071302902713418
1745855024508488700,2.33148876953125,-0.7165139466404914,0.05558920075297355,-0.08028466607034206
1745855024518459600,2.341459716796875,-0.7803098347246646,0.14804244352281093,-0.03784311618208885
1745855024528431600,2.351431640625,-0.6298726050198078,0.14578034380972385,-0.018229484173655507
1745855024538402600,2.361402587890625,-0.44443763862662017,0.029790158107876778,-0.043055297872424125
1745855024548373500,2.37137353515625,-0.2552536949634552,-0.0682616353213787,0.07899988695681094
1745855024558345500,2.381345458984375,-0.11197685840725898,-0.19504384867250918,0.22943068692088125
1745855024568316400,2.39131640625,-0.003716317109391093,-0.3074064915269613,0.4128559939920902
1745855024578287600,2.40128759765625,0.06423077237010001,-0.38278643442094323,0.5981985328614712
1745855024588259600,2.411259521484375,0.10392682294249533,-0.49812546273767944,0.7325783617347479
1745855024598230500,2.42123046875,0.1777625320691615,-0.56284021923244,0.87601185015738
1745855024608202500,2.431202392578125,0.26208788836505265,-0.5957575694501399,0.9840513691157102
1745855024618173700,2.441173583984375,0.3505634596755728,-0.613711743813753,1.1183978802412748
1745855024628144400,2.451144287109375,0.3887900587499141,-0.6136445237964392,1.275482877397537
1745855024638116600,2.46111669921875,0.3486334049284458,-0.5819418100655078,1.4336585923999547
1745855024648087600,2.471087646484375,0.376647201013565,-0.5664420431166887,1.449452958381176
1745855024658058800,2.481058837890625,0.3869032220900058,-0.5679027633190155,1.39948218203187
1745855024668030500,2.491030517578125,0.41050384137537327,-0.5017728793293237,1.294004622516036
1745855024678001700,2.501001708984375,0.47505726982858026,-0.3886678936749697,1.0875544136881827
1745855024687972600,2.51097265625,0.5409013591468333,-0.26527298467457294,0.8226829955518246
1745855024697944600,2.520944580078125,0.6168903738498688,-0.1307733288139105,0.5288105238586663
1745855024707915500,2.53091552734375,0.6808289583403617,-0.031126375147700308,0.2257522906690836
1745855024717886500,2.540886474609375,0.6767161892592907,0.05213526090681553,0.001924246060848236
1745855024727858400,2.5508583984375,0.589873845173791,0.121818453463912,-0.18480302516520022
1745855024737829400,2.560829345703125,0.4374339704096317,0.14854747043550012,-0.2815051575511694
1745855024747800600,2.570800537109375,0.2777051442136988,0.18553893822431564,-0.20995558660030364
1745855024757772500,2.5807724609375,0.07037639898564665,0.16434008285105228,0.02786941917836666
1745855024767743500,2.590743408203125,-0.1442926625352353,0.07599018374681472,0.21237842983305452
1745855024777714400,2.60071435546875,-0.21897359031438826,0.01848082858622074,0.28528409156799317
1745855024787686700,2.610686767578125,-0.11558222595546394,0.01445756441950798,0.2709972075402737
1745855024797657600,2.62065771484375,0.07405768131427466,0.009786065477132797,0.21910861487090585
1745855024807628500,2.630628662109375,0.24079839556626975,-0.08097849355340003,0.16076339340806006
1745855024817600500,2.6406005859375,0.2679950300496071,-0.15690905606746672,0.12603402533233166
1745855024827571700,2.65057177734375,0.19871990683674812,-0.14185001862347124,0.06935702934265137
1745855024837542700,2.660542724609375,0.07421667126826942,-0.09257073166966438,-0.025868016228079795
1745855024847514600,2.6705146484375,-0.04442607476897537,-0.028197335958480833,-0.06985854912400245
1745855024857485600,2.680485595703125,-0.22048523698635397,0.0011889175236225128,-0.10292086077034472
1745855024867456500,2.69045654296875,-0.35445180888362227,0.06083645375669002,-0.17678396936058996
1745855024877428500,2.700428466796875,-0.4360182583928108,0.09540800092220306,-0.24035540103912353
1745855024887399400,2.7103994140625,-0.4887867026366293,0.05043839386105537,-0.3005313450604677
1745855024897370600,2.72037060546875,-0.5010194306135177,0.011091887378692626,-0.3469429676234722
1745855024907342300,2.73034228515625,-0.4817021512031555,-0.015338438907265663,-0.3862865514963865
1745855024917313500,2.7403134765625,-0.4511515301167965,-0.03825228150486946,-0.41921442310810086
1745855024927284500,2.750284423828125,-0.41080183794125913,-0.08867197066545486,-0.4602823465555906
1745855024937256400,2.76025634765625,-0.3510134319327771,-0.11617314105331897,-0.4663017529755831
1745855024947227400,2.770227294921875,-0.28347894184216854,-0.1298918698042631,-0.44919338178634644
1745855024957198600,2.780198486328125,-0.20538681738004086,-0.12430384053885936,-0.43274376676678655
1745855024967170600,2.790170654296875,-0.11962342763766645,-0.12765899618566035,-0.41528117531239983
1745855024977141500,2.8001416015625,-0.0933797099649906,-0.11240823556184767,-0.3934989670932293
1745855024987112400,2.810112548828125,-0.07469137610793113,-0.0771457835227251,-0.36651159144639966
1745855024997084700,2.820084716796875,-0.04211363310813904,-0.10140285742282867,-0.2750695715457201
1745855025007055600,2.8300556640625,-0.008028846546262501,-0.11483984662294387,-0.13881459645032881
1745855025017026600,2.840026611328125,0.013455840031057596,-0.11801906118094921,-0.015219780963659285
1745855025026998500,2.84999853515625,0.03143573335781693,-0.13709902470409868,0.09157470636963844
1745855025036969700,2.8599697265625,0.058276832401752465,-0.1423053611755371,0.18822715439498425
1745855025046941400,2.86994140625,0.05125570159330964,-0.15696633921265601,0.2641267372488975
1745855025056912600,2.87991259765625,0.03217318078689277,-0.10473930836915969,0.3102098585098982
1745855025066883600,2.889883544921875,-0.004945128251984715,-0.09247662364542483,0.35222646098434923
1745855025076855600,2.89985546875,-0.020450082832574844,-0.0855722510844469,0.36114743406474586
1745855025086826500,2.909826416015625,-0.06663768738135695,-0.05762976666986942,0.4249526744991541
1745855025096797400,2.91979736328125,-0.12740830936022102,-0.027900983360409734,0.5043371768593787
1745855025106769700,2.929769775390625,-0.2298690783381462,0.015681553256511688,0.5528542472690343
1745855025116740400,2.939740234375,-0.2927543543834239,0.03455284246504307,0.5844757124572992
1745855025126711600,2.949711669921875,-0.35215222670435903,0.02690086640715599,0.5603191763222217
1745855025136683500,2.95968359375,-0.2779926924508065,0.027128829944133757,0.44364100835621356
1745855025146654700,2.96965478515625,-0.09924246451854705,0.08049918560385703,0.3299193521082401
1745855025156626000,2.9796259765625,0.10948913324475287,0.1324421388089657,0.15058978991806507
1745855025166598100,2.98959814453125,0.2842272759914398,0.1499310337483883,-0.0828442874252796
1745855025176569000,2.999569091796875,0.4213735739033669,0.17410042936503886,-0.31292437816560265
1745855025186540000,3.0095400390625,0.5057212516289205,0.1745744766175747,-0.46565702533125874
1745855025196512000,3.019511962890625,0.5357505522549152,0.15691723937392235,-0.5398398673951625
1745855025206483200,3.029483154296875,0.5357505522549152,0.14489713123440742,-0.5862129115134477
1745855025216454100,3.0394541015625,0.523794814588502,0.11971359013915062,-0.5827642323642969
1745855025226426000,3.049426025390625,0.47519751854948694,0.09053659549355507,-0.4807762685298919
1745855025236397000,3.05939697265625,0.35940957742147145,0.07565408366024494,-0.37884617236256596
1745855025246368300,3.0693681640625,0.20342421207018196,0.0288742123067379,-0.2476934888422489
1745855025256340000,3.079340087890625,0.05990414134263992,-0.042839609295129776,-0.16098142007291316
1745855025266311200,3.089311279296875,-0.08376074468307197,-0.06167874979972839,-0.13452069864869118
1745855025276282000,3.0992822265625,-0.19505144745707512,-0.09796119253635406,-0.1485965702742338
1745855025286254000,3.109254150390625,-0.20172778341583905,-0.060060208687186235,-0.09711071318686008
1745855025296225000,3.11922509765625,-0.18230068695545196,-0.06268178936243057,-0.05318856935203075
1745855025306196000,3.129196044921875,-0.12989713050127027,-0.08480535836517811,-0.05886252333521843
1745855025316168200,3.139168212890625,-0.03747837452292442,-0.0935761093199253,0.0039461072772741315
1745855025326139000,3.149138916015625,0.03769238259978592,-0.11610825912356376,0.02161445043683052
1745855025336110000,3.159110107421875,0.10723302488103509,-0.12811667682528496,0.08993746055662631
1745855025346082000,3.16908203125,0.12394552862048148,-0.12084756260514258,0.19646014521121977
1745855025356053000,3.179052978515625,0.15270860870294273,-0.13522387848198414,0.2888064204752445
1745855025366024000,3.18902392578125,0.15127894122600555,-0.1274263564735651,0.2930027031213045
1745855025375996200,3.19899609375,0.12458857576437293,-0.15927286258935927,0.3348457025945186
1745855025385967000,3.208967041015625,0.03379588661789894,-0.16374036339223383,0.43599955369234084
1745855025395938000,3.21893798828125,-0.00670329703092575,-0.16838088267445564,0.47336336192488665
1745855025405910000,3.228909912109375,-0.027923852779343724,-0.17500760733783244,0.5098322671443224
1745855025415881200,3.238881103515625,-0.035510800777003165,-0.1632446888297796,0.5044236860990524
1745855025425852200,3.24885205078125,-0.038119083579257126,-0.16220540890991686,0.5384995587021112
1745855025435824000,3.25882421875,-0.047211833029985426,-0.16504267816245555,0.5133808995366096
1745855025445795000,3.268795166015625,-0.010027984474226832,-0.17864976323246956,0.4552846843987703
1745855025455767000,3.27876708984375,0.041356092739105225,-0.19011574462056158,0.36620413293242454
1745855025465738000,3.288738037109375,0.010242065616324543,-0.13348960203528404,0.2680418648660183
1745855025475709200,3.298709228515625,-0.034879663266614076,-0.07616963196694851,0.16820786419510841
1745855025485681200,3.30868115234375,-0.08546871764473617,-0.07249591189026833,0.07635141827464104
1745855025495652000,3.318652099609375,-0.1419615892391652,-0.022774141865968704,-0.013542787662148476
1745855025505623000,3.328623046875,-0.1707926199913025,-0.00040974984467029567,-0.050794952213764184
1745855025515595300,3.33859521484375,-0.19664142006225882,0.02174596786201,-0.08174304818511009
1745855025525566200,3.348566162109375,-0.23382161535620688,0.02526303607225418,-0.13452069864869118
1745855025535537000,3.358536865234375,-0.15935571856722236,0.06270575475990772,-0.15178805979192256
1745855025545509000,3.368509033203125,-0.051229836499691005,0.014977204379439352,-0.18543781593739986
1745855025555480000,3.37847998046875,0.07134433070234954,-0.005881459254026412,-0.2117126594007015
1745855025565451300,3.388451171875,0.16783957887198775,-0.02581073308289051,-0.20849895805120466
1745855025575423000,3.398423095703125,0.3158206841289997,-0.00931494083404541,-0.19496201560795307
1745855025585394200,3.408394287109375,0.45804662339277563,0.010091185903549195,-0.14891279661655424
1745855025595365000,3.418365234375,0.5034054489672184,-0.011044541105628013,-0.06432078874111175
1745855025605337000,3.428337158203125,0.5241723426640034,-0.029436522364616392,0.018663783937692642
1745855025615308000,3.43830810546875,0.5590274194786324,-0.09071253658235072,0.07471534150540829
1745855025625279200,3.448279296875,0.5607376574626192,-0.09258592923879623,0.14606325240433216
1745855025635251000,3.4582509765625,0.5604278973937035,-0.10231295800507068,0.2146276700645685
1745855025645222100,3.46822216796875,0.5194154669931158,-0.10882219376862048,0.24856267289221284
1745855025655193000,3.478193115234375,0.4334651033112779,-0.1264671560525894,0.29020401231348514
1745855025665165300,3.488165283203125,0.3104652580430731,-0.15766308930516243,0.34339375070929523
1745855025675136000,3.498135986328125,0.19593290646672248,-0.15350070892870427,0.364008084192872
1745855025685107000,3.50810693359375,0.09495203731562941,-0.19986381617486476,0.3437321888834238
1745855025695079200,3.5180791015625,-0.0025485154390335082,-0.18796119693517685,0.31886838126182554
1745855025705050000,3.528050048828125,-0.03858779706954956,-0.16608488069176672,0.29252807134687897
1745855025715021000,3.53802099609375,-0.08118651028089224,-0.10365385122001171,0.24414777905941007
1745855025724993000,3.547992919921875,-0.11549454767201095,-0.06802958013117313,0.1446235749900341
1745855025734964200,3.557964111328125,-0.12342881126999854,-0.04865910922884941,0.042240474358201024
1745855025744935000,3.567934814453125,-0.1573158102374524,-0.05542787271142006,-0.05773381156623363
1745855025754907100,3.5779072265625,-0.18709603147320447,-0.07157645895779133,-0.1057978775113821
1745855025764878000,3.587878173828125,-0.21534012918286025,-0.07794365590214729,-0.12210428466796874
1745855025774849300,3.597849365234375,-0.23495902188830076,-0.060769233739376066,-0.13923019151389598
1745855025784821000,3.607821044921875,-0.1825683249156922,-0.01836100159883499,-0.18339958810806273
1745855025794792200,3.617792236328125,-0.13289222066402434,0.1014192240357399,-0.13760580518245696
1745855025804763100,3.62776318359375,-0.12164017428755759,0.13621522760689259,-0.13808219052255152
1745855025814735000,3.637735107421875,-0.09042911653108894,0.10359832164049149,-0.11641513311564922
1745855025824706000,3.6477060546875,-0.0540226090233773,0.022255670949816703,-0.09872925429940223
1745855025834678300,3.65767822265625,-0.015998364120721816,-0.0010831190615892409,-0.04973053785264492
1745855025844649000,3.66764892578125,0.0149626643974334,-0.010260697251558303,-0.003375613912940025
1745855025854620000,3.677619873046875,0.021530242752097545,-0.08082944047152996,0.035143209573626516
1745855025864592100,3.687592041015625,0.008943111846968532,-0.1400625506848097,0.09580839841663837
1745855025874563000,3.69756298828125,-0.0020633988032117486,-0.16704700372219083,0.1348725808262825
1745855025884534000,3.707533935546875,-0.039130160317942496,-0.20287176581919192,0.19939386057555675
1745855025894506000,3.717506103515625,-0.06330598567537964,-0.21122750623226164,0.23229016800522803
1745855025904477200,3.727477294921875,-0.02353522589895874,-0.2272293774843216,0.2264613157212734
1745855025914448100,3.7374482421875,0.04584752240683883,-0.21690496734678744,0.2355634905874729
1745855025924420000,3.747420166015625,0.1289993048787117,-0.18432254817187785,0.23570202227532863
1745855025934391000,3.75739111328125,0.22082535566091535,-0.13762334083914757,0.22682430381476879
1745855025944362200,3.7673623046875,0.3146866751303896,-0.07361176417768,0.23370588002204892
1745855025954334000,3.777333984375,0.38582645970396695,-0.021741291686892508,0.2191816801071167
1745855025964305200,3.78730517578125,0.38522096809148787,-0.02995557780265808,0.16761808160841463
1745855025974276000,3.797276123046875,0.3469815095355734,-0.037303017956018446,0.10166530775129795
1745855025984248000,3.807248046875,0.2446224108338356,-0.021381226202845573,0.11416647740602492
1745855025994219000,3.817218994140625,0.12926347224023194,0.013757891717553138,0.10732523320913315
1745855026004190200,3.827190185546875,0.008438157999515533,-0.012052841365337371,0.0885217485398054
1745855026014162200,3.837162109375,-0.12029464143011719,-0.032086744612455365,0.12321662982404231
1745855026024133000,3.847133056640625,-0.22556699723005294,0.003382628175616264,0.1557207230657339
1745855026034104000,3.85710400390625,-0.2949310408353805,0.030245500659942626,0.13483107977211475
1745855026044076300,3.867076171875,-0.33662849435806275,0.018742109870910642,0.07039630926251411
1745855026054047200,3.877047119140625,-0.3317056875357404,-0.005530161598324776,-0.043515316599607466
1745855026064018000,3.887017822265625,-0.2996434563100338,-0.008923311167955398,-0.1834527796000242
1745855026073990100,3.896990234375,-0.2194073420891538,0.017379589346051216,-0.34645722993314265
1745855026083961000,3.906961181640625,-0.21831183847002683,-0.021812603357434273,-0.5160001421242952
1745855026093932000,3.91693212890625,-0.2483246994178742,-0.11459668551683425,-0.6287123290687799
1745855026103904000,3.926904052734375,-0.246731438877061,-0.23597616304159164,-0.6392056660324335
1745855026113875200,3.936875244140625,-0.2517630033034831,-0.28663842878639695,-0.4875140523523092
1745855026123846100,3.94684619140625,-0.24918986487984657,-0.2928238394230604,-0.31866379860043526
1745855026133818000,3.956818115234375,-0.24415355121307072,-0.3433616020053625,-0.10363982269465923
1745855026143789000,3.9667890625,-0.20976620150804517,-0.3755067988067865,0.08504033616483211
1745855026153761000,3.976760986328125,-0.1311211924035102,-0.3612210838228464,0.25709786152541636
1745855026163732000,3.98673193359375,-0.00928341318462044,-0.3555015371322632,0.3927046018451452
1745855026173703200,3.996703125,0.1349461940517649,-0.32676761007905003,0.4659399339258671
1745855026183675100,4.006675048828125,0.2972376007447019,-0.2879974421799183,0.5179956998556852
1745855026193646000,4.01664599609375,0.4099894986450672,-0.23187808007299898,0.5446183338433503
1745855026203617000,4.026616943359375,0.4722948559105396,-0.20036007525920868,0.5656541076093912
1745855026213589200,4.03658935546875,0.522867726338841,-0.1280482877641916,0.6335340501368045
1745855026223560200,4.046560302734375,0.5264110980341211,-0.058708209556341165,0.6189186648070811
1745855026233531000,4.05653076171875,0.5146715238690376,-0.01811491788327694,0.5705079773813486
1745855026243503000,4.066503173828125,0.46582302954792976,-0.015628946286439894,0.4937614223092794
1745855026253474000,4.07647412109375,0.42745972541663796,0.03629530221819877,0.4556868354588747
1745855026263445200,4.0864453125,0.40270171625707296,0.06412614295184611,0.4024263699144125
1745855026273417000,4.0964169921875,0.35492636759281154,0.0992664299160242,0.32703298301696776
1745855026283388200,4.10638818359375,0.3034930809428915,0.13090133910775184,0.1900064390271902
1745855026293359000,4.116359130859375,0.23498711547162382,0.20960487346649168,0.00883563288450241
1745855026303331000,4.1263310546875,0.12473938241191207,0.28030747219920155,-0.1376046361386776
1745855026313302000,4.136302001953125,-0.04006305725388229,0.31997955737411976,-0.21369769573807715
1745855026323273200,4.146273193359375,-0.2550256583612412,0.314255334508419,-0.25253917530775066
1745855026333245000,4.156244873046875,-0.4006897553801536,0.24753742149770258,-0.2869967407047748
1745855026343216000,4.166216064453125,-0.45724115222878753,0.1910778676509857,-0.2991723316669464
1745855026353187000,4.17618701171875,-0.5239350633094086,0.14747779537737368,-0.2747884165167808
1745855026363159300,4.1861591796875,-0.4852175023803487,0.1065513262271881,-0.33007308136522767
1745855026373130000,4.1961298828125,-0.3846926333684474,0.09421732983291149,-0.3595645487874746
1745855026383101000,4.206100830078125,-0.2596318004498258,0.0690069007307291,-0.42082302734851834
1745855026393073200,4.2160732421875,-0.11755089567992835,0.028923312145471572,-0.43698388855457304
1745855026403044000,4.226044189453125,0.043041890401579436,-0.00978197382390499,-0.4111836768656969
1745855026413015000,4.23601513671875,0.13980945270657538,-0.047160979625582695,-0.38291093758344646
1745855026422987000,4.245987060546875,0.21459669040441512,-0.07126315522491931,-0.31164076809585095
1745855026432958200,4.255958251953125,0.2294283488333225,-0.1395551856845617,-0.2476239307373762
1745855026442930000,4.265929931640625,0.22056816602945326,-0.1756196017563343,-0.1620470034778118
1745855026452901000,4.275901123046875,0.165834741855599,-0.19683248565495012,-0.06411445251405239
1745855026462872000,4.2858720703125,0.09853168590068817,-0.23458909259736538,0.007242226213216781
1745855026472844000,4.295843994140625,0.026129260980151593,-0.23965748190283773,0.07091828731000423
1745855026482815000,4.30581494140625,-0.028812289519049225,-0.21016016926169395,0.14508359371721744
1745855026492786200,4.3157861328125,-0.09569211509320884,-0.18913316332399843,0.16864567109048365
1745855026502758100,4.325758056640625,-0.16595402085371314,-0.1366454357177019,0.17641688961386678
1745855026512729000,4.33572900390625,-0.2320996504018083,-0.08269114269018173,0.21599311319887637
1745855026522700000,4.345699951171875,-0.29766547076795247,-0.058165773242712014,0.24855273602008818
1745855026532672300,4.35567236328125,-0.3246002029120922,-0.03601765432059765,0.2652443431019783
1745855026542643000,4.365642822265625,-0.31424601869080215,-0.01858896513581276,0.2378898877084255
1745855026552614000,4.37561376953125,-0.26507600079774857,-0.05897007536292076,0.20611703135073184
1745855026562586000,4.385586181640625,-0.18951372360680252,-0.0673947893589735,0.14284312131404875
1745855026572557000,4.39555712890625,-0.08694529300332068,-0.07127192305326462,0.10224982964098453
1745855026582528000,4.405528076171875,0.01731474394891411,-0.08414251054227352,0.05294774633347988
1745855026592500200,4.415500244140625,0.11290738072302192,-0.05651449890434742,-0.025751696372032163
1745855026602471200,4.42547119140625,0.17078560572862625,-0.015320903250575064,-0.14466449152231214
1745855026612442000,4.435442138671875,0.20223872861266134,0.03280336844921112,-0.2405833645761013
1745855026622414000,4.4454140625,0.1636509680757299,0.11130115110278128,-0.29110768315494057
1745855026632385000,4.455385009765625,0.11554127289056777,0.14906711039543152,-0.3606125965356827
1745855026642356200,4.465356201171875,0.055792614370584484,0.156722009062767,-0.44578386560380456
1745855026652328000,4.475327880859375,0.007046995902061462,0.1651402933180332,-0.4404185391783714
1745855026662299100,4.485299072265625,-0.07371758090602233,0.12561141600608824,-0.35490474028289315
1745855026672270000,4.49527001953125,-0.12134206812381744,0.03925122941434383,-0.25735972733199597
1745855026682242000,4.505241943359375,-0.10433481922149658,-0.034490883144736285,-0.1219493863672018
1745855026692213000,4.515212890625,-0.03008654723856598,-0.07856675623655318,0.056963411715626716
1745855026702184200,4.52518408203125,0.09781973823904991,-0.07753039892613887,0.26233926931023593
1745855026712156200,4.53515625,0.22378535624397916,-0.10876140349209308,0.41075229971110816
1745855026722127000,4.545127197265625,0.35914077041745185,-0.14856500609219073,0.4586901089280844
1745855026732099000,4.55509912109375,0.48474045945312827,-0.17458499801158903,0.45749183905422686
1745855026742070300,4.5650703125,0.5289409087726846,-0.18362638260126113,0.44983986299633977
1745855026752041200,4.575041259765625,0.46959202669262884,-0.16918343122899532,0.44829087998867034
1745855026762013200,4.58501318359375,0.3472819903194904,-0.12873919263780118,0.4599684583008289
1745855026771984100,4.594984130859375,0.20695695277359336,-0.10634323643445968,0.4158493305891752
1745855026781955000,4.604955078125,0.07117134875562041,-0.07467325592935085,0.3243254776239395
1745855026791927000,4.614927001953125,-0.04693243156671524,-0.08420096273124217,0.2515186000883579
1745855026801898000,4.62489794921875,-0.1329027420580387,-0.08570084590017794,0.20320085164308546
1745855026811869200,4.634869140625,-0.18588616249309853,-0.03930968160331249,0.20261632975339888
1745855026821841000,4.6448408203125,-0.23872809209823606,-0.03344984965920448,0.16951251705288886
1745855026831812000,4.65481201171875,-0.28680498099233953,-0.026595161458849905,0.08544540983438491
1745855026841783000,4.664782958984375,-0.2935550763070583,-0.03587853811085224,0.0057721536606550215
1745855026851755300,4.67475537109375,-0.28874332864377644,-0.03734451901018619,-0.07596738739311695
1745855026861726000,4.684725830078125,-0.24873280529472974,-0.059201546031236646,-0.11043605870604514
1745855026871697200,4.694697265625,-0.16140055880043655,-0.09941314491033554,-0.15949907256066798
1745855026881669000,4.704669189453125,-0.007997428494691849,-0.14451076226532458,-0.13354513161480425
1745855026891640000,4.71464013671875,0.09246668677330017,-0.14880466006696225,-0.06803659439384938
1745855026901611000,4.724611083984375,0.16890110715627668,-0.1432294902831316,-0.010482815569639205
1745855026911583200,4.734583251953125,0.2488169764468446,-0.16849895609617233,0.011911971589922904
1745855026921554200,4.74455419921875,0.27206569528831165,-0.12778408387005327,0.03675239833593368
1745855026931524900,4.75452490234375,0.2719231632787734,-0.08146656933128833,0.060469374009966846
1745855026941497000,4.7644970703125,0.2252536934971809,-0.06803600987195968,0.06311842721402645
1745855026951468000,4.774468017578125,0.16061145424935966,-0.08195815224051475,0.0891319893926382
1745855026961439200,4.784439208984375,0.10973580148220062,-0.06789280200898647,0.13140636602044103
1745855026971411000,4.794410888671875,0.058918600904010236,-0.043484336939454075,0.1307990477770567
1745855026981382100,4.804382080078125,0.021296452262531965,-0.05566168146729469,0.17518062581717966
1745855026991353000,4.81435302734375,0.02249004596127197,-0.09579553893506526,0.22786124564707277
1745855027001325000,4.824324951171875,-0.0076900065133348105,-0.12775076612234115,0.273120775565505
1745855027011296000,4.8342958984375,0.015368231257330625,-0.11170271764099597,0.28822014501988885
1745855027021268200,4.844268310546875,0.019196849634777753,-0.1159147823780775,0.2881488333493471
1745855027031239000,4.854239013671875,0.029001601546071468,-0.0803875419229269,0.28717092822790147
1745855027041210000,4.864210205078125,0.040383448314666746,-0.08331658111214638,0.2597276255071163
1745855027051182000,4.87418212890625,0.05427640112135559,-0.07698036382794379,0.237767722633481
1745855027061153300,4.8841533203125,0.045094676479231564,-0.07477087108492851,0.1995055042564869
1745855027071124000,4.8941240234375,0.08558690066430717,-0.0632686493396759,0.14907880083322525
1745855027081096200,4.90409619140625,0.06351184697840362,-0.06699556090831756,0.12374912926554679
1745855027091067100,4.914067138671875,0.04707973108291626,-0.08777882121801375,0.13789455899596215
1745855027101038000,4.9240380859375,0.044290374359022826,-0.12480828292965888,0.10903145260512828
1745855027111010000,4.934010009765625,0.04903784288074821,-0.16133622485995291,0.1112356846511364
1745855027120981000,4.94398095703125,0.043579650540091094,-0.1628922221302986,0.11359890665113925
1745855027130952200,4.9539521484375,0.054873745959997174,-0.1370680450439453,0.1279530106961727
1745855027140924000,4.963923828125,0.08266662930343299,-0.15237842690050601,0.13194997137784958
1745855027150895000,4.97389501953125,0.1210042144715786,-0.1336181968510151,0.13287585405111313
1745855027160866000,4.983865966796875,0.16723288168311118,-0.127159814491868,0.14515665895342825
1745855027170838000,4.993838134765625,0.18381109151840208,-0.1415600957661867,0.17834113567471502
1745855027180809000,5.00380908203125,0.19183427550885826,-0.15827391467988491,0.20196049619317052
1745855027190780200,5.0137802734375,0.20185060607790944,-0.16099486407637595,0.23518588944673538
1745855027200752000,5.023752197265625,0.17845340041015295,-0.15844927124679087,0.2412754384934902
1745855027210723000,5.03372314453125,0.1503998203039169,-0.13312310681045056,0.21152385883033276
1745855027220694000,5.043694091796875,0.12175589135540649,-0.10608487775921821,0.2056611042767763
1745855027230666200,5.053666259765625,0.07464105242649093,-0.09045593147277832,0.1962146460175514
1745855027240637200,5.06363720703125,0.026244996314309536,-0.0738256991893053,0.15729600955843925
1745855027250607900,5.07360791015625,-0.006478840625286102,-0.07070084516704082,0.13385609726011752
1745855027260580000,5.083580078125,-0.025588066775538026,-0.069669164031744,0.13227613459229468
1745855027270551000,5.093551025390625,-0.03101001875903457,-0.05035246914327144,0.11284954958856105
1745855027280523000,5.10352294921875,-0.05394439268801361,-0.049286301216483114,0.09087737175524234
1745855027290494000,5.113493896484375,-0.06859839299507439,-0.03455459603071213,0.05000175600945949
1745855027300465200,5.123465087890625,-0.0825181242108345,-0.03102349929511547,0.00784486828148365
1745855027310436900,5.133436767578125,-0.11301960892584174,0.020393968731164933,-0.049426586470007895
1745855027320408000,5.143407958984375,-0.14132690806481987,0.050989013481140134,-0.0991618004977703
1745855027330379000,5.15337890625,-0.1522480785191059,0.0636129327327013,-0.13004150740802287
1745855027340351200,5.163351318359375,-0.16163900719881058,0.03971592431664467,-0.138144734364748
1745855027350322000,5.173322021484375,-0.16629297048449515,-0.005632452929019927,-0.12768529967069625
1745855027360293000,5.183293212890625,-0.12482819320652633,-0.05397708938121795,-0.14496610481739045
1745855027370265000,5.19326513671875,-0.06368482892513275,-0.06653788026869296,-0.09793839618265628
1745855027380236000,5.203236083984375,0.02673256063554436,-0.07309855395853519,-0.020270634612441062
1745855027390207000,5.21320703125,0.12671853699777275,-0.08531272336542606,-0.022602292430400846
1745855027400179200,5.22317919921875,0.19342881469130516,-0.11191197647750377,-0.032280805879831315
1745855027410150100,5.233150146484375,0.250645287852548,-0.12532909193336964,0.00018178630769252776
1745855027420120800,5.243120849609375,0.2738683790624142,-0.11100187589526175,0.005232639956474304
1745855027430093000,5.253093017578125,0.2752209261825308,-0.0916810893535614,0.008174538627266883
1745855027440064000,5.26306396484375,0.26097616426348685,-0.07009001979231834,0.049260582253336904
1745855027450035200,5.27303515625,0.20407295830249786,-0.048369186371564864,0.0629986002266407
1745855027460007000,5.2830068359375,0.14616788182258605,-0.04640753090977669,0.06818272486627101
1745855027469978000,5.29297802734375,0.0927963205864653,-0.012211831319332123,0.0675514412254095
1745855027479949000,5.302948974609375,0.038600656551122665,0.0052472530037164684,0.05604395878314972
1745855027489921000,5.312921142578125,0.002555529701709747,0.005331424155831337,0.07223287703990935
1745855027499892000,5.32289208984375,-0.02996960632801056,-0.02411152794957161,0.08000292651951313
1745855027509863200,5.33286328125,-0.04828380964305252,-0.05297638790607452,0.12577566665709017
1745855027519835000,5.3428349609375,-0.0626361601224169,-0.06758183636367321,0.13307926766872405
1745855027529806000,5.35280615234375,-0.0954150151848793,-0.07933890965282916,0.1517214242964983
1745855027539778000,5.362778076171875,-0.10853172292206435,-0.10548457377851009,0.12714403240084649
1745855027549749200,5.372749267578125,-0.0894060936262831,-0.09255085792541504,0.1113052427560091
1745855027559720000,5.382719970703125,-0.08123802127242088,-0.10726561197638511,0.09304770153164862
1745855027569692200,5.392692138671875,-0.08813187243938446,-0.11541501616239547,0.053202597877383226
1745855027579663000,5.4026630859375,-0.06497548979017884,-0.09798223532438277,0.035030981370806694
1745855027589634000,5.412634033203125,-0.029385084438323973,-0.06755962453186512,0.01976151604652405
1745855027599606000,5.42260595703125,-0.01934182932972908,-0.07367138541042804,0.017248071920871733
1745855027609577000,5.432576904296875,-0.0037011926054954527,-0.08726093482375144,0.022165070056915284
1745855027619548200,5.442548095703125,0.009013291006349027,-0.08630641057789325,0.04673895482122898
1745855027629520000,5.452519775390625,0.04498593714144081,-0.10272563045918941,0.061411038774251935
1745855027639491000,5.462490966796875,0.08368362432625144,-0.09955109207630157,0.08677695069909096
1745855027649462000,5.4724619140625,0.12903897930197417,-0.11253916846513748,0.11340250729620456
1745855027659434000,5.48243408203125,0.1871265362093225,-0.09210837485492229,0.15324877999424932
1745855027669405000,5.492405029296875,0.20568854027297345,-0.047536827200651166,0.14786241078078746
1745855027679376100,5.502376220703125,0.22273560972902923,0.03244213392138481,0.10971417417228221
1745855027689348000,5.51234814453125,0.23349895927309988,0.09193009567856789,0.017495909202098845
1745855027699319000,5.522319091796875,0.2572761407017708,0.17707330769598484,-0.05664835441708564
1745855027709290000,5.5322900390625,0.24135840406920758,0.16218495064377783,-0.13124036180377005
1745855027719262200,5.54226220703125,0.06687982557415961,0.05915069262683391,-0.182468444737792
1745855027729233200,5.552233154296875,0.01939206167962402,-0.000754033237695694,-0.02221709250509739
1745855027739205000,5.562205078125,0.010261866295337676,-0.01935001263618469,0.10074760838449001
1745855027749176000,5.572176025390625,0.0032756606698036194,-0.08027005302309989,0.12131225750744343
1745855027759147300,5.582147216796875,0.00023618337605148552,-0.09098141665160656,0.17394728462994097
1745855027769119000,5.592118896484375,-0.021342099768854678,-0.11899871986806392,0.2717167539864778
1745855027779090200,5.602090087890625,-0.05981646305918693,-0.16097615937590598,0.25860066730380055
1745855027789061000,5.61206103515625,-0.04443418501019478,-0.14443477441966532,0.2087158156722784
1745855027799033000,5.622033203125,-0.031890381790138776,-0.12904431306421757,0.1059498532027006
1745855027809004000,5.632004150390625,-0.010015234590508043,-0.10579144777059554,0.029814708027243612
1745855027818975000,5.64197509765625,0.045437188040278846,-0.07314239310026169,0.03005319295823574
1745855027828947000,5.651947021484375,0.06841244196891784,-0.038160511568188664,-0.032765959048271176
1745855027838918000,5.66191796875,0.03951715034153312,-0.03329436683654785,-0.09058861794173717
1745855027848889000,5.67188916015625,0.007050503033399581,-0.02817044795155525,-0.11749416052401065
1745855027858861000,5.681861083984375,-0.060203380017541344,-0.026759412109851836,-0.15717793613672257
1745855027868832000,5.69183203125,-0.0965781772127375,-0.00795943457186222,-0.14404665188491345
1745855027878803000,5.701802978515625,-0.14074234964251517,-0.004635258585214614,-0.11481938835680484
1745855027888775200,5.711775146484375,-0.16775898791644722,-0.0020797288835048672,-0.0756686967074871
1745855027898746000,5.72174609375,-0.1758160376438871,0.028746786534786222,-0.03495265543758869
1745855027908717000,5.731717041015625,-0.1706476585626602,0.02153086380660534,-0.027440380111336708
1745855027918689000,5.74168896484375,-0.1474292800605297,0.0028097967237234113,-0.035303953093290326
1745855027928660200,5.75166015625,-0.12681085492372512,-0.06346680226027965,-0.018961305579543113
1745855027938631200,5.761631103515625,-0.07912318454291671,-0.12312310632169246,0.04566109645664692
1745855027948603100,5.77160302734375,-0.010448913300037383,-0.12986615084111688,0.14191139342188835
1745855027958574000,5.781573974609375,0.06385784740447997,-0.11744622972905636,0.1987473793655634
1745855027968545000,5.791544921875,0.08980006137993186,-0.11483166331648825,0.21153262665867803
1745855027978517000,5.80151708984375,0.10397709182500839,-0.13822189125418663,0.1776630902826786
1745855027988488000,5.811488037109375,0.09761047940254211,-0.1409071848154068,0.16812778469622133
1745855027998460200,5.821460205078125,0.10427749954368919,-0.1565361311018467,0.1547930868268013
1745855028008430800,5.831430908203125,0.10609886975195258,-0.16990473124086855,0.1740074903845787
1745855028018402000,5.841402099609375,0.12389876686930655,-0.15826397780776022,0.16921733349859713
1745855028028374000,5.8513740234375,0.10968787068724632,-0.14266133500635622,0.12908289150893687
1745855028038345200,5.86134521484375,0.12999408806972204,-0.1231260289311409,0.10237959350049496
1745855028048316000,5.87131591796875,0.16832590108420697,-0.10409984142184257,0.10256137980818748
1745855028058288000,5.8812880859375,0.2231060870092362,-0.08733107745051384,0.08431611354351043
1745855028068259000,5.891259033203125,0.2959305367341265,-0.14767594829797745,0.12125263627469539
1745855028078230000,5.90122998046875,0.32564415900707244,-0.15161328774690627,0.11570084736645221
1745855028088202000,5.911201904296875,0.3553588407259434,-0.12401391768157481,0.15185586433112622
1745855028098173200,5.921173095703125,0.28283490831758823,-0.12762918556928635,0.10927753632068633
1745855028108144000,5.93114404296875,0.17351762450840322,-0.11495032126009463,0.10049392588436602
1745855028118116000,5.9411162109375,0.07941190182380378,-0.07944879976809024,0.11213409479558467
1745855028128087000,5.951087158203125,-0.01904843587372452,-0.052706923314929,0.08008885123729706
1745855028138058000,5.96105810546875,-0.12744568222854286,-0.015001754298806189,0.0913672010987997
1745855028148030000,5.971030029296875,-0.2573755094230175,0.006204699859023094,0.0711725543320179
1745855028158001000,5.9810009765625,-0.37386246566586195,0.0030301614761352536,0.09272972162365913
1745855028167972000,5.99097216796875,-0.43690563568659124,0.0355272404551506,0.09573825578987598
1745855028177944000,6.000944091796875,-0.463442856413126,0.05531915163993835,0.08933306492269039
1745855028187915000,6.0109150390625,-0.4722725710134953,0.05613046802282333,0.03587853811085224
1745855028197887000,6.020886962890625,-0.42922253383807835,0.042026539346575735,0.0008095628172159195
1745855028207858200,6.030858154296875,-0.34642168369572607,-0.020472879186272618,-0.0443459222048521
1745855028217828900,6.040828857421875,-0.22819855131004005,-0.019970190361142157,-0.02902092730104923
1745855028227801000,6.050801025390625,-0.09238485370874404,-0.059815878537297244,-0.03693418464362621
1745855028237772000,6.06077197265625,0.03504431577641517,-0.06594692863821983,-0.025954525467753408
1745855028247743200,6.0707431640625,0.13764080343060195,-0.09852817876935005,0.015252514189481734
1745855028257715000,6.08071484375,0.19340656632687894,-0.11798749699890612,0.03702420101463794
1745855028267686100,6.09068603515625,0.24691370010878888,-0.13164251286387443,0.047853638064861294
1745855028277657000,6.100656982421875,0.2529658762872219,-0.13979483965933323,0.031212299865484235
1745855028287629000,6.110629150390625,0.22045126165151593,-0.15280921953320503,0.04953647658526897
1745855028297600000,6.12060009765625,0.17890103457979856,-0.12496376575231552,0.08340425939559937
1745855028307571000,6.130571044921875,0.10370817522313446,-0.09748831432759761,0.09134498926699161
1745855028317543000,6.14054296875,0.014583748082444071,-0.07645604769289494,0.12276713249087333
1745855028327513900,6.150513916015625,-0.04203063099980354,-0.06841945623159408,0.16448095262646675
1745855028337485000,6.160485107421875,-0.05340769199542701,-0.03822130184471607,0.17583938198685645
1745855028347457000,6.17045703125,-0.05498948129415512,-0.02227671373784542,0.15430734913647173
1745855028357428000,6.180427978515625,-0.048543446959927676,-0.018014380118250847,0.1345405723929405
1745855028367399000,6.19039892578125,-0.01975216369628906,-0.03915770591199398,0.12606968116760253
1745855028377371100,6.20037109375,0.0015128157157450913,-0.05113280586600304,0.1415776314228773
1745855028387342000,6.210342041015625,0.061745348762534555,-0.046184243547916407,0.15008476300537585
1745855028397313000,6.22031298828125,0.07428096867613494,-0.057656654676795004,0.1173527062267065
1745855028407285000,6.230284912109375,0.06017309447713196,-0.06971826387047768,0.065678048568964
1745855028417256200,6.240256103515625,0.05748188263177871,-0.057277884492278094,0.02234334923326969
1745855028427228000,6.250227783203125,0.059126800294592975,-0.06774667153656483,0.033716391640901566
1745855028437199000,6.26019921875,0.08551445648260414,-0.09649754972457886,0.04014730147123337
1745855028447170000,6.270170166015625,0.04573299264907837,-0.09911796135604381,0.011714403191208839
1745855028457142000,6.28014208984375,-0.03024433161616325,-0.12235153742730617,-0.01516775851547718
1745855028467113000,6.290113037109375,-0.0997065748989582,-0.08034779443442822,-0.0010129764348268508
1745855028477084200,6.300084228515625,-0.1637947239279747,-0.09118658383488655,0.03750818513929844
1745855028487056100,6.31005615234375,-0.13452062558345496,-0.07502046193182468,0.09271861570775508
1745855028497027000,6.320027099609375,-0.1114531267940998,-0.05005436297953129,0.11252806254923343
1745855028506998000,6.329998046875,-0.07289214466623961,-0.020246669214963913,0.12437690577507018
1745855028516970200,6.33997021484375,0.007501826997473836,-0.003474398112297058,0.14931845480799674
1745855028526941200,6.349941162109375,0.09018471331596374,-0.04840718029439449,0.15850304726064204
1745855028536912000,6.359911865234375,0.1524094796258956,-0.09784311911463738,0.1341664783835411
1745855028546884000,6.369884033203125,0.1898808398861438,-0.13086100709736345,0.1787175677716732
1745855028556855000,6.37985498046875,0.21955343602895735,-0.13163959025442598,0.2089081233739853
1745855028566826000,6.389825927734375,0.18539865297079086,-0.09633914429247378,0.19174246903955935
1745855028576798000,6.3997978515625,0.15325575772430747,-0.09483633851408958,0.15094634827077388
1745855028586769200,6.40976904296875,0.06295651465058326,-0.0978501333773136,0.08548807993233204
1745855028596740000,6.419739990234375,-0.007071472756192088,-0.09446282902657985,0.055228550747036934
1745855028606712000,6.429712158203125,-0.03518821775913238,-0.10249649787843226,0.03361760744154453
1745855028616683000,6.43968310546875,-0.06138290865831077,-0.08738602250814437,-0.004420154529809952
1745855028626654200,6.449654296875,-0.07861234894394874,-0.0851233382731676,0.011827800437808036
1745855028636626000,6.4596259765625,-0.07919687083363533,-0.05952770924568176,-0.006314005452394485
1745855028646597000,6.46959716796875,-0.07126023261547088,-0.03853928175270557,-0.05071545723676681
1745855028656569000,6.479569091796875,-0.05593633369021117,-0.046015316721796984,-0.04657178156077862
1745855028666540000,6.4895400390625,-0.035464112091064454,-0.03914659999608993,-0.03198854493498802
1745855028676511000,6.499510986328125,-0.04818908056430518,-0.04819909050166606,-0.03072247052192688
1745855028686483200,6.509483154296875,-0.055256023275852204,-0.054312604945898055,0.031125206103920933
1745855028696454100,6.5194541015625,-0.05302431870102882,-0.07010872449278831,0.08398235154449939
1745855028706424800,6.5294248046875,-0.045280609239079055,-0.07412263630926609,0.12563245879411697
1745855028716397000,6.53939697265625,-0.026820238918997347,-0.08085223682522773,0.1293558632314205
1745855028726368000,6.549367919921875,-0.009498517240025102,-0.09107201754450797,0.15815116508305072
1745855028736339200,6.559339111328125,0.01815758798122406,-0.10502046339809894,0.15753975518643856
1745855028746311000,6.569310791015625,0.04716273319125175,-0.0980728362172842,0.14678513693809508
1745855028756282000,6.5792822265625,0.05601115249209106,-0.0889274067312479,0.13219605509340762
1745855028766253000,6.589253173828125,0.06382975382115691,-0.07982347829937934,0.14623393279612062
1745855028776225000,6.59922509765625,0.07241064475961029,-0.0923515359610319,0.13168576748371125
1745855028786196000,6.609196044921875,0.052851300221681594,-0.10833294894695282,0.10885025081932544
1745855028796167200,6.619167236328125,-0.011808511215448379,-0.09396715446412562,0.10404957253932952
1745855028806139000,6.629138916015625,-0.032762451916933055,-0.0980856956988573,0.09330255307555198
1745855028816110000,6.639110107421875,-0.012407098163105547,-0.09006663989424706,0.07665829226672649
1745855028826081000,6.6490810546875,-0.01110244530532509,-0.08292495144605636,0.0504413164705038
1745855028836053200,6.65905322265625,0.008521160107851028,-0.05643208131790161,0.027305940076708793
1745855028846024000,6.66902392578125,0.03750526252985,-0.050582770767807955,0.0002951835542917251
1745855028855996200,6.67899609375,0.04820665275361389,-0.0480582207262516,-0.0011918401330709458
1745855028865967000,6.688967041015625,0.057058688783645624,-0.03588087619841099,0.002469604983925819
1745855028875938000,6.69893798828125,0.05837503207921981,-0.03426642673909664,0.00014203881919384003
1745855028885910000,6.708909912109375,0.037201274614594874,-0.04760112460851669,0.024692542707920075
1745855028895881000,6.718880859375,0.001925415104627609,-0.060651160317659374,0.06771218474507332
1745855028905852200,6.72885205078125,0.009642273092269896,-0.0832546217918396,0.13768763824701308
1745855028915823900,6.738823974609375,0.025115882686525582,-0.1003296752333641,0.18933248528838156
1745855028925795000,6.748795166015625,0.03233925806879997,-0.11148001480102539,0.21780805366635322
1745855028935766000,6.75876611328125,0.02497194417119026,-0.12455869208276271,0.2385170796960592
1745855028945738000,6.768738037109375,0.01938281892724335,-0.12101882751882076,0.21974866634011267
1745855028955709000,6.778708984375,0.046428573697805404,-0.13196984512209892,0.17652327259778974
1745855028965680000,6.78868017578125,0.09605798926353454,-0.13411328689157961,0.16247545802295207
1745855028975652000,6.798652099609375,0.10854096567444503,-0.11754501392841338,0.10692542023658752
1745855028985623000,6.808623046875,0.09212189192362129,-0.11194704779088496,0.06292261238098144
1745855028995594000,6.818593994140625,0.09104739455990493,-0.11920213348567485,0.06786591400206089
1745855029005566200,6.828566162109375,0.06199084795620292,-0.09363046985566616,0.04362637575864792
1745855029015537000,6.838536865234375,0.02123801833987236,-0.08259995727539061,-0.00732113666832447
1745855029025508000,6.848508056640625,-0.025816030312515795,-0.06621230157613754,-0.005318564674258232
1745855029035480000,6.85847998046875,-0.06341251478977501,-0.06552724192142487,-0.01168166996538639
1745855029045451300,6.868451171875,-0.11933259146492928,-0.04632511332333088,-0.012516367223858833
1745855029055423000,6.878423095703125,-0.13377959795780478,-0.06564063916802405,-0.0192798700094223
1745855029065394200,6.888394287109375,-0.14394085342288016,-0.07378770526647567,-0.023414193335175512
1745855029075365000,6.898365234375,-0.12523264582157134,-0.06769406456649303,-0.014749240842461585
1745855029085337000,6.908337158203125,-0.10794248832464218,-0.046993221843242644,0.0024608371555805207
1745855029095308000,6.91830810546875,-0.06406951739378274,-0.06729191350638866,0.008687164324522018
1745855029105279000,6.928279052734375,-0.019200375032424926,-0.09976502708792685,0.024574469286203382
1745855029115251000,6.9382509765625,0.01866268795914948,-0.10088204841911792,0.04144610911011696
1745855029125222000,6.948221923828125,0.04877257954068482,-0.05348433742821216,0.05533318016529083
1745855029135193000,6.958193115234375,0.07130597145333886,-0.009435936865210532,0.05906944408416748
1745855029145165000,6.9681650390625,0.05660049668736755,0.047827334579825395,0.04312310241162777
1745855029155136300,6.97813623046875,0.01594699925966561,0.05836801781654358,-0.01610591614842415
1745855029165107200,6.988107177734375,-0.044159459722042084,0.040539515659213064,-0.057032969820499414
1745855029175079400,6.998079345703125,-0.07754037233088165,0.03720306471288204,-0.07088789217174053
1745855029185050400,7.00805029296875,-0.12392448583245276,0.018991700717806814,-0.05962473987936973
1745855029195021300,7.018021240234375,-0.13142273263335227,-0.017622750452160833,-0.0694990681618452
1745855029204993300,7.0279931640625,-0.10104640866797417,0.006755904000997543,-0.0392395389765501
1745855029214964500,7.037964599609375,-0.025682832386903463,0.06701660369634628,-0.017075053441524504
1745855029224935200,7.04793505859375,0.05274725532531738,0.05478197602331638,-0.06961363445222378
1745855029234907400,7.057907470703125,0.10712992983274161,0.01647358041703701,-0.10877484749555587
1745855029244878300,7.06787841796875,0.12835516175627706,-0.009299743264913559,-0.11660218012034892
1745855029254850300,7.077850341796875,0.11009469792246818,-0.03750876966118812,-0.11375789660513401
1745855029264821200,7.0878212890625,0.048512869158573446,-0.049319034442305565,-0.10075812977850436
1745855029274792400,7.09779248046875,-0.020589272107556462,-0.06663549542427062,-0.04203764526247978
1745855029284764400,7.107764404296875,-0.08138071767874061,-0.11308218930065632,0.04136427604556083
1745855029294735400,7.1177353515625,-0.050019876188039776,-0.12857026581168174,0.1256874038517475
1745855029304706300,7.127706298828125,-0.03418159799985587,-0.1410118142336607,0.19507716642022133
1745855029314678500,7.137678466796875,-0.025757578123547134,-0.15613690265119076,0.22009879495203494
1745855029324649200,7.147649169921875,0.005294599276781082,-0.14003741624355315,0.22682956451177597
1745855029334620200,7.1576201171875,0.06580419569928199,-0.08568740189671516,0.2109112798899412
1745855029344592400,7.16759228515625,0.07553191858530044,-0.02827098571658134,0.1881803926438093
1745855029354563300,7.177563232421875,0.06807809544801711,-0.011509236007928848,0.1731622717320919
1745855029364534300,7.1875341796875,0.05060089094638824,-0.012508768439292908,0.1723901183158159
1745855029374506200,7.19750634765625,0.014477401631139218,0.003952537018060684,0.19295710552632808
1745855029384477400,7.2074775390625,-0.011353862783126532,-0.028688334345817565,0.2009334912329912
1745855029394448400,7.217448486328125,0.010656893494911491,-0.06343932973146438,0.18468845887482166
1745855029404420400,7.22742041015625,0.04372815563268959,-0.09991057303845882,0.20090894131362438
1745855029414391300,7.237391357421875,0.09720715929865836,-0.13952595959007738,0.20653613354563713
1745855029424362500,7.247362548828125,0.1428467015106231,-0.18129823191463945,0.19892858115136622
1745855029434334200,7.257334228515625,0.1853355246067047,-0.20028759454488754,0.18913608593344688
1745855029444305400,7.267305419921875,0.2075310628671199,-0.19187866263985634,0.17659341522455213
1745855029454277400,7.27727734375,0.19926701932549476,-0.19110884731113909,0.15102116707265376
1745855029464248300,7.287248291015625,0.1817325316786766,-0.19653028783798215,0.1523135449707508
1745855029474219300,7.29721923828125,0.140515628214553,-0.1589239030212164,0.13743687835633753
1745855029484191500,7.30719140625,0.11989943156745284,-0.14568798935115337,0.12498831567168235
1745855029494162400,7.317162353515625,0.12404606638550758,-0.12883914588093756,0.10780512568056583
1745855029504133000,7.327133056640625,0.11113744844105095,-0.11270283459424972,0.1168079318255186
1745855029514105300,7.337105224609375,0.09042666884567588,-0.10035948584973811,0.12231763515770434
1745855029524076300,7.347076171875,0.10255078534893691,-0.07461947991549968,0.1258534080684185
1745855029534047500,7.357047607421875,0.09334222749881446,-0.07755261075794696,0.13668576772809027
1745855029544019200,7.367019287109375,0.08700955387856811,-0.07844108403027057,0.11674947963654994
1745855029553990400,7.376990478515625,0.08476966599728912,-0.08165595442354678,0.12843816386461257
1745855029563961300,7.38696142578125,0.08137589537315071,-0.07489420520365238,0.15502923367023466
1745855029573933300,7.396933349609375,0.0998024364888668,-0.047583004429936404,0.17209610380530357
1745855029583904300,7.406904296875,0.09505027352571487,-0.03379647113978863,0.17654022373259068
1745855029593875500,7.41687548828125,0.11867073002271354,-0.03909516206979751,0.17709025883078575
1745855029603847200,7.42684716796875,0.10730769755244254,-0.03813420808315277,0.1548193903118372
1745855029613818400,7.436818359375,0.14450440558977423,-0.022203648501634598,0.13095745320916174
1745855029623789300,7.446789306640625,0.15494988482370972,-0.01837269203662872,0.10543664298355579
1745855029633761300,7.45676123046875,0.16433124195747076,0.005647650498151779,0.07976561063230037
1745855029643732200,7.466732177734375,0.11227730265855788,0.04476677796542644,0.03856207810640335
1745855029653704400,7.476704345703125,0.020216274076700208,0.02542904028892517,-0.016675824990868567
1745855029663675400,7.48667529296875,-0.10234152651242912,-0.02747720499038696,-0.07955693631768226
1745855029673646300,7.496646240234375,-0.19833061525821685,-0.027993337818980217,-0.11582885766029358
1745855029683618300,7.506618408203125,-0.1804033289015293,-0.028005028256773947,-0.13660510370731352
1745855029693589500,7.516589599609375,-0.17065467282533645,-0.0017518121033906935,-0.1723468636959791
1745855029703560400,7.526560546875,-0.16149989098906517,-0.005109890359640121,-0.22013795791864393
1745855029713532400,7.536532470703125,-0.16323606713190675,0.036811435046792025,-0.26124212172329425
1745855029723503400,7.54650341796875,-0.13850604195781052,0.06921791313290596,-0.31876608993113037
1745855029733474300,7.556474365234375,-0.15488303013257682,0.0829886643320322,-0.366061509591341
1745855029743446300,7.5664462890625,-0.14521386903338132,0.06327507908046245,-0.3272363966345787
1745855029753417200,7.576417236328125,-0.12266885974816977,0.03778057233989238,-0.27424305759370327
1745855029763388400,7.586388427734375,-0.09526070140600204,0.014039046746492385,-0.2346218258231878
1745855029773360000,7.596360107421875,-0.06945296399779617,-0.004104512709379196,-0.18522388092577458
1745855029783331300,7.606331298828125,-0.0683365271884948,-0.00042670097947120663,-0.15565467209219933
1745855029793302300,7.61630224609375,-0.06882635653205216,-0.04084580512940884,-0.12109598440825939
1745855029803274500,7.6262744140625,-0.06395144397206604,-0.05132920522093773,-0.06156593707501888
1745855029813245200,7.6362451171875,-0.00821954681277275,-0.05556581987738609,-0.016205869391560553
1745855029823216400,7.64621630859375,0.026080124608799812,-0.06925649157762527,0.02789338457584381
1745855029833188400,7.656188232421875,0.06690678664632141,-0.0681441464215517,0.07600947296917437
1745855029843159600,7.66615966796875,0.11019991186261176,-0.08329027762711047,0.07997077781558036
1745855029853131300,7.67613134765625,0.12537293107509612,-0.09830547592937945,0.09907821386754512
1745855029863102500,7.6861025390625,0.11659348535723983,-0.13565759372413158,0.12702888158857822
1745855029873073400,7.696073486328125,0.09243168852515518,-0.14983692572414875,0.12580839988291262
1745855029883045400,7.70604541015625,0.07769698766469955,-0.16604162607192993,0.11122340969145297
1745855029893016300,7.716016357421875,0.06825462105870246,-0.1864683280289173,0.1382002639442682
1745855029902987300,7.7259873046875,0.07715330924205481,-0.13040683358907698,0.171619718465209
1745855029912959200,7.735959228515625,0.03574110240153968,-0.09209317728579043,0.15273381620943546
1745855029922930200,7.74593017578125,0.0191056824862957,-0.06976619466543198,0.11636194162368774
1745855029932901400,7.7559013671875,0.004701821015402674,-0.04137362839579582,0.1282575466006994
1745855029942873300,7.765873291015625,0.02262918043732643,-0.0240945768147707,0.11331541353464127
1745855029952844300,7.77584423828125,0.021364275068044662,-0.014271686458587646,0.1281704528391361
1745855029962815200,7.785815185546875,0.020083003085851668,-0.005167173504829406,0.11937281387746333
1745855029972787500,7.795787353515625,0.034097426847741,0.003231821528077125,0.09913082083761691
1745855029982758400,7.80575830078125,0.03557626722864807,0.009315525355935095,0.08816986636221408
1745855029992729300,7.815729248046875,0.04698503853678703,0.0048334115058183665,0.07977554750442505
1745855030002701300,7.825701416015625,0.023198431692644954,0.02651215935051441,0.06315934374630451
1745855030012672500,7.835672607421875,0.017145269133523107,0.0020475801795721052,0.048318917489051816
1745855030022643200,7.845643310546875,0.02594919170551002,0.00829319657087326,0.03882803556621074
1745855030032615400,7.855615478515625,-0.011124620604515075,-0.025991350346803662,0.04147591972649097
1745855030042586400,7.86558642578125,0.0007318944711238145,-0.03448211531639099,0.02968377512395382
1745855030052557300,7.875557373046875,0.007142784426733851,-0.0631423926115036,0.03647182782888412
1745855030062529300,7.885529296875,0.003165916685014963,-0.07142448326647281,-0.0008300210833549499
1745855030072500200,7.895500244140625,-0.012050430212542413,-0.0782785869449377,-0.019122633621096608
1745855030082472400,7.905472412109375,-0.015732918117567895,-0.07531506096422672,-0.04400397689938545
1745855030092443100,7.915443115234375,0.0013479074776172636,-0.06726736358702183,-0.085907766649127
1745855030102414300,7.925414306640625,0.01656074724383652,-0.03585924888849258,-0.07747194673717021
1745855030112386300,7.93538623046875,0.032176834048703314,-0.0238853179782629,-0.06567512595951557
1745855030122357200,7.945357177734375,0.052804611535742875,-0.04510053996443748,-0.017073299875855444
1745855030132328200,7.955328125,0.039099838244915,-0.056904375004768366,0.020530746853351593
1745855030142300400,7.965300537109375,0.0098866763073951,-0.0634954438328743,0.06610825667977333
1745855030152271400,7.975271240234375,-0.004843275312706828,-0.05967091710865497,0.11158873587250709
1745855030162241800,7.98524169921875,-0.014023849177360534,-0.10813479602634907,0.16348784993588925
1745855030172213800,7.9952138671875,-0.026588804783299565,-0.0892190831542015,0.19750643939375875
1745855030182184700,8.005184814453125,-0.04497428323626518,-0.09728782331943511,0.19181611879765986
1745855030192155600,8.01515576171875,-0.034867899763584134,-0.10621522614061832,0.1626578288525343
1745855030202127600,8.025127685546876,-0.034269276283308864,-0.062307695353031156,0.11144845061898231
1745855030212098600,8.0350986328125,-0.0320984350502491,-0.03320201237797737,0.06397825891375541
1745855030222069800,8.04506982421875,-0.02802197939157486,-0.008290273961424828,0.028022563913464544
1745855030232041500,8.05504150390625,-0.04792955284528434,-0.01890051530301571,0.005444236880540848
1745855030242012700,8.0650126953125,-0.01910560942105949,-0.06737082396149635,-0.0023807576566934586
1745855030251983600,8.074983642578125,-0.013728154166415332,-0.07501227862536906,0.004956745624542236
1745855030261955800,8.084955810546875,0.004318301590532064,-0.06466857926547527,0.01980418614447117
1745855030271926500,8.094926513671876,0.01329553490281105,-0.043241760355234145,0.020783844831585883
1745855030281898800,8.104898681640625,0.025258359897136685,-0.008982347878813744,0.02474281159043312
1745855030291869700,8.11486962890625,-0.0026830285388976336,0.0289700738966465,0.05543488697409629
1745855030301841000,8.1248408203125,-0.03909289704747498,0.0542103136152029,0.08744856635034083
1745855030311812600,8.1348125,-0.06047814183831215,0.09333353273570537,0.13271160340011118
1745855030321783800,8.14478369140625,-0.0002933569233864546,0.18285130657553672,0.1771446193665266
1745855030331754800,8.154754638671875,0.06251103590540588,0.23782617482244967,0.13525193553268908
1745855030341726700,8.164726806640624,0.08315890633240342,0.18636252956688404,0.0423071098536253
1745855030351697700,8.17469775390625,0.10674765251688659,0.0384551106005907,-0.006866378638148307
1745855030361668600,8.184668701171875,0.106356168981269,-0.06689619218707084,-0.01355389357805252
1745855030371640600,8.194640625,0.07385441382713616,-0.17894611583054065,-0.007584756040573119
1745855030381611500,8.204611572265625,0.023537527453899382,-0.23091654156446456,0.039516602352261544
1745855030391582700,8.214582763671874,-0.03675597853250801,-0.2875374234527349,0.0945563525289297
1745855030401554700,8.2245546875,-0.0978629197936505,-0.2851175028294325,0.09496668689548969
1745855030411525600,8.234525634765625,-0.1168261250693351,-0.2514636550307274,0.08248013028800487
1745855030421496600,8.24449658203125,-0.1372434746760875,-0.20183365494310854,0.06194295369386672
1745855030431468800,8.25446875,-0.14089549437761306,-0.14334171848595142,0.013794716596603392
1745855030441439700,8.264439697265624,-0.1359655636947602,-0.10478840820789337,-0.07845218994617462
1745855030451410700,8.27441064453125,-0.1594073026239872,-0.1003822822034359,-0.13479367037117482
1745855030461382700,8.284382568359375,-0.193844994276762,-0.08296937510967255,-0.15703472827374934
1745855030471353900,8.294353759765626,-0.20104973802380263,-0.09041092328727245,-0.1483434722959995
1745855030481325600,8.30432568359375,-0.2170283014655113,-0.0839735837161541,-0.10021043276786804
1745855030491296800,8.314296875,-0.2404969284016639,-0.08976736468672752,-0.05030804547965526
1745855030501267700,8.324267822265625,-0.2778280034083873,-0.08098726138174533,-0.03495440900325775
1745855030511239700,8.33423974609375,-0.29778474976606667,-0.11469546971619128,-0.06172492702901363
1745855030521210600,8.344210693359376,-0.2501369364716112,-0.19952946965396404,-0.04539280090928077
1745855030531181600,8.354181640625,-0.1267524757999927,-0.16082944438159466,0.06700199064910412
1745855030541153800,8.36415380859375,0.04575630045942962,-0.1609147845774889,0.153327690449357
1745855030551124500,8.37412451171875,0.1469311943452805,-0.1708563328772783,0.25209669223725795
1745855030561095700,8.384095703125,0.23604981279969214,-0.16713935818076134,0.3200789260953665
1745855030571067600,8.394067626953126,0.2708066534042358,-0.14364391630291937,0.374787836882472
1745855030581038600,8.40403857421875,0.2616623198967427,-0.10064414801001548,0.37144495619535445
1745855030591009500,8.414009521484376,0.17515081520080567,-0.07917524352371692,0.30800854907333847
1745855030600981800,8.423981689453125,0.10532967547774315,-0.04440846604704857,0.3372960183560848
1745855030610952700,8.43395263671875,0.047504020909592506,0.006269581788778305,0.3881909238129854
1745855030620923600,8.443923583984375,0.0038941578943282366,0.0754465783894062,0.435642995339632
1745855030630895600,8.4538955078125,0.005890738539025187,0.14704466465711594,0.5093459449321032
1745855030640866800,8.46386669921875,0.1053962379079312,0.15234510915279387,0.5624561883509159
1745855030650838500,8.473838623046875,0.18256247969679534,0.1158843872398138,0.5610743786036968
1745855030660809700,8.483809814453124,0.2903459780674428,0.02826630954146385,0.5633925924181938
1745855030670780700,8.49378076171875,0.315476985257864,-0.043943186622858045,0.5292617747575045
1745855030680752600,8.503752685546875,0.2597532714050263,-0.03140636113286018,0.49885319249033927
1745855030690723600,8.5137236328125,0.18282324952483175,-0.028588965624570844,0.36192426365613933
1745855030700694500,8.523694580078125,0.13123210543207822,0.0274842192530632,0.28488720120489597
1745855030710666800,8.533666748046874,-0.0022528204280883074,0.04987900641262531,0.22144319529831408
1745855030720637400,8.543637451171875,-0.08060432647876441,0.051073184633255005,0.11873919214904308
1745855030730608600,8.553608642578125,-0.14777414797544478,0.0757996296107769,0.03769347857832908
1745855030740580600,8.56358056640625,-0.18631883655562995,0.014797756159305571,-0.09328209480941295
1745855030750551800,8.5735517578125,-0.11345803687572478,-0.023766660034656523,-0.20505261698961258
1745855030760522500,8.5835224609375,-0.04262910834960639,-0.05366846182346344,-0.3368775006830692
1745855030770494700,8.59349462890625,0.04382511320114135,-0.08390987083017826,-0.4557318436443805
1745855030780465700,8.603465576171875,0.13328260822109878,-0.09030921647846699,-0.5685860694080591
1745855030790436900,8.613436767578126,0.20228191016726194,-0.08539046477675437,-0.6710632780641317
1745855030800408600,8.62340869140625,0.2394750380080193,-0.08666764510571956,-0.7145072829931974
1745855030810379800,8.6333798828125,0.21672909932322798,-0.06719839000403881,-0.72427522829175
1745855030820350700,8.643350830078125,0.1712566573064774,-0.05246843838393688,-0.713409550884366
1745855030830322700,8.65332275390625,0.09074117815494537,-0.024778467425704002,-0.7030640979588031
1745855030840293600,8.663293701171876,0.0035503859579563138,-0.042567806616425514,-0.6136275726616383
1745855030850265900,8.673265869140625,-0.04393032714128494,-0.04887655137181282,-0.4571458020955324
1745855030860236500,8.683236572265624,-0.09699439333081245,-0.061166708624362943,-0.2924585132420063
1745855030870207700,8.693207763671875,-0.13119243100881575,-0.10134148262441157,-0.1254910044968128
1745855030880179700,8.7031796875,-0.19524550872445107,-0.10751111117005348,-0.02071954742372036
1745855030890151000,8.71315087890625,-0.19899346308112142,-0.17205694083869455,0.04122165270447731
1745855030900121600,8.72312158203125,-0.15059987292066215,-0.20312486379742622,0.1367804602742195
1745855030910093800,8.73309375,-0.11500709294863044,-0.19046236610114572,0.21350655708014965
1745855030920064800,8.743064697265625,-0.07405899648852646,-0.20295769053697585,0.28901392574608326
1745855030930035700,8.75303564453125,-0.004544146235659718,-0.18520634526908397,0.37731238692402835
1745855030940007700,8.763007568359376,0.047015360609814524,-0.15488310319781304,0.4024602721840143
1745855030949978600,8.772978515625,0.08776238153986632,-0.14879238510727882,0.43198155022263524
1745855030959949800,8.78294970703125,0.11776238300614059,-0.14465981534719466,0.42770635712146754
1745855030969921500,8.792921630859375,0.10481062003970146,-0.16260346831679343,0.42813948784172534
1745855030979892700,8.802892822265624,0.10489486425705254,-0.18240823898315428,0.45344110235869883
1745855030989863700,8.81286376953125,0.07867197017669678,-0.19217326167225837,0.4712660973846912
1745855030999835600,8.822835693359375,0.06965754665918648,-0.2227583695501089,0.48039983643293377
1745855031009806600,8.832806640625,0.05159932739920914,-0.19579379025697707,0.5074731367975474
1745855031019777800,8.84277783203125,0.018081527070328594,-0.16105682339668273,0.5657254192799329
1745855031029749500,8.85274951171875,-0.03500708903856575,-0.12762100226283074,0.7132651739776134
1745855031039720700,8.862720703125,-0.1187163957953453,-0.14090484672784803,0.8101093451827764
1745855031049692700,8.872692626953125,-0.14690218744650482,-0.18303835358023643,0.8030009744822979
1745855031059664000,8.882663818359376,-0.15469605619311333,-0.16597089892327785,0.8533288937062025
1745855031069634600,8.892634521484375,-0.056793315845727915,-0.19832477003931998,0.6546539950549602
1745855031079606800,8.902606689453124,0.12980236488990485,-0.13154080605506896,0.4316045336037874
1745855031089577700,8.91257763671875,0.24077742584347722,-0.08002104669809341,0.24027882867157457
1745855031099548700,8.922548583984375,0.2806757209897041,-0.03700783440172672,0.06363222195506095
1745855031109520600,8.932520751953126,0.2826070543784648,-0.034441783306002616,-0.11773907519578933
1745855031119491600,8.94249169921875,0.22794950845241546,-0.0011696283012628554,-0.23124445834457874
1745855031129462800,8.952462890625,0.19327099378108978,0.04418342511951923,-0.32510698339045047
1745855031139434500,8.9624345703125,0.12715689188241958,0.09562076689004897,-0.39338147819340225
1745855031149405700,8.97240576171875,0.06110241121649742,0.12824702520668507,-0.45420741055607794
1745855031159377200,8.982377197265626,-0.021606194065138695,0.11378770722150802,-0.509390953117609
1745855031169349000,8.99234912109375,-0.06732172412276267,0.10760463467240333,-0.5325193152487278
1745855031179320000,9.002320068359374,-0.11270860674791038,0.1044300962895155,-0.5268547136157751
1745855031189291300,9.012291259765625,-0.13618651296906173,0.08398995032906532,-0.5322895981460809
1745855031199263000,9.022262939453125,-0.1754266364675015,0.05557283414006233,-0.5027957926362753
1745855031209234200,9.032234130859376,-0.20497889416627585,0.0171101247549057,-0.43783086077272887
1745855031219205000,9.042205078125,-0.18402970270514488,0.017400047612190245,-0.3455255020409822
1745855031229177300,9.05217724609375,-0.15415361987948417,-0.01621814435124397,-0.24528058248162268
1745855031239148000,9.06214794921875,-0.09853643514104186,-0.033465047228336334,-0.14669979674220085
1745855031249120300,9.072120361328125,-0.031153847676515578,-0.037456747213006014,-0.08577391113638877
1745855031259091200,9.08209130859375,0.046744142452999946,-0.029703064346313476,-0.05138005862534046
1745855031269062400,9.0920625,0.09394552715420722,-0.022373159849643706,-0.03941255745589733
1745855031279034000,9.1020341796875,0.10857603698782622,-0.026836568999290464,-0.004840425768494605
1745855031289005300,9.11200537109375,0.12234393864274025,-0.010779168167710304,-0.012739654585719108
1745855031298976300,9.121976318359375,0.10353760442920029,-0.021364275068044662,-0.010784428864717482
1745855031308948200,9.1319482421875,0.060039677355811,-0.01733399663865566,-0.009948562562465667
1745855031318919200,9.141919189453125,0.017617489755153655,-0.021903204250335692,-0.007957096484303474
1745855031328890000,9.15189013671875,-0.019590762589499353,-0.034303251618146895,-0.014393851533532141
1745855031338862000,9.161862060546875,-0.048770095322653646,-0.028667291557788847,-0.006121697750687599
1745855031348833000,9.1718330078125,-0.03860642870478332,-0.04144552458822727,0.005004676419496536
1745855031358804200,9.18180419921875,-0.028337621212005615,-0.03769406310021877,0.01913958475589752
1745855031368776200,9.191776123046875,-0.016274331517890095,-0.018361586120724676,0.03203472216427326
1745855031378747100,9.2017470703125,0.014015665870904921,-0.015895488268136977,0.037840193572640415
1745855031388718000,9.211718017578125,0.02275784831829369,-0.02242518229782581,0.041105917370319364
1745855031398690300,9.221690185546874,0.03566526068635285,-0.044998833155632016,0.03213116827607155
1745855031408661200,9.2316611328125,0.06318805838413537,-0.07048574111163616,0.027786417070031166
1745855031418632200,9.241632080078125,0.07640643639750778,-0.08945581451952457,0.018065818044543266
1745855031428604200,9.251604248046876,0.07633980090208352,-0.12808511264324188,0.02598667417168617
1745855031438575400,9.261575439453125,0.07597155211158096,-0.1285246731042862,0.03455751864016056
1745855031448547000,9.271547119140624,0.08104863618016242,-0.13654314438700677,0.058958384925127026
1745855031458518300,9.281518310546875,0.04048047894835472,-0.135434890884161,0.07546236048042773
1745855031468489200,9.2914892578125,0.0023287352085113525,-0.13178513620495796,0.06941781961917877
1745855031478461200,9.301461181640626,-0.02514145551919937,-0.12514029136300087,0.07730477347671985
1745855031488432000,9.31143212890625,-0.03008322277031839,-0.09457330366373061,0.13662088579833506
1745855031498403000,9.321403076171874,-0.05606280961409211,-0.08651099323928356,0.16593290500044822
1745855031508375000,9.331375,-0.07439232009612023,-0.08694412395954132,0.1441489432156086
1745855031518346000,9.341345947265625,-0.09242007115259766,-0.08313479480445385,0.1652759023964405
1745855031528317200,9.351317138671876,-0.12772979639954865,-0.109414314442873,0.16148177081048487
1745855031538289200,9.3612890625,-0.14557875682301818,-0.11023732126355171,0.15501754323244094
1745855031548260000,9.371260009765624,-0.1709177807409316,-0.1337082132220268,0.14720190104544162
1745855031558231000,9.38123095703125,-0.19027948381491006,-0.16898177117705343,0.15319441945850848
1745855031568203300,9.391203369140625,-0.1896317604959011,-0.19356383924782275,0.16410685861706734
1745855031578174200,9.40117431640625,-0.1571452759761363,-0.19186697220206259,0.17793956913650036
1745855031588145200,9.411145263671875,-0.08541150756478309,-0.20613865866065023,0.18026538173556328
1745855031598117000,9.4211171875,0.018694179075956344,-0.22812486501932142,0.2047638631761074
1745855031608088300,9.43108837890625,0.07027823584079743,-0.2280517997831106,0.2226712757885456
1745855031618059300,9.441059326171874,0.11551087775230406,-0.24982290208637714,0.24099779059588908
1745855031628031200,9.45103125,0.1750572916984558,-0.2292681898355484,0.25536475412249565
1745855031638002200,9.461002197265625,0.20213336854204533,-0.22903028942644596,0.2596446233987808
1745855031647974100,9.47097412109375,0.21338439200520515,-0.2004372321486473,0.2744680985212326
1745855031657945000,9.480945068359375,0.20619126563072204,-0.20123744261562823,0.2750952905088663
1745855031667916000,9.490916015625,0.15267368352003394,-0.19162614918351173,0.24485563506782054
1745855031677888300,9.50088818359375,0.11567680890373885,-0.1580523808836937,0.2285363684296608
1745855031687859000,9.51085888671875,0.09340316390581428,-0.11322598168551921,0.1995002435594797
1745855031697830100,9.520830078125,0.05739420434832573,-0.09687631990909576,0.20901859801113604
1745855031707802000,9.530802001953125,0.022436361278966067,-0.07159691722393036,0.21783260358572004
1745855031717773300,9.540773193359374,0.0050361675363034,-0.044237785655260084,0.21327450188994407
1745855031727744000,9.550743896484375,-0.04122640194483101,0.017523381730914115,0.1971346834719181
1745855031737716200,9.56071630859375,-0.09618081192560493,0.012469605472683906,0.11963351064026355
1745855031747687200,9.570687255859376,-0.1363023944336921,0.0014414309799671173,0.03360065630674362
1745855031757658400,9.580658447265625,-0.14019180308766663,-0.00030278233885765074,-0.0014256488889455795
1745855031767630000,9.590630126953124,-0.13205745034031569,0.0026858780831098554,-0.0034568624556064603
1745855031777601300,9.600601318359375,-0.10531330886483192,-0.006252046132087707,-0.00985036288499832
1745855031787572200,9.610572265625,-0.06113631348609924,-0.015514964517951011,-0.014146598774194717
1745855031797544200,9.620544189453126,-0.02524192021898925,-0.0018868366599082945,-0.010480477482080459
1745855031807515100,9.63051513671875,0.003883563435077667,-0.006164367848634719,-0.015804887375235558
1745855031817487400,9.6404873046875,0.04995331375785172,0.0013397241711616515,-0.06299041692018509
1745855031827458000,9.6504580078125,0.10025361432246863,0.011506897920370102,-0.08569616972506046
1745855031837429200,9.66042919921875,0.12574110680036246,-0.06254267315268516,-0.07199263854324817
1745855031847401200,9.670401123046876,0.1378173290412873,0.03536708145737648,-0.09905483299195766
1745855031857372200,9.6803720703125,0.1153740265648812,0.027644378250837324,-0.11277999148368835
1745855031867343000,9.690343017578124,0.10000336588844656,-0.04114683390259743,-0.10930559337139129
1745855031877315300,9.7003154296875,0.07991466371417046,-0.0683183339446783,-0.07397533679306506
1745855031887286300,9.710286376953125,0.095157752488181,-0.04781681318581104,-0.009524199670553207
1745855031897257200,9.72025732421875,0.0778418760281056,-0.08848258557319641,0.008331190493702888
1745855031907229200,9.730229248046875,0.0615431407213211,-0.10965046128630637,0.045048517516255375
1745855031917200100,9.7402001953125,0.05487148093767464,-0.09929039531350135,0.05756430021822452
1745855031927171300,9.75017138671875,0.061628480917215345,-0.06494681168496608,0.09574059387743472
1745855031937143000,9.76014306640625,0.039659883280470966,-0.016425065100193023,0.11965922960340976
1745855031947114200,9.7701142578125,0.01173493452258408,0.02121171485483646,0.12555062572956086
1745855031957085200,9.780085205078125,-0.041825975273177024,-0.0009475099831819534,0.0877992794841528
1745855031967057200,9.79005712890625,-0.09484678684286772,-0.041052725878357885,0.0505634815454483
1745855031977028000,9.800028076171875,-0.13305581372790037,-0.0852542711764574,-0.021011223846673963
1745855031986999300,9.809999267578124,-0.1786392418384552,-0.0371305839985609,-0.040022213786840434
1745855031996971000,9.819970947265626,-0.2919417228262871,0.0768190357863903,-0.01004910032749176
1745855032006942200,9.829942138671875,-0.4650585479814559,0.1631061571419239,-0.05732523076534271
1745855032016914200,9.8399140625,-0.629296339501813,0.20906477524042127,-0.07756079406440257
1745855032026885400,9.849885498046875,-0.7147241406142711,0.21845628844201564,-0.005504442635178566
1745855032036856000,9.85985595703125,-0.658419412003085,0.19296295074522493,0.046076691520214076
1745855032046828300,9.869828369140626,-0.49426929876618086,0.14838146621882914,0.08420271629691123
1745855032056799200,9.87979931640625,-0.22862872288823127,0.11612404121458529,0.08571370538175105
1745855032066770200,9.889770263671876,0.06819967600107192,0.07261632339954376,0.0012152210086584091
1745855032076742100,9.8997421875,0.346359614777565,0.011147416958212851,-0.08747896148860454
1745855032086713000,9.909713134765624,0.5920365031003951,-0.06086509532928466,-0.15973229679465292
1745855032096684300,9.919684326171875,0.7709984740871936,-0.1278138944864273,-0.19321371063590048
1745855032106656000,9.929656005859375,0.8321533461432904,-0.17689093686640261,-0.1918926911652088
1745855032116627200,9.939627197265626,0.7869312256257981,-0.22169453971087932,-0.1522697058290243
1745855032126598100,9.94959814453125,0.6488484505813569,-0.24116028768122194,-0.09621873278319835
1745855032136570000,9.959570068359374,0.4778735328257084,-0.2519435475021601,-0.04476093274652958
1745855032146541000,9.969541015625,0.309881941729784,-0.267809225153923,0.020457681617140767
1745855032156512300,9.97951220703125,0.1753483835995197,-0.20360709435641763,0.08104220643937587
1745855032166484200,9.989484130859376,0.07671155682392418,-0.15626608198881148,0.1324275257617235
1745855032176455000,9.999454833984375,-0.004016907491162419,-0.13942425278127193,0.15569734219014644
1745855032186426000,10.009426025390624,-0.054597778562828894,-0.14032032483816145,0.1927560299962759
1745855032196398000,10.019398193359375,-0.03064648267626762,-0.11089490838944911,0.23734394426345823
1745855032206369300,10.029369384765625,-0.024178090379759667,-0.04582067093253135,0.2953764465153217
1745855032216341000,10.039341064453126,-0.032066870868206025,-0.02539981419444084,0.2856383118331432
1745855032226312200,10.049312255859375,-0.04721877422742545,-0.03072539313137531,0.25254502052664757
1745855032236283100,10.059283203125,-0.0856289497077465,-0.0010538929671049118,0.2772714655041694
1745855032246255000,10.069255126953125,-0.14668686419539154,-0.015808979028463364,0.2627829214245081
1745855032256226000,10.07922607421875,-0.19051205046176908,-0.019181670331954954,0.28084873946905137
1745855032266197000,10.089197021484376,-0.198446423657611,-0.022774141865968704,0.2877127800196409
1745855032276169000,10.0991689453125,-0.21534495148845015,-0.022731471768021583,0.26121698728203774
1745855032286140000,10.109139892578124,-0.18989128821492193,-0.020431962653994558,0.21710545835494993
1745855032296111000,10.119111083984375,-0.14848492659330367,-0.01346153911948204,0.15188099877238273
1745855032306083000,10.1290830078125,-0.09654906071610748,-0.0233580792337656,0.0663578475266695
1745855032316054000,10.139053955078126,-0.027064532536268233,-0.016440262669324874,-0.02360825460255146
1745855032326025000,10.14902490234375,0.040243089995905756,0.005897825866937637,-0.08931845187544822
1745855032335997200,10.1589970703125,0.09106967945694923,0.01608311979472637,-0.15667641635537147
1745855032345968000,10.168968017578125,0.12327793155722319,0.036523265755176545,-0.19893734897971152
1745855032355939000,10.17893896484375,0.12645663465857504,0.022392449072003363,-0.24536066198050974
1745855032365911000,10.1889111328125,0.1228256577450782,0.020516718327999114,-0.2560866386562586
1745855032375882200,10.19888232421875,0.12784312058091163,0.010443068081140518,-0.24378654453158377
1745855032385853000,10.20885302734375,0.11058328515700995,-0.012957681250572204,-0.20156886652708053
1745855032395825200,10.2188251953125,0.09977079924158751,-0.007611644047498703,-0.16644494617581365
1745855032405796000,10.228796142578124,0.07815766397900879,-0.027180852392315862,-0.11693944925069809
1745855032415767000,10.23876708984375,0.07914075673222541,-0.055112815412878984,-0.06865034237802028
1745855032425739000,10.248739013671875,0.09504903141669928,-0.05091477920114994,0.00009410802423954009
1745855032435710000,10.2587099609375,0.11501520318984984,-0.032574235868453975,0.056631403282284734
1745855032445682200,10.26868212890625,0.13521518371887503,-0.03545125260949135,0.0959551134109497
1745855032455652900,10.27865283203125,0.1319791244070977,-0.05147007499635219,0.1245154374629259
1745855032465624000,10.2886240234375,0.10948686822243034,-0.02904313913285732,0.16583061366975307
1745855032475596000,10.298595947265625,0.06173362179212272,-0.03499474101364612,0.1936181997835636
1745855032485567000,10.30856689453125,-0.007362564657256007,-0.04590542660653591,0.1784124473452568
1745855032495538000,10.318537841796875,-0.07827573740072548,-0.047151627275347704,0.19944588302373886
1745855032505510100,10.32851025390625,-0.1337351742941886,-0.009399696508049964,0.18905483739078044
1745855032515481000,10.338481201171875,-0.19614793745689094,0.0014648118555545806,0.13572773635089397
1745855032525452000,10.3484521484375,-0.23285006691031157,-0.03612812895774841,0.1004389808267355
1745855032535424000,10.358424072265626,-0.2521498837292194,-0.050154316222667694,0.050013446447253224
1745855032545395200,10.368395263671875,-0.2465956836681813,-0.07271218498945235,0.024347674793004988
1745855032555366100,10.3783662109375,-0.21486768936552106,-0.06099485918879509,-0.010047346761822699
1745855032565338000,10.388338134765625,-0.18370003235936164,-0.04333236124813557,-0.0523193853020668
1745855032575309000,10.39830908203125,-0.16530746657848358,-0.038487843826413154,-0.09142974494099616
1745855032585280000,10.408280029296876,-0.15405768522433935,-0.0564455253213644,-0.11044599557816982
1745855032595252000,10.418251953125,-0.15089542180113494,-0.054982467031478875,-0.1289776775687933
1745855032605223000,10.428222900390624,-0.12056589611954986,-0.05877133792042732,-0.14297054708600043
1745855032615194000,10.438194091796875,-0.09115976889319717,-0.07100304298400878,-0.09576572831869125
1745855032625165800,10.448165771484375,-0.044754576070979234,-0.09144143537878989,-0.03351531611084938
1745855032635137000,10.458136962890626,0.03254610575251281,-0.0913105024755001,0.034032033461332316
1745855032645109000,10.46810888671875,0.10260931060314178,-0.10209376229643821,0.06945230641067028
1745855032655080200,10.478080078125,0.17817038221769033,-0.07773205897808075,0.11719897696971893
1745855032665051000,10.48805078125,0.2104967808049172,-0.07887713735997677,0.0875286458492279
1745855032675023000,10.498023193359375,0.21908698756098746,-0.06607727701961993,0.09405015657246112
1745855032684994000,10.507994140625,0.23568865133710204,-0.05843523783385753,0.09608195466101169
1745855032694965200,10.51796533203125,0.24103096221312878,-0.06250000305473805,0.12014321372807026
1745855032704937000,10.52793701171875,0.20167152318395673,-0.056232174831628796,0.13783727585077285
1745855032714908200,10.537908203125,0.13827208707146346,-0.018500702330470083,0.14471300683915614
1745855032724879000,10.547879150390624,0.09812135153412818,-0.07241290978193282,0.11229425379335879
1745855032734851000,10.55785107421875,0.09180961110405624,-0.07138415125608444,0.13510522053837776
1745855032744822000,10.567822021484375,0.08203172893337905,-0.038437574943900106,0.12206161457002163
1745855032754793200,10.577793212890626,0.10196867461204528,-0.06285831497311592,0.10492109467685222
1745855032764765000,10.587764892578125,0.09246778275184332,-0.024427169770002363,0.06848609172701835
1745855032774736100,10.597736083984374,0.17546755299977956,-0.05975567278265953,0.03993570454716682
1745855032784707000,10.60770703125,0.14568039056658744,-0.04215513416230678,0.0794376938521862
1745855032794679000,10.617678955078125,0.08961188186407089,-0.011776362511515617,0.06414134052097797
1745855032804650000,10.62764990234375,0.032240912260860205,-0.08415361645817757,0.04637772029340267
1745855032814621000,10.637620849609375,0.012976312885805964,-0.09262743029296398,0.05494914928376674
1745855032824593200,10.64759326171875,-0.022715616611763835,-0.03912906433939933,0.04722878416478633
1745855032834564000,10.657564208984375,-0.023940774492546914,-0.04054828348755836,0.030440730971097944
1745855032844536000,10.6675361328125,-0.017764716206118462,-0.08162439024150371,0.027762451672554013
1745855032854507000,10.677507080078126,-0.014072949016094207,-0.07857610858678818,0.03166179719865322
1745855032864478200,10.687478271484375,-0.03864157308340072,-0.06028700318038463,0.020776246047019956
1745855032874450000,10.697449951171874,-0.06778108526282012,-0.04423194043636322,0.014462825116515159
1745855032884421000,10.707421142578125,-0.10179448708891868,-0.04618775067925453,0.03234042711257935
1745855032894392000,10.71739208984375,-0.0946738414287567,-0.0309960267663002,0.02535071435570717
1745855032904364000,10.727364013671876,-0.13910583448186517,-0.016246785923838613,0.009667992055416106
1745855032914335000,10.7373349609375,-0.159162899408862,-0.0036637832045555113,0.03634264849126339
1745855032924306200,10.74730615234375,-0.19101481235213577,-0.03150397628843784,0.04998480487465858
1745855032934278000,10.75727783203125,-0.1908394557852298,-0.03776420572698116,0.046180151894688604
1745855032944249000,10.7672490234375,-0.16723397766165435,-0.05096913973689079,0.062116556695103645
1745855032954220000,10.777219970703126,-0.12643566493578254,-0.08400923955142497,0.08817103540599346
1745855032964192300,10.787192138671875,-0.07163081949353217,-0.09863748436272143,0.0949661023736
1745855032974163000,10.797162841796874,-0.0070423197269439694,-0.1094271739244461,0.11853051783442496
1745855032984134000,10.8071337890625,0.06052957976460457,-0.12534604306817054,0.1199713642925024
1745855032994106000,10.817106201171875,0.12505619327612222,-0.12141805596947669,0.11210311513543128
1745855033004077000,10.8270771484375,0.1735842234712094,-0.13601239851117133,0.11116145037114619
1745855033014049000,10.837049072265625,0.18866262320280075,-0.12514204492866993,0.11041560043990611
1745855033024020000,10.84702001953125,0.20431261227726935,-0.11427519847750663,0.08001344791352748
1745855033033991200,10.8569912109375,0.17305932281427083,-0.10700491521358489,0.0699222620099783
1745855033043963000,10.866962890625,0.10293423170857131,-0.10031155505478381,0.03916062852144241
1745855033053934000,10.87693408203125,0.04779525894112885,-0.07842354837357997,-0.01704173569381237
1745855033063905000,10.886905029296875,0.04322773182988167,-0.08986322627663612,-0.0674602558106184
1745855033073877000,10.896876953125,-0.026695187767222524,-0.08631927005946635,-0.09051379913985728
1745855033083848000,10.906847900390625,-0.026898528319597242,-0.013642156383395195,-0.09215922825932502
1745855033093819100,10.916819091796874,-0.03250643132925033,0.015606149932742118,-0.060437225306034084
1745855033103791000,10.926791015625,-0.06145991941727697,0.03572305528819561,-0.06382452965676784
1745855033113762000,10.936761962890625,-0.019348843592405317,0.04403144942820072,-0.027761867150664327
1745855033123733000,10.94673291015625,-0.05324183390922844,0.07032441307008266,-0.06010872400403022
1745855033133705200,10.956705322265625,-0.030673370683193205,0.054147769773006435,-0.05383446604013443
1745855033143676200,10.96667626953125,-0.024674933985993266,0.023413608813285827,-0.04302314916849136
1745855033153646800,10.976646728515625,-0.02561382227130234,0.0008908113598823546,0.0049777884125709534
1745855033163618600,10.98661865234375,-0.01182721591591835,0.017679449075460433,0.05944412261545658
1745855033173589500,10.996589599609376,-0.02312960424013436,0.02733399712741375,0.09231412656009197
1745855033183560700,11.006560791015625,-0.026161007825285194,0.021140987706184385,0.08553601072728634
1745855033193532400,11.016532470703124,-0.0250012433309108,0.022974048352241514,0.07156593756377697
1745855033203503600,11.026503662109375,-0.0030862755775451656,0.019609540355205533,0.049422494816780085
1745855033213475600,11.0364755859375,-0.004306903413683176,-0.004725859478116035,0.05291793571710586
1745855033223446500,11.046446533203126,0.01994848998598754,-0.007709843724966049,0.016159107640385625
1745855033233417500,11.05641748046875,0.02976034749150276,0.00016717326045036316,0.008812836530804634
1745855033243389700,11.0663896484375,0.04044423859119415,-0.016095979276299476,-0.017288988453149794
1745855033253360400,11.0763603515625,0.05473229166269302,-0.000384030881524086,-0.031631402060389516
1745855033263331600,11.08633154296875,0.06689144294671714,-0.019259996265172958,-0.07457797886133194
1745855033273303600,11.096303466796876,0.05883439321927726,-0.039331308913230896,-0.08884382010102272
1745855033283274800,11.106274658203125,0.07543021177649498,-0.04434066150784492,-0.07430851427018642
1745855033293245400,11.116245361328126,0.06310154914446174,-0.04046703494489193,-0.04411854318976402
1745855033303217700,11.1262177734375,0.08698730551414191,-0.07929974668622017,0.01059329020678997
1745855033313188600,11.136188720703124,0.08015541366748512,-0.07980477359890938,0.0824655172407627
1745855033323159600,11.14615966796875,0.07136778464317321,-0.08791326125264168,0.1056932480931282
1745855033333131500,11.156131591796875,0.05135024800896644,-0.10368658444583416,0.12114800685644149
1745855033343102500,11.1661025390625,0.019961422532796858,-0.09476502684354782,0.14198855031132698
1745855033353073700,11.17607373046875,-0.005422025048732757,-0.10947276663184165,0.1281838968425989
1745855033363045400,11.18604541015625,-0.019651552866026756,-0.09583470190167427,0.1018897641569376
1745855033373016600,11.1960166015625,-0.015394114617258309,-0.09915420171320438,0.09098609282672404
1745855033382987500,11.205987548828125,-0.002168649275973439,-0.0964870283305645,0.06910042423307895
1745855033392959500,11.21595947265625,0.011926511571928857,-0.0859247177839279,0.03333995954394341
1745855033402930400,11.225930419921875,0.01941314100027084,-0.0880821880787611,0.012027122402191162
1745855033412902700,11.235902587890624,0.04933832366466522,-0.057089668443799015,-0.03068330755531788
1745855033422873600,11.24587353515625,0.05065700504779815,-0.03852876035869121,-0.05181494291126728
1745855033432844500,11.255844482421875,0.028330533884093165,-0.011713234147429466,-0.062433952081203455
1745855033442816500,11.26581640625,0.005510799310728907,0.018949615141749383,-0.08675064721405505
1745855033452787700,11.27578759765625,-0.054472763943672176,0.021837153276801108,-0.09472937100827693
1745855033462758700,11.285758544921874,-0.09545359362959861,0.020648235753178597,-0.08882394635677338
1745855033472730600,11.295730712890625,-0.12817279092669487,0.015993687945604323,-0.08619242880940436
1745855033482701600,11.30570166015625,-0.1563254840258509,-0.07069207733869552,-0.11103577816486358
1745855033492672500,11.315672607421876,-0.12642514354176818,-0.044129649105668065,0.04646539857685566
1745855033502644500,11.32564453125,-0.04369425336308777,0.12089607792198657,0.22902502872943878
1745855033512615400,11.335615478515624,0.039726372645422815,0.0834112736582756,0.17377134354114532
1745855033522586600,11.345586669921875,0.0817033006966114,-0.015892565658688546,0.06564648438692093
1745855033532558300,11.355558349609375,0.09245024709515273,-0.023530513191223144,0.032932547786831856
1745855033542529500,11.365529541015626,0.07604732076153159,-0.05521218413412571,0.020932313391566277
1745855033552500500,11.37550048828125,0.03584982347302139,-0.08290683126747608,0.03706570206880569
1745855033562472700,11.38547265625,-0.028420623320341107,-0.1353612411260605,0.07066986550688743
1745855033572443400,11.395443359375,-0.12857501505203545,-0.16724281855523584,0.11706161432564258
1745855033582414600,11.40541455078125,-0.1308078886706382,-0.17193243767619132,0.20273557221889493
1745855033592386600,11.415386474609376,-0.12384382181167602,-0.2004763951152563,0.2517898182451725
1745855033602357500,11.425357421875,-0.02387888823747635,-0.22919278651177882,0.24243279183506963
1745855033612329500,11.43532958984375,0.11068382292203605,-0.23793548041582105,0.24834230813980102
1745855033622300700,11.44530078125,0.22558109882064162,-0.19084581246078014,0.1865413932651281
1745855033632271600,11.455271728515624,0.306264774145931,-0.15460487077832222,0.11074643982946872
1745855033642243600,11.46524365234375,0.29829079959206284,-0.12337620429992675,0.020285247659683227
1745855033652214500,11.475214599609375,0.21366379346847533,-0.1135574055969715,0.0035708442240953444
1745855033662185500,11.485185546875,0.1166155510585755,-0.13845979166328906,0.04277355832159519
1745855033672157400,11.495157470703125,-0.0001565788011997938,-0.16848901922404766,0.11232815606296062
1745855033682128600,11.505128662109374,-0.08519523446559905,-0.19492285264134407,0.2012169843494892
1745855033692099600,11.515099609375,-0.14811075951866803,-0.1805342618048191,0.28021628678441046
1745855033702071600,11.525071533203125,-0.16529460709691046,-0.17172960858047007,0.30821137816905975
1745855033712042500,11.53504248046875,-0.16931852885074913,-0.16378829418718813,0.28991993467509747
1745855033722013400,11.545013427734375,-0.1414134538371116,-0.14110124608278274,0.25745558892190457
1745855033731985700,11.554985595703124,-0.08993008096776903,-0.0738128397077322,0.23203823907077312
1745855033741956400,11.564956298828125,-0.05788980584554374,0.00028407763838768005,0.1872878277182579
1745855033751927600,11.574927490234375,-0.011386559476330875,0.026306407645344733,0.13672551521658896
1745855033761899500,11.5848994140625,-0.021129224203154443,0.03644318625628948,0.0934235491067171
1745855033771870700,11.59487060546875,-0.024788331232592463,0.006775777745246887,0.053205520486831664
1745855033781842400,11.604842529296874,-0.020201076507568357,-0.009210311415791511,0.053067573320865626
1745855033791813600,11.614813720703125,-0.00009469254612922667,0.01235270109474659,0.05699848302900791
1745855033801784600,11.62478466796875,0.017782397993281483,0.06706921066641808,0.08466974928677082
1745855033811756500,11.634756591796876,0.037568317828699946,0.11347323444485664,0.0520014053940773
1745855033821727500,11.6447275390625,0.04533208369798958,0.09735153620541095,-0.010795534780621528
1745855033831698700,11.65469873046875,0.06023848786354065,0.07171791325509548,-0.043805823978781695
1745855033841670400,11.66467041015625,0.0761621062476188,0.04530336906015873,-0.0497270307213068
1745855033851641600,11.6746416015625,0.10751220714859663,0.008360416588187217,-0.05102408479452133
1745855033861612500,11.684612548828126,0.16397358762621878,-0.05815875898003578,-0.02220949372053146
1745855033871584800,11.694584716796875,0.1930220605213195,-0.10548165116906165,0.010295768564939498
1745855033881555500,11.704555419921874,0.2251157463312149,-0.11115268254280089,-0.012088497200608252
1745855033891526400,11.7145263671875,0.2750163800537586,-0.08511281687915324,-0.014071195450425147
1745855033901498600,11.72449853515625,0.25797164868526157,-0.08649754923582076,0.017968202888965605
1745855033911469600,11.734469482421876,0.24445406852960586,-0.09376666345596313,0.004875497081875801
1745855033921440500,11.7444404296875,0.2020236245572567,-0.09013093730211258,0.005556465083360672
1745855033931412500,11.75441259765625,0.163738682891801,-0.09716741181015967,0.04773205751180649
1745855033941383700,11.7643837890625,0.09467157640643417,-0.09461246663033962,0.06186638132631778
1745855033951354600,11.774354736328124,0.028407836904004214,-0.11149053619503975,0.08010872498154639
1745855033961326600,11.78432666015625,-0.011781696273759006,-0.10802081425786017,0.08642799113094807
1745855033971297500,11.794297607421875,-0.07961772659420967,-0.08712591026723385,0.0683136577695608
1745855033981269500,11.80426953125,-0.11472761842012405,-0.056196518996357914,0.040455344507098194
1745855033991240400,11.814240478515625,-0.15045001612119377,-0.02088496711850166,0.01723696600496769
1745855034001211600,11.824211669921874,-0.1788695434629917,-0.002257423537969589,0.021101824739575385
1745855034011183600,11.83418359375,-0.195178946294263,0.030557635349035262,0.03175181356966495
1745855034021154600,11.844154541015625,-0.19058686926364898,0.03980009546875953,0.03669862232208252
1745855034031125500,11.85412548828125,-0.21347908455133438,0.032248072654008864,0.018175708159804342
1745855034041097700,11.86409765625,-0.20346147534064948,-0.0011170213311910628,0.03571253389418125
1745855034051068700,11.874068603515624,-0.1886860040783882,-0.03535831362903118,0.04742109186649322
1745855034061039400,11.884039306640625,-0.1474771377902478,-0.06191197403371334,0.04273731796443462
1745855034071011600,11.894011474609375,-0.07976619515419006,-0.09082476478517056,0.05786123733818531
1745855034080982500,11.903982421875,-0.00617949235253036,-0.09722118782401085,0.047374330115318296
1745855034090953500,11.913953369140625,0.0743698890686035,-0.09281155468821525,0.022236381727457045
1745855034100925400,11.923925537109374,0.14803842493481933,-0.07551789005994797,-0.043105566754937166
1745855034110896600,11.933896728515625,0.1969066468697041,-0.07238309916555881,-0.07710837412178516
1745855034120867600,11.94386767578125,0.22673012272529303,-0.049123804131150244,-0.08352583994865417
1745855034130839600,11.953839599609376,0.22186697366833685,-0.040924715584516526,-0.10191782120764255
1745855034140810500,11.963810546875,0.1827742227513343,-0.029747488009929657,-0.13195464755296707
1745855034150781700,11.97378173828125,0.1687795996684581,-0.026302900514006612,-0.10849603055417537
1745855034160753400,11.98375341796875,0.1334334148686379,-0.018444003707170486,-0.11735738240182399
1745855034170724400,11.993724365234375,0.07656418424248695,0.0017985738545656202,-0.08124971171021461
1745855034180696600,12.003696533203126,0.035384617114067075,0.007729132947325706,-0.06389408776164054
1745855034190667300,12.013667236328125,0.02818454954214394,0.02779869202971458,-0.03718552905619144
1745855034200638500,12.023638427734374,0.028747955578565597,0.03320376594364643,-0.04735270280539989
1745855034210610400,12.0336103515625,0.024417744354531166,0.022968203133344647,-0.02867722842991352
1745855034220581600,12.04358154296875,0.016976780698820946,0.003392565047740936,-0.013996961170434951
1745855034230552300,12.05355224609375,-0.00419452908039093,-0.0011988543957471847,-0.003214285871386528
1745855034240524500,12.063524658203125,-0.018384382474422454,-0.03206394825875759,-0.0031382980257272717
1745855034250495500,12.07349560546875,-0.04233925855755806,-0.05387187544107437,0.008351648759841918
1745855034260466700,12.083466796875,-0.06091178401522338,-0.06499298891425133,0.022518705800175665
1745855034270438400,12.0934384765625,-0.07275887367539108,-0.08725976577997208,0.0057744917482137675
1745855034280409600,12.10340966796875,-0.06825228297114372,-0.09535773203969002,0.022014263409376143
1745855034290380500,12.113380615234375,-0.06221899415627122,-0.10518705213665962,0.037652562046051025
1745855034300352500,12.1233525390625,-0.02012391961812973,-0.12259294496774673,0.03899520882666111
1745855034310323500,12.133323486328125,0.00374444722533226,-0.14634090030193328,0.04655249233841896
1745855034320294400,12.14329443359375,0.032823242193460465,-0.1319184071958065,0.08491583300232887
1745855034330266400,12.153266357421876,0.055147375269606703,-0.13614566950201987,0.11636018805801868
1745855034340237300,12.1632373046875,0.07101714457459747,-0.135073071834445,0.11883037756383419
1745855034350209500,12.17320947265625,0.06694412298202514,-0.11369593728482723,0.1430932966828346
