time,seconds_elapsed,z,y,x
1745784576576562700,0.058562744140625,2.1667630238354203,1.5146858935311436,-1.368623517909646
1745784576586534000,0.068533935546875,1.4189204574733971,0.7578595179855823,-0.916122984336689
1745784576596505600,0.078505615234375,0.36898353451788424,0.15412176343649625,-0.4877341248437762
1745784576606476800,0.088476806640625,-0.4195768266797065,0.1127709313943982,-0.3439924472548067
1745784576616447700,0.09844775390625,-0.7005892322778702,0.3666872402742505,-0.6403427072383463
1745784576626419000,0.1084189453125,-0.5299135166645049,0.657537733797729,-1.2016629503618925
1745784576636390700,0.118390625,-0.08493336865901946,0.9115566262692213,-1.6251711982063948
1745784576646361900,0.12836181640625,0.22634733395278453,1.0575450598716736,-1.691722668609023
1745784576656332800,0.138332763671875,0.28992811798155305,1.0396408621296287,-1.5097680186122655
1745784576666303700,0.1483037109375,0.21265666225254534,0.8646785552382469,-1.3506532691940665
1745784576676275700,0.158275634765625,0.20258768818080425,0.779981041161716,-1.275331047836691
1745784576686246700,0.16824658203125,0.107135263594985,0.8314759583383798,-1.1370140987101942
1745784576696217900,0.1782177734375,-0.16746552139520643,0.8731956236928701,-1.052499174658954
1745784576706188800,0.188188720703125,-0.3595125263392925,0.9064572573035955,-0.9620254152685404
1745784576716160800,0.198160888671875,-0.38567923325300213,0.8646408535763621,-0.8250022322796284
1745784576726131700,0.208131591796875,0.09148118286728858,0.8095087489411235,-0.6243371827244758
1745784576736103000,0.21810302734375,-0.3695324005722999,0.6325777723252773,-0.5893612194765359
1745784576746073600,0.228073486328125,-0.7528706236571073,0.6845315391853452,-0.3174076975921169
1745784576756045800,0.2380458984375,-0.08511398592293262,0.8086430720224976,-0.07160268937759101
1745784576766016800,0.248016845703125,0.1229383974045515,0.6324611602082848,0.12865809022560715
1745784576775987700,0.25798779296875,0.5485574268579483,0.3957417775839567,0.26900044423248615
1745784576785958700,0.267958740234375,0.9308324046254157,0.3047822805032134,0.2964641321541741
1745784576795930600,0.2779306640625,0.8991834669083356,0.3196834970369935,0.24461528697330504
1745784576805901800,0.28790185546875,0.5954863512933254,0.14629326176792382,0.12838360239947214
1745784576815872800,0.297872802734375,0.40373452990353104,0.01407587162554264,-0.0359592751968652
1745784576825843700,0.30784375,0.3202911075413227,0.06101356388926506,-0.19461638050805777
1745784576835815700,0.317815673828125,0.0015104045629501341,0.13740911356657742,-0.3538507011853158
1745784576845787000,0.327786865234375,-0.7449427532672882,0.15000059185326098,-0.5473100571453571
1745784576855757800,0.3377578125,-1.4968793109446763,0.21407354331314563,-0.5639503724314272
1745784576865728500,0.347728515625,-2.1020260555088517,0.22904577925652264,-0.7082710920173675
1745784576875700700,0.35770068359375,-2.4533862550526857,0.17784867598265408,-1.0164216068446636
1745784576885671700,0.367671630859375,-1.5438438912153243,0.09821633634120225,-1.192966945143789
1745784576895643000,0.377642822265625,-0.22438158683776854,0.4999705060824752,-1.4472583709463476
1745784576905614800,0.38761474609375,-0.1461737270414829,0.41321079877913,-1.638142031199485
1745784576915585800,0.397585693359375,-0.26540684018731114,0.18491934502124785,-1.5862493468768895
1745784576925556700,0.407556640625,-0.3410837202012539,0.08822218107134103,-1.1647476165492088
1745784576935527700,0.417527587890625,-0.22020108628273008,0.11405717181265354,-0.7927078362658619
1745784576945499600,0.427499755859375,0.08770634050369262,0.2982116699412465,-0.7106365059744566
1745784576955470800,0.437470947265625,0.36034254742264743,0.600171878761053,-0.6824681769147515
1745784576965441800,0.44744189453125,0.5645645588070154,0.7437962135806679,-0.7348950411792844
1745784576975412700,0.457412841796875,0.3932610666841268,0.7550903455331921,-0.6889546893898397
1745784576985384700,0.467384765625,-0.007274374917149543,0.7320034844562411,-0.4807483576096594
1745784576995356000,0.47735595703125,-0.004698386949300765,0.9233335733026266,-0.040613759072357786
1745784577005326800,0.487326904296875,-0.017179682859778403,0.9561816576763987,0.34691684680152685
1745784577015297500,0.497297607421875,0.013982348123192786,0.8519301328241825,0.36298564580995585
1745784577025269800,0.507269775390625,-0.06928630219399928,0.8204518754988909,0.397742997871153
1745784577035240700,0.51724072265625,0.004233692046999931,0.684293054254353,0.47497335440479216
1745784577045212000,0.5272119140625,0.1942500679463148,0.45280221993327135,0.31319227185416965
1745784577055182600,0.5371826171875,0.32515257609784604,0.3348284591987729,0.05522699811076745
1745784577065154800,0.54715478515625,0.21503449729979038,0.3375771733850241,-0.246055969034601
1745784577075125800,0.557125732421875,-0.07910802350640296,0.35597207725346086,-0.4365934279322624
1745784577085097000,0.567096923828125,-0.7222223874151706,0.24445640661716458,-0.45054866885282097
1745784577095068700,0.577068603515625,-1.1156810224980116,0.1658335362792015,-0.5136632236093283
1745784577105040000,0.587039794921875,-1.0350737003445625,0.23585019857436418,-0.5411059783408418
1745784577115010800,0.5970107421875,-0.9441612572759389,0.24809213277101516,-0.534120539900288
1745784577124981800,0.606981689453125,-0.8746323784977197,0.1586830800026655,-0.4865964625833556
1745784577134954500,0.61695458984375,-0.5692611921906471,0.033765491479635236,-0.15853822817187754
1745784577144925400,0.626925537109375,-0.2214987248778343,-0.2445177814155817,0.0959166080314666
1745784577154896400,0.636896484375,-0.21093407624363897,-0.4081768962651491,0.06470123942606151
1745784577164867300,0.646867431640625,-0.411343835863471,-0.3345253845989704,0.07579130017384886
1745784577174839300,0.65683935546875,-0.5520265642732382,-0.12697452105283735,0.15785634685494004
1745784577184810500,0.666810546875,-0.5659288328975439,0.12728314861059187,0.08330145660825074
1745784577194781200,0.67678125,-0.3876800516813993,0.2564236155256629,0.035002924320101735
1745784577204752400,0.68675244140625,-0.09324702349603176,0.23466361913830042,0.23407621117178348
1745784577214724400,0.696724365234375,0.31568215244114395,0.18100246383845806,1.334499129989743
1745784577224695600,0.706695556640625,0.3197147689580917,-0.17449264355301855,-0.32979404522813854
1745784577234666200,0.716666259765625,0.5579506936252117,0.3004334376439452,0.15514102348163722
1745784577244637200,0.72663720703125,0.5444961687684059,0.2856701682761311,0.4378099275825545
1745784577254609400,0.736609375,0.14082359818518161,-0.02564911278039217,0.00032345980070531364
1745784577264580400,0.746580322265625,0.12056991470754146,-0.04058072445243597,0.21916995313670484
1745784577274551300,0.75655126953125,0.08243044592738151,-0.09315700712502002,0.174908677008003
1745784577284523300,0.766523193359375,0.25306758309602734,-0.14579115746468305,0.11354096591882407
1745784577294494500,0.776494384765625,0.41148821277022357,-0.1243999943897128,0.028419308146089315
1745784577304465400,0.78646533203125,0.3795236332327127,-0.11512012486904859,0.059401306387037035
1745784577314436400,0.796436279296875,0.1739063680976629,-0.07023848835229873,0.05198639048803597
1745784577324408300,0.806408203125,-0.13762509440481663,0.052958267727494235,-0.06128624335080385
1745784577334379500,0.816379638671875,-0.5327005170345306,0.3076554978519678,-0.09333071972411125
1745784577344350500,0.8263505859375,-0.7744727991342544,0.4466016117274761,-0.10786328560858964
1745784577354321200,0.836321044921875,-0.8269219482958317,0.43537177718281744,-0.1091166466705501
1745784577364293400,0.84629345703125,-0.662942515450716,0.4350900376319885,-0.26684560428615656
1745784577374264600,0.8562646484375,-0.36233342897891996,0.4770189618229866,-0.2001313810698688
1745784577384235300,0.8662353515625,-0.146274264806509,0.4584951708778739,-0.006700630149804055
1745784577394207500,0.87620751953125,-0.026937106764316557,0.38996465548723935,-0.05885386510472744
1745784577404178400,0.886178466796875,-0.02917173394858837,0.380183266185224,-0.11342654575891792
1745784577414149400,0.8961494140625,0.09593582418859005,0.21914047131389378,0.37269404294099656
1745784577424120300,0.906120361328125,0.13169745792150497,-0.1574441858574748,0.5502639750475063
1745784577434092300,0.91609228515625,0.010359481450915337,-0.26524668118953704,0.41849809153228995
1745784577444063500,0.9260634765625,0.0710328536003828,-0.07513152109086513,0.3911573358705267
1745784577454034400,0.936034423828125,0.06721767922639846,0.07048924824297428,0.21847608912102875
1745784577464005400,0.94600537109375,-0.20233166759312152,0.2783963778808713,0.01633727721888572
1745784577473977300,0.955977294921875,-0.39574820732474325,0.5089800342291593,-0.2632662844946608
1745784577483948500,0.965948486328125,-0.2432663200497627,0.6431544036582112,-0.5096627557963133
1745784577493919500,0.97591943359375,0.12964870869815348,0.6132976100549101,-0.5101561288038269
1745784577503890200,0.98589013671875,0.19368191266953944,0.3934086584612727,-0.4230166284026578
1745784577513862400,0.9958623046875,-0.21394494849741458,0.10925766257643699,-0.4490259162649512
1745784577523833300,1.005833251953125,-0.271447873917222,0.028170740212500094,-0.19416319338046012
1745784577533804500,1.015804443359375,-0.0019236615389585494,-0.14802373882234096,0.16666816047243774
1745784577543776300,1.0257763671875,0.16115969924926757,-0.3824047416269779,0.19203089405950158
1745784577553747500,1.03574755859375,0.42023499832749367,-0.38916210693269965,0.23983515829099342
1745784577563718400,1.045718505859375,0.7087994267404079,-0.3160939481124282,0.45457116583455354
1745784577573689300,1.055689453125,0.6388204661071301,-0.3117486123844981,0.3916116920419037
1745784577583661300,1.065661376953125,0.14443360537588595,-0.22411241450756786,0.35831385460663584
1745784577593632500,1.075632568359375,-0.09615443537533283,-0.11200900711119174,0.5400509163299575
1745784577603603500,1.085603515625,-0.005920622220635414,-0.13028788338452577,0.6318791225366294
1745784577613574100,1.09557421875,0.12867957140505312,-0.06554156270772218,0.4344757781911641
1745784577623546400,1.10554638671875,0.05671031373739242,0.14937544569224118,0.1864392480649054
1745784577633517300,1.115517333984375,-0.20085399625599384,0.37942864842563867,0.006942786608915776
1745784577643488500,1.125488525390625,-0.41192426609992977,0.4475695799767971,-0.054081791864708066
1745784577653460200,1.135460205078125,-0.37199966746866703,0.40968087108731266,-0.060869935901183635
1745784577663431400,1.145431396484375,-0.014451719200611113,0.4654223397925496,-0.18089288425045086
1745784577673402400,1.15540234375,1.0321528444617987,0.398382062959671,-0.22089500509733334
1745784577683373600,1.16537353515625,0.900055573567748,0.5745052303239703,-0.01776265211319551
1745784577693345300,1.17534521484375,0.6743781017005444,0.5334671174928546,-0.25995821939259767
1745784577703316500,1.18531640625,0.34856618491113184,0.5296946132168173,-0.29633944632858034
1745784577713287400,1.195287353515625,0.19314532157480716,0.481486754886806,-0.3140075702924281
1745784577723259400,1.20525927734375,0.08214110759198665,0.22819120825380085,-0.403394520826824
1745784577733230300,1.215230224609375,-0.030015783557295797,0.0736731389760971,-0.30081576975872737
1745784577743201300,1.225201171875,-0.07568798592984675,-0.10724369240552187,-0.15269032412758096
1745784577753172500,1.23517236328125,0.048995209315419196,-0.24762363847643135,-0.02109507533838041
1745784577763144200,1.245144287109375,0.13192249884903431,-0.25293577340990303,0.1506909304712899
1745784577773115400,1.255115478515625,0.029368133303523062,-0.12243629310131073,0.25502739366060123
1745784577783086300,1.26508642578125,0.03828618377447128,-0.005260989268124103,0.1799614120866172
1745784577793057500,1.2750576171875,0.2315676989495754,0.01641425144523382,0.1822707850075327
1745784577803029200,1.285029296875,0.3423930492341518,-0.2253331884741783,0.478284451714158
1745784577813000400,1.29500048828125,0.11227087291777134,-0.6112023913413286,1.038897642546892
1745784577822971400,1.304971435546875,-0.44856852788627144,-0.9533075635448097,1.8141218445703386
1745784577832943400,1.314943359375,-0.5015525145769119,-1.2098916303291916,2.086242210921645
1745784577842914300,1.324914306640625,0.0685194094747305,-1.2765879160299896,1.4504872698649762
1745784577852885200,1.33488525390625,0.24346038131713865,-1.039101056164503,0.9579689794845878
1745784577862856400,1.3448564453125,0.22428806333541867,-0.8457558281034231,0.7388903944257647
1745784577872828200,1.354828125,0.2611953599721193,-0.7856985420256852,0.6753674049988388
1745784577882799400,1.36479931640625,0.35539223153889177,-0.765036570008099,0.6649125734146684
1745784577892770300,1.374770263671875,0.433382649192214,-0.6996496133401989,0.43562575194388625
1745784577902741500,1.384741455078125,0.47434243609011173,-0.45502603346258397,-0.09678763697864487
1745784577912713200,1.394713134765625,0.5464309362232684,-0.18912030384242534,-0.387706282101199
1745784577922684400,1.404684326171875,0.13126198911368847,-0.204561326341331,-0.2341383896877989
1745784577932655400,1.4146552734375,-1.0746271275758743,0.2939627803251147,-0.9419681311458349
1745784577942627300,1.42462744140625,-2.013770264428854,1.47945354436934,-2.0318271685145795
1745784577952598300,1.434598388671875,-1.300036303895712,1.277717504581809,-1.7153662867859005
1745784577962569500,1.444569580078125,-0.7134872922956943,0.8315013850405811,-1.5639169574290512
1745784577972540400,1.45454052734375,-0.29121815779209137,1.2918901145800947,-1.4961659019783138
1745784577982512400,1.464512451171875,0.14610709154605864,1.037277347868681,-1.4867485236831008
1745784577992483300,1.4744833984375,0.24564883127212522,0.6220575473546981,-0.7703668981853872
1745784578002454300,1.484454345703125,0.28418577493727204,0.16351649150848388,-0.3037038924156688
1745784578012426500,1.494426513671875,-0.00003156418204307556,-0.10263999800235032,0.13807707595601676
1745784578022397200,1.504397216796875,-0.6363479385137557,-0.3957707114174962,0.9325013607509434
1745784578032368400,1.514368408203125,0.22114333556890486,-0.5141618207812308,0.5936653829438612
1745784578042339300,1.52433935546875,0.25899755766689775,-0.49483635806441306,0.5486563206551596
1745784578052311300,1.534311279296875,-0.2744809580028057,-0.5386491963058709,0.684213340081647
1745784578062282200,1.5442822265625,-0.6861211464643479,-0.6089978670343756,0.783328598023951
1745784578072253400,1.55425341796875,-0.8357973286688327,-0.6905392551675439,0.527319773844257
1745784578082224400,1.564224365234375,-0.8256424298793077,-0.45201136181652546,0.1618627694847062
1745784578092196400,1.5741962890625,-0.5550187318265438,-0.016803250762820243,-0.20236898566251618
1745784578102167300,1.584167236328125,-0.02182312475144863,0.16254940004199742,-0.4040081592131406
1745784578112138200,1.59413818359375,0.4902759182810783,0.1412669580385089,-0.5242486227706075
1745784578122110500,1.6041103515625,0.6253811388194561,0.3131473732665181,-0.590583966204524
1745784578132081200,1.6140810546875,0.5534440298557282,0.536148319400847,-0.39798203079141675
1745784578142052000,1.624052001953125,0.44456046128869053,0.5492100455477833,-0.29091283643627536
1745784578152023000,1.63402294921875,0.2585708566874266,0.37631197770982977,-0.2852130356257781
1745784578161995300,1.643995361328125,0.10951134507656096,0.376190397156775,-0.2630194518604316
1745784578171966000,1.653966064453125,-0.11615677444040774,0.2962032527282834,-0.06025218759533017
1745784578181937200,1.663937255859375,-0.2800479444801807,-0.010808394262194633,0.29291106104878706
1745784578191909000,1.6739091796875,-0.2610696877658367,-0.2382280336216092,0.3142765964921564
1745784578201880300,1.68388037109375,-0.20392039808928966,-0.45452685176879165,0.41511056798584756
1745784578211851000,1.69385107421875,0.2511269704222679,-0.46387014191448683,0.008864749381132424
1745784578221822200,1.703822265625,0.701121147197485,-0.1930699182510376,-0.6129341105047613
1745784578231794200,1.713794189453125,0.7328308751910925,0.10657353805899619,-0.9467435288541018
1745784578241765400,1.723765380859375,0.1591886914372444,0.7815630496561526,-1.0776403379172086
1745784578251736000,1.733736083984375,-0.20179040032327175,0.8659750247895717,-0.7341353088531642
1745784578261707000,1.74370703125,-0.3712655079752207,0.1477101428285241,-0.359411842443794
1745784578271679200,1.75367919921875,-0.5826385601580143,0.05328706129044294,0.03985189872123301
1745784578281650200,1.763650146484375,-0.6243202315896749,0.24660686264932155,0.12402611957602203
1745784578291621000,1.77362109375,-0.3472229536086321,0.47079438821971414,-0.07293566414755769
1745784578301593000,1.783593017578125,0.043804070413112635,0.66423109395653,-0.30833507761396467
1745784578311564300,1.793564208984375,0.3737298522621393,0.7174097264364361,-0.2958049375930801
1745784578321535200,1.80353515625,0.5222855060040951,0.6226596049010753,-0.023643280250160024
1745784578331506200,1.813506103515625,0.4097106817036867,0.4267918726250529,0.31608222114201634
1745784578341478100,1.82347802734375,0.03469195867478847,0.2892705308556556,0.5296475957373157
1745784578351449300,1.833449462890625,-0.7177671615719795,0.44110856726914643,0.6607208938784896
1745784578361420000,1.843419921875,-1.0271867464870215,0.3866515854164958,0.5647496330503374
1745784578371392300,1.853392333984375,-0.6271499020576476,0.10517185456752777,0.1862201802204363
1745784578381363200,1.86336328125,-0.10009703552126883,-0.012739946846663951,0.13521880044806747
1745784578391334100,1.873334228515625,0.29578093566298486,-0.103300799998641,-0.039832116308528925
1745784578401305000,1.88330517578125,2.6157646824419496,-0.049993280442059036,0.1731777980947867
1745784578411277000,1.893277099609375,0.6484983950346708,-0.44352498076111074,0.37260545134209094
1745784578421248300,1.903248291015625,-1.1545663412094116,-0.021488778230547904,0.9767305247083305
1745784578431219200,1.91321923828125,-0.6076268709421158,0.14489011697173118,0.6380391795363277
1745784578441191200,1.923191162109375,-0.21164894651472568,0.14222820428609848,0.0780831557043828
1745784578451162000,1.933162109375,0.1747615236222744,0.40014293515235183,-0.21517266366146504
1745784578461133300,1.94313330078125,-0.5642401491582393,0.5451502487629651,-0.16545567941013722
1745784578471104300,1.953104248046875,-1.172713992318511,0.5960986379727721,-0.1528508667178452
1745784578481076200,1.963076171875,-1.4412117842584848,0.5683510916084051,-0.48925621984452006
1745784578491047200,1.973047119140625,-1.226066227799654,0.637149318024516,-0.7749298952519893
1745784578501018000,1.98301806640625,-0.5195873529613018,0.43296734638959167,-0.690389617563784
1745784578510990000,1.992989990234375,0.18042320264577866,-0.07878770551085472,-0.38773295091241594
1745784578520961000,2.0029609375,0.6053536653131246,-0.6236556302011013,0.07422381339510903
1745784578530932200,2.01293212890625,0.577213612499833,-0.9042802055254578,0.42708179548233743
1745784578540903200,2.022903076171875,0.44788113014400005,-1.0009680171251296,0.7488989435471594
1745784578550875100,2.032875244140625,0.9562386485606431,-0.6016209085255861,0.9112175305079668
1745784578560846000,2.04284619140625,0.7525690103620291,-0.654398851250112,0.8868434791646898
1745784578570817300,2.0528173828125,0.31093408113121984,-0.858978882291913,0.9490934529811144
1745784578580788200,2.062788330078125,0.27455110062956806,-0.6844251562014222,0.9711564509030431
1745784578590760200,2.07276025390625,0.2817559174418449,-0.5103326178818941,0.8089368673373013
1745784578600731100,2.082731201171875,0.23427111268937587,-0.2647200269669294,0.5564357224849984
1745784578610702000,2.0927021484375,0.20598025322854518,0.05438128626793623,0.2692217953655869
1745784578620674000,2.102674072265625,0.009938041168451308,0.1942351626381278,0.27446714867316185
1745784578630645000,2.11264501953125,-0.3735293612539768,0.14634908360838889,0.5318543485339731
1745784578640616200,2.1226162109375,-0.49211540866792197,0.006558920124173164,0.6074888507109135
1745784578650587100,2.132587158203125,-0.23747896881997585,-0.05781622915267944,0.6141684015400707
1745784578660559000,2.14255908203125,0.06357727689743041,-0.14646423442065715,0.6429112425521015
1745784578670530000,2.152530029296875,0.22450375191271305,-0.19244974052608013,0.4925488316491246
1745784578680501200,2.162501220703125,0.22087211741209029,0.0014499065473675726,0.1751802604909986
1745784578690473000,2.172472900390625,0.21819792976677416,0.2096542655661702,-0.028673529502330347
1745784578700444200,2.182444091796875,0.262898656758666,0.16420242794603107,-0.06076449363217689
1745784578710415000,2.1924150390625,0.2341343345671892,0.04906242933273315,0.02797656934726983
1745784578720386300,2.20238623046875,-0.025840543699264525,0.03505377772450447,0.07693438752805813
1745784578730358000,2.21235791015625,-0.2436240474462509,0.004558978478610515,0.06605488252472132
1745784578740329200,2.2223291015625,-0.41975569037795063,-0.053481707079708576,0.06529620964452625
1745784578750300200,2.232300048828125,-0.5456482614129782,-0.06543254937529563,0.020046799261309204
1745784578760271000,2.24227099609375,-0.443155270665884,0.0353705885887146,-0.14667168489256874
1745784578770243000,2.2522431640625,0.14314473460912705,0.22501550082713365,-0.33006628629826007
1745784578780214000,2.262214111328125,0.6175713418513537,0.23901976852118967,-0.40388840529099107
1745784578790185200,2.272185302734375,0.8766390421450138,0.21036972035914658,-0.3497084137488156
1745784578800157200,2.2821572265625,1.0223866527289152,0.2981590629711747,-0.2810001123721711
1745784578810128100,2.292128173828125,0.7369312962472438,0.3409314522489905,-0.24213068534964693
1745784578820099000,2.30209912109375,0.04917231944799423,0.3811336987778544,-0.08915522413775324
1745784578830070300,2.3120703125,-0.4324491677343845,0.4228399201288819,0.018513374582375397
1745784578840042200,2.322042236328125,-0.5971271042376757,0.3772442901238799,-0.10888215292808599
1745784578850013200,2.33201318359375,-0.5171346991121769,0.2870128150567412,-0.2671301385822706
1745784578859984100,2.341984130859375,-0.175532507994771,0.2110948197633028,0.07748671504803933
1745784578869955000,2.351955078125,0.5719745428025722,-0.2426107787504792,1.0479386618103832
1745784578879927000,2.361927001953125,0.45890112133026123,-0.7210854923397302,-0.7308768915791064
1745784578889898000,2.37189794921875,0.2237082176208496,0.28660803364813325,0.5329177034491673
1745784578899869200,2.381869140625,-0.22564006246626375,-0.3503253035381436,0.6018857334742322
1745784578909841200,2.391841064453125,-0.29310557897388934,-0.48410044451653955,0.4746892767664045
1745784578919812000,2.40181201171875,0.0036789807736873625,-0.06575520545840263,0.5447635510003194
1745784578929783000,2.411782958984375,-0.061895022898912425,-0.06391425376683474,0.19745476400544865
1745784578939754200,2.421754150390625,-0.037435704424977304,0.0529620671197772,0.06523257895694114
1745784578949726200,2.431726318359375,-0.0980073697656393,0.1432376735895872,-0.15434985483763738
1745784578959697200,2.441697265625,-0.33769524680674073,0.2714297537386417,-0.30062768157441166
1745784578969668000,2.451668212890625,-0.5696405468970537,0.39951720446944233,-0.4227766821669414
1745784578979640300,2.461640380859375,-0.5619125829935073,0.36278701796531676,-0.46058710165582595
1745784578989611300,2.471611328125,-0.3223509626805782,0.31782091803550716,-0.3930015754977241
1745784578999582000,2.48158203125,-0.07639116576313972,0.2503454646557569,-0.32950974839404223
1745784579009553200,2.49155322265625,0.2770896791964769,0.14879589223861694,-0.13169212415926157
1745784579019525000,2.501525146484375,0.6062403850197792,0.03552694819420576,0.08734876837083139
1745784579029496300,2.511496337890625,0.6407721846967935,-0.03667290335893631,0.1762262806789018
1745784579039467000,2.521467041015625,1.0412842454224824,-0.06637772127091884,0.20551826173998414
1745784579049438200,2.531438232421875,0.6390794093042612,0.08718670054376125,0.13261729444647208
1745784579059410200,2.54141015625,0.06893500453829765,0.3155883366778493,-0.1737875640235841
1745784579069381000,2.551381103515625,-0.40151217767894265,0.4292094551607966,-0.27009854166749864
1745784579079352000,2.56135205078125,-0.49139703126549716,0.2991042348667979,-0.25660191296832635
1745784579089324300,2.57132421875,-0.3614239129185676,0.03953267670422792,-0.1516690913210623
1745784579099295200,2.581295166015625,0.07931085260212421,-0.11463643300533294,-0.06648415905376896
1745784579109266000,2.591265869140625,0.4878285251289606,-0.21936989615559577,-0.01292876568334177
1745784579119237000,2.601237060546875,0.6331500192552805,-0.28477497300207616,-0.009793682528007774
1745784579129209000,2.611208984375,0.4911895259946584,-0.23421645989269016,-0.015564265286084263
1745784579139179800,2.6211796875,0.24262685310244558,-0.2141618061184883,0.06954705375572666
1745784579149150700,2.631150634765625,0.11564940944015979,-0.1570627853244543,0.12123667152058333
1745784579159121700,2.64112158203125,-0.20507482882142067,-0.021944120782613753,0.02696216814033687
1745784579169093600,2.65109375,-0.4817898294866085,0.06701485013067722,-0.042808520037122065
1745784579179064800,2.66106494140625,-0.43738077891767024,0.09408084397166967,0.006901048092730343
1745784579189035800,2.671035888671875,-0.22404081057608127,0.033283260920643806,-0.012935031027346848
1745784579199007700,2.6810078125,0.032716859209537506,-0.006854103678464889,-0.05739489846806973
1745784579208978700,2.690978759765625,0.21234277399778365,0.0014575053319334983,-0.10248710899557918
1745784579218949600,2.70094970703125,0.2210930666863918,0.015608488020300864,-0.2203409331448376
1745784579228920600,2.710920654296875,0.06361117916703224,0.02878127332627773,-0.21108970519676803
1745784579238892500,2.720892578125,-0.22866496324539184,-0.020745850908756254,-0.06376092636864632
1745784579248863700,2.73086376953125,-0.3353565747261047,-0.03896656725406646,0.03607833499927073
1745784579258834700,2.740834716796875,-0.26847558010816575,-0.04700257419347763,-0.024111491416953502
1745784579268806700,2.750806640625,-0.22996844705939293,-0.009768237559497355,-0.05462083064485341
1745784579278777600,2.760777587890625,-0.11193594187498092,0.05283230326026678,-0.04408606569226831
1745784579288748800,2.770748779296875,0.028953122761845588,0.022666882099211215,-0.032711013990640636
1745784579298719700,2.7807197265625,0.17987784372270108,-0.08097644772678614,0.033122480868361885
1745784579308691700,2.790691650390625,0.32860476237833497,-0.13612813384532926,-0.01116988451834768
1745784579318662700,2.80066259765625,0.41411856127381325,-0.10839490826725959,-0.007022920906729996
1745784579328633600,2.810633544921875,0.34483518168926236,-0.020741174733638762,-0.07504238150268792
1745784579338604800,2.820604736328125,0.11607844850718975,0.08968640840500593,-0.12842303936071695
1745784579348576500,2.830576416015625,-0.2221832000106573,0.2125111163020134,-0.2268378574160859
1745784579358547700,2.840547607421875,-0.5713713162124157,0.38198973108530043,-0.41054457524456084
1745784579368518700,2.8505185546875,-0.5120481896281243,0.4325488287165761,-0.40875911659989506
1745784579378490600,2.86049072265625,-0.036003041273355484,-0.003017301994562149,-0.14384387758811934
1745784579388461600,2.870461669921875,0.07224106034636497,-0.5261676081344485,0.7182811024434864
1745784579398432800,2.880432861328125,0.05767009868025779,-0.9319935573592781,1.6651079256668686
1745784579408403700,2.89040380859375,0.3407809378623962,-1.222539222717285,1.709775919432938
1745784579418375700,2.900375732421875,0.7246177581191062,-0.987087960332632,1.0815187137205153
1745784579428346600,2.9103466796875,1.0188105478078127,-0.43058951134234663,0.5196551209678874
1745784579438317600,2.920317626953125,1.0700643497049809,-0.20145225441008804,-0.05482217103638686
1745784579448288800,2.930288818359375,0.7663000140726566,-0.1372381409138441,-0.15970984750082715
1745784579458260500,2.940260498046875,0.19294132343530654,0.000056990884244441985,-0.6105047279333695
1745784579468231700,2.950231689453125,-0.33063188429176804,0.08927256690710783,-0.2542734882870689
1745784579478202600,2.96020263671875,-0.47583004429936404,-0.161509535600245,-0.12117734254878014
1745784579488174600,2.970174560546875,-0.41417818250656124,-0.2636146960735321,-0.36021424486786124
1745784579498145500,2.9801455078125,-0.155567578330636,-0.1156643147483468,-0.6446021182484925
1745784579508116700,2.99011669921875,0.018773089531064033,0.14737375048100948,-1.1040951410572974
1745784579518087700,3.000087646484375,-0.12243453953564166,0.5657967309504747,-1.605935167338699
1745784579528059600,3.0100595703125,-0.5301847348213196,1.0313359751209616,-1.8322654040262103
1745784579538030600,3.020030517578125,-0.318147665771842,0.7460510067701339,-1.7967369945272802
1745784579548001800,3.030001708984375,-0.0036953473865985868,0.5160168009981513,-1.4467515904679893
1745784579557972700,3.03997265625,0.009163549664616584,1.2595491029456256,-1.089132841986045
1745784579567944700,3.04994482421875,-0.21526772153377532,0.9783061034619808,-1.2895038039654492
1745784579577915600,3.05991552734375,-0.9936135627090931,-0.03525777586400509,0.10460987330321223
1745784579587886600,3.069886474609375,-1.2700889093995094,-1.1849553419932721,1.4004928203791378
1745784579597858600,3.079858642578125,-1.6163117460548877,-1.037044415895641,0.01074416991956532
1745784579607829500,3.08982958984375,-0.3177285635769367,0.2651391291618347,-0.8931249705869704
1745784579617800700,3.09980078125,0.4941729257196188,0.31574878793656824,-1.2593420360662042
1745784579627771600,3.109771728515625,1.168185701239109,0.2708370485424995,-1.3593484706945718
1745784579637743600,3.11974365234375,1.6815841364324091,0.3434250226303935,-1.0863672497302292
1745784579647714600,3.129714599609375,1.759431930744648,0.4196574907004833,-0.8406998598881066
1745784579657685800,3.139685791015625,1.7257587937235832,0.2228860875830054,-0.5198765816988423
1745784579667656700,3.14965673828125,1.6874901456058025,0.15868921748250722,-0.16909142383029682
1745784579677628700,3.159628662109375,1.311474228233099,0.38219928218275306,-0.08411377763813362
1745784579687599600,3.169599609375,0.5160813906669617,0.6806549900129437,-0.2035105569130741
1745784579697570600,3.179570556640625,-0.3957978916853666,0.7949170367479323,-0.2593144415963441
1745784579707542800,3.189542724609375,-1.2852449774771928,0.7657222141847014,-0.1581923373436555
1745784579717513500,3.199513427734375,-1.525209333372116,0.5857736433133482,0.1559387862632051
1745784579727484700,3.209484619140625,-1.3183616496592758,0.4128188768520951,0.2877311376602389
1745784579737455600,3.21945556640625,-0.9102513888895511,0.2226429264768958,0.241211944803223
1745784579747427600,3.229427490234375,-0.36676995012164115,0.10103343958854674,0.11021036019138991
1745784579757398500,3.2393984375,0.2211199546933174,-0.028438451237976548,-0.02103785612527281
1745784579767369700,3.24936962890625,0.6861930426567793,-0.09979542222619056,-0.0660030975385569
1745784579777340700,3.259340576171875,0.8560083420485257,-0.1059869703426957,0.025101708030700682
1745784579787312600,3.269312744140625,0.8028080822587013,-0.07762947538644074,0.12738978732284156
1745784579797283600,3.27928369140625,0.6698182464390993,-0.03758504976779222,0.2910559895003214
1745784579807254500,3.289254638671875,0.4524626127153635,-0.032823534454405306,0.4593136111212894
1745784579817226800,3.299226806640625,0.1770481732547283,-0.04149140955656767,0.5189208518765867
1745784579827197400,3.309197509765625,0.01635726056098938,-0.037515491662919516,0.5636241726843639
1745784579837168600,3.319168701171875,-0.05430559068322181,-0.024911446155607697,0.5882225708354264
1745784579847139600,3.3291396484375,-0.07782324439287185,-0.008161386884748935,0.6006660189535469
1745784579857111800,3.33911181640625,-0.08385024959743022,0.017108663450181482,0.6145180186953395
1745784579867082500,3.34908251953125,-0.06376841555535794,0.048666708013415334,0.5704912454422563
1745784579877053700,3.3590537109375,-0.004322539374232292,0.06153349611014127,0.5039635943066328
1745784579887025700,3.369025634765625,0.17257248914539813,0.07436199802309275,0.45873672454878683
1745784579896996900,3.378996826171875,0.32679508260786533,0.061656830228865145,0.48656584824938326
1745784579906967600,3.388967529296875,0.4752262331873178,0.035524610106647016,0.4653029877291992
1745784579916938500,3.3989384765625,0.5994400573551655,-0.04908142629414797,0.46762010556515304
1745784579926910700,3.40891064453125,0.7334487148284912,-0.1418266377478838,0.6071957129832357
1745784579936881700,3.418881591796875,0.8466565763354301,-0.20539310099035502,0.695664050835371
1745784579946852600,3.4288525390625,0.8466565763354301,-0.07322948686182498,0.5807283060899004
1745784579956823600,3.438823486328125,0.8624591256231069,0.27347411904782054,0.3232918967925012
1745784579966795800,3.448795654296875,0.9397177218705415,0.7648428010016679,0.12144035913283005
1745784579976766500,3.458766357421875,1.0664566806018352,1.0938210728675126,-0.048657209532707926
1745784579986737700,3.468737548828125,0.9961053795248269,1.1750889047563076,-0.047929735508374864
1745784579996709600,3.478709716796875,0.9251420840293169,1.1511305215418337,0.42995037318859247
1745784580006680800,3.488680908203125,0.9126572809875011,1.5053896573975682,0.8390190671943127
1745784580016651500,3.498651611328125,1.1513088007181882,2.0992387628778815,0.7768270341102034
1745784580026622500,3.50862255859375,1.5200000742912292,2.3725568145811557,0.8217978832803666
1745784580036594700,3.5185947265625,1.7479069126456974,2.5570684555843473,0.9223286340437828
1745784580046565600,3.528565673828125,1.4742624054670332,2.4398916904464363,0.16920030929856
1745784580056536600,3.53853662109375,1.0060416671276091,0.86390815538764,-1.4330457211986183
1745784580066507500,3.548507568359375,0.3566296643793583,-1.0087123476415871,-2.3159451389126477
1745784580076479700,3.558479736328125,-0.2242611753284931,-1.0904685475692153,-2.358717235929519
1745784580086450700,3.56845068359375,-0.1958230163514614,-0.2781608155593276,-2.4223899360254406
1745784580096421600,3.578421630859375,0.23530980808734892,0.23258418251574037,-2.033035229130089
1745784580106393600,3.5883935546875,0.615410948947072,0.409240141582489,-1.8309803326517342
1745784580116364800,3.59836474609375,1.1219628792464733,0.3799772222191095,-1.80595081307441
1745784580126335700,3.608335693359375,1.7409230451077222,0.11980506781488656,-1.2385554147556423
1745784580136307000,3.618306884765625,2.556854228311777,0.23483488405197858,-0.48022418760508295
1745784580146279200,3.628279052734375,3.3402152673006054,0.812894591987133,0.08035159382671117
1745784580156250000,3.63825,3.6399230210185047,1.1240440694347023,0.24028379710763692
1745784580166221000,3.648220947265625,3.4074452214866873,1.1522384827837346,0.7662573439747095
1745784580176193000,3.658193115234375,3.000222264945507,1.1559689014837145,1.2591446137979625
1745784580186164200,3.668164306640625,2.644039175289869,0.9818731482937931,1.1602552005007862
1745784580196135200,3.67813525390625,2.4045360071659085,0.6747019268274307,0.5605141143724321
1745784580206106000,3.688106201171875,2.1458213580936194,0.6613511546060442,-0.08173778748810291
1745784580216078000,3.698078125,2.003614781117439,1.1640589766979217,-0.6989546168133616
1745784580226049300,3.70804931640625,2.234642381840944,2.0949606471672655,-1.3321619192138314
1745784580236020000,3.71802001953125,2.672751475033164,2.7795772342875598,-2.261243096257746
1745784580245991000,3.727990966796875,2.9446196201890706,3.214728062196076,-2.8520927276611325
1745784580255963100,3.737963134765625,3.0798920139878985,3.858839035926759,-2.982880085000396
1745784580265934000,3.74793408203125,3.1408272519439455,4.338512896172702,-3.121223556807637
1745784580275905000,3.757905029296875,3.6111616214364766,4.154378856310248,-3.207360456037521
1745784580285877200,3.767877197265625,2.7299861049056053,4.053749905869364,-4.209106471797823
1745784580295848200,3.77784814453125,2.2033786440491676,3.632551907728612,-2.7722067055195567
1745784580305819100,3.787819091796875,2.632251414601505,4.70195048700124,-1.4927449876189232
1745784580315790000,3.7977900390625,2.3244676141947505,5.312652819865941,-1.3045359534025192
1745784580325762000,3.807761962890625,2.638979261551797,4.990670105975866,-0.6160381409347057
1745784580335733200,3.817733154296875,2.1450791614241895,4.746574933886528,-0.7889350397288799
1745784580345704200,3.8277041015625,1.7905284952759741,4.412398216594755,-0.6506821688145399
1745784580355676200,3.83767626953125,1.8029957626610993,4.279720807725191,0.49252223590314387
1745784580365647000,3.847647216796875,1.5447520921014248,3.902945011895895,1.6609902612149714
1745784580375618300,3.857618408203125,1.289191084754467,3.393111575707793,2.507602413886785
1745784580385589200,3.86758935546875,0.7168273965038359,3.195131673583388,2.9440812755286694
1745784580395561200,3.877561279296875,-0.16900807466208934,3.013875819505751,3.4831378835916516
1745784580405532200,3.8875322265625,-0.9455950164061039,2.8525477779522537,3.8782244121372695
1745784580415503000,3.897503173828125,-1.693501953241229,2.4944962640762327,4.144665271547437
1745784580425474000,3.90747412109375,-2.1543922025620934,1.761639669921994,4.75979272737801
1745784580435446000,3.917446044921875,-2.0201023900598285,1.0797856063175946,5.391994652128219
1745784580445417200,3.927417236328125,-1.5144786805212498,0.5341130872461944,5.759267291074991
1745784580455388200,3.93738818359375,-0.9231990602027624,0.1300728889269754,5.494809129914641
1745784580465360100,3.947360107421875,-0.13032039741463958,-0.08083959653936326,4.73241430658698
1745784580475331000,3.9573310546875,0.6267284617751836,-0.22725283142514527,3.9426217732459303
1745784580485302300,3.96730224609375,1.1685844182331113,-0.4079163456328213,3.0301719975292682
1745784580495273200,3.977273193359375,1.4763216760843991,-0.3412174295835197,2.253932773244381
1745784580505245200,3.9872451171875,1.4178905299037694,-0.10979469206258655,1.4445155019789933
1745784580515216100,3.997216064453125,1.354855250928551,-0.17934724397733806,0.6892173589140176
1745784580525187000,4.00718701171875,1.3648387386739254,-0.2071139334335923,0.5434849458992481
1745784580535159000,4.017158935546875,1.2123049750812351,-0.11793342872411013,0.9958552041560411
1745784580545130000,4.0271298828125,0.9861509717434644,-0.17696487888544796,1.3845645988851785
1745784580555101200,4.03710107421875,0.848864900034666,-0.12991525067985057,1.5562813479840754
1745784580565072100,4.047072021484375,0.7541894511707127,0.08473404669463634,1.6744897942572832
1745784580575044000,4.057044189453125,0.5839741926759481,0.3727990011528134,1.6122376284837723
1745784580585015000,4.06701513671875,0.2393155365973711,0.6347618383660912,1.6828355977982281
1745784580594986200,4.076986328125,-0.16988427297472952,0.8117673415228724,2.155115256139636
1745784580604958000,4.0869580078125,-0.6086619861435145,0.7819602322801947,2.6087989350825547
1745784580614929200,4.09692919921875,-1.027636755276844,0.6928609761133789,3.057000383222103
1745784580624900000,4.106900146484375,-1.4236737894803284,0.6369868209391832,3.6664082923620938
1745784580634871000,4.11687109375,-1.7949667699843643,0.6620522886127234,4.154939997324347
1745784580644843000,4.126843017578125,-2.1428438035875557,0.6608978578805923,4.549973334378004
1745784580654814000,4.13681396484375,-2.430761166268587,0.5976034895777702,4.695313533204794
1745784580664785200,4.14678515625,-2.544423785805702,0.3479623737990856,4.749850010034442
1745784580674756000,4.156756103515625,-2.5469278775811195,0.16328385179638863,5.023631295335292
1745784580684728000,4.16672802734375,-2.562868374034762,-0.06363572908639907,5.349257918685675
1745784580694699000,4.176698974609375,-2.4774820009112357,-0.3875865281790495,5.5442363009065385
1745784580704670200,4.186670166015625,-2.39636439114809,-0.8131383376151323,5.5862669319063425
1745784580714642000,4.196641845703125,-2.106090820729732,-1.0661538982629775,5.468969755259156
1745784580724613000,4.206613037109375,-1.5569640695512295,-1.0474456906616687,5.128029827442765
1745784580734584000,4.216583984375,-1.476484173169732,-1.747986407622695,5.43891714682281
1745784580744556300,4.226556396484375,-1.809251900446415,-2.060046277913451,5.495191407230496
1745784580754527000,4.23652685546875,-1.4209920030504464,-1.8726070590257644,4.8573266344130035
1745784580764498000,4.246497802734375,-0.7464625101804733,-1.9239836105197667,4.240195437544584
1745784580774469000,4.25646923828125,-0.4367681634446606,-2.1238556100010872,3.8090935927659273
1745784580784441000,4.266441162109375,-0.27425588054265826,-2.2741145605295894,3.3755355870068073
1745784580794412000,4.276412109375,0.0012807239929214119,-2.1664199094861742,2.9065304202914235
1745784580804383000,4.286383056640625,0.3456886201808229,-1.8316975410103797,2.414348960649967
1745784580814354200,4.296354248046875,0.5779542382666841,-1.4869716649144886,2.011697549808025
1745784580824326100,4.306326171875,0.6357938117623329,-1.3610259023874998,1.9093711477994917
1745784580834297000,4.316297119140625,0.6537883181363344,-1.2986422191888094,1.8736451699018477
1745784580844268000,4.32626806640625,0.6794172649115323,-1.0660311486661433,1.839364130115509
1745784580854240300,4.336240234375,0.6494938358128071,-0.687245182058215,1.5585235739529133
1745784580864211200,4.346211181640625,0.5376642769217491,-0.27817455182373524,1.1422691696941851
1745784580874182100,4.35618212890625,0.40823881905283776,0.10752104804217814,0.7749865938752889
1745784580884153000,4.366153076171875,0.39236671166028825,0.19728139846622944,0.7249918521285057
1745784580894125300,4.376125244140625,0.44447336752712724,0.13049451187252997,0.9369558559417724
1745784580904096000,4.386095947265625,0.2833972731743939,0.24982757826149463,0.8736381067633628
1745784580914067000,4.39606689453125,0.05880408941255882,0.33218320538699625,0.5291904630869627
1745784580924039200,4.4060390625,-0.1802519742647186,0.17517302703261375,-0.02350362518429756
1745784580934010000,4.416010009765625,-0.42122225579917427,0.04973229141831398,-0.7339759535729885
1745784580943981000,4.42598095703125,-0.5092459551563486,0.023766075512766837,-1.2102391285926102
1745784580953952000,4.435951904296875,-0.42503271746542304,0.18374620958864687,-1.2994517820060252
1745784580963924200,4.44592431640625,-0.2323919113466516,0.36900399278402324,-1.1441630206167697
1745784580973895200,4.455895263671875,-0.01136836623251438,0.4635755428820848,-0.9248650206536054
1745784580983866000,4.4658662109375,0.13782094577047974,0.41909225803315636,-0.8035767285436392
1745784580993838000,4.475838134765625,0.18912560107205062,0.32928046968281266,-0.8273281910091638
1745784581003809300,4.485809326171875,0.1951128222554922,0.25770401072502136,-0.8995873715341091
1745784581013780200,4.4957802734375,0.18221713685784488,0.27276129460334775,-1.0208809243410826
1745784581023751000,4.5057509765625,0.20467501584887504,0.3784527891308069,-1.0843436349481343
1745784581033723100,4.51572314453125,0.31066808713879435,0.5761299089163542,-1.1040887843817473
1745784581043694000,4.525694091796875,0.37618663429711013,0.6738660605251788,-1.1394155338287353
1745784581053665300,4.535665283203125,0.4208195202171802,0.6724363199830055,-1.1121838280320167
1745784581063637000,4.545636962890625,0.47838911766503006,0.6803297035813332,-1.1200894865900277
1745784581073608200,4.555608154296875,0.5363303979694843,0.7208540216714143,-1.0635708960324526
1745784581083579100,4.5655791015625,0.5930091475248337,0.7308481769412756,-0.9917302331805229
1745784581093550000,4.575550048828125,0.6221545779883861,0.7038485263347626,-1.0115151301026344
1745784581103522000,4.58552197265625,0.6086503687709569,0.6700041244000196,-0.9982254404187202
1745784581113493200,4.5954931640625,0.6045113692700863,0.7314958271950482,-0.9352005367070436
1745784581123464200,4.605464111328125,0.6005202538073062,0.735410954812169,-0.9571107552200555
1745784581133436200,4.615436279296875,0.5381505991339683,0.6991507239073514,-1.011039913806319
1745784581143406800,4.62540673828125,0.5145955360233784,0.5806704749554396,-1.0448317087709904
1745784581153377800,4.635377685546875,0.5337316136479378,0.5229021765977144,-1.0110206245839595
1745784581163349000,4.645348876953125,0.5385001432240009,0.4802642273545265,-0.9326128583014011
1745784581173320700,4.65532080078125,0.5291571818718687,0.4287298549503088,-0.8624339911818504
1745784581183292000,4.6652919921875,0.4908113768646493,0.4455950650334358,-0.7345119601458311
1745784581193262800,4.675262939453125,0.3933177653074264,0.44518706875443453,-0.6621908203005791
1745784581203234800,4.68523486328125,0.2628384875366464,0.397315310510993,-0.6024702188313007
1745784581213205800,4.695205810546875,0.13108491551373153,0.31234044079780576,-0.5145499433159828
1745784581223177000,4.705177001953125,-0.020441862993501127,0.2951186723619699,-0.43300563257336616
1745784581233148000,4.71514794921875,-0.1592156159767881,0.20762743591368196,-0.35730595620572564
1745784581243119900,4.725119873046875,-0.2597369047921151,0.12403788307905196,-0.2896773580908775
1745784581253090800,4.7350908203125,-0.3529506836056709,0.039111528682708736,-0.18475275628268717
1745784581263061800,4.745061767578125,-0.42438751489706333,-0.05508300479650497,-0.0517050527960062
1745784581273034000,4.755033935546875,-0.4720727375924587,-0.11598667857050896,0.06958440835773945
1745784581283004700,4.765004638671875,-0.4932476275682449,-0.13679448879957198,0.1784042640388012
1745784581292975900,4.774975830078125,-0.5518588430235162,-0.14519173026680945,0.3020522710174322
1745784581302946800,4.78494677734375,-0.5455190820753574,-0.19338205294013022,0.38515725520551203
1745784581312918800,4.794918701171875,-0.5470120240468531,-0.2168845090806484,0.4820505262494087
1745784581322889700,4.8048896484375,-0.5373240851819515,-0.21173720932006834,0.5568038616776466
1745784581332861000,4.81486083984375,-0.5322130623111501,-0.25463293271660803,0.5999889234095811
1745784581342833000,4.8248330078125,-0.49928113557882603,-0.29260405919253824,0.6071013857632875
1745784581352803800,4.834803955078125,-0.47360528092198073,-0.34721126317083834,0.601997925144434
1745784581362774800,4.84477490234375,-0.43522330862283704,-0.3924287075132131,0.5967722994506359
1745784581372745700,4.854745849609375,-0.3812847976863384,-0.39005262603163715,0.6605202567398548
1745784581382718000,4.864718017578125,-0.3089572281002998,-0.34818040046393867,0.7414858908116817
1745784581392688600,4.874688720703125,-0.2644166601061821,-0.23661855259835718,0.7350655023753643
1745784581402659800,4.884659912109375,-0.2533878280263394,-0.21170739870369434,0.6675567312479018
1745784581412631800,4.8946318359375,-0.28267829298377034,-0.2163490870296955,0.5985375555574893
1745784581422603000,4.90460302734375,-0.30408352111671116,-0.18409984533190726,0.5576151780605316
1745784581432573700,4.91457373046875,-0.3007587606081739,-0.054010407128930085,0.5482499683439731
1745784581442545000,4.924544921875,-0.3433095064919442,0.07616904744505881,0.5445768327891827
1745784581452516900,4.934516845703125,-0.4731447507381439,0.058987611019611356,0.49238896491229533
1745784581462488000,4.944488037109375,-0.6383669501859695,0.016437340059876442,0.5480711046457291
1745784581472458800,4.954458740234375,-0.7764414688587188,-0.10436229175031185,0.6837023948848248
1745784581482431000,4.964430908203125,-0.8802396969854831,-0.2646750187814236,0.6976093396842479
1745784581492402000,4.97440185546875,-0.8514169226050377,-0.442627447399497,0.6127174720793962
1745784581502372900,4.984372802734375,-0.7443196529328823,-0.5396434680402279,0.5384247399002313
1745784581512343800,4.99434375,-0.5596142794558778,-0.5300245758235455,0.44358489425480363
1745784581522315800,5.004315673828125,-0.2829483603631146,-0.5010562554925679,0.2988964373350143
1745784581532287000,5.014286865234375,-0.00025136267887428403,-0.38453298582732676,0.23582594091594217
1745784581542257700,5.024257568359375,0.2512286954973824,-0.14487901105582712,0.1972340521931648
1745784581552230000,5.03422998046875,0.4063198702216148,0.02499064887166023,0.03060264353454113
1745784581562200800,5.044200927734375,0.5549076726675033,0.11119359907507896,-0.20533669462800025
1745784581572172000,5.054172119140625,0.6837585089862346,0.13316753047406674,-0.36826749520301816
1745784581582142700,5.064142822265625,0.8145967197299003,0.15401216558218,-0.4511351635038852
1745784581592115000,5.074114990234375,0.9236205735504627,0.15259937617480754,-0.4988315651804208
1745784581602086000,5.0840859375,1.0132219340205193,0.12510288196206093,-0.5139321036785841
1745784581612057000,5.09405712890625,1.0473790551662445,0.05838613799512386,-0.5162812971532345
1745784581622028800,5.10402880859375,1.055968019813299,0.04669043950438499,-0.47348669604361054
1745784581632000000,5.114,0.9857166719794273,0.05669336260259151,-0.3959580506831407
1745784581641971000,5.123970947265625,0.9208347422242164,0.09442425058186053,-0.3046539779484272
1745784581651943000,5.13394287109375,0.7855214318931102,0.14172668450474737,-0.23370938715338704
1745784581661913900,5.143913818359375,0.6888169614195824,0.18615677786171436,-0.18775252262055872
1745784581671884800,5.153884765625,0.5764601637840271,0.275633050647378,-0.18302023340165613
1745784581681856000,5.16385595703125,0.4255401189982891,0.321963424667716,-0.2830921344816685
1745784581691827700,5.17382763671875,0.28015198937654495,0.28897008660435675,-0.34360768572092054
1745784581701799000,5.183798828125,0.1174573356449604,0.2542348733097315,-0.3538450020968914
1745784581711769900,5.193769775390625,-0.02272389124976471,0.19521511358618734,-0.31851533004045485
1745784581721741800,5.203741943359375,-0.11840426110625267,0.1283762045443058,-0.23126900826394556
1745784581731712800,5.213712646484375,-0.23424015129553152,0.1243237142831087,-0.12851999692916868
1745784581741684000,5.22368408203125,-0.34056112109925596,0.25814941640496253,-0.03377893548309803
1745784581751655000,5.233655029296875,-0.4573299264907837,0.560348402416706,0.06582885521650314
1745784581761627000,5.243626953125,-0.5800806923687458,0.9302636648267507,0.15002572629451752
1745784581771597800,5.253597900390625,-0.8184767760336399,1.1816402260959147,0.03178571583926677
1745784581781568800,5.26356884765625,-1.0441770442545413,1.3090408636063338,-0.2414203999221325
1745784581791540700,5.273540771484375,-1.3198363983869552,1.0889508364826441,-0.6526958467245102
1745784581801511700,5.28351171875,-1.5719769297659396,0.6375427012562751,-0.8569558520317078
1745784581811483000,5.29348291015625,-1.6891887662172316,0.3079477587968111,-0.8201403253316879
1745784581821453800,5.303453857421875,-1.663686076170206,0.2047247002094984,-0.5742869113981723
1745784581831425800,5.31342578125,-1.5491571951925753,0.20726678590774536,-0.2500274847477674
1745784581841396700,5.323396728515625,-1.3798317251443861,0.23124095121324062,0.017242811223864556
1745784581851368000,5.333367919921875,-1.1387246289551258,0.10166004705429077,0.12414192797541618
1745784581861340000,5.34333984375,-0.8573504043072462,-0.011792144602537155,0.19964929664134978
1745784581871310800,5.353310791015625,-0.5166396090716123,-0.09953414094150066,0.20435528237521647
1745784581881281800,5.36328173828125,-0.1400742776552215,-0.20206571013331412,0.2550274849921465
1745784581891252700,5.373252685546875,0.20779344013035297,-0.31530864295363425,0.24889877297878263
1745784581901225000,5.383224853515625,0.5280272645264864,-0.3884183028280735,0.2601549110084772
1745784581911195600,5.393195556640625,0.7978547707002609,-0.4668786760807037,0.2655103005617857
1745784581921166800,5.403166748046875,0.9885275646816939,-0.5738561187654734,0.28831600660979745
1745784581931138800,5.413138916015625,1.1625807208389043,-0.6667126816391945,0.34589433535337444
1745784581941110000,5.423110107421875,1.3268950847268104,-0.7210083354502916,0.40196050596833227
1745784581951080700,5.433080810546875,1.4403811786532401,-0.799552295333147,0.4648585684299469
1745784581961053000,5.443052978515625,1.5309598597228526,-0.8405389702379703,0.5240104301005601
1745784581971024000,5.45302392578125,1.5627140113800764,-0.7871949180632829,0.6127946289688349
1745784581980994800,5.462994873046875,1.5479694467127323,-0.6362813030183315,0.7449737329274415
1745784581990965800,5.4729658203125,1.4591741419285535,-0.5238999554634094,0.7690338229507208
1745784582000938000,5.48293798828125,1.3045523200154303,-0.4352840988993644,0.7206593758821487
1745784582010909000,5.492908935546875,1.1355810702323912,-0.28320085555315017,0.6850088013082742
1745784582020880000,5.5028798828125,0.9218079711705446,-0.15506079785227775,0.5769166753798722
1745784582030851800,5.512851806640625,0.7062018114626407,-0.06280863061249256,0.45590252403616904
1745784582040822800,5.52282275390625,0.5228799647659063,0.011660627177357673,0.3304991978228092
1745784582050794000,5.5327939453125,0.37036768235266204,0.12327975818812846,0.18094225808382033
1745784582060765700,5.542765625,0.21833817848768083,0.23993337623476982,0.035468788266181946
1745784582070737000,5.55273681640625,0.05267598018739372,0.3079243779212236,-0.13993220230340958
1745784582080707800,5.562707763671875,-0.09608721535801887,0.3119201695591211,-0.2502291447997093
1745784582090679000,5.572678955078125,-0.18415647088997064,0.312416428643465,-0.28530454983413217
1745784582100650800,5.582650634765625,-0.26634320772197095,0.32300036650002,-0.30481647503376
1745784582110622000,5.5926220703125,-0.3262169904589653,0.3487649223536253,-0.33044016111195085
1745784582120593000,5.602593017578125,-0.37951307530608025,0.3705179044783115,-0.36855741806030273
1745784582130564900,5.61256494140625,-0.43185003279745576,0.4114969805985689,-0.4066127156883478
1745784582140535800,5.622535888671875,-0.4511223040223121,0.44194472583234307,-0.4713058448731899
1745784582150507000,5.632507080078125,-0.44952655926346774,0.43426469272375107,-0.4978472303181886
1745784582160478000,5.64247802734375,-0.4968161337047815,0.499030887144804,-0.6102776777118444
1745784582170450000,5.652449951171875,-0.62086044652462,0.5872983686625957,-0.6956126129090786
1745784582180420900,5.6624208984375,-0.731347358635068,0.6276344707041979,-0.6877344268798827
1745784582190391800,5.672391845703125,-0.8642068460732698,0.6467296317964791,-0.6522849278360605
1745784582200363800,5.68236376953125,-0.9225064748287201,0.6066080492883921,-0.6163561208426952
1745784582210334700,5.692334716796875,-0.9387158513516187,0.5676432355999946,-0.5266957236617803
1745784582220306000,5.702305908203125,-0.8434662558615207,0.513107927814126,-0.43053076689243314
1745784582230278000,5.71227783203125,-0.6761947957336902,0.4638116897255182,-0.3324427331060171
1745784582240248800,5.722248779296875,-0.4553501508504152,0.3712725222378969,-0.3213052530199289
1745784582250219800,5.7322197265625,-0.21995909422039983,0.3132031951069832,-0.3039566433340311
1745784582260191000,5.74219091796875,0.03326981691718101,0.2802326533973217,-0.28316169258654117
1745784582270163000,5.752162841796875,0.2346311781734228,0.21765958510637282,-0.29075229384601115
1745784582280134000,5.7621337890625,0.3858797242611646,0.16386077490150927,-0.3012508915066719
1745784582290104800,5.772104736328125,0.5076660290211439,0.0764659845650196,-0.3251519915759563
1745784582300077000,5.7820771484375,0.5672457607150078,0.00800035110414028,-0.3311591230362654
1745784582310047700,5.7920478515625,0.6019710371375083,-0.021880992418527603,-0.2363824057549238
1745784582320018700,5.802018798828125,0.6173755270183086,-0.04303367056250572,-0.13690671700239182
1745784582329991000,5.811990966796875,0.5948293486893177,-0.053453357768058776,-0.038113165295124055
1745784582339961900,5.8219619140625,0.5574608642816543,-0.10904957278370857,0.020028642550110817
1745784582349932800,5.831932861328125,0.5100824425131082,-0.08350129002928733,0.06053893211483955
1745784582359903700,5.84190380859375,0.475045031401515,-0.07569850732386112,0.12186930686831474
1745784582369876000,5.8518759765625,0.4075865291565656,-0.04279810824096202,0.18871990634799002
1745784582379847000,5.861846923828125,0.34955519594848156,0.0261900877892971,0.18452771535515783
1745784582389817900,5.87181787109375,0.2328577387601137,0.08266951538026332,0.15528174712657927
1745784582399789800,5.881789794921875,0.1457253987520933,0.061084291037917134,0.08870879554450511
1745784582409761000,5.891760986328125,0.07601181105673313,0.04471534003913402,0.09711831197142601
1745784582419732000,5.90173193359375,0.01700021637333557,0.029728783309459685,0.14174655824899673
1745784582429704000,5.911703857421875,-0.019477438408136368,-0.03342237713038921,0.1627875927120447
1745784582439675000,5.9216748046875,-0.016346757433284072,-0.04284603903591633,0.1653670878112316
1745784582449645800,5.931645751953125,-0.0003524849657900631,-0.050801966476440426,0.20609365047514439
1745784582459617000,5.941616943359375,0.009034352060686797,-0.06635024874210357,0.21006723028123378
1745784582469588700,5.951588623046875,0.046990865489374846,-0.03347732218801975,0.18886720586419103
1745784582479560000,5.961559814453125,0.05782676881300285,0.026066753670573234,0.13500877442657946
1745784582489531000,5.97153076171875,0.050252552432753145,0.05263210451304912,0.09253975200951099
1745784582499502800,5.9815029296875,0.05777998879551887,0.05517009855806827,0.07044131744801997
1745784582509473800,5.991473876953125,0.014973112726211548,0.08740589625239371,0.0506114123404026
1745784582519445000,6.001445068359375,-0.028836236650217322,0.06300619901120662,0.03201251033246517
1745784582529416700,6.011416748046875,-0.06325812794566155,0.015831190860271453,0.029747488009929657
1745784582539388000,6.021387939453125,-0.04184181216312572,-0.010631284129619598,0.02489829441308975
1745784582549358800,6.03135888671875,0.003920406580436975,-0.027364976787567136,0.026660627910494804
1745784582559329800,6.041329833984375,0.052634442600607866,-0.05555705204904079,0.029576223096251485
1745784582569301800,6.0513017578125,0.1160363263985142,-0.019855624070763588,0.005724807387590408
1745784582579272700,6.061272705078125,0.1442810542958323,0.05803191772997379,0.033519992285966874
1745784582589244000,6.071243896484375,0.05358955136835575,0.1535901407778263,0.03808978441953659
1745784582599215900,6.0812158203125,-0.10629530563950539,0.19514672452509402,-0.008839140015840529
1745784582609186800,6.091186767578125,-0.2673497909486294,0.17200141125917434,-0.035766309908032416
1745784582619157800,6.10115771484375,-0.4239005350977182,0.08561199857294559,-0.10623743797242641
1745784582629130000,6.1111298828125,-0.4915525140881538,0.018411855003237724,-0.1908995884746313
1745784582639100700,6.1211005859375,-0.49861295399367805,0.03604103519618511,-0.18094518069326876
1745784582649071900,6.13107177734375,-0.4436380857467651,0.06774842510223389,-0.17416706486046313
1745784582659043800,6.1410439453125,-0.31551322561502454,0.11080781462788582,-0.17881810553669927
1745784582669015000,6.15101513671875,-0.1973264066517353,0.14437749127447605,-0.1943237177044153
1745784582678985700,6.16098583984375,-0.08467909250385128,0.14887071104049682,-0.1898842739522457
1745784582688957000,6.17095703125,-0.004818213936686516,0.13708908783197402,-0.16361001501083372
1745784582698929000,6.180928955078125,0.04202010960578918,0.11920914774835109,-0.09748071554303168
1745784582708900000,6.190900146484375,0.06359305898845195,0.07384031223654747,-0.06676233667433261
1745784582718870800,6.200870849609375,0.06328444969700649,0.03676701138317585,-0.026720249143242836
1745784582728843000,6.210843017578125,0.10276245533823966,0.011425064855813979,0.0030541268736124037
1745784582738814000,6.22081396484375,0.11945464694201946,-0.013169862696528435,0.013974164816737173
1745784582748785000,6.230784912109375,0.1217138240456581,-0.06087094054818153,0.038872459229826926
1745784582758756900,6.2407568359375,0.13350187699496746,-0.12475333787202834,0.036437925559282304
1745784582768727800,6.250727783203125,0.1710246934478171,-0.17140870606303213,0.08595335935652255
1745784582778699000,6.260698974609375,0.19418810862600802,-0.20508476569354533,0.1069745200753212
1745784582788670700,6.270670654296875,0.21295301485061643,-0.26397359251379965,0.09009469694495201
1745784582798642000,6.280641845703125,0.22074233528627082,-0.2839829458415508,0.1344932261198759
1745784582808612900,6.29061279296875,0.23565292243659494,-0.3212321877837181,0.14648995338380336
1745784582818584000,6.300583984375,0.2552069332122803,-0.3387152375042438,0.1544564022183418
1745784582828555800,6.3105556640625,0.2576040392155759,-0.34227380676865576,0.15672084001898764
1745784582838527000,6.32052685546875,0.2487806447581388,-0.31409868264198304,0.16165712737739085
1745784582848498000,6.330497802734375,0.24351530810846014,-0.27607845632731914,0.1797761369138956
1745784582858470000,6.340469970703125,0.20353985607279462,-0.20152385834157466,0.16272621791362762
1745784582868440800,6.35044091796875,0.14244095198763534,-0.14909282935857773,0.15135434454977512
1745784582878411800,6.360411865234375,0.08596212718486786,-0.131443775421381,0.13244330785274505
1745784582888383700,6.3703837890625,0.023472061002254484,-0.1083989999204874,0.09739069917201995
1745784582898354700,6.380354736328125,-0.002599368843436241,-0.09220306740105151,0.09421090009212493
1745784582908326000,6.390325927734375,-0.015233243233431129,-0.09085574444532393,0.0764227299451828
1745784582918297900,6.4002978515625,-0.018667309335339815,-0.08147416811585426,0.08981880261301994
1745784582928268800,6.410268798828125,-0.01556404609037563,-0.0795510910987854,0.08480185123383999
1745784582938239700,6.42023974609375,0.01638358231233433,-0.020469956576824187,0.12170505621731281
1745784582948211000,6.4302109375,0.0315776443128474,0.024380992540717124,0.11766542543768882
1745784582958183000,6.440182861328125,0.010263619861006736,0.07508125220835209,0.12786065623760223
1745784582968153900,6.45015380859375,-0.01333995856642723,0.09192717306911945,0.08004793470501899
1745784582978124800,6.460124755859375,-0.07126256156987511,0.07329319974780082,-0.024481530305743217
1745784582988097000,6.470096923828125,-0.11973055040710605,0.06311784269213676,-0.024354689055681226
1745784582998068000,6.48006787109375,-0.2070551889836788,0.04220481852293014,-0.0506026445120573
1745784583008038700,6.49003857421875,-0.268681898068916,-0.04233808951377868,-0.10658172136545181
1745784583018011000,6.500010986328125,-0.27351006714403625,-0.08484744394123554,-0.11837035883665084
1745784583027981800,6.50998193359375,-0.253349907168746,-0.09301905995905399,-0.11252221733033656
1745784583037953000,6.519953125,-0.24949441905068231,-0.06188917768001556,-0.09132628456652164
1745784583047923700,6.529923828125,-0.24249007498025893,-0.01312426998913288,-0.08970072919130324
1745784583057896000,6.53989599609375,-0.2615817472075112,0.04524316330552101,-0.09456804296672344
1745784583067867000,6.549866943359375,-0.31076749239265916,0.16321721630096434,-0.11686579949259757
1745784583077837800,6.559837890625,-0.46972646672725676,0.2761117740750313,-0.08486088794469833
1745784583087809800,6.569809814453125,-0.6516770250707864,0.3599281214028597,-0.06415186191499232
1745784583097781000,6.579781005859375,-0.8047486949324607,0.28711481412649154,-0.046419221347570414
1745784583107752000,6.589751953125,-0.8534849610507488,0.11990472879707813,-0.10657646066844463
1745784583117724000,6.599723876953125,-0.8141483914405107,-0.046074353432655334,-0.11794891855418681
1745784583127694800,6.60969482421875,-0.6307511414200068,-0.13460545432269572,-0.07333528532385826
1745784583137665800,6.619665771484375,-0.41162444290313865,-0.20932313391566276,-0.05254968692660331
1745784583147638300,6.62963818359375,-0.1230389717021957,-0.2776432214260101,0.03219546568393707
1745784583157609200,6.639609130859375,0.19525950071718542,-0.27881226520538327,0.12384732894301413
1745784583167580400,6.649580322265625,0.5041606147160753,-0.29309564210176464,0.21120412535667418
1745784583177551400,6.65955126953125,0.7393436180859804,-0.3045399961799383,0.2442167526423931
1745784583187523300,6.6695234375,0.912409443706274,-0.3224573456645012,0.26259821250736715
1745784583197494300,6.679494384765625,1.0555442414432763,-0.3269125715076923,0.2653793676584959
1745784583207465200,6.68946533203125,1.120928275501728,-0.2485077278345823,0.27625498193800446
1745784583217437200,6.699437255859375,1.0267501086354256,-0.11460603786706924,0.335218043038249
1745784583227408100,6.709408203125,0.8227636595726012,-0.030139117676019667,0.2550882752686739
1745784583237379300,6.71937939453125,0.5672796995172277,-0.027073300364613532,0.13753624707758424
1745784583247351300,6.729351318359375,0.33714638075232506,-0.04422492617368698,0.05956745673418045
1745784583257322200,6.739322265625,0.18901045025978236,-0.02825754171311855,0.005674538505077362
1745784583267293200,6.749293212890625,0.13649466560278087,0.004955576580762863,0.003039513826370239
1745784583277265400,6.759265380859375,0.13081486640069634,-0.0031570027261972424,0.016060323441028593
1745784583287236000,6.769236083984375,0.12965455391705036,0.0178898769557476,0.01239537119269371
1745784583297207300,6.779207275390625,0.13534549556765704,0.030910102048516273,0.0042132337808609005
1745784583307179300,6.78917919921875,0.15602412645909935,0.049662733313441274,0.023120178824663162
1745784583317150500,6.799150390625,0.15625851973686367,0.07379939570426941,0.016806757894158364
1745784583327121200,6.80912109375,0.14055183203909546,0.06657412062585354,-0.02091419321298599
1745784583337092000,6.819092041015625,0.11060619110856204,0.04546469710171223,-0.022794015610218047
1745784583347064300,6.829064208984375,0.07475096080806105,0.014896540358662605,-0.04962298582494259
1745784583357035300,6.83903515625,0.04288458094801754,-0.03834931213855743,-0.04370820882320404
1745784583367006200,6.849006103515625,0.027247451355122028,-0.03797814073860645,-0.054719432181119916
1745784583376978200,6.858978271484375,0.04758355241920799,-0.04684592232704162,-0.02172083342075348
1745784583386949400,6.868949462890625,0.08100128990709782,-0.0526549008667469,-0.009707155022025108
1745784583396920300,6.87892041015625,0.07655603746864945,-0.03285363733172417,0.007585925084352493
1745784583406892300,6.888892333984375,0.04393326801704243,0.021409867775440215,0.026983868515491484
1745784583416863200,6.89886328125,0.021834815189242362,0.0515963317245245,0.036112931388616556
1745784583426834400,6.90883447265625,0.0016162395576015114,0.06621697775125503,0.013313655081391334
1745784583436806100,6.91880615234375,-0.03606204145159572,0.10637538513839244,0.03826046481132507
1745784583446777300,6.92877734375,-0.04196107289493084,0.15364976201057434,0.09139116649627685
1745784583456748300,6.938748291015625,0.005989595803618431,0.1646884578973055,0.1834843437820673
1745784583466719500,6.948719482421875,0.046468887441884724,0.19739771832227707,0.17049626739323137
1745784583476691200,6.958691162109375,0.02292202590405941,0.2712923910945654,0.14973755700290203
1745784583486662400,6.968662353515625,0.030846955418121068,0.2934253124475479,0.12700666975677014
1745784583496633300,6.97863330078125,0.09632802011026069,0.23625439546108246,0.03582476209700108
1745784583506605300,6.988605224609375,0.16060146257830782,0.13740239156484604,-0.07394026547968387
1745784583516576300,6.998576171875,0.2430927170485258,0.12158873636126517,-0.06341594885587692
1745784583526547200,7.008547119140625,0.3315408158302307,0.1880973905354738,-0.058660278761386866
1745784583536519200,7.018519287109375,0.38236320404019203,0.1943856770247221,-0.08363982171714306
1745784583546490000,7.028489990234375,0.35607553762793537,0.18535481382906435,-0.11274667373597622
1745784583556461300,7.03846142578125,0.28142858518362046,0.18281214360892772,-0.1870873367100954
1745784583566433300,7.048433349609375,0.1446586554365698,0.16509645417630672,-0.22817221129238605
1745784583576404200,7.058404296875,-0.018987609064579008,0.15215864666998385,-0.30672961517870423
1745784583586375200,7.068375244140625,-0.13622633352279662,0.14262100299596786,-0.3781739721894264
1745784583596347400,7.078347412109375,-0.2429845804989338,0.1532464419066906,-0.42099429226219653
1745784583606318300,7.088318359375,-0.33532442602217194,0.16939502815306184,-0.44241351238787174
1745784583616289300,7.098289306640625,-0.41436113785803314,0.1699509084701538,-0.49423839217126364
1745784583626260200,7.10826025390625,-0.47008360960185525,0.1083423012971878,-0.5192722956627607
1745784583636232400,7.118232421875,-0.5107219094604254,0.06150806940793991,-0.5176771354258061
1745784583646203400,7.128203369140625,-0.5160831442326307,0.053952539461851114,-0.46108138797879217
1745784583656174000,7.138174072265625,-0.5037462252289057,0.04276245240569115,-0.3963163626015186
1745784583666146300,7.148146240234375,-0.4943021050572395,0.03340191886425018,-0.3024702041685581
1745784583676117200,7.1581171875,-0.47263738573789593,0.01712006162703037,-0.24003274495601654
1745784583686088400,7.16808837890625,-0.43032267709970473,0.015436638584733008,-0.20102000047266483
1745784583696060200,7.17806005859375,-0.3982522991001606,-0.01186111818552017,-0.1606564259022474
1745784583706031400,7.18803125,-0.35055648194551464,-0.03200724963545799,-0.11594634656012058
1745784583716002300,7.198002197265625,-0.3202151196956634,-0.07748305265307426,-0.08452420333623886
1745784583725974300,7.207974365234375,-0.24445757566094398,-0.10251052640378475,-0.025070143848657606
1745784583735945200,7.2179453125,-0.16748656418323515,-0.10475392141640186,0.05894026474654674
1745784583745916400,7.22791650390625,-0.07929740859866141,-0.07449556127488613,0.15080021779835223
1745784583755888000,7.23788818359375,0.00677694678902626,-0.04122165270447731,0.18468027556836605
1745784583765859300,7.247859375,0.03018471038341522,0.010021043276786804,0.21713468444943426
1745784583775830300,7.257830322265625,0.021516253042651805,0.09331775064468384,0.2400426818281412
1745784583785801200,7.26780126953125,-0.05894435639977455,0.16665069788098336,0.2051420488387346
1745784583795773200,7.277773193359375,-0.19416648131608963,0.2539046184420585,0.20263854158520697
1745784583805744000,7.287744140625,-0.3807043674498796,0.2803144864618778,0.13215981473624705
1745784583815715300,7.29771533203125,-0.4911860188633203,0.28169454264342786,0.05011223064661026
1745784583825687300,7.307687255859375,-0.5685773015797138,0.30624153940081594,-0.012617489510774611
1745784583835658200,7.317658203125,-0.5734533831834793,0.3507622336506843,-0.07220832712054252
1745784583845629200,7.327629150390625,-0.4547843336611986,0.2744675139993429,-0.0975719009578228
1745784583855601400,7.337601318359375,-0.3675374273627996,0.23850538925826548,-0.02651099030673504
1745784583865572000,7.347572021484375,-0.21969781293570995,0.26084932301342484,0.17444179014861583
1745784583875543300,7.357543212890625,-0.06058806848619133,0.28155133478045463,0.289046074450016
1745784583885515300,7.367515380859375,0.057972259964607656,0.18097089965641497,0.2552928579300642
1745784583895486500,7.377486572265625,0.18054829033017158,0.03215162654221058,0.137626263448596
1745784583905457200,7.38745703125,0.3161789960473776,-0.10946750593483448,-0.019691373419761658
1745784583915429400,7.397429443359375,0.44726146387569604,-0.2053735195070505,-0.08589841429889201
1745784583925400300,7.407400390625,0.5832283792773262,-0.27787352305054663,-0.16781448096334933
1745784583935371300,7.417371337890625,0.7074268962781876,-0.2983750438094139,-0.20393442661464214
1745784583945343200,7.42734326171875,0.794337775555253,-0.29574937148094177,-0.19927578715384006
1745784583955314200,7.437314208984375,0.8362620235711336,-0.3218196322828531,-0.21191548849642275
1745784583965285400,7.447285400390625,0.8659369578015059,-0.3156371442556381,-0.19718962852954863
1745784583975256300,7.45725634765625,0.8583535169351846,-0.21642039870023727,-0.1335480542242527
1745784583985228300,7.467228271484375,0.804285753595829,-0.08834989910423754,-0.058951370662450785
1745784583995199200,7.47719921875,0.7116800236780196,0.047477205967903134,-0.003833294552564621
1745784584005170400,7.48717041015625,0.5756792425394058,0.14083295053541658,0.015441899281740187
1745784584015142100,7.49714208984375,0.39565519527904686,0.18193243816494942,-0.019797756403684613
1745784584025113300,7.50711328125,0.21141104610562322,0.24924597898125647,-0.06716214964687824
1745784584035084300,7.517084228515625,0.03711239075474441,0.30176059459447857,-0.11475684451460838
1745784584045056300,7.52705615234375,-0.13190320962667465,0.2435106501996517,-0.20004267987310886
1745784584055027200,7.537027099609375,-0.2474235127944499,0.17729133436083794,-0.273775440081954
1745784584064998400,7.546998291015625,-0.2750415144950151,0.09693711018562316,-0.23928747954666613
1745784584074970400,7.556970458984375,-0.2774339625895023,0.04828735330700874,-0.17719371920526025
1745784584084941300,7.56694140625,-0.24812946910671888,-0.05556698892116546,-0.13381751881539822
1745784584094912300,7.576912353515625,-0.19607494528591632,-0.10804302608966827,-0.06444470738172531
1745784584104884500,7.586884521484375,-0.12948913422226904,-0.1433639303177595,-0.018822189369797706
1745784584114855200,7.596855224609375,-0.09658986765053122,-0.17643208718299866,0.020999533408880233
1745784584124826000,7.606826171875,-0.09422785122692584,-0.18959025944173336,0.038306057518720626
1745784584134798300,7.61679833984375,-0.08518175392951816,-0.20111352397501467,0.044186932250857354
1745784584144768800,7.626768798828125,-0.06917286841478199,-0.23433657914102077,0.07217617841660975
1745784584154740000,7.636739990234375,-0.04257306731343269,-0.2139788507670164,0.13795067309737205
1745784584164710700,7.646710693359375,-0.03129760352876037,-0.21137948192358016,0.21633973467946052
1745784584174683000,7.656682861328125,0.007171572129800915,-0.19316753340661524,0.2676268543243408
1745784584184653800,7.66665380859375,0.032369032152555884,-0.20759236460030078,0.23801906704604625
1745784584194624800,7.676624755859375,0.050687400186061854,-0.13945347887575626,0.24275135626494884
1745784584204596700,7.6865966796875,-0.06854859903659671,0.03816109609007835,0.3220125245064497
1745784584214567700,7.696567626953125,-0.24169099702443927,0.22895897775590418,0.3324199367523193
1745784584224539000,7.706538818359375,-0.44343872724976385,0.3012672581195831,0.19934651430249212
1745784584234510600,7.716510498046875,-0.5864928609659895,0.21841595643162726,0.100512630584836
1745784584244481800,7.726481689453125,-0.5997106544574722,0.07642974420785903,0.03389467081725597
1745784584254452700,7.73645263671875,-0.5426461204549298,-0.05929740762114524,0.058337038156390186
1745784584264424700,7.7464248046875,-0.38612003582306204,-0.15789572901725768,0.10787994448244571
1745784584274395600,7.756395751953125,-0.1588970150142908,-0.23803134200572967,0.18113456578552722
1745784584284366800,7.766366943359375,0.06408175582084805,-0.3114864543169737,0.19685820461809633
1745784584294338800,7.7763388671875,0.3153717713177204,-0.35283611731529235,0.17684242154955862
1745784584304309800,7.786309814453125,0.5378939940243959,-0.34102760609984395,0.15290274303555487
1745784584314280700,7.79628076171875,0.7214011341601609,-0.2818085244119167,0.17096739203631878
1745784584324253000,7.8062529296875,0.8189286845196038,-0.25109365267455575,0.11908172197639942
1745784584334224000,7.816223876953125,0.8856927016943693,-0.251697463786602,0.08827624934613704
1745784584344194800,7.82619482421875,0.8685836729180068,-0.266811446288228,0.03990414036512375
1745784584354166800,7.836166748046875,0.7722807689826935,-0.2542214293062687,0.09936989029049872
1745784584364138000,7.846137939453125,0.5531008424412459,-0.20509762517511843,0.15777882463932036
1745784584374108700,7.856108642578125,0.3359259721118957,-0.21665771458745,0.13316753047406674
1745784584384081000,7.866080810546875,0.16168869155943394,-0.23207214134037493,0.13085399283468724
1745784584394051800,7.8760517578125,0.04936345810592174,-0.2117214272290468,0.11681377704441546
1745784584404022800,7.886022705078125,0.005526106477715074,-0.15286942528784275,0.11643442233800888
1745784584413994800,7.895994873046875,-0.05988894377350807,-0.14075345555841923,0.07621054849922657
1745784584423965700,7.905965576171875,-0.11955043546669185,-0.1371422793239355,0.06043254913091659
1745784584433937000,7.91593701171875,-0.1535901042452082,-0.12978431777656077,0.07552724241018295
1745784584443907800,7.925907958984375,-0.28196342271268365,-0.13264905955791473,0.1974099932819605
1745784584453879800,7.9358798828125,-0.4501133461754769,-0.15975918480157852,0.3320540260493755
1745784584463850800,7.945850830078125,-0.5486293230503797,-0.22130057195723055,0.38572424143850803
1745784584473822000,7.955822021484375,-0.5428700288712978,-0.28890462015271184,0.35519583218395706
1745784584483793700,7.965793701171875,-0.40906836521215734,-0.32284196106791496,0.3308300372123718
1745784584493764900,7.975764892578125,-0.27262743909060955,-0.31486382179558275,0.382134107992053
1745784584503735800,7.98573583984375,-0.16251454792432485,-0.2743459334462881,0.39401919157505033
1745784584513707800,7.995707763671875,-0.07345094759278,-0.2530576462239027,0.34187750092744823
1745784584523678700,8.0056787109375,0.004290427202917635,-0.2046498814076185,0.24000176529586315
1745784584533649700,8.015649658203126,0.0582756998905912,-0.17367431290745733,0.13570610904097558
1745784584543622000,8.025621826171875,0.09549801729321479,-0.10122516276836395,0.05507949766516685
1745784584553592600,8.035592529296874,0.12191665314137935,-0.03948211556077003,-0.01818973668515682
1745784584563563800,8.045563720703125,0.11671733093261719,-0.015806640940904615,-0.0658393766105175
1745784584573535700,8.05553564453125,0.11730762497596442,-0.031013562422990797,-0.1252513505220413
1745784584583507000,8.0655068359375,0.10161905745677649,-0.016800912675261497,-0.19698446134626865
1745784584593477600,8.0754775390625,0.09827208511643111,0.015615502282977103,-0.21322832466065883
1745784584603449900,8.085449951171874,0.11893084226362406,0.03645020051896572,-0.29343641836345197
1745784584613420800,8.0954208984375,0.15329203461408614,0.05346387916207313,-0.35133506510257717
1745784584623391700,8.105391845703124,0.17060323489904403,0.07829904521107674,-0.3737082249522209
1745784584633363700,8.11536376953125,0.16801036886163054,0.15110066204965114,-0.36631753017902374
1745784584643335000,8.1253349609375,0.15568623627424238,0.21053017161786555,-0.34485797804296014
1745784584653305900,8.135305908203126,0.08653495863676071,0.24193536370694635,-0.2747287952840328
1745784584663277800,8.14527783203125,0.03401091760806739,0.2528144851177931,-0.22785481590628623
1745784584673248800,8.155248779296874,0.013379632989689708,0.2672568519681692,-0.16496727483868598
1745784584683219700,8.1652197265625,-0.027038155985996126,0.26639702026844025,-0.13869126233160495
1745784584693191700,8.175191650390625,-0.03984028134867549,0.2545095985978842,-0.1284539459556341
1745784584703162600,8.18516259765625,-0.03928454716205597,0.19618600444495676,-0.13102701131403446
1745784584713133800,8.1951337890625,-0.044372737146541476,0.1672048246324062,-0.09768179107308388
1745784584723105800,8.205105712890624,-0.03322239757888019,0.12911913186609744,-0.1048176343023777
1745784584733076700,8.21507666015625,-0.04006137675344944,0.06988777521848678,-0.09523264435529709
1745784584743047700,8.225047607421875,-0.056004722751304505,0.019615970095992086,-0.06486497862040996
1745784584753020000,8.23502001953125,-0.03649564709588885,-0.04961187990903854,-0.022637363743782044
1745784584762990600,8.244990478515625,-0.055306219093129036,-0.0862432822138071,0.01020809028148651
1745784584772961800,8.2549619140625,-0.06792363553866744,-0.1131131689608097,0.05801321302950382
1745784584782933800,8.264933837890625,-0.016504560077190398,-0.0923170491695404,0.08840309059619902
1745784584792905000,8.274905029296875,0.050478725871443746,-0.04657996486723423,0.10767243921160698
1745784584802875600,8.284875732421876,0.019585648022964596,-0.008074585384130478,0.13089958554208278
1745784584812846600,8.2948466796875,-0.024315453023836014,0.002723287484049797,0.1253700084656477
1745784584822818800,8.30481884765625,-0.0468383235424757,-0.002114215674996376,0.0324818814098835
1745784584832789800,8.314789794921875,-0.10162088408768176,-0.06602116291821003,-0.016946458625793456
1745784584842760700,8.3247607421875,-0.11526420951485633,-0.07559095529615878,0.0022825579792261123
1745784584852732700,8.334732666015626,-0.12016067631952464,-0.014641104292869567,-0.021805004572868346
1745784584862703900,8.344703857421875,-0.08955978635065256,0.10641454810500145,-0.05802022729218006
1745784584872674800,8.3546748046875,-0.026567615864798427,0.19090660273730753,-0.08314882332980632
1745784584882646800,8.364646728515625,-0.009680778471753,0.19695465072989463,-0.1160889699012041
1745784584892617700,8.37461767578125,0.03976853128671646,0.18181319569945334,-0.09874211378097533
1745784584902589000,8.3845888671875,0.07485738032460212,0.165672208237648,-0.020308044013381002
1745784584912560600,8.394560546875,0.10756956335902214,0.14430325699448585,0.032899230039119716
1745784584922531800,8.40453173828125,0.17054017960019408,0.10846797350347041,0.031819618108868596
1745784584932502800,8.414502685546875,0.21550620646476745,0.040789106506109236,0.011791560080647467
1745784584942474800,8.424474853515624,0.25206103640198707,0.019521862071752546,0.011571779850125313
1745784584952445700,8.43444580078125,0.250170108088851,0.014728782576322555,-0.023621114084124564
1745784584962417000,8.4444169921875,0.2594294462781399,-0.02304302193522453,-0.08613163853287696
1745784584972388900,8.454388916015626,0.22688502102605998,-0.03585866436660289,-0.08621873229444027
1745784584982359800,8.46435986328125,0.16626374439001082,-0.04655541494786739,-0.07570610610842704
1745784584992330800,8.474330810546874,0.09520290680415928,-0.06351824018657207,-0.03974339684545994
1745784585002303000,8.484302978515625,0.03055120560824871,-0.025942835029959678,0.017599954098463058
1745784585012273700,8.494273681640625,-0.028233649380877614,0.039624154379963875,0.05813888523578643
1745784585022244600,8.50424462890625,-0.055671691404655575,0.10860182901620864,0.059064767909049985
1745784585032216800,8.514216796875,-0.14376023615896702,0.16654197680950164,0.035061376509070395
1745784585042187800,8.524187744140624,-0.24415830045342443,0.181675833055377,-0.01431201846897602
1745784585052158700,8.53415869140625,-0.31130934418439865,0.1380745917379856,-0.06214928992092609
1745784585062130700,8.544130615234375,-0.3226742032855749,0.0944692587673664,-0.06783084268867969
1745784585072102000,8.554101806640626,-0.28194588705599305,0.035979075875878334,-0.09868716872334479
1745784585082072800,8.56407275390625,-0.21738420223109423,-0.05333177721500396,-0.10878653793334961
1745784585092044800,8.574044921875,-0.08633556360714137,-0.07428805600404739,-0.10534721113443374
1745784585102015700,8.584015625,0.0333237390615046,-0.0870277105897665,-0.10983926185667514
1745784585111987000,8.593987060546874,0.1498129603266716,-0.05144318698942661,-0.11370645867884159
1745784585121958700,8.603958740234376,0.2366793428748846,-0.025272388422489165,-0.11040274095833301
1745784585131929900,8.613929931640625,0.26738018608689307,0.021846505627036092,-0.09601765725314616
1745784585141900500,8.623900634765626,0.24571371320188043,0.0576437951952219,-0.062968205088377
1745784585151872500,8.63387255859375,0.2049677882503718,0.07701777322888374,-0.03796937291026115
1745784585161843500,8.643843505859374,0.12840491918213665,0.09356032722890377,-0.07348492292761802
1745784585171814400,8.653814453125,0.024002222356200215,0.07486030293405055,-0.11090542978346347
1745784585181786600,8.66378662109375,-0.028909283620119092,0.04712707735598087,-0.08889408898353576
1745784585191757600,8.673757568359376,-0.043085181554034346,0.032150457498431206,-0.038031916752457616
1745784585201728500,8.683728515625,-0.03297755597233772,0.04411678962409496,-0.0013823942691087723
1745784585211700500,8.693700439453124,-0.01750518848709762,0.04608955100178718,0.03256780612766742
1745784585221671700,8.703671630859375,-0.007889876466989517,0.06180559104979038,0.036974516654014584
1745784585231642400,8.713642333984374,0.011972688801214099,0.10890051970183849,0.03250000158846378
1745784585241614600,8.723614501953126,0.0011000701963901518,0.13631167371869085,0.02869593313038349
1745784585251585500,8.73358544921875,-0.004864975687861442,0.1931266168743372,0.02875730792880058
1745784585261556700,8.743556640625,-0.05029577051997185,0.18948796811103819,0.0056780456364154816
1745784585271528400,8.753528564453125,-0.05670687967129051,0.15578268238604068,0.011708557972311974
1745784585281499600,8.763499755859375,-0.05684073518402874,0.1335346102207899,0.004988894328474998
1745784585291470600,8.773470703125,-0.006071940324828029,0.09576689736247063,-0.002220014137029648
1745784585301442600,8.783442626953125,0.04503324688188731,0.01576981606185436,-0.025724223843216893
1745784585311413500,8.79341357421875,0.11633278859443962,-0.04553074807524681,-0.04498129749894142
1745784585321384400,8.803384521484375,0.19647073967047035,-0.055793783414363855,-0.055388709744811054
1745784585331356400,8.8133564453125,0.2339648232191801,-0.04445230518877506,-0.08036591461300849
1745784585341327400,8.823327392578125,0.2469832947462797,-0.05005903915464878,-0.08312778054177761
1745784585351298600,8.833298583984375,0.2037018599677831,-0.03779576990902424,-0.06131167005300522
1745784585361270500,8.8432705078125,0.12451770248524843,-0.038187984097003934,-0.047072716820240015
1745784585371241500,8.853241455078125,0.07817688013613223,-0.04534545463621616,-0.03111877636313438
1745784585381212400,8.86321240234375,0.006622706075385213,-0.03371405355334282,-0.014013327783346175
1745784585391184600,8.8731845703125,-0.054745151144266126,-0.03227437613904476,0.01389116270840168
1745784585401155600,8.883155517578125,-0.07691599335484206,-0.0180208098590374,0.020063129341602325
1745784585411126500,8.89312646484375,-0.08246493271887302,-0.0013736264407634734,0.05215688821673393
1745784585421098500,8.903098388671875,-0.07774382248111068,-0.020164251628518103,0.07097440141141415
1745784585431069700,8.913069580078124,-0.07188976269066333,-0.013650339689850806,0.07444236978292465
1745784585441040600,8.92304052734375,-0.08355155891180038,-0.04187807078659534,0.07158581130802631
1745784585451012600,8.9330126953125,-0.08322305760979652,-0.09898118323385714,0.04320084382295608
1745784585460983600,8.942983642578126,-0.06436981551460921,-0.11409048956036567,0.07642506803274154
1745784585470954500,8.95295458984375,-0.017576573222875595,-0.06877718362808227,0.12285773338377474
1745784585480926500,8.962926513671874,0.045675124981999396,-0.020436054307222364,0.15759703833162783
1745784585490897400,8.9728974609375,0.09310440015494822,0.010661679267883301,0.13253390874564647
1745784585500868600,8.98286865234375,0.12043138301968574,0.02328501399755478,0.1163677868425846
1745784585510840300,8.99284033203125,0.12729374306984245,0.02589139710366726,0.08865151239931583
1745784585520811500,9.0028115234375,0.08967968640327453,0.05130933147668838,0.010102876341342925
1745784585530782500,9.012782470703126,0.06160341954119503,0.04206453326940536,-0.0981903251171112
1745784585540754400,9.02275439453125,0.05029577051997185,-0.007490063494443893,-0.1738461623430252
1745784585550725400,9.032725341796874,0.058543958905339234,-0.02820259665548801,-0.19701777909398077
1745784585560696600,9.042696533203125,0.08280329782776534,-0.06446399660408496,-0.1799719517469406
1745784585570668500,9.05266845703125,0.13122808684408663,-0.062196636193990705,-0.12869710706174373
1745784585580639500,9.062639404296876,0.13690788604617118,-0.06199088448882103,-0.06690905166864394
1745784585590610400,9.0726103515625,0.1092213491540402,-0.03980535616576671,-0.01636369030177593
1745784585600582700,9.082582763671875,0.0458094919513911,0.014175824868679045,0.012122983992099762
1745784585610553600,9.0925537109375,-0.04090308827459812,0.012412906849384307,0.036736616244912146
1745784585620524500,9.102524658203125,-0.0965694459170103,0.020971476358175277,0.004711246430873871
1745784585630496500,9.11249658203125,-0.15666823304891586,0.015541852524876594,0.005907178217172623
1745784585640467700,9.1224677734375,-0.1533943990100175,0.021931261301040648,0.03461129465401173
1745784585650438700,9.132438720703124,-0.14669570508897303,-0.0013286182552576064,0.03518997132480144
1745784585660410600,9.14241064453125,-0.08860825777947902,-0.03092062344253063,0.015560557225346563
1745784585670381600,9.152381591796875,-0.01497245513908565,-0.050210430324077605,0.002707505393028259
1745784585680352500,9.1623525390625,0.047045828813314435,-0.03171791130006313,0.003234744137525558
1745784585690324500,9.172324462890625,0.0969400327950716,-0.042995092117786404,0.00786532654762268
1745784585700295400,9.18229541015625,0.10425481278784572,-0.053148237341642375,-0.019370470902323723
1745784585710266600,9.1922666015625,0.042912674531340594,-0.022684710016846656,-0.008522913673520087
1745784585720238300,9.20223828125,0.008691255977749824,0.0024327801048755642,-0.02400631400942802
1745784585730209500,9.21220947265625,-0.03891045315265655,0.02658113293349743,-0.018103227445483205
1745784585740180500,9.222180419921875,-0.05178213662020862,0.04654547807574272,-0.05691489639878273
1745784585750152700,9.232152587890624,-0.02225976260304451,0.02025543704330921,-0.07712590977847576
1745784585760123400,9.242123291015625,0.024325974417850373,0.01230477029979229,-0.07166998246014118
1745784585770094600,9.252094482421874,0.07300853758752346,-0.008971241962909698,-0.06951251216530799
1745784585780066600,9.262066650390626,0.0894938084423542,-0.016354337951540947,-0.07275193247795105
1745784585790037500,9.27203759765625,0.09010054216384887,-0.044211482170224185,-0.07529927887320519
1745784585800008400,9.282008544921876,0.07258936232738196,-0.03695347386598587,-0.044588498789072034
1745784585809980700,9.291980712890625,0.02689385214447975,-0.032960020315647126,-0.027643209207057953
1745784585819951600,9.30195166015625,0.011778043011948465,-0.013345803785324096,-0.00012274959683418273
1745784585829922600,9.311922607421875,0.02274206622727215,-0.011371288841962814,0.0042144028246402735
1745784585839894500,9.32189453125,0.048282604066655035,-0.000013444003462791442,0.023588380858302116
1745784585849865500,9.331865478515626,0.07894896048717201,0.011227496457099913,0.05459200640916824
1745784585859836700,9.341836669921875,0.09756948980502783,0.004985971719026565,0.07133212880790234
1745784585869808400,9.351808349609374,0.11564181065559387,0.010046177718043326,0.06865151142179965
1745784585879779600,9.361779541015625,0.10314940882921218,0.013328268128633499,0.06877075388729571
1745784585889750500,9.37175048828125,0.08640402573347092,-0.0006932429611682891,0.027872341787815093
1745784585899722500,9.381722412109376,0.04038286379277706,-0.014684358912706374,0.02663724703490734
1745784585909693400,9.391693359375,0.04749357258081436,-0.007939560827612876,0.03866378491520881
1745784585919665700,9.401665771484375,0.09226027748100459,-0.0021516250759363175,0.03942190980613231
1745784585929636400,9.41163623046875,0.1298135438710451,0.029802433067560193,0.02736731487512588
1745784585939607600,9.421607666015625,0.1650841792166233,0.04080488859713077,-0.02631166834235191
1745784585949579500,9.43157958984375,0.2047374866258353,0.03614975626766682,-0.05767009868025779
1745784585959550700,9.44155078125,0.22612353513427078,0.04579845910072326,-0.051691608792543406
1745784585969521400,9.451521484375,0.2535744366396218,0.05313596238195896,-0.07124445052444935
1745784585979493600,9.46149365234375,0.2207506099242717,0.05467383947372436,-0.06629939533770084
1745784585989464600,9.471464599609375,0.16873218033015727,0.09015081104636191,-0.051689855226874346
1745784585999435500,9.481435546875,0.12224281635582446,0.08083119403719902,-0.039435938331484795
1745784586009407500,9.491407470703125,0.07646423099935054,0.10402736070752143,-0.007720365118980407
1745784586019378400,9.50137841796875,0.029571546921133993,0.10506430253982543,-0.007940729871392249
1745784586029349600,9.511349609375,0.008071662774682044,0.06643325085043907,0.0010807809740304947
1745784586039321300,9.5213212890625,0.0250613029550761,0.017120646148920057,-0.031178397595882413
1745784586049292500,9.53129248046875,0.05007255622334778,-0.029244214662909506,-0.062303019177913664
1745784586059263500,9.541263427734375,0.11295834372527896,-0.02804068409204483,-0.04645838431417942
1745784586069235500,9.5512353515625,0.15914835942685604,-0.003819850549101829,-0.0805009391695261
1745784586079206400,9.561206298828125,0.1818750819545239,0.029629999110102653,-0.1069827033817768
1745784586089177600,9.571177490234374,0.1590185955673456,0.05378361263573169,-0.0991448493629694
1745784586099149600,9.581149658203126,0.11083053791634738,0.04131634525060653,-0.0605804331690073
1745784586109120500,9.59112060546875,0.06592698182873427,0.08109189079999923,-0.041460137635469435
1745784586119091500,9.601091552734376,0.03106090869605541,0.10357786337435244,-0.010346621969342232
1745784586129063700,9.611063720703125,0.007915595430135727,0.06516366930603981,-0.009508417579531669
1745784586139034600,9.62103466796875,0.024027868254110216,0.03185819655358791,-0.022979309049248695
1745784586149005600,9.631005615234375,0.09915646673552692,0.008124854266643524,-0.05337327826917171
1745784586158977500,9.6409775390625,0.14099194048941135,-0.024366964015364645,-0.08625146552026271
1745784586168948700,9.65094873046875,0.2558890702575445,-0.03898585647642612,-0.08262859884798526
1745784586178919700,9.660919677734375,0.2797481578160077,-0.009154781836271286,-0.0744312638670206
1745784586188891600,9.6708916015625,0.27229192352592946,-0.00699263536632061,-0.0727495943903923
1745784586198862600,9.680862548828125,0.25623510721623893,0.000727145230770111,-0.10005261185765266
1745784586208833800,9.690833740234375,0.3048579760879278,0.04668459428548813,-0.19726853898465632
1745784586218805500,9.700805419921876,0.37004086155109106,0.08238485321998595,-0.3985141649067402
1745784586228776700,9.710776611328125,0.3599707915008068,0.16351532246470452,-0.3189408619761467
1745784586238748700,9.720748779296875,0.23883739769160747,0.1572065777093172,-0.18439912053942678
1745784586248719600,9.7307197265625,0.17335582154281437,0.0807271491408348,-0.12292378435730933
1745784586258690600,9.740690673828125,0.0884440071284771,0.08867781588435172,-0.09622165539264678
1745784586268662800,9.750662841796874,0.025118732230737805,0.08866846353411674,-0.07143734274804592
1745784586278633500,9.760633544921875,0.034302667096257206,0.0301899710804224,0.01820727234184742
1745784586288604400,9.7706044921875,0.05850841266792267,-0.01528758550286293,0.08997896161079406
1745784586298576600,9.78057666015625,0.09299922274742276,-0.06122866794466972,0.09470014491379261
1745784586308547600,9.790547607421875,0.11747538275830446,-0.08042845845520497,0.059879591423273086
1745784586318518500,9.8005185546875,0.11080609759483485,-0.10236498045325279,0.054801849767565726
1745784586328490500,9.810490478515625,0.1022651368079707,-0.07479892813563346,0.05761223101317882
1745784586338461700,9.820461669921874,0.0821651095220819,-0.018229484173655507,0.041540217134356495
1745784586348432600,9.8304326171875,0.09287811711840331,0.040917116799950595,0.04182429477274418
1745784586358404600,9.840404541015625,0.11413491322398185,0.13286124100387095,0.07015957789719104
1745784586368375600,9.85037548828125,0.12078852589428424,0.19641747511327265,0.12379589101672171
1745784586378346800,9.8603466796875,0.1500958689212799,0.21428689380288124,0.1568500193566084
1745784586388318500,9.870318359375,0.1992079826146364,0.22504034300744533,0.15815350317060947
1745784586398289700,9.88028955078125,0.26377193246185776,0.2168582055956125,0.16553835272490977
1745784586408260600,9.890260498046874,0.34763854867219923,0.17156535792946814,0.1775584608644247
1745784586418232600,9.900232666015626,0.40306116068661213,0.097039986038208,0.12589198651313782
1745784586428203500,9.91020361328125,0.478556838914752,0.009057166680693627,0.04975391872823238
1745784586438174700,9.9201748046875,0.517785271975398,-0.05632862094342708,-0.05932137301862239
1745784586448146700,9.930146728515625,0.5229652318965643,-0.10072539655268192,-0.15613573360741137
1745784586458117600,9.94011767578125,0.5204127344021573,-0.14742051223218441,-0.17864625610113144
1745784586468088600,9.950088623046875,0.48263625371549274,-0.11450550010204315,-0.1493897664785385
1745784586478060800,9.960060791015625,0.3951426791796461,-0.021962825483083724,-0.1445282979220152
1745784586488031700,9.97003173828125,0.27526370587833227,0.057443304187059396,-0.18926877240240572
1745784586498002400,9.98000244140625,0.15812614023964852,0.12040800214409828,-0.30474750145077706
1745784586507974700,9.989974609375,0.02559281601589173,0.17792670965492724,-0.44666357104778287
1745784586517945600,9.999945556640625,-0.08395718057062476,0.19200491936802863,-0.5731558615416288
1745784586527917600,10.00991748046875,-0.13528700684607028,0.21376842288672923,-0.5746329483568668
1745784586537888500,10.019888427734376,-0.14770634343624114,0.25043314293920993,-0.5076052387446165
1745784586547859700,10.029859619140625,-0.17200546637978403,0.2569271811336279,-0.3860854759663343
1745784586557831400,10.03983154296875,-0.18416878238227216,0.27255320481061934,-0.30237960327565666
1745784586567802600,10.049802734375,-0.13174305062890052,0.2787310166627168,-0.2626391290396452
1745784586577773600,10.059773681640625,-0.10732121462114155,0.2509025140166283,-0.25850597475767134
1745784586587745800,10.069745849609374,-0.07163673777766526,0.2278735206067562,-0.28286709355413914
1745784586597716500,10.079716552734375,0.01096391361746937,0.20315408989191053,-0.32855858514904973
1745784586607687700,10.089687744140624,0.07445932091772556,0.2175602163851261,-0.33974574959576126
1745784586617659600,10.09965966796875,0.11586334445178507,0.2521539753824472,-0.3096703448057174
1745784586627630600,10.109630615234375,0.09234035697989165,0.26939737112820145,-0.2664279999285936
1745784586637601500,10.1196015625,-0.004902348556183278,0.24646248574256896,-0.26143852107822896
1745784586647573800,10.12957373046875,-0.09874920110888778,0.19487141471505165,-0.30997604975402354
1745784586657544700,10.139544677734374,-0.14555647192597387,0.11066343772113323,-0.3613941023021936
1745784586667515400,10.149515380859375,-0.1539782633125782,0.05152151292264461,-0.34997722075283527
1745784586677487600,10.159487548828125,-0.09870411985814571,0.018301964887976644,-0.31839199592173095
1745784586687458600,10.16945849609375,-0.038215456625819204,0.03949614408612251,-0.3270014188349247
1745784586697429800,10.1794296875,0.07974043965842574,0.04317161772847175,-0.45461716040074823
1745784586707401500,10.1894013671875,0.21654778793957083,0.06518471209406852,-0.5815203697830438
1745784586717372700,10.19937255859375,0.34130759208500383,0.09086801940500736,-0.7391413735121488
1745784586727343600,10.209343505859374,0.415920642259717,0.07135200255215167,-0.7849637980103492
1745784586737315600,10.219315673828126,0.3816653214365244,0.05151683674752712,-0.601775806826353
1745784586747286500,10.22928662109375,0.24756025438401846,0.007908581167459487,-0.3819219265460968
1745784586757258800,10.2392587890625,0.22492047948744145,0.009293898046016692,-0.161906718224287
1745784586767229400,10.2492294921875,0.07176880319211631,0.11623451585173607,0.13034136713743208
1745784586777200600,10.25920068359375,-0.156527929529082,0.21286416752338408,0.46945992474555964
1745784586787172600,10.269172607421876,-0.3808861537575722,0.22743454466760157,0.6927770972222089
1745784586797143800,10.279143798828125,-0.5949123507976531,0.27013562227487564,0.841792769691348
1745784586807114500,10.289114501953126,-0.8217191189557314,0.32054479004144665,0.9642267247051
1745784586817086700,10.299086669921875,-0.9452882154792547,0.35781507477164265,1.038806457132101
1745784586827057700,10.3090576171875,-0.9835878432571887,0.3039356005460024,1.0068448002040387
1745784586837028600,10.319028564453125,-0.9503495905220508,0.21320494378507135,0.8754875340223311
1745784586847000600,10.32900048828125,-0.8966752834796905,0.08228548449873924,0.7274965284258127
1745784586856971500,10.338971435546876,-0.7750035450100898,-0.017252748095989225,0.5884042840778827
1745784586866942700,10.348942626953125,-0.7275058807760476,-0.10455284588634967,0.4619464803755283
1745784586876914400,10.35891455078125,-0.7099620407789945,-0.18067103992700576,0.28558336677551266
1745784586886885600,10.3688857421875,-0.6972539503753185,-0.293809343329072,0.07923369571268558
1745784586896856600,10.378856689453125,-0.6918342634141444,-0.34301498052477836,-0.0038192660272121427
1745784586906828500,10.38882861328125,-0.6551338875263929,-0.31918110047280784,-0.07773030541241169
1745784586916799500,10.398799560546875,-0.5879121166467667,-0.33175182823240756,-0.18015899875164032
1745784586926771700,10.408771728515624,-0.5293313328623771,-0.32898937778174875,-0.22309739224612712
1745784586936742700,10.41874267578125,-0.46941257847249507,-0.3176075675457716,-0.22618600591123103
1745784586946713600,10.428713623046875,-0.4051841441899538,-0.2685696881324053,-0.22596856376826763
1745784586956685600,10.438685546875,-0.3641916240662336,-0.19667115761339662,-0.15799159060716628
1745784586966656800,10.44865673828125,-0.3618611352920532,-0.13415712603330612,-0.10029168131053447
1745784586976627700,10.458627685546874,-0.3775298290669918,-0.09922317529618739,-0.00024316110610961912
1745784586986599700,10.468599609375,-0.3932441155493259,-0.06812310363352299,0.08520458681583404
1745784586996570600,10.478570556640625,-0.4540414063394069,-0.06011982991993427,0.20197686280608176
1745784587006541600,10.48854150390625,-0.4888035076409578,-0.09245850346684455,0.2783236049056053
1745784587016513500,10.498513427734375,-0.4570440952867269,-0.13880173696875572,0.3302665581107139
1745784587026484700,10.508484619140624,-0.3756704649358988,-0.14057751446962355,0.3727273972213268
1745784587036455700,10.51845556640625,-0.257868845897913,-0.13942249921560287,0.3802829271674156
1745784587046427600,10.528427734375,-0.11454349402487277,-0.1344581548064947,0.3325783421844244
1745784587056398600,10.538398681640626,0.03063716685865074,-0.1380313371181488,0.2459603814393282
1745784587066369500,10.54836962890625,0.11205750416172668,-0.1297702892512083,0.16704115850329398
1745784587076341500,10.558341552734374,0.11871520848525688,-0.08860299708247184,0.0788970111042261
1745784587086312400,10.5683125,0.035087679994106294,-0.10559504841566085,-0.028590719190239904
1745784587096284700,10.57828466796875,-0.1162631574243307,-0.11186287663877009,-0.0701613314628601
1745784587106255600,10.588255615234376,-0.309941562962532,-0.08296411441266537,-0.051665305307507514
1745784587116226600,10.5982265625,-0.4982049577146768,-0.05463116937577724,-0.012276128727197647
1745784587126198500,10.608198486328124,-0.6881073518455029,-0.03860416368246078,0.01175005902647972
1745784587136169700,10.618169677734375,-0.8782102369844913,-0.030014029991626737,0.03547171087563038
1745784587146141000,10.628140869140625,-1.0425357067883014,-0.029908231529593467,0.06833060890436173
1745784587156112600,10.638112548828126,-1.1676993790268897,-0.050590369552373886,0.1284679744809866
1745784587166083800,10.648083740234375,-1.2446271358847618,-0.0322597630918026,0.22431436682045458
1745784587176054800,10.6580546875,-1.259953299832344,-0.0039010990917682647,0.3226011380493641
1745784587186026800,10.66802685546875,-1.2246867561399937,0.018056465694308278,0.4062304383724928
1745784587195997700,10.677997802734374,-1.16592710865736,0.047099020305275914,0.41785833232402797
1745784587205969000,10.687968994140626,-1.0661913076639176,0.040787937462329865,0.44674832672178744
1745784587215940600,10.697940673828125,-0.9319920960545539,0.04361526984274387,0.5073708454668522
1745784587225911800,10.707911865234376,-0.8161305051684379,0.019894787037372588,0.5811012675881385
1745784587235882800,10.7178828125,-0.7373147426068782,-0.0251227508187294,0.6409948875367641
1745784587245855000,10.72785498046875,-0.7145569673538208,-0.08251227899193764,0.6671972502857446
1745784587255825700,10.73782568359375,-0.7129986319959163,-0.19898294168710706,0.7092500931173562
1745784587265798000,10.7477978515625,-0.7241209145128726,-0.3014373539894819,0.7321954998970032
1745784587275768800,10.757768798828126,-0.7191571546256542,-0.3239648276180029,0.7468699219375848
1745784587285739800,10.76773974609375,-0.7234498833835125,-0.3045505175739527,0.7896002256393432
1745784587295711700,10.777711669921874,-0.7135375611782073,-0.3026613428264856,0.799971982049942
1745784587305682700,10.7876826171875,-0.714466950982809,-0.37863048378527164,0.78982994274199
1745784587315654000,10.79765380859375,-0.6494634406745433,-0.44207565873563287,0.7464402983486652
1745784587325625600,10.80762548828125,-0.5149497562885285,-0.508171055933833,0.7008610349565744
1745784587335596800,10.8175966796875,-0.31110826865434643,-0.5346861378937959,0.6195896959364414
1745784587345567700,10.827567626953124,-0.08003741331100464,-0.606565379190445,0.5026356336385012
1745784587355539700,10.837539794921875,0.05494038145542145,-0.7315735686063766,0.3775736682087183
1745784587365510700,10.8475107421875,0.09884791224300861,-0.7396358790308236,0.23689035527706145
1745784587375481900,10.85748193359375,0.022881118504935873,-0.7396592599064111,0.11561726073622702
1745784587385453800,10.867453857421875,-0.14543489137291907,-0.7482265972435473,-0.01558686071038246
1745784587395424800,10.8774248046875,-0.23985503203524275,-0.7524205418020486,-0.17025544437468051
1745784587405396700,10.887396728515625,-0.24535889014853163,-0.7474825008779764,-0.3175567141413688
1745784587415368000,10.897367919921875,-0.11230656528566033,-0.6282073021560907,-0.4884118779748678
1745784587425338600,10.907338623046876,0.03710839043306187,-0.5350304212868213,-0.6091209088921546
1745784587435310800,10.917310791015625,0.4166793516725302,-0.2474754621773958,-0.5655740281105042
1745784587445281800,10.92728173828125,0.7071428917050361,0.11102116511762142,-0.47379415455758567
1745784587455253000,10.9372529296875,0.855802590343356,0.2665998493641615,-0.4443278215765953
1745784587465224700,10.947224609375,0.9861427884370088,0.35232933683693407,-0.44418695180118084
1745784587475196000,10.95719580078125,1.1024790110975504,0.46590953878760333,-0.39450668283104895
1745784587485166800,10.967166748046875,1.134331946954131,0.5556330643326044,-0.26290099484622476
1745784587495138800,10.977138916015624,1.2656523882567883,0.7295160515546798,-0.15308920551836488
1745784587505109800,10.98710986328125,1.2418611783027649,0.8966846358299255,-0.08437690382003783
1745784587515080700,10.997080810546874,1.24321317743361,1.0009335303336382,-0.1683902350246906
1745784587525052700,11.007052734375,1.0964455761522054,0.9590735797256231,-0.3351180897951126
1745784587535023600,11.017023681640625,0.9117162007451057,0.825123374441266,-0.5593523771166801
1745784587544994800,11.026994873046876,0.7591127329170704,0.7084136422932148,-0.7471002235621214
1745784587554966800,11.036966796875,0.6355307769119739,0.7004401791960001,-0.8083218772441149
1745784587564937700,11.046937744140624,0.3980255046069622,0.5867541787832975,-0.8652186534643173
1745784587574909700,11.05690966796875,0.22352586505757643,0.4536293184071779,-0.8996206892818212
1745784587584881000,11.066880859375,0.03125789257287979,0.4491805223047733,-0.8227490465253591
1745784587594851800,11.076851806640626,-0.13694416293594985,0.378532868629694,-0.8023223445683717
1745784587604823800,11.08682373046875,-0.2458592956850305,0.39631051738262174,-0.7680582559168339
1745784587614794800,11.096794677734374,-0.31174189038276673,0.4205857114613056,-0.7267915950268506
1745784587624766000,11.106765869140625,-0.3338905938267708,0.5717553470939397,-0.652287850445509
1745784587634737700,11.116737548828125,-0.3902595833132043,0.6727630677193402,-0.6299772344380616
1745784587644708900,11.126708984375,-0.4751005609810352,0.7427244926959276,-0.6608353140383958
1745784587654679800,11.1366796875,-0.5511164636909961,0.7921282828122377,-0.712773591068387
1745784587664651800,11.14665185546875,-0.6054922700662165,0.838663239493966,-0.7308376555472612
1745784587674622700,11.156622802734375,-0.729431880402565,0.8337392270952463,-0.7665010896027088
1745784587684593700,11.16659375,-0.8170960622649639,0.7674684733301401,-0.7778349690437316
1745784587694566000,11.17656591796875,-0.8535223704516887,0.6779927850663662,-0.7867740623027086
1745784587704536600,11.18653662109375,-0.8822059555571525,0.5255839630275965,-0.7526829921305179
1745784587714508800,11.1965087890625,-0.7928209412515163,0.36217619259059425,-0.6846919904440641
1745784587724479700,11.206479736328125,-0.5900480326969176,0.23697218834161757,-0.517803976675868
1745784587734451000,11.216450927734375,-0.3641361310193315,0.14036767111122608,-0.3517179269403219
1745784587744422700,11.226422607421876,-0.04670446802973747,-0.025273557466268536,-0.2933545852988958
1745784587754393900,11.236393798828125,0.3289584711868316,-0.16965163326263427,-0.15826222424209116
1745784587764364800,11.24636474609375,0.6642097589075565,-0.16685995671749115,0.04020458461642265
1745784587774336800,11.256336669921875,0.9677543143093585,-0.17890052312314508,0.1674228512972593
1745784587784307700,11.2663076171875,1.1160182916283607,-0.1894610801041126,0.2818494409441948
1745784587794279000,11.27627880859375,1.0484089827358722,-0.16842296825051306,0.32719431105852126
1745784587804250600,11.286250732421875,0.8748515742063522,-0.13291501701772213,0.34139819297790525
1745784587814221800,11.296221923828124,0.639848055589199,-0.03816986391842365,0.38680443789064883
1745784587824193800,11.30619384765625,0.410868692632392,0.06277063668966293,0.3586111935853958
1745784587834164700,11.316164794921875,0.17137721494622526,0.12610884413421153,0.3516068677812815
1745784587844135700,11.3261357421875,-0.06397708986997604,0.16700433362424372,0.30451486173868175
1745784587854108000,11.33610791015625,-0.28814700671844184,0.2043365776747465,0.2738584421902895
1745784587864078800,11.346078857421874,-0.5003039758205413,0.1626969918191433,0.23838439322710037
1745784587874049500,11.356049560546875,-0.6626748774904757,0.08525193308889865,0.18461130198538303
1745784587884021800,11.366021728515625,-0.7030980732936412,-0.02647591899335384,0.16533786171674728
1745784587893992700,11.37599267578125,-0.6946762088418007,-0.08291209196448325,0.21855448811948297
1745784587903964000,11.3859638671875,-0.6254911019999534,-0.09222294114530086,0.28197745123803614
1745784587913935600,11.395935546875,-0.5211912810266017,-0.10434534061551093,0.36607612263858313
1745784587923906800,11.40590673828125,-0.3948562269210815,-0.10959668527245521,0.40313422592282294
1745784587933877800,11.415877685546874,-0.2237644047874957,-0.1539905382722616,0.3576999239593744
1745784587943849700,11.425849609375,-0.0019429507613182068,-0.21487784543335436,0.2804500955402851
1745784587953820700,11.435820556640625,0.24353052394390104,-0.3058206836402416,0.1795177782386541
1745784587963793000,11.44579296875,0.49435361604876815,-0.3990408191293478,0.08131926981508732
1745784587973763600,11.455763671875,0.6233341431617736,-0.4551420610576868,-0.02777005045711994
1745784587983734800,11.46573486328125,0.6580255173146724,-0.513204958447814,-0.15488953293859958
1745784587993706800,11.475706787109376,0.5910170969247818,-0.6061731650024652,-0.25458967809677124
1745784588003678000,11.485677978515625,0.5043301625967025,-0.6462585071533918,-0.3228524824619293
1745784588013648600,11.495648681640626,0.4349555245321244,-0.645804918166995,-0.31976153070926666
1745784588023620900,11.505620849609375,0.3593406769037247,-0.5675631561011075,-0.24715046800673007
1745784588033591800,11.515591796875,0.306232187050581,-0.4713707268029451,-0.10349603030979633
1745784588043563000,11.52556298828125,0.2479986092686653,-0.40509003616571426,0.010772153905034065
1745784588053534700,11.53553466796875,0.22835743166618047,-0.34949382115006444,0.13782792350053785
1745784588063506000,11.545505859375,0.163930333006382,-0.3293015124708414,0.3019868045657873
1745784588073477600,11.5554775390625,0.044758010137081146,-0.2823661582946777,0.4211912761390209
1745784588083448800,11.56544873046875,-0.09988426955342292,-0.23993512980043888,0.6078992581427097
1745784588093419800,11.575419677734375,-0.22144261077642438,-0.2210936512082815,0.7085720477253198
1745784588103392000,11.58539208984375,-0.38012401027865705,-0.2743973713725805,0.7204583003520966
1745784588113362700,11.59536279296875,-0.4365068456273526,-0.3260457255452871,0.6800076320201158
1745784588123333600,11.605333740234375,-0.441428666068986,-0.3439367715448141,0.6021008009970188
1745784588133305900,11.615305908203124,-0.42305012881346044,-0.43078678748011584,0.49446226405501364
1745784588143276800,11.62527685546875,-0.3785269503455609,-0.5091472074896097,0.34538930844068527
1745784588153247200,11.635247314453125,-0.31893742791004476,-0.5685118351280689,0.23190087642669677
1745784588163219200,11.64521923828125,-0.2769371189832687,-0.6268114638835192,0.15549743570387362
1745784588173190400,11.6551904296875,-0.1739737342454493,-0.6509592321902513,0.14306874676346779
1745784588183162000,11.665162109375,-0.02756137614250183,-0.6404740785330534,0.1834621319502592
1745784588193133300,11.67513330078125,0.15049327074103055,-0.6321113238573074,0.20567980897724628
1745784588203104300,11.685104248046875,0.34876543381027875,-0.6093219844222069,0.2645528537064791
1745784588213076500,11.695076416015626,0.4846246875863522,-0.5540887575000524,0.35507483615279195
1745784588223047200,11.705047119140625,0.5494971919260919,-0.4925631524354219,0.40763855160474777
1745784588233018000,11.71501806640625,0.48276707702092825,-0.45661622526347634,0.4285726185619831
1745784588242990300,11.724990234375,0.3529459343653172,-0.456831329318881,0.4457300895899534
1745784588252961300,11.734961181640625,0.24756138689517973,-0.4308978466391563,0.45780572730898855
1745784588262932200,11.74493212890625,0.10510295404978096,-0.42768063815832136,0.4760322888731956
1745784588272904200,11.754904296875,-0.03820895381979644,-0.4362134887039661,0.46044133650958535
1745784588282875400,11.76487548828125,-0.16821480539254843,-0.464793101978302,0.43906186387240886
1745784588292847400,11.774847412109375,-0.2530651719432324,-0.46559155887961384,0.42238954601287837
1745784588302818300,11.784818359375,-0.31282084472589194,-0.4934948803275823,0.4147416616082191
1745784588312789200,11.794789306640626,-0.3254793238341808,-0.5303787960886955,0.3637561552584171
1745784588322761200,11.80476123046875,-0.29293548310399053,-0.548511249628663,0.3788654615849256
1745784588332732200,11.814732177734374,-0.25137831483483314,-0.5120768312007189,0.4233773880064487
1745784588342703400,11.824703369140625,-0.19260471189208328,-0.47817397707700726,0.49735915454030033
1745784588352675000,11.834675048828124,-0.12187164495587348,-0.4140501722127199,0.5348042113155126
1745784588362646300,11.844646240234376,-0.0505763410270214,-0.3398965562433004,0.5645967075109481
1745784588372617200,11.8546171875,0.0361328051328659,-0.2706821502417326,0.5612251852512359
1745784588382589400,11.86458935546875,0.13309329619407653,-0.1656727927595377,0.6066974811375141
1745784588392560000,11.87456005859375,0.2678851764669642,-0.024671499919891357,0.6205629248827695
1745784588402532400,11.884532470703125,0.39858891064338386,0.043135377371311186,0.6366507208526134
1745784588412503300,11.89450341796875,0.5092728796958923,0.19973405231535435,0.6650847881764174
1745784588422474500,11.904474609375,0.5868085027864203,0.2907014404416084,0.6320996334195137
1745784588432446200,11.9144462890625,0.6385035821776837,0.37259880240559573,0.49516427484452724
1745784588442417400,11.92441748046875,0.6450678360641002,0.3590373100429773,0.3524281210362911
1745784588452388400,11.934388427734374,0.5856347462993114,0.30124270820021626,0.1583528251349926
1745784588462360300,11.9443603515625,0.5228173478584737,0.22446926512122153,-0.019617723661661146
1745784588472331300,11.954331298828125,0.4355951376099139,0.11249942097663879,-0.20779519369602203
1745784588482303500,11.964303466796874,0.37732166620902713,-0.0293055894613266,-0.35842473110258577
1745784588492274200,11.974274169921875,0.3277683115541935,-0.11893033080697059,-0.42255438118577
1745784588502245000,11.9842451171875,0.26007128784563394,-0.22755437165498732,-0.49206630882918834
1745784588512217300,11.99421728515625,0.1355774776926264,-0.3002121961086988,-0.5168880308747291
1745784588522188300,12.004188232421875,0.01854578358121216,-0.3253635885000229,-0.5260749614149332
1745784588532159200,12.0141591796875,-0.11976159399934112,-0.3309533713310957,-0.44998248633742327
1745784588542131200,12.024131103515625,-0.30999175877980883,-0.31792788554131984,-0.3806394855201244
1745784588552102400,12.034102294921874,-0.48725167508907613,-0.281884512257576,-0.3353197498470545
1745784588562073300,12.0440732421875,-0.6309680721063167,-0.2614706697821617,-0.28561083930432796
1745784588572045300,12.05404541015625,-0.7315666274089366,-0.20964169834554194,-0.21248364377319812
1745784588582016300,12.064016357421876,-0.8101953429657965,-0.130915952154994,-0.14712532867789269
1745784588591988200,12.07398828125,-0.8357705137271434,-0.04647533544898033,-0.07089490643441676
1745784588601959200,12.083959228515624,-0.7976083216585218,0.012187865921854972,0.016114683976769448
1745784588611930400,12.093930419921875,-0.7045640541929751,0.07032792020142078,0.051180152139067646
1745784588621902300,12.10390234375,-0.5995381839673966,0.12589490912258625,0.09125088124275207
1745784588631873300,12.113873291015626,-0.4704815959434956,0.13494739962816238,0.16322130795419215
1745784588641844200,12.12384423828125,-0.3610509148877114,0.13527823901772498,0.23158406556248665
1745784588651816400,12.13381640625,-0.2456183630686253,0.07882102325856685,0.26004735898077486
1745784588661787400,12.143787353515625,-0.13458258490376174,0.04079612076878547,0.2915472436159849
1745784588671759400,12.15375927734375,-0.045914194434881206,0.004462824627757072,0.31622400423288344
1745784588681730300,12.163730224609376,0.0647159986037761,-0.030179449686408042,0.29633330884873865
1745784588691701200,12.173701171875,0.18028759356737137,-0.10661971528828143,0.20530746853351592
1745784588701673200,12.183673095703124,0.2885585831940174,-0.25799627166986466,0.1395131001085043
1745784588711644200,12.19364404296875,0.40235673874430355,-0.33712826057374473,0.19305004450678825
1745784588721615400,12.203615478515625,0.49597376459650694,-0.46005438301861284,0.21883505862653255
1745784588731587000,12.213587158203126,0.6003180092334747,-0.4628443059980869,0.27532968378663064
1745784588741558300,12.223558349609375,0.6928653600275516,-0.4677414303898811,0.22599311368763444
1745784588751529200,12.233529296875,0.6786052909415214,-0.49706747811734675,0.1634375810533762
1745784588761501400,12.24350146484375,0.633558453925699,-0.43467970326542854,0.14981588293612003
1745784588771472100,12.25347216796875,0.4256535162448883,-0.29027707754969595,0.14568682030737398
1745784588781444400,12.2634443359375,0.1451286019027233,-0.228396083176136,0.08641396260559558
1745784588791415300,12.273415283203125,-0.1614401236258447,-0.149952076536417,0.09600245968401432
1745784588801386200,12.28338623046875,-0.4442706114966422,-0.05043079507648945,0.10059271008372306
1745784588811358200,12.293358154296875,-0.6655389616847038,0.09594400749504566,0.10621288805305958
1745784588821329400,12.303329345703125,-0.8480103290319442,0.1921545569717884,0.1274602587431669
1745784588831300400,12.31330029296875,-0.9978139370083808,0.21063070938289163,0.12780804926753042
1745784588841272300,12.323272216796875,-1.1448889237385242,0.16464987945258616,0.09155950880050659
1745784588851243300,12.3332431640625,-1.2016354778330773,0.09448504085838794,0.07126783140003681
