time,seconds_elapsed,z,y,x
1746476965627729000,0.02772900390625,1.5990122362077235,-1.450659411561489,1.0046090039759874
1746476965637708800,0.037708740234375,1.185763443505764,-1.50606682600677,1.148942656108737
1746476965647689000,0.04768896484375,0.9313292482316493,-1.449156605783105,1.261704527413845
1746476965657667800,0.057667724609375,0.7585480847716332,-1.4116022434145212,1.313607733130455
1746476965667647700,0.067647705078125,0.4436164584368467,-1.4410907882273196,1.4168325452834367
1746476965677628200,0.077628173828125,0.11965806055963038,-1.515031638228893,1.501523921880126
1746476965687607000,0.08760693359375,-0.2172469126522541,-1.5628385145425796,1.6238672760009765
1746476965697587000,0.0975869140625,-0.5200555549949407,-1.572895798176527,1.7080290757656096
1746476965707567000,0.107567138671875,-0.7450386148571968,-1.5809282979846,1.7019015327960252
1746476965717546000,0.1175458984375,-0.9806547124147414,-1.6209931818693875,1.755914278012514
1746476965727526000,0.12752587890625,-1.4483084645211697,-1.659514343443513,1.8925059377163647
1746476965737505800,0.137505859375,-1.9214754270911216,-1.490268368372321,1.9781945086568593
1746476965747485000,0.14748486328125,-2.3001181858360766,-1.2229337749928235,1.9195307227641343
1746476965757464800,0.15746484375,-2.4416110615849496,-0.9315005131453276,1.7965899872720241
1746476965767444700,0.16744482421875,-2.5259634154856205,-0.7515893516749144,1.7217764460891485
1746476965777424000,0.177423828125,-2.4733891786396502,-0.6253145033240318,1.570536083307862
1746476965787403800,0.18740380859375,-2.3005866801306603,-0.4480255070507526,1.4499556472063064
1746476965797384000,0.197384033203125,-2.0999302522733805,-0.22025018612146377,1.2529647561192512
1746476965807364000,0.207364013671875,-1.9836191640540957,-0.02665419816970825,1.0937263803213835
1746476965817343000,0.217343017578125,-2.099120104934275,0.13439444192051886,1.0529998176574706
1746476965827323000,0.227322998046875,-2.4069082892552016,0.12734276984333992,1.0477087255120276
1746476965837303000,0.237302978515625,-2.622296714559197,0.024851532661914824,0.83117726765275
1746476965847282000,0.247281982421875,-2.383705400583148,-0.027267946153879164,0.3492003911614418
1746476965857261800,0.25726171875,-2.714306889736652,-0.018376783689856527,-0.347905675175786
1746476965867242000,0.267241943359375,-3.008620090934634,0.004783727145195007,-0.938762028580904
1746476965877220900,0.277220947265625,-2.736584772518277,0.33244390214979647,-1.250479369044304
1746476965887200800,0.28720068359375,-2.3436752957507965,0.5531371558636426,-1.3314590316414832
1746476965897181000,0.297180908203125,-2.1308952993795276,0.4048743475884199,-1.20775900221467
1746476965907160000,0.30716015625,-2.1234987593874335,0.09809797065854071,-1.2799392722845078
1746476965917140000,0.317139892578125,-2.1709449856951832,-0.10131985531449317,-1.711307074522972
1746476965927120000,0.327119873046875,-2.1964599507018923,-0.1557990489989519,-2.34121708894372
1746476965937099000,0.33709912109375,-2.0678575361862777,-0.11056757613122463,-3.1973803292930123
1746476965947079000,0.347078857421875,-1.557108154197037,0.061737201988697046,-4.055615699741244
1746476965957058800,0.357058837890625,-1.0442904415011405,0.07818915509581566,-4.41374115563631
1746476965967038000,0.367037841796875,-1.0396396930858491,-0.23166940575838088,-4.249231561437249
1746476965977017900,0.377017822265625,-1.1849468664258718,-0.4954173728227615,-4.086775977158546
1746476965986997800,0.386997802734375,-1.398189219611883,-0.6324725583851337,-4.046384345537424
1746476965996978000,0.39697802734375,-1.7136895857453345,-0.83559742218256,-3.954535498401522
1746476966006956800,0.406956787109375,-2.0086255950167775,-0.9213169727832078,-3.831938461780548
1746476966016937000,0.41693701171875,-2.28523830435127,-0.8319728019446134,-3.615496435770392
1746476966026916900,0.426916748046875,-2.5894164814814924,-0.692385467556119,-3.3656858086436987
1746476966036896000,0.43689599609375,-2.904801112280786,-0.43861704271435736,-2.8954432090878486
1746476966046876000,0.4468759765625,-3.2466350663274524,-0.32790041350126264,-2.367265137913823
1746476966056855800,0.456855712890625,-3.403009284865856,-0.16767828736305235,-2.1117752961069343
1746476966066834700,0.466834716796875,-3.42072877369076,-0.13777122487723825,-1.793238923278451
1746476966076814600,0.476814697265625,-3.178180831043422,-0.07856967884600162,-1.6561948436319827
1746476966086794500,0.48679443359375,-2.6120757647961375,-0.07532558235824108,-1.6828940499871967
1746476966096773600,0.496773681640625,-2.0825673218011853,-0.017719196563959122,-1.7463129214525221
1746476966106753800,0.50675390625,-1.7903315113991498,0.150901340085268,-1.726486523476243
1746476966116733700,0.516733642578125,-1.5629504504844545,0.5594511613160371,-1.3483978914827108
1746476966126712800,0.526712890625,-1.1663023717105387,0.1569318524211645,-0.9114438135445118
1746476966136692700,0.536692626953125,-0.8159586557328701,-0.40926352245807646,-1.1191010600745677
1746476966146672600,0.546672607421875,-0.9495783138886094,-0.45351358307302,-0.9676520229786634
1746476966156651800,0.55665185546875,-1.14614893373698,-0.37410219270586964,-0.7210422377198934
1746476966166631700,0.566631591796875,-1.3275608551591633,-0.5064361949652433,-0.6996908221334218
1746476966176611600,0.576611572265625,-1.4011656050741672,-0.614198650547862,-0.5940156942188739
1746476966186591700,0.586591796875,-1.2539467528939245,-0.4585270273208618,-0.30472762770652767
1746476966196570600,0.596570556640625,-0.925980872941017,-0.21194354554712772,0.05759177274703979
1746476966206550800,0.60655078125,-0.5871671434983611,-0.045747021174430844,0.3880997383981943
1746476966216530700,0.61653076171875,-0.2037181535154581,0.1491197173655033,0.7538093658119439
1746476966226509800,0.626509765625,0.22966303437203167,0.30996202122867106,1.0576549499869345
1746476966236489700,0.63648974609375,0.7174342763558029,0.5094447291314601,1.400142107245326
1746476966246469600,0.6464697265625,1.1437807433009146,0.7832435500890016,1.7772382210701703
1746476966256448800,0.65644873046875,1.4660317527383564,0.9131576317250728,1.9717355417758224
1746476966266428700,0.6664287109375,1.678255576531589,0.9244535172432661,2.0393565411061045
1746476966276408600,0.67640869140625,1.8397057831600307,0.9563093757092952,2.049852800679207
1746476966286387700,0.6863876953125,2.0371227907046676,1.0275479810148478,2.114019275641441
1746476966296367600,0.69636767578125,2.189675697389245,1.0218038844048976,2.2185762131810187
1746476966306347500,0.706347412109375,2.3505121560335156,1.0069459224909543,2.2808751407057044
1746476966316326700,0.71632666015625,2.5002447446003555,0.9821902514189481,2.3140251306354997
1746476966326306800,0.726306884765625,2.5872397219642997,0.8877022879511117,2.2724001578271387
1746476966336286700,0.73628662109375,2.5661823208883403,0.803653300911188,2.1455787815093994
1746476966346265900,0.746265869140625,2.4500106411397455,0.7594558472663163,1.9945938547939062
1746476966356245800,0.756245849609375,2.3491811996906993,0.7592161932915449,2.025653594446182
1746476966366225700,0.7662255859375,2.1929127796143293,0.8191378702908754,2.1063708067148923
1746476966376204800,0.776204833984375,1.969899558520317,1.2095301035404205,2.0325480301350356
1746476966386184700,0.786184814453125,1.5895938349992036,1.8649848935842512,2.046019506126642
1746476966396164600,0.79616455078125,1.4263625901728867,2.6938252427220344,2.480816113770008
1746476966406144500,0.80614453125,1.2321800345048308,3.505895658844709,2.8402514832198618
1746476966416123600,0.81612353515625,0.9313201881423592,3.58918476742804,3.0528128684043883
1746476966426103800,0.826103759765625,1.5664444300800562,3.1182857497900724,2.3448469698786734
1746476966436083700,0.836083740234375,-1.173083410152793,2.380732522252202,2.5850632547080514
1746476966446062800,0.846062744140625,-0.8788771764606237,2.5649025102108713,1.0623457381516694
1746476966456042800,0.856042724609375,1.1262538544386624,2.442200844171643,0.36084348268210886
1746476966466022700,0.866022705078125,2.2204677260160444,1.752708175447583,1.512452727651596
1746476966476001800,0.876001708984375,3.6375773346751927,1.9000053535610437,2.0610119080752134
1746476966485981700,0.885981689453125,4.954271343383192,1.733750376999378,2.259145539456606
1746476966495961600,0.895961669921875,5.0639422629356385,1.2954121512264012,1.7816548684686422
1746476966505940700,0.905940673828125,4.112677895656228,1.0434355782374738,0.9498404719561337
1746476966515920600,0.915920654296875,3.017452801209688,0.8884349861398338,0.5597235485166311
1746476966525900800,0.92590087890625,2.5234651689291,1.1813634549811483,0.17610943109989166
1746476966535879700,0.935879638671875,2.2838854284375905,1.599829982331395,0.06651742200255394
1746476966545859800,0.94585986328125,1.9905051241755485,2.6013983034372328,-0.15271861864030362
1746476966555839700,0.95583984375,1.82491737935096,3.5643782429516313,-0.12024842766821384
1746476966565819000,0.96581884765625,1.7209873415380714,3.991198464888334,0.27230361396372316
1746476966575798800,0.975798828125,1.4852783050000666,4.177890080279112,0.62528060105443
1746476966585778700,0.98577880859375,0.9806211024060845,3.8924119274437423,0.865277105653286
1746476966595757800,0.9957578125,0.11271335598826408,3.050884530690312,1.055082469150424
1746476966605737700,1.00573779296875,-0.9531967966467142,2.0243542022854086,0.9173714500278234
1746476966615717600,1.015717529296875,-1.8262497969985008,0.9510013324290514,0.6386871951162815
1746476966625697500,1.025697509765625,-2.0397949325233697,0.18513328003287313,0.6338865168362856
1746476966635676700,1.0356767578125,-1.5006220046043395,-0.18722177674472332,0.6738754128754139
1746476966645656800,1.04565673828125,-0.6190098502218723,-0.3572989419430494,0.7589245168685913
1746476966655636700,1.05563671875,0.2583335408002138,-0.2922843257188797,0.9895172333061695
1746476966665616000,1.065615966796875,0.9990887792497872,-0.028625205981731412,1.1229974829912186
1746476966675595800,1.075595703125,1.1881219893306494,0.26535364869534966,1.113000405111909
1746476966685575700,1.08557568359375,1.2210168354555964,0.7044862397164106,1.2686065618872642
1746476966695554800,1.095554931640625,1.0994915197193622,1.109105735760927,1.2873878347247838
1746476966705534700,1.10553466796875,0.7333318104505538,1.3607441628366708,1.0076321511894464
1746476966715514600,1.1155146484375,0.22479075216054914,1.43691262575984,0.6521417199730872
1746476966725493800,1.12549365234375,-0.4051484883546829,1.4361065700739621,0.3055295917391777
1746476966735473700,1.1354736328125,-0.8754434026196598,1.35084236202538,0.06899871742427349
1746476966745453800,1.145453857421875,-1.0201052637934684,1.2883522958427667,-0.005598550659418106
1746476966755432700,1.1554326171875,-1.1214172280624508,1.1592179664075375,-0.08609189104437827
1746476966765412900,1.165412841796875,-1.1598898743197321,0.7996458188354969,0.12956395302414894
1746476966775392800,1.175392822265625,-0.9705494979858398,0.5161258143305778,0.34597850650548934
1746476966785372000,1.185371826171875,-0.9785501413509249,0.21425942127406597,0.556325722771883
1746476966795351800,1.195351806640625,-1.1602452636286615,-0.059846273675560946,0.8402350188553332
1746476966805331700,1.205331787109375,-0.84895082475245,-0.41189679357111453,1.2232529239445924
1746476966815310600,1.215310546875,-0.5926631105661392,-0.43968613325059414,1.2741045747816562
1746476966825290800,1.225290771484375,-0.509555203768611,-0.8900134875029325,1.8645313045978544
1746476966835270700,1.235270751953125,0.004176408901810646,-0.6806605429708957,1.983940943354368
1746476966845249500,1.24524951171875,0.26183950309455395,-0.5254506920367479,1.921834323531389
1746476966855229700,1.255229736328125,0.6567766862973571,-0.7388011817723512,2.050087778478861
1746476966865209900,1.2652099609375,1.0338117175847292,-0.9956406846225261,1.968521255904436
1746476966875188700,1.275188720703125,1.0296838239997625,-0.8619277952253818,1.1352426320582627
1746476966885169000,1.2851689453125,0.5880573703363537,-0.998600703471899,0.4642319609642028
1746476966895148800,1.295148681640625,-0.0727475485637784,-1.2398749729216099,-0.0617220044195652
1746476966905127700,1.305127685546875,-0.5591942639455199,-1.3897843793600797,-0.3163239574760198
1746476966915107800,1.31510791015625,-0.4379872203782201,-1.7363181816607713,-0.06241875451207161
1746476966925087700,1.325087646484375,-0.3958066595137119,-0.5212368737339973,-1.5070762953102588
1746476966935067600,1.335067626953125,-0.7603793918520212,-0.9113573043048381,-1.3643091618418692
1746476966945046800,1.345046875,-0.5523106419116258,-1.6337304983675478,-0.7910469173163175
1746476966955026700,1.355026611328125,-0.44877106472104783,-1.470818402493,-1.2606295916587114
1746476966965006800,1.3650068359375,-0.5755895184293389,-1.8474837236851454,-1.3205886780589817
1746476966974985700,1.37498583984375,-0.6418538424536585,-2.1137182468682525,-1.3953741621911524
1746476966984966000,1.3849658203125,-0.7020353394329547,-2.4121938284426925,-1.6035498796373604
1746476966994945800,1.39494580078125,-0.6726268741190433,-2.662522926485538,-1.7964321663618086
1746476967004924700,1.404924560546875,-0.559824378542602,-2.7751795838505027,-1.9214386022120713
1746476967014904800,1.41490478515625,-0.5429603375032543,-2.8662147765159607,-1.9567565838307142
1746476967024884700,1.424884765625,-0.5364847117483615,-2.8818998369038105,-2.1216747588306664
1746476967034863600,1.434863525390625,-0.5254068528950214,-2.791800463783741,-2.3352853608071804
1746476967044843800,1.44484375,-0.5470002605438232,-2.7258909445464607,-2.4909306805491447
1746476967054823700,1.45482373046875,-0.6704661889538168,-2.615049812170863,-2.649264800983667
1746476967064802800,1.464802734375,-0.795859578295052,-2.3956471827894448,-2.8257535867899652
1746476967074783000,1.474782958984375,-0.7165741523951291,-2.1765876677572726,-2.98179053619802
1746476967084763100,1.48476318359375,-0.7248685180097818,-2.0266694934904574,-3.0514532704889774
1746476967094741800,1.49474169921875,-0.8848974596634507,-1.8283020533531904,-3.090665921458602
1746476967104722000,1.504721923828125,-1.2629796619161964,-1.8318448405265808,-3.254617881774902
1746476967114702000,1.5147021484375,-1.7772164476297794,-1.8979367305934427,-3.4266789142668244
1746476967124681000,1.524680908203125,-2.2497663012146947,-1.91420455930531,-3.7446231664210554
1746476967134660900,1.534660888671875,-2.6579998961031435,-1.8404945954501628,-4.105855356159806
1746476967144641000,1.54464111328125,-2.7235382439404723,-1.5667705932945013,-4.196791764625907
1746476967154620000,1.554619873046875,-2.5126252104848623,-1.043733976662159,-4.116932630491257
1746476967164599800,1.564599853515625,-2.2605337789446116,-0.7463356689304113,-3.904024623826146
1746476967174580000,1.574580078125,-2.0232458026520908,-0.7167576922684907,-3.6673967188775536
1746476967184558800,1.584558837890625,-1.5900304728507995,-1.1355524286597967,-3.0280624580293893
1746476967194538800,1.594538818359375,-1.3022837905615567,-0.2814683326721191,-3.7896886350721117
1746476967204519000,1.604518798828125,-1.7178519661217926,0.6722831752479076,-4.77790413812995
1746476967214498000,1.614498046875,-2.2580185812532902,0.35277065086364745,-4.398140850922465
1746476967224478000,1.62447802734375,-2.1826830620229245,0.8793313499689102,-4.257645169517398
1746476967234457900,1.634457763671875,-2.1896412105977534,1.442248141568899,-4.152904107582569
1746476967244437000,1.64443701171875,-2.4399349450662733,1.3691355590850114,-3.7402357451170682
1746476967254417000,1.6544169921875,-2.5531492363139985,1.0983528710782526,-3.4669530569881197
1746476967264396800,1.664396728515625,-2.6054981399714947,0.6972685634225606,-3.2708114762067795
1746476967274376000,1.6743759765625,-2.6661522228986025,0.2821165674477815,-3.0509441519230602
1746476967284355800,1.68435595703125,-2.694620192492008,-0.04622749816775322,-2.6290380055129527
1746476967294335700,1.694335693359375,-2.460093643736839,-0.18889409387111664,-2.1200357594519854
1746476967304315000,1.70431494140625,-2.047907804091275,-0.12826397634148598,-1.5361954222887753
1746476967314294800,1.714294677734375,-1.6599956972196697,0.0004068272352218628,-0.8274971178352832
1746476967324275000,1.72427490234375,-1.2917277636252342,0.06550269200205802,-0.2332891159147024
1746476967334254000,1.734254150390625,-0.9097637515030801,0.06606617110371589,0.1793096884459257
1746476967344234000,1.74423388671875,-0.5598806387744844,-0.0007364975810050964,0.570109917974472
1746476967354214000,1.7542138671875,-0.21673647891208528,-0.1678992366373539,0.859986013507843
1746476967364193800,1.76419384765625,0.16580211822763086,-0.3152817549467087,1.0376391669183969
1746476967374173000,1.7741728515625,0.5612479816049337,-0.3914671690046787,1.017761331015825
1746476967384152800,1.78415283203125,0.8435907590240239,-0.4186959521919489,0.8866934031695127
1746476967394132700,1.7941328125,0.964760100929439,-0.3386334044396877,0.7704629789710045
1746476967404112000,1.80411181640625,0.9242422125801444,-0.18748598063886165,0.6632488049209118
1746476967414091800,1.814091796875,0.74380176653862,0.010170096358656882,0.5555114837795496
1746476967424072000,1.824072021484375,0.42879371396675703,0.14927403114438056,0.4328226772218942
1746476967434051000,1.834051025390625,0.035037411111593246,0.2140396410435438,0.2799941684663296
1746476967444031000,1.844031005859375,-0.38647944371998305,0.2571668351083994,0.45780046661198137
1746476967454011000,1.854010986328125,-0.6287056070670485,0.3305921368032694,0.6038175417870283
1746476967463990000,1.863989990234375,-0.20949732143878935,0.4536901086837053,0.2718868498563766
1746476967473970000,1.873969970703125,0.19512451269328593,0.502956536155939,0.34914544610381126
1746476967483949800,1.88394970703125,0.32262334988117214,0.735194681712985,0.6252303321719169
1746476967493929000,1.893928955078125,0.33583003745675083,1.1736468892544507,0.9736275902569294
1746476967503908900,1.903908935546875,0.15036781773045657,1.3397124807238578,1.4291811547249555
1746476967513888800,1.913888671875,-0.044083471876382826,1.2544377512812614,1.7508944040238856
1746476967523868000,1.923867919921875,-0.22904431795179842,1.161889231443405,1.9722890840053557
1746476967533848000,1.93384814453125,-0.3762318982109427,1.2099240712940693,2.3304554564327
1746476967543828000,1.943827880859375,-0.328170170353353,1.229409693008661,2.7064006466567516
1746476967553807000,1.95380712890625,-0.13643354653269052,1.433911690378189,2.9554613321989773
1746476967563787000,1.963787109375,-0.006461743360012769,1.6776877135157584,3.1783336835175753
1746476967573767000,1.973766845703125,0.11002484755665064,1.7491805858433245,3.4135160658329724
1746476967583746000,1.98374609375,0.19774872371703386,1.664877916303277,3.5224843900740144
1746476967593726000,1.993725830078125,0.4397749805778265,1.5031091452449559,3.5535423761606215
1746476967603705900,2.003705810546875,0.809666277590394,1.3170137421816586,3.5490304516941307
1746476967613685000,2.01368505859375,1.2150693252280353,1.0838169807255267,3.5711516826093193
1746476967623665000,2.023664794921875,1.5434703817278146,0.8530681969434022,3.6220804903358217
1746476967633644800,2.033644775390625,1.8128236214533446,0.6737544168442487,3.639195291265845
1746476967643624000,2.0436240234375,1.9902721922025084,0.5093599734574557,3.669514441683888
1746476967653604000,2.05360400390625,2.114096140269935,0.377456763830781,3.6481320464372633
1746476967663584000,2.063583984375,2.158490577791631,0.3024041531950235,3.5707799266874787
1746476967673563000,2.07356298828125,2.1777651871040464,0.23423194972276687,3.4400334858804937
1746476967683543000,2.08354296875,2.1590011576622725,0.2804161932706833,3.239479349353909
1746476967693523000,2.09352294921875,2.1458654894962907,0.4482920490324497,3.0724639098137616
1746476967703501800,2.103501708984375,2.080783360993862,0.5649602801263333,3.0605408323079346
1746476967713482000,2.11348193359375,2.028001326616108,0.7796171762853861,3.013377514594793
1746476967723462000,2.1234619140625,1.9501354121252894,1.062939612391591,2.980878097528219
1746476967733440800,2.133440673828125,1.829415859813988,1.3420043910533188,2.9882869124799964
1746476967743421000,2.1434208984375,1.6261436965003608,1.6594494615137576,2.9659932476073503
1746476967753401000,2.153401123046875,1.3740163168638944,1.9281945062130688,2.9347096360713243
1746476967763380000,2.1633798828125,0.9896385215982794,2.3486714966028925,2.4693565621227025
1746476967773360000,2.173360107421875,0.6587351268887519,1.8168501004904507,2.881312976926565
1746476967783340000,2.183340087890625,0.6724144004121423,1.984222682905197,2.474236150857806
1746476967793319000,2.19331884765625,0.7993287157103419,2.5094670387148854,1.8488713786512612
1746476967803299000,2.203299072265625,0.8786199868291616,2.483171152463555,1.7147049002677202
1746476967813279000,2.213279052734375,0.9651455931156873,2.5653221969276667,1.5810972248107193
1746476967823257900,2.2232578125,0.9976952790647745,2.7162697142422196,1.4356073883801699
1746476967833237800,2.23323779296875,0.9608058103457092,2.903015690168738,1.1733821008384226
1746476967843218000,2.243218017578125,0.8970186900898813,3.090713267731666,0.9285685513466596
1746476967853196800,2.25319677734375,0.778216661837697,3.5448154643476006,0.6730857238024472
1746476967863176700,2.2631767578125,0.512923218896985,4.169335017901659,0.28050387155413625
1746476967873157000,2.2731572265625,0.0413093309879303,4.3794139386206865,0.31366672096550463
1746476967883136000,2.283135986328125,-0.6216571498602629,4.218110446986556,0.5402858575969934
1746476967893116000,2.293115966796875,-1.5563630349181592,3.872789527606964,0.35383857235610483
1746476967903096000,2.303095947265625,-2.336056345179677,2.1598814476281403,0.8525953187346458
1746476967913075000,2.313074951171875,-2.7103800716817377,0.9690975456118583,0.5945984625428915
1746476967923054800,2.323054931640625,-2.723962606832385,0.22286416801214218,-0.20789339337348936
1746476967933035000,2.333034912109375,-2.3038614640176296,-0.6298351956188678,-0.6096545773774386
1746476967943014000,2.343013916015625,-1.5609711132355033,-0.8466729429483413,-1.1244412520587443
1746476967952993800,2.352993896484375,-0.7552274159163236,-0.7217249592870474,-1.4721896908462047
1746476967962974000,2.362973876953125,0.07420680746138096,-0.5710954218804836,-1.418633457225561
1746476967972952800,2.372952880859375,0.6387522231765091,-0.19717676904797554,-1.3122428745180368
1746476967982933000,2.38293310546875,0.7658148609042167,0.2342477318137884,-1.293862583696842
1746476967992913000,2.392912841796875,0.5898895541995763,0.40679742460548873,-1.3927964206576346
1746476968002892000,2.40289208984375,0.16332783706858753,0.5249035795480013,-1.5213707781225443
1746476968012872000,2.412871826171875,-0.350763841085881,0.5034685773313046,-1.7038427299916743
1746476968022851800,2.422851806640625,-0.7231587914824485,0.4520616306990385,-1.5651754330575465
1746476968032831000,2.4328310546875,-0.921018282097578,0.3561328207731247,-1.3354004627436398
1746476968042811000,2.442810791015625,-1.1392125586025417,0.18031214348673819,-1.444547650682926
1746476968052790800,2.452790771484375,-1.3595944082796574,-0.14259177690148353,-1.3766957652062177
1746476968062770700,2.462770751953125,-1.5544957797415553,-0.5434042818784713,-1.1697416985094546
1746476968072750600,2.47275048828125,-1.6758242577314375,-0.9889619375109672,-0.9337105904102325
1746476968082730800,2.482730712890625,-1.6122247690021991,-1.3655728981673716,-0.7787748802423476
1746476968092710000,2.4927099609375,-1.3853046035975216,-1.6113041470259426,-0.698608872115612
1746476968102689800,2.502689697265625,-1.1205090271763503,-1.7526123138576746,-0.5770511154145002
1746476968112669700,2.512669677734375,-0.7552676017962395,-1.8115894034832716,-0.4629705627262592
1746476968122648800,2.52264892578125,-0.4132360793508589,-1.813423633173108,-0.40843700850605963
1746476968132628700,2.532628662109375,-0.08922010606750845,-1.7523311588287354,-0.43122751698493955
1746476968142608600,2.542608642578125,0.19860650959014892,-1.694546493858099,-0.4288037969693541
1746476968152587800,2.552587890625,0.4404430890977382,-1.649351261347532,-0.4583285821393132
1746476968162567700,2.562567626953125,0.5977585340090096,-1.5936948405772446,-0.5097095175474882
1746476968172547600,2.572547607421875,0.6271430339254439,-1.4950368979483841,-0.6009232816502451
1746476968182526500,2.5825263671875,0.5118897841960192,-1.406175542190671,-0.7012211004406214
1746476968192507000,2.5925068359375,0.27425708611905575,-1.3426929578393696,-0.7498769947990774
1746476968202486800,2.60248681640625,-0.018529343903064727,-1.3122493042588232,-0.9019441637933254
1746476968212465700,2.612465576171875,-0.25165990825518963,-1.353610073173046,-1.060509754896164
1746476968222445800,2.62244580078125,-0.4486689195208251,-1.3936147513031958,-1.201569207663834
1746476968232425700,2.63242578125,-0.673332392039895,-1.3945312816262245,-1.2717203099936245
1746476968242404600,2.642404541015625,-0.8942517826598138,-1.4776099623292684,-1.2777616359844803
1746476968252384800,2.652384765625,-0.9880102628093212,-1.6048399194478988,-1.348140117329359
1746476968262364700,2.66236474609375,-1.0097099803768097,-1.801868219935894,-1.445762287169695
1746476968272343600,2.672343505859375,-0.9974509489148855,-1.9932085379153488,-1.5322349942252038
1746476968282323700,2.68232373046875,-0.9558768295109271,-2.1496751109123227,-1.6383765706077218
1746476968292304000,2.692303955078125,-0.8868442098170518,-2.245492861679196,-1.7728496307224033
1746476968302282500,2.702282470703125,-0.7369811267383396,-2.330817275482416,-2.0018015942156313
1746476968312262700,2.7122626953125,-0.44702728979364037,-2.2977520412266252,-2.286631512275338
1746476968322242800,2.722242919921875,-0.17454868458919226,-2.2038304794698953,-2.546447985109687
1746476968332221700,2.7322216796875,0.08250877186059952,-2.0488848324298856,-2.7871403630182146
1746476968342201600,2.74220166015625,0.3360154039610177,-1.8909902724564074,-3.0211209683284164
1746476968352181800,2.752181640625,0.5566885647349059,-1.7663596841812133,-3.2177614385426043
1746476968362160600,2.76216064453125,0.7494149302452803,-1.6226210753321646,-3.3728266203090547
1746476968372140500,2.772140625,0.9229920663885771,-1.6334966896116732,-3.5066125749424097
1746476968382120700,2.78212060546875,0.9905291137624531,-1.6209727236032485,-3.6734284002572295
1746476968392099600,2.792099609375,0.8615864344418048,-1.5609382338792084,-3.8526889888644216
1746476968402079500,2.80207958984375,0.5994143383920192,-1.453997616073489,-4.019654744043946
1746476968412060000,2.812059814453125,0.336842429369688,-1.189867956215143,-4.162139845700562
1746476968422038800,2.822038818359375,0.12257833192050456,-0.8169611107736825,-4.176332913964987
1746476968432018700,2.832018798828125,-0.15766951904594897,-0.48956397061944007,-4.105338346548378
1746476968441998800,2.841998779296875,-0.5040975228846073,-0.22377193050682542,-3.9618803082063794
1746476968451977700,2.851977783203125,-0.839877291458845,0.12480594484210014,-3.9036192578956483
1746476968461957600,2.86195751953125,-1.1092162834633141,0.6576894172281026,-3.8383682025671004
1746476968471937500,2.8719375,-1.3490209918171168,1.2571768208563328,-3.7641765926748514
1746476968481916700,2.881916748046875,-1.4858283400982617,1.9297896664500236,-3.6749507875189185
1746476968491896600,2.891896484375,-1.6328046156942844,2.543275200292468,-3.627261107844114
1746476968501876500,2.90187646484375,-1.6869599842518568,2.939612605682015,-3.548513149821758
1746476968511855600,2.911855712890625,-1.715551872485876,3.169780374705791,-3.5248692393839356
1746476968521835500,2.92183544921875,-1.7252660417705774,3.1288860542595383,-3.2964667264670133
1746476968531815700,2.931815673828125,-1.6963175951838492,2.698846285754442,-2.940981555947661
1746476968541794800,2.941794921875,-1.7785335215777158,2.01784321295619,-2.61639830417037
1746476968551774700,2.951774658203125,-1.9498457815289496,1.320994920772314,-2.2546797922194
1746476968561754600,2.961754638671875,-2.1583646133244034,0.7047071889907122,-1.878169369328022
1746476968571733800,2.971733642578125,-2.285902613478899,0.2837263407319784,-1.4749112247645855
1746476968581713700,2.981713623046875,-2.304278812646866,0.034085809475183484,-1.0505892493844031
1746476968591693600,2.991693603515625,-2.2204279785275456,-0.06580196720957755,-0.6491057132780551
1746476968601672700,3.001672607421875,-1.9406395617663859,-0.0786748927861452,-0.2464741761803627
1746476968611652600,3.011652587890625,-1.3290484633684156,0.008444587740302085,0.24220833542943
1746476968621632500,3.021632568359375,-0.708567956072092,0.14890753591954708,0.7836492082804442
1746476968631611600,3.031611572265625,-0.22477263198196887,0.17441431761980056,1.199019815441966
1746476968641591800,3.041591796875,0.15117913411334155,0.266371301305294,1.355428520771861
1746476968651571700,3.05157177734375,0.546771785550192,0.3284603854715824,1.4105378290534019
1746476968661550800,3.06155078125,0.9409165762662887,0.23238135342001914,1.4022230051726101
1746476968671530800,3.07153076171875,1.1977871318418531,0.18164894504845142,1.3495190044671297
1746476968681510700,3.0815107421875,1.2257956672299652,0.14174480468332767,1.3132190260738135
1746476968691489800,3.09148974609375,1.1017595377165823,0.06296937413215636,1.3790864597350359
1746476968701469700,3.1014697265625,0.9718547353655099,-0.09721826521456241,1.4396359132438896
1746476968711449600,3.11144970703125,0.756720942409709,-0.17175182041227816,1.4298919333428144
1746476968721428700,3.1214287109375,0.42250893460884686,-0.19413374809026718,1.3699258326798676
1746476968731408600,3.13140869140625,0.15548698737509548,-0.20304127716720102,1.3353829270869493
1746476968741388800,3.141388916015625,-0.0842301888257265,-0.1277098495900631,1.3437380829781294
1746476968751367700,3.15136767578125,-0.25670097116231916,-0.021355507239699364,1.4069032719433308
1746476968761347800,3.161347900390625,-0.336305253753066,0.055552375873923296,1.5281939021408557
1746476968771327700,3.17132763671875,-0.3439158018220216,0.056011225557327265,1.6803285834133623
1746476968781306600,3.181306640625,-0.39582368371374904,0.07776303863823414,1.8132365861684083
1746476968791286800,3.191286865234375,-0.4588135161120444,0.15093991852998734,2.005483497598767
1746476968801266700,3.2012666015625,-0.4778898994386196,0.1992962454199791,2.2342186034709215
1746476968811245600,3.21124560546875,-0.49313181916885074,0.26211422838270665,2.5080612635701893
1746476968821225700,3.221225830078125,-0.5326537552833557,0.3585930734068155,2.785453725105524
1746476968831205600,3.23120556640625,-0.5271791232645512,0.4727776709914207,3.0681226657390592
1746476968841184500,3.2411845703125,-0.4148386922419071,0.6179588798642158,3.361125368860364
1746476968851164700,3.25116455078125,-0.30025077455341814,0.8090133666396141,3.663995970523357
1746476968861144800,3.261144775390625,-0.2487229049552232,0.9414835624992847,3.900764160725474
1746476968871123700,3.271123779296875,-0.20979886166863143,1.0236948127180336,3.9940497626662252
1746476968881104000,3.281103759765625,-0.18223229789435863,1.085496896636486,4.0242327194839715
1746476968891083800,3.291083740234375,-0.09278707783408463,1.146204755577445,4.086100269854069
1746476968901062700,3.301062744140625,0.016474749460816382,1.137107256886363,4.214243250164389
1746476968911042800,3.311042724609375,0.052664326282218094,0.9865917012482881,4.2143163154006
1746476968921022700,3.321022705078125,0.06888890037424862,0.7664327005416154,4.084058534893393
1746476968931001600,3.331001708984375,0.13643851496875287,0.5515922645092011,3.9322558620542285
1746476968940981500,3.3409814453125,0.2126023017168045,0.47478959533572196,3.6894261798560617
1746476968950961700,3.350961669921875,0.4116145425636321,0.5326806432902813,3.5275510258138176
1746476968960940500,3.3609404296875,0.6277671571731567,0.7091361113488673,3.438073583984375
1746476968970920700,3.370920654296875,0.7701794127892703,0.9416793773323296,3.3412282437354324
1746476968980900900,3.38090087890625,0.7738737372625619,1.1823989355087279,3.161082104465365
1746476968990879700,3.390879638671875,0.6843541367918252,1.348278064495325,2.9715239937275646
1746476969000859600,3.400859619140625,0.5858721352517604,1.5560598141878843,2.6464514971286057
1746476969010839800,3.41083984375,0.501613889375329,1.754981965598464,2.3129718221902844
1746476969020818700,3.420818603515625,0.4036328230947256,1.9441630597174167,2.102106719529629
1746476969030798600,3.430798583984375,0.3763912534911185,2.139485725331306,2.005325092166662
1746476969040778800,3.44077880859375,0.36009522159807383,2.2931237969040867,1.888592563664913
1746476969050757600,3.450757568359375,0.33358130868189034,2.4465870964318515,1.7193670468598603
1746476969060737500,3.460737548828125,0.3533591913413256,2.5920325091987846,1.521171456158161
1746476969070717000,3.470717041015625,0.39393677398860455,2.5793472151488066,1.3332272103577851
1746476969080695800,3.48069580078125,0.45111412071585655,2.4413854361355303,1.2375409770160912
1746476969090675700,3.49067578125,0.4512877237170934,2.261206563639641,1.146167346176505
1746476969100656000,3.50065625,0.5248849479127675,2.2463170375436543,0.955345499113202
1746476969110635000,3.510635009765625,0.6415123355396092,2.3999685531198978,0.7152835280627012
1746476969120615000,3.520614990234375,0.7549708838719874,2.8154771074473857,0.5483417382806539
1746476969130595000,3.530594970703125,0.832050616421178,3.413379287710786,0.5776110873848199
1746476969140574000,3.540573974609375,0.7261468673825263,3.8778953263133764,0.7458604526340961
1746476969150553900,3.550553955078125,0.4042991780489683,4.138947478422522,1.018108537018299
1746476969160534000,3.560533935546875,-0.1300713180243969,3.937147141227126,1.4439859251469374
1746476969170513000,3.570512939453125,-0.7717897705953568,3.15823840547204,1.776229920810461
1746476969180492800,3.580492919921875,-1.4018307909846306,2.0262866316527126,1.6837877839565276
1746476969190472000,3.590471923828125,-1.6876228320747613,0.9629571431607007,1.2814917624235151
1746476969200451800,3.600451904296875,-1.5176339296817778,0.21922376568317412,0.6731926913082599
1746476969210431700,3.610431640625,-1.0243297496207058,-0.1499216813981533,0.07270517072677612
1746476969220411000,3.620410888671875,-0.337390710902214,-0.24111352593004703,-0.3322697146266699
1746476969230391000,3.63039111328125,0.38943946256935597,-0.14034136762619018,-0.5978495732933282
1746476969240371000,3.640370849609375,0.9922358446151017,0.1286205346941948,-0.7414987502932548
1746476969250350000,3.65035009765625,1.464281694200635,0.4564297627806663,-0.854478648263216
1746476969260330000,3.660330078125,1.680934586482495,0.6758616182565689,-1.0174468582391738
1746476969270310000,3.670309814453125,1.6779560090631245,0.7767085953623056,-1.2176730779856442
1746476969280289000,3.6802890625,1.398767311760783,0.8140624667227268,-1.5040285981774328
1746476969290269000,3.69026904296875,0.8101496771931648,0.8202677511036396,-1.692647382238507
1746476969300248800,3.700248779296875,0.18472301873154937,0.787728002026677,-1.7133032167762516
1746476969310228000,3.71022802734375,-0.34955000831671057,0.7255553312301636,-1.6809376552224158
1746476969320208000,3.720207763671875,-0.8983593641091138,0.5347521888673306,-1.4116560194283723
1746476969330188000,3.73018798828125,-1.3628449345082043,0.156487031263113,-1.0938672500967979
1746476969340167200,3.740167236328125,-1.6821441084027289,-0.2873082908719778,-0.8356593815028667
1746476969350147000,3.75014697265625,-1.8710545688867568,-0.7417448340088129,-0.7202963877886533
1746476969360127000,3.760126953125,-1.8379717989742754,-1.1783236488938331,-0.7164128243535757
1746476969370105900,3.77010595703125,-1.5633382807582616,-1.4957073445558546,-0.7268798578321933
1746476969380086000,3.7800859375,-1.1849241431374102,-1.7453998982608316,-0.6675824502110481
1746476969390066000,3.79006591796875,-0.7580342900305986,-1.9979297212183473,-0.6238160814598203
1746476969400044800,3.800044921875,-0.36504385698139663,-2.167215443778038,-0.7262894907236099
1746476969410025000,3.81002490234375,-0.039474443710967894,-2.3123954836070535,-0.8296808916151523
1746476969420004900,3.8200048828125,0.25400983238220215,-2.385893266016245,-0.9934858446761965
1746476969429983700,3.829983642578125,0.5170020857084542,-2.3615765708833933,-1.210888824672997
1746476969439964000,3.8399638671875,0.7359989838331937,-2.36307470048666,-1.3998764420464633
1746476969449944000,3.849944091796875,0.8446288699001073,-2.3341116408526896,-1.7014143338009715
1746476969459923000,3.8599228515625,0.8458937752693891,-2.330373038846254,-2.005390266357362
1746476969469903000,3.869903076171875,0.7907943307947367,-2.350772852796316,-2.2763711072847244
1746476969479883000,3.879883056640625,0.6204687437932938,-2.3353818069189787,-2.499040629507601
1746476969489862000,3.88986181640625,0.41264096300192177,-2.278992980220914,-2.6347996377795933
1746476969499842000,3.899842041015625,0.15221877935938535,-2.2215075904577968,-2.7516908639743924
1746476969509822000,3.909822021484375,-0.1307072778403759,-2.178161200684309,-2.8666648583710193
1746476969519800800,3.91980078125,-0.37993345614261925,-2.154700830119848,-2.9863290564104914
1746476969529781000,3.929781005859375,-0.6095967097103595,-2.1898633289158345,-3.0182313843667505
1746476969539761000,3.939760986328125,-0.8146048299711197,-2.257510631731152,-2.978734655758738
1746476969549739800,3.94973974609375,-0.9758107795149087,-2.322788282805681,-2.934941399000585
1746476969559720000,3.959719970703125,-1.0883305856924503,-2.3818460364520546,-2.9055533919528127
1746476969569700000,3.9697001953125,-1.172872397750616,-2.3759961413800714,-2.9211902292847634
1746476969579679000,3.979678955078125,-1.1651835968136788,-2.3003706992924213,-2.9253800821900366
1746476969589659000,3.989658935546875,-1.0994435889244079,-2.139855727687478,-2.8602281033217904
1746476969599639000,3.99963916015625,-0.9491022208094596,-1.9910043058693407,-2.812318643416464
1746476969609618000,4.009617919921875,-0.7410901694923638,-1.846491790038347,-2.8914278359666463
1746476969619597800,4.019597900390625,-0.5455798723518848,-1.6512988882839679,-3.0653757051184773
1746476969629578000,4.029577880859375,-0.3784744164407253,-1.3762871844053268,-3.2493466633737085
1746476969639556900,4.039556884765625,-0.22669804708659647,-1.0089186838686466,-3.4421398105099796
1746476969649536800,4.049536865234375,-0.20195402991976588,-0.6759177323579788,-3.630957916535437
1746476969659517000,4.059516845703125,-0.3117769251635298,-0.4553063117086887,-3.744594524848461
1746476969669495800,4.069495849609375,-0.5169581369688734,-0.3159270671129227,-3.910167948886752
1746476969679476000,4.07947607421875,-0.7307125678628683,-0.22806816639602184,-4.044140073741972
1746476969689455000,4.089455078125,-1.030149103423953,-0.15249416223466394,-4.150024752753973
1746476969699435000,4.09943505859375,-1.3351713301628827,-0.09477730180323124,-4.192352613134682
1746476969709415000,4.109414794921875,-1.5808838743209839,-0.06926175227463245,-4.080685551328957
1746476969719394000,4.11939404296875,-1.80760121062994,0.07940963680148125,-3.7994784999415274
1746476969729374000,4.1293740234375,-1.9149311200141905,0.3495610411673784,-3.521185582435131
1746476969739353900,4.139353759765625,-1.9787632484555244,0.7573392935037613,-3.271613732500374
1746476969749333000,4.1493330078125,-1.9574492422699927,1.2838543999016285,-3.05476809412539
1746476969759313000,4.15931298828125,-1.8317372884988783,1.800560644468665,-2.7928105176091194
1746476969769292800,4.169292724609375,-1.6667156531244516,2.1257050372600554,-2.384838496266305
1746476969779272000,4.17927197265625,-1.4541197811484337,2.224420263034105,-2.0077055575624105
1746476969789252000,4.189252197265625,-1.3790753538191318,2.0754227107435463,-1.7929302957206963
1746476969799232000,4.19923193359375,-1.3613298537701368,1.6170283698916434,-1.7005583014935255
1746476969809211100,4.209211181640625,-1.4617314251959324,1.0122855299532414,-1.6937082894682882
1746476969819191000,4.21919091796875,-1.5615753627389668,0.4237140726149082,-1.6896008541494607
1746476969829171000,4.2291708984375,-1.5958943964481354,0.006890928557515144,-1.5746102008789777
1746476969839149800,4.23914990234375,-1.6019330920904873,-0.19038871634304522,-1.3228496087282895
1746476969849130000,4.2491298828125,-1.5873931100845335,-0.14792086296975612,-0.8963409369587898
1746476969859110000,4.25910986328125,-1.5192700064510105,0.06163607970178127,-0.3803963244140148
1746476969869088800,4.2690888671875,-1.3728455195188523,0.24538228929042816,0.08003390617966652
1746476969879069000,4.27906884765625,-1.0351298875112085,0.4590577731966972,0.40125498804748055
1746476969889048800,4.289048828125,-0.5812877300709486,0.5955839664489031,0.6216466284662485
1746476969899027700,4.29902783203125,-0.11497545570135116,0.6594979279547929,0.7402467044055462
1746476969909008100,4.309008056640625,0.27886019600033757,0.6503291175931691,0.7911614836066961
1746476969918988000,4.318988037109375,0.6670504622261971,0.6977431951969861,0.788684864360094
1746476969928967000,4.328966796875,0.9574375029563903,0.7464455590456723,0.8112111689448356
1746476969938947000,4.338947021484375,1.0941641872167587,0.8078028218060731,0.9006693215519189
1746476969948927000,4.348927001953125,1.0306249042421578,0.8554828568696975,1.0401964501857757
1746476969958905900,4.35890576171875,0.70268525470905,0.8661065422147511,1.111497014811635
1746476969968886000,4.368885986328125,0.17187464307434855,0.7410176887780427,1.1013210732340812
1746476969978865000,4.378864990234375,-0.348521176725626,0.5972545300096274,1.1088403628230095
1746476969988844800,4.3888447265625,-0.6996230175942182,0.44002047977149483,1.165744153305888
1746476969998825000,4.398824951171875,-0.9552565787207334,0.37529812449216843,1.3089391567975281
1746476970008803800,4.408803955078125,-1.0835194590836763,0.35350948653221126,1.5314461819350718
1746476970018784000,4.418783935546875,-1.0207727147262542,0.40737551675438877,1.8231114989727735
1746476970028764000,4.428763916015625,-0.8769038305610418,0.45591012282073495,2.123931597846746
1746476970038743000,4.438742919921875,-0.6058358228068799,0.46096799073219297,2.4024212069690227
1746476970048723000,4.448722900390625,-0.26731238154768944,0.512005519530177,2.5922692405641077
1746476970058702800,4.458702880859375,0.0518663808375597,0.5664017111063003,2.844980849829316
1746476970068681700,4.468681640625,0.2907517093241215,0.6372936949312686,3.063378686082363
1746476970078662000,4.478661865234375,0.5235831445991993,0.6729974609971046,3.2326264147192236
1746476970088641800,4.488641845703125,0.770331461545825,0.6916963162481784,3.3123651373445986
1746476970098621000,4.498620849609375,0.932277342736721,0.6988403427839279,3.3292607425659893
1746476970108600800,4.508600830078125,0.9598356501393019,0.7643915501028299,3.3513732056528327
1746476970118580700,4.518580810546875,0.9864794730454682,0.8091080591857432,3.351798153066635
1746476970128559900,4.528559814453125,0.9131644998572767,0.8725614174425601,3.330289501091838
1746476970138539800,4.538539794921875,0.7959970870696008,0.9074187958121299,3.3177234495073553
1746476970148519700,4.548519775390625,0.7283551910817623,0.8985223726511001,3.318793124565482
1746476970158498800,4.558498779296875,0.6703349637895822,0.8539274441212416,3.2954023121058937
1746476970168478700,4.568478759765625,0.5581716428995133,0.7819394817531108,3.293145473089814
1746476970178458600,4.578458740234375,0.4739572361648082,0.6774275523990392,3.3065538207173346
1746476970188437800,4.588437744140625,0.37769451810941096,0.5569108291834592,3.357255249428749
1746476970198418000,4.59841796875,0.3305302505481988,0.5079758256226777,3.4126731852680443
1746476970208397800,4.608397705078125,0.33232012963965535,0.578109100034833,3.449918335556984
1746476970218377000,4.618376953125,0.4269728552151471,0.7597112833321094,3.441740289798379
1746476970228356900,4.62835693359375,0.501009493741393,1.0420938082396984,3.420116487011313
1746476970238336800,4.638336669921875,0.5435626873105764,1.302726858153939,3.4330180541604753
1746476970248316000,4.64831591796875,0.5422855800468475,1.4881196659058331,3.3744103823691605
1746476970258295800,4.6582958984375,0.4807506226319819,1.6565332818061111,3.282736891800165
1746476970268274700,4.668274658203125,0.43067054068930444,1.7421458649009465,3.137979461297393
1746476970278254800,4.6782548828125,0.43715325377210973,1.8594173225849866,2.96327054464519
1746476970288234800,4.68823486328125,0.4733663575995713,1.980330351641774,2.907840918368101
1746476970298213600,4.698213623046875,0.42493696547336873,2.0789625753074885,2.9111241778224706
1746476970308194000,4.708194091796875,0.3549028405867517,2.1581594461411235,2.8623206916868686
1746476970318174000,4.718174072265625,0.3563536239169538,2.3357290129214525,2.6137849068015813
1746476970328152800,4.72815283203125,0.40732875500321386,2.56872879050076,2.351711010429263
1746476970338132700,4.7381328125,0.4495147226952016,2.6724790878325697,2.2429928615570067
1746476970348113000,4.74811279296875,0.42914661905765533,2.7212159384727475,2.1143711578190327
1746476970358091800,4.758091796875,0.3534300646204501,2.7214590995788575,1.7984253860056398
1746476970368071700,4.76807177734375,0.3381178561329841,2.832354592490196,1.3488614173412323
1746476970378051800,4.7780517578125,0.3065916680127382,3.1128099487274885,0.9123954151809215
1746476970388030700,4.78803076171875,0.358210284634307,3.599039806488156,0.49854105780124663
1746476970398010600,4.7980107421875,0.4075366986654699,4.118357694858313,0.2059972043633461
1746476970407990800,4.80799072265625,0.36551505468972023,4.431662596774101,0.1537467926442623
1746476970417969700,4.8179697265625,0.19357772164270282,4.392888921743631,0.3024456542491913
1746476970427949800,4.82794970703125,-0.2331400628328323,3.7859687377661464,0.6305027196168899
1746476970437930000,4.837929931640625,-0.7660042459964752,2.792688352534175,0.708666740271449
1746476970447908900,4.847908935546875,-1.210885025280714,1.6611948438763617,0.4409662361890077
1746476970457888800,4.857888671875,-1.413163501381874,0.6935843219518661,0.06362403864860534
1746476970467869000,4.867868896484375,-1.3233880995191634,0.09789689512848854,-0.4356435798615217
1746476970477847800,4.877847900390625,-0.9671348672367632,-0.27259704395234585,-0.7590075189769268
1746476970487827700,4.88782763671875,-0.3909971403401345,-0.45035541130304335,-0.9710685534238814
1746476970497807600,4.8978076171875,0.25831775870919227,-0.4315121791452169,-1.1227817944139242
1746476970507786800,4.907786865234375,0.8054331700652837,-0.37833705379664895,-1.1641788036853074
1746476970517766700,4.9177666015625,1.1811539038836956,-0.3537526476383209,-1.2280389891773462
1746476970527745800,4.927745849609375,1.4293763850361108,-0.33474691839516163,-1.3951239868223666
1746476970537726000,4.937725830078125,1.4939011719167232,-0.30417934617400166,-1.628267556786537
1746476970547705900,4.947705810546875,1.290386432018876,-0.26596856572329997,-1.9268910223990678
1746476970557685000,4.95768505859375,0.9628731181390583,-0.23100538889169692,-2.151948316541314
1746476970567665000,4.967664794921875,0.5475656393416226,-0.14920096590816972,-2.297151737245917
1746476970577644800,4.977644775390625,0.13077522851005197,-0.1448591373115778,-2.2257722621649503
1746476970587624000,4.9876240234375,-0.13923077603578568,-0.24549451749324797,-1.9166221418410538
1746476970597603800,4.997603759765625,-0.3249386410862207,-0.4443658154994249,-1.5154150845885277
1746476970607583700,5.007583740234375,-0.5552227299660444,-0.7232406245470047,-1.1206120491594076
1746476970617563000,5.01756298828125,-0.6968349212456494,-1.0953256322115659,-0.7859884648829698
1746476970627542800,5.027542724609375,-0.7138537875205277,-1.3725970977157353,-0.6196218446403742
1746476970637522700,5.037522705078125,-0.6182423729807138,-1.6445505830675362,-0.45735769128054377
1746476970647501800,5.047501708984375,-0.4085673568874597,-1.8382979621887205,-0.33642361943572757
1746476970657482000,5.05748193359375,-0.20209953933767974,-1.9026257651925085,-0.39770694017708297
1746476970667462000,5.0674619140625,0.06906710648536682,-1.9502941098183393,-0.45550651045590634
1746476970677440800,5.077440673828125,0.3906126710671931,-1.9151777882516383,-0.558427663487196
1746476970687421000,5.0874208984375,0.66593760561347,-1.8228578164726494,-0.6138160809710621
1746476970697400800,5.09740087890625,0.9072159667164087,-1.7011469150364398,-0.631776392814517
1746476970707379700,5.107379638671875,0.9904149127982557,-1.5735422793865204,-0.724664812131226
1746476970717359900,5.11735986328125,1.020042719951272,-1.5552198562324047,-0.935500104175508
1746476970727338800,5.1273388671875,0.9730272862762213,-1.572047072392702,-1.241539691263437
1746476970737318700,5.137318603515625,0.8257786234796046,-1.5384516767829655,-1.5256144070416688
1746476970747298800,5.147298828125,0.6640642129570246,-1.5357377416491507,-1.6923899003461003
1746476970757277700,5.157277587890625,0.4771175998918712,-1.5751859549403189,-1.849186728210747
1746476970767257600,5.167257568359375,0.2628741799045354,-1.6075240439653395,-2.021160959202051
1746476970777238000,5.177238037109375,0.09237140970528125,-1.6862632341593502,-2.177345500387251
1746476970787217000,5.187216796875,-0.04470956788547337,-1.7694295931458472,-2.263046346287429
1746476970797196800,5.19719677734375,-0.18825404240190982,-1.8495798191815613,-2.2794240651145574
1746476970807176700,5.2071767578125,-0.277552036011219,-1.9541519542902708,-2.236473688921332
1746476970817155800,5.21715576171875,-0.36839419032260773,-2.138430078798532,-2.248173186804354
1746476970827135700,5.2271357421875,-0.35021680166237057,-2.36812906126678,-2.3326044511601327
1746476970837115600,5.23711572265625,-0.22300503778755665,-2.4510031593084336,-2.4308611195117233
1746476970847094800,5.2470947265625,-0.05033785609602928,-2.3860201072663068,-2.5008918103322384
1746476970857074700,5.25707470703125,0.1374175891339779,-2.1893723305284976,-2.502856388403475
1746476970867054600,5.2670546875,0.28844701257832345,-1.9263024088561533,-2.462391399285197
1746476970877033700,5.27703369140625,0.30954759520888325,-1.7686001565843819,-2.4608801179394124
1746476970887014000,5.287013916015625,0.32316125615015623,-1.7083721901148556,-2.5769115124344824
1746476970896993800,5.296993896484375,0.3579805675316602,-1.616092550346255,-2.7823431918695567
1746476970906973000,5.306972900390625,0.36113464764840897,-1.4843167664915322,-2.9760487776756284
1746476970916952800,5.316952880859375,0.2062983062017709,-1.2549842792481183,-3.0143150877058504
1746476970926932000,5.326931884765625,-0.04049618797414004,-1.1122627384871244,-2.973554038250446
1746476970936912000,5.336911865234375,-0.429011009979248,-1.1569500214755535,-2.9820874733179807
1746476970946891800,5.346891845703125,-0.6876683759063482,-1.1946832475423812,-3.174057029111683
1746476970956871000,5.356870849609375,-0.7667477578401565,-1.0360568661630154,-3.4623677750244735
1746476970966850800,5.366850830078125,-0.8608779939115047,-0.6590162819176912,-3.5419480922177433
1746476970976830700,5.376830810546875,-1.0973287887275218,-0.21985504932403563,-3.372608009122312
1746476970986809900,5.386809814453125,-1.391074419170618,0.0807189658343792,-3.1079560789555307
1746476970996789800,5.396789794921875,-1.5992524747043848,0.3988438352525234,-2.9354499330446124
1746476971006770000,5.40677001953125,-1.7044278364032506,0.7039841354131698,-2.8227485597550865
1746476971016748800,5.416748779296875,-1.7343208703637123,1.0571411552459,-2.795567415101826
1746476971026729000,5.42672900390625,-1.6847393855929373,1.4997119040220974,-2.8334117003276944
1746476971036708900,5.436708984375,-1.602060517862439,1.92535723696053,-2.809624289765954
1746476971046687700,5.446687744140625,-1.4690344416856764,2.140443172186613,-2.7795415784522888
1746476971056668000,5.45666796875,-1.3901654876321554,2.1274539267539976,-2.8383760447368025
1746476971066648300,5.4666484375,-1.3451070332437753,1.9501748673528432,-2.9582737592712043
1746476971076627200,5.476627197265625,-1.428794201233983,1.5660568920671938,-2.9216297897458077
1746476971086607000,5.486607177734375,-1.5382470941215753,1.1211614997357129,-2.7933924091503024
1746476971096587300,5.496587158203125,-1.6570061600148678,0.7464169174730777,-2.537038643990457
1746476971106566100,5.506566162109375,-1.800870441070199,0.434165908524394,-2.106725611501932
1746476971116546000,5.516546142578125,-1.9529069226652382,0.24594810647964477,-1.6439491100430488
1746476971126525200,5.526525146484375,-2.003057731756568,0.21238018339872358,-1.161764143759012
1746476971136505000,5.536505126953125,-1.9750030191391705,0.2823041989743709,-0.6210001472562551
1746476971146485000,5.546485107421875,-1.7270131776988504,0.3666296648681164,-0.16749124035835264
1746476971156464000,5.556464111328125,-1.334527187040448,0.47061435547769065,0.13864274701476095
1746476971166444300,5.5664443359375,-0.8465724051833152,0.5316331800639629,0.35416005939543244
1746476971176424200,5.576424072265625,-0.38945926324836905,0.558194439253211,0.5004261408954859
1746476971186403300,5.5864033203125,-0.032591698459908364,0.6164350312978029,0.6407289300769567
1746476971196383200,5.59638330078125,0.32080314871668814,0.6461714133918285,0.7514052272796631
1746476971206363100,5.606363037109375,0.6107705757953226,0.6655155808091163,0.7574947763264179
1746476971216342300,5.61634228515625,0.7493962255448102,0.7053864034265279,0.75614803789258
1746476971226322200,5.626322265625,0.8013910550676285,0.6091039577573537,0.7829343380093574
1746476971236302000,5.636302001953125,0.6191816996574402,0.527018964266777,0.7631663922220469
1746476971246281200,5.64628125,0.27615670919530094,0.45551440150141714,0.7362544198989868
1746476971256261000,5.65626123046875,-0.14087094445824622,0.3448632387399673,0.7801736411243677
1746476971266241000,5.666240966796875,-0.49163785428404805,0.25050971530675886,0.816975139299035
1746476971276220200,5.67622021484375,-0.6898234350483864,0.14683189868927002,0.8386720073223114
1746476971286200300,5.686200439453125,-0.781942331297323,0.07036942125558852,0.9241472277730702
1746476971296179200,5.69617919921875,-0.8075001125324517,0.06981120285093784,1.0604156468719244
1746476971306159400,5.706159423828125,-0.8254466150462627,0.15899872182309627,1.2756722624897956
1746476971316139300,5.71613916015625,-0.8131991278916597,0.20515023214519024,1.5404600939959288
1746476971326118100,5.7261181640625,-0.7450747821491212,0.24961831942498683,1.7305489506095646
1746476971336098300,5.736098388671875,-0.6287772109985351,0.26600305251479145,1.9113684590965507
1746476971346078200,5.746078125,-0.46759522685222327,0.26401392452418804,2.09923262539804
1746476971356057000,5.75605712890625,-0.2902512855213135,0.2866279073923826,2.2937077342718837
1746476971366037200,5.766037353515625,-0.15239303994774817,0.3239852858841419,2.489156656613946
1746476971376017200,5.77601708984375,-0.0008854775976389646,0.4193780892372131,2.674690918663144
1746476971385996000,5.78599609375,0.11721190951652824,0.4827823476552963,2.8704449614316223
1746476971395976200,5.79597607421875,0.20647475874722002,0.5544575908124446,3.0904613387972115
1746476971405956400,5.805956298828125,0.2682207285642624,0.637843145507574,3.3391859242528676
1746476971415935200,5.815935302734375,0.2528343588620424,0.7134171496689319,3.536538634389639
1746476971425915100,5.8259150390625,0.23682898047864437,0.7467033331990242,3.646508244627714
1746476971435894300,5.835894287109375,0.18086736621670424,0.6961001041650772,3.7184015144497153
1746476971445874200,5.845874267578125,0.19785715252757072,0.6598667612671851,3.8553152457147832
1746476971455854000,5.85585400390625,0.17873334986269473,0.5978659399062395,3.9371126544356345
1746476971465833200,5.865833251953125,0.1495172653157264,0.46585225564241406,3.890139306336641
1746476971475813000,5.875813232421875,0.21383556983880697,0.3860913211852312,3.734980893328786
1746476971485793000,5.88579296875,0.37257425248622894,0.45535716511309143,3.6321763524144886
1746476971495772200,5.895772216796875,0.6099434042561799,0.7194476620048285,3.6113890004515645
1746476971505752000,5.905751953125,0.8119593569636344,1.050039214286208,3.6450153757214543
1746476971515732200,5.915732177734375,0.9187200150925665,1.3447224178403616,3.622529403147101
1746476971525711400,5.92571142578125,0.9836902076531201,1.5886708749353884,3.4162218176603316
1746476971535691300,5.935691162109375,0.9700339496791363,1.7546990570038556,3.190253253892064
1746476971545671200,5.945671142578125,0.8855431371558458,1.9441952084213494,2.9496926856696604
1746476971555650300,5.955650390625,0.6959609879553318,2.137554465007782,2.7034628396391867
1746476971565630200,5.965630126953125,0.4648924706995487,2.2373253373146054,2.5431045199006794
1746476971575610000,5.975610107421875,0.16968787361979484,2.1934172220051287,2.4867718073040246
1746476971585589200,5.98558935546875,-0.06225567290484905,2.136543826660514,2.410398761719465
1746476971595569200,5.995569091796875,-0.1597935985278338,2.1861405090004205,2.1339631625175475
1746476971605548000,6.005548095703125,-0.2560158384423703,2.3484411949783564,1.820256694063544
1746476971615528200,6.015528076171875,-0.28527532373964787,2.3759961413800714,1.5254747063100338
1746476971625508000,6.025508056640625,-0.3383335447102785,2.219612570491433,1.2372072150170803
1746476971635487000,6.035487060546875,-0.2904034804083407,2.0431115097254513,0.7730670239895582
1746476971645467400,6.04546728515625,-0.08374488952681422,1.9442320333003997,0.25357261000871656
1746476971655447300,6.055447265625,0.20359423487484454,1.9350708217233419,-0.20024433992505072
1746476971665426200,6.06542626953125,0.5771646587915719,2.0784961268395183,-0.6280956584751606
1746476971675406300,6.07540625,0.9447837730884552,2.3410534228146074,-0.7958411658555269
1746476971685386200,6.08538623046875,1.2026982116937637,2.5457185017913577,-0.7329460260033607
1746476971695365000,6.095365234375,1.1886440404433756,2.574467626413703,-0.5243336707055568
1746476971705345300,6.10534521484375,0.8368851969707757,2.1320476842850447,-0.23590660493671892
1746476971715325200,6.1153251953125,0.3111936819154769,1.3421452608287334,-0.15692659172415732
1746476971725304000,6.125303955078125,-0.1401302090935409,0.6319055721521377,-0.2346615733116865
1746476971735284000,6.135283935546875,-0.4000724271994084,0.08053308787345886,-0.3195627932667732
1746476971745263000,6.14526318359375,-0.42521790130659937,-0.16944178990423678,-0.5901584342688322
1746476971755243300,6.1552431640625,-0.3002490209877491,-0.1938531775832176,-0.7670014403402805
1746476971765223200,6.16522314453125,-0.07792027502655982,-0.028415947145223615,-0.7895902887672186
1746476971775202300,6.175202392578125,0.2736385158292949,0.24270751712322233,-0.6143675773739814
1746476971785182200,6.18518212890625,0.6818101513974368,0.5075198985487223,-0.41779520395994185
1746476971795162000,6.195162109375,0.9455519809819758,0.597531008863449,-0.27068039667606353
1746476971805141200,6.205141357421875,1.0274037502385676,0.5768897873729467,-0.2678916427403688
1746476971815121200,6.21512109375,0.9345384195365011,0.5315115995109081,-0.3300602218836546
1746476971825101000,6.22510107421875,0.6851679373927414,0.4676455687999725,-0.37750937080085273
1746476971835080200,6.235080078125,0.3031190234661102,0.37750001845061776,-0.4864695117354393
1746476971845060000,6.24506005859375,-0.02553016257584095,0.27339257824420926,-0.5533978526264429
1746476971855040000,6.2550400390625,-0.306526786082983,0.0982078607738018,-0.5636135416924953
1746476971865019100,6.26501904296875,-0.5295761744689196,-0.17488661130666733,-0.44655952615141864
1746476971874999300,6.274999267578125,-0.7021259403258562,-0.4711982928454876,-0.31552959222793575
1746476971884978200,6.284978271484375,-0.7283885088294744,-0.8017816618204117,-0.2896773580908775
1746476971894958300,6.294958251953125,-0.6227274094402789,-1.1124649830609559,-0.3031751375675201
1746476971904938200,6.304938232421875,-0.3886141176611185,-1.397404206714034,-0.2678068870663643
1746476971914917000,6.314917236328125,-0.08302329725399613,-1.6062614766836165,-0.20292612635493276
1746476971924897300,6.324897216796875,0.18703648330569267,-1.7217039653748274,-0.22008184381723403
1746476971934877200,6.334877197265625,0.4784552782364189,-1.7693518517345188,-0.2336152791291475
1746476971944856000,6.34485595703125,0.7315123399384319,-1.7736954338967799,-0.3205325150817632
1746476971954836200,6.354836181640625,0.93822836009562,-1.7060510536909101,-0.43415947878360744
1746476971964816100,6.364816162109375,1.0756758329112082,-1.6303753427207468,-0.5239017090290784
1746476971974795000,6.374794921875,1.0847633216649293,-1.562306015101075,-0.6567109275847673
1746476971984775200,6.384775146484375,1.0484025529950856,-1.5131605836600064,-0.8568003692090511
1746476971994755300,6.39475537109375,0.8693752616871148,-1.5407330657184124,-1.1062398249357939
1746476972004734200,6.404734130859375,0.6336457668829709,-1.575433792221546,-1.3161299450844526
1746476972014714400,6.41471435546875,0.3577477086238563,-1.6419950533658265,-1.4662065247833729
1746476972024693200,6.424693359375,0.09098419313058256,-1.7057061857759952,-1.5711094992816448
1746476972034673200,6.434673095703125,-0.13211714463829993,-1.719220331865549,-1.6337556328088043
1746476972044653000,6.444653076171875,-0.31404490662813184,-1.752417668068409,-1.6710592352867126
1746476972054632200,6.454632080078125,-0.4935739369131624,-1.807651479512453,-1.7211270422697067
1746476972064612000,6.464612060546875,-0.5958960280727594,-1.871777622464299,-1.7877262973368166
1746476972074591700,6.474591796875,-0.6280458279840648,-2.0472423259198664,-1.8137398595154284
1746476972084570600,6.484570556640625,-0.6287940890680999,-2.21478792681396,-1.8465543338805437
1746476972094550500,6.494550537109375,-0.5462116674493998,-2.355588728645444,-1.8897966787576674
1746476972104530700,6.50453076171875,-0.36376506921723484,-2.432920974650979,-1.9402549463629721
1746476972114509800,6.514509765625,-0.14456293084397911,-2.342797636133432,-1.997218358078599
1746476972124489700,6.52448974609375,0.10239128393828868,-2.187504198569059,-2.011657217797637
1746476972134469600,6.5344697265625,0.29367146922834214,-1.9606003997772932,-2.038514829584956
1746476972144448800,6.54444873046875,0.5048538942098617,-1.73992000554502,-2.0906933451116085
1746476972154428700,6.5544287109375,0.6796633486270904,-1.5719289989709853,-2.1738789933204647
1746476972164407800,6.56440771484375,0.8356229950152337,-1.391411688300967,-2.2795061904400584
1746476972174387700,6.5743876953125,0.9290342691622674,-1.2008791795730591,-2.3646517405450345
1746476972184367600,6.58436767578125,0.8882925089292227,-1.0389198543787002,-2.381291325178742
1746476972194346800,6.5943466796875,0.6435422339320183,-0.930076617822051,-2.3516186559706926
1746476972204326700,6.60432666015625,0.22467282486930487,-0.874553468042612,-2.3481997874379155
1746476972214306800,6.614306884765625,-0.1387112091410905,-0.7587520829111337,-2.4760166045337915
1746476972224286000,6.624285888671875,-0.4004401645332575,-0.5085463189870119,-2.6344413258612156
1746476972234265900,6.634265869140625,-0.6570242313176393,-0.24028116675913333,-2.6937369799166917
1746476972244245800,6.644245849609375,-0.9109528882224113,-0.056580549877882,-2.6877970684736967
1746476972254225000,6.654224853515625,-1.0251770871650427,0.04001052334904671,-2.7679928872168063
1746476972264204800,6.664204833984375,-0.9949351667016744,0.28526714043319223,-2.8888948103576895
1746476972274184700,6.674184814453125,-0.8668004427630454,0.629195144149661,-2.8970921453386542
1746476972284163800,6.684163818359375,-0.7357354375261813,1.1080547654032706,-2.8727485621988773
1746476972294143700,6.694143798828125,-0.6711574591536075,1.5743927587360143,-2.780777549988031
1746476972304122600,6.70412255859375,-0.6664427055913955,1.8726754480868577,-2.665043384873867
1746476972314102500,6.7141025390625,-0.7354524558663368,1.992284993329644,-2.5499603771448136
1746476972324082700,6.724082763671875,-0.9179144708633422,1.8390905738711356,-2.4241332725614306
1746476972334061600,6.7340615234375,-1.1303332327067852,1.441046949085593,-2.3874901798188684
1746476972344041700,6.744041748046875,-1.3815098874896763,0.9367191245764493,-2.3847791672945022
1746476972354022000,6.75402197265625,-1.5763333714097738,0.4148468755483627,-2.361485385468602
1746476972364000800,6.764000732421875,-1.6423901901632547,0.03939794440865516,-2.355529107412696
1746476972373980700,6.773980712890625,-1.607152288043499,-0.07517009953558444,-2.2204618807971475
1746476972383960800,6.7839609375,-1.5564023440152406,-0.07909224141538143,-1.8364660705864428
1746476972393939700,6.793939697265625,-1.402840844810009,0.0477139373332262,-1.3066507535994052
1746476972403919600,6.803919677734375,-1.2208745043754576,0.2327279749006033,-0.7784270897179841
1746476972413898800,6.813898681640625,-1.0571458314210176,0.3591325871109962,-0.38658407313823695
1746476972423878700,6.823878662109375,-0.833450473281741,0.46169922761619087,-0.08238952939510345
1746476972433858600,6.833858642578125,-0.5736082084190101,0.6216565653383731,0.11422083794176578
1746476972443837700,6.843837646484375,-0.2925719104886055,0.841568897807598,0.29505262138843535
1746476972453817600,6.853817626953125,-0.0034679683715105056,1.0344774880170822,0.4667880751878023
1746476972463797800,6.8637978515625,0.1739292375165969,1.1034434722155333,0.6120218910306692
1746476972473777000,6.87377685546875,0.179532975807786,1.083902320921421,0.6522948647081852
1746476972483756800,6.8837568359375,-0.017921441137790678,0.9270482099115848,0.6260393104672431
1746476972493736700,6.89373681640625,-0.4027116165965795,0.6296919877558946,0.6285428177207708
1746476972503715800,6.9037158203125,-0.7662451420802623,0.23419804745316505,0.6095072778612375
1746476972513695700,6.91369580078125,-1.0894821668803691,-0.08889934968054294,0.5241249963909387
1746476972523674600,6.923674560546875,-1.2669237233668564,-0.35425299837589264,0.5167249492675066
1746476972533654800,6.93365478515625,-1.2920318611383437,-0.484729974591732,0.5460761314362287
1746476972543634700,6.943634765625,-1.2077473117768764,-0.5251438180446625,0.7004062769263982
1746476972553613600,6.953613525390625,-1.0375042154271155,-0.47977732062041756,0.9489724569499493
1746476972563593700,6.96359375,-0.8285183506418019,-0.40546354565322396,1.2013555649131535
1746476972573574000,6.973573974609375,-0.6442156762141734,-0.28519115258753297,1.3496481838047503
1746476972583552800,6.983552734375,-0.5452578007906675,-0.2027238817811012,1.4654162511885165
1746476972593533000,6.993532958984375,-0.4547072498369962,-0.11811842990219593,1.6094465364605188
1746476972603512800,7.003512939453125,-0.3712322632927447,-0.030772739404439923,1.7783815458863972
1746476972613491700,7.01349169921875,-0.25251871704161166,0.055957449543476104,2.0209996311604974
1746476972623471600,7.0234716796875,-0.1849602615535259,0.14964929419755935,2.233441189357638
1746476972633450800,7.03345068359375,-0.11939561023116112,0.22565935168862342,2.3826538457036017
1746476972643430700,7.0434306640625,-0.10034366722609847,0.2813952674359083,2.5090397532135245
1746476972653410600,7.05341064453125,-0.15208623902089893,0.35013153453171253,2.6490987967669963
1746476972663389700,7.0633896484375,-0.26026067293789235,0.40617432427108285,2.7754426187008616
1746476972673369600,7.07336962890625,-0.33121399502865967,0.425469391849637,2.934534864026308
1746476972683349500,7.083349609375,-0.35653906348645686,0.4342570939391851,2.9681249989390373
1746476972693328600,7.09332861328125,-0.3036888592433184,0.4486433466881513,2.981283171197772
1746476972703308800,7.103308837890625,-0.25580606814920903,0.47274143063426016,3.008356471562385
1746476972713288700,7.113288818359375,-0.20059739114642142,0.522214778855443,3.1012919448912144
1746476972723267800,7.123267822265625,-0.1671890425413847,0.5724824923247098,3.2264205458164215
1746476972733247700,7.133247802734375,-0.05230711034238338,0.6560813975095748,3.2526141407370566
1746476972743227000,7.143226806640625,0.125187126179412,0.8015688958525657,3.207329476377368
1746476972753206800,7.153206787109375,0.24272505277991294,1.0158125350356102,3.1810072866410013
1746476972763186700,7.163186767578125,0.34579796230681237,1.1775988417506218,3.1812983785420657
1746476972773165800,7.173165771484375,0.3380511475723237,1.3856857118695973,3.1939778273731467
1746476972783145700,7.183145751953125,0.2054840672094375,1.5419091237604616,3.1780601272732016
1746476972793125600,7.193125732421875,0.04775602290928364,1.6818331427574156,2.985063274258375
1746476972803104500,7.2031044921875,-0.09370938031077385,1.8165818049430846,2.781516385656595
1746476972813085000,7.2130849609375,-0.2662958979815245,1.9601725297540424,2.71921570456624
1746476972823064800,7.22306494140625,-0.46397301776707167,2.0002029268473387,2.8530285472065207
1746476972833043700,7.233043701171875,-0.5925491287976503,1.952107296720147,2.951974659126997
1746476972843024000,7.24302392578125,-0.5528951638013124,1.9697621958762406,2.773092256182432
1746476972853002800,7.253002685546875,-0.3293622296821326,2.0997569415330886,2.406215923076868
1746476972862982700,7.262982666015625,0.030018121644854543,2.186255075290799,2.092445741736889
1746476972872962800,7.272962890625,0.3827612999796867,2.128302068015933,1.8784698135793207
1746476972882941700,7.282941650390625,0.6568173105686903,1.964591515240073,1.594164211654663
1746476972892921600,7.292921630859375,0.8693108912140131,1.7990467327743767,1.2244365807712076
1746476972902901800,7.30290185546875,1.0231716656267642,1.7115110726624727,0.8953560175746679
1746476972912880600,7.312880615234375,1.164883883214742,1.7709113561362027,0.5439560705423355
1746476972922860500,7.322860595703125,1.223600787534192,2.0475445237368346,0.17471885352432726
1746476972932840700,7.3328408203125,1.1987649638980626,2.4346920759767294,-0.012928455156087875
1746476972942819800,7.34281982421875,1.0391899765569717,2.7934090680241583,-0.07514905674755573
1746476972952799700,7.3527998046875,0.6258278596736491,2.9192776736617088,0.06535889961719513
1746476972962779000,7.36277880859375,0.06331833370029925,2.6313363455832004,0.2783136680334806
1746476972972758800,7.3727587890625,-0.5875794506262988,1.943496704763174,0.383346406391263
1746476972982738700,7.38273876953125,-1.1267623884826898,0.9465952064245938,0.22013678887486457
1746476972992717800,7.3927177734375,-1.4186260045714676,0.08016367003917693,-0.006507482197880745
1746476973002697700,7.40269775390625,-1.380706754413247,-0.49522331155538557,-0.38209728311300273
1746476973012677600,7.412677734375,-1.0971265441536904,-0.6741612440794706,-0.728159960770607
1746476973022656800,7.42265673828125,-0.5448803457804023,-0.6470230617851018,-0.8800824605971574
1746476973032636700,7.43263671875,0.19404796950295566,-0.44070846203565595,-0.8567699740707874
1746476973042616600,7.442616455078125,0.8435480889260768,-0.1578688410103321,-0.8204226494044065
1746476973052595700,7.452595703125,1.269472969458252,0.09474924475252627,-0.8271528344422578
1746476973062575900,7.462575927734375,1.4801795205563306,0.23446517395675182,-0.9321312122642993
1746476973072554800,7.4725546875,1.5437028753094375,0.29101299060881136,-1.187564939969778
1746476973082535000,7.482534912109375,1.4128331003837287,0.34431086555421353,-1.5204355430990457
1746476973092515000,7.49251513671875,0.9965570688150822,0.40553777993321416,-1.819098756200075
1746476973102494000,7.502493896484375,0.5119973362237215,0.41320378451645373,-1.8765005593329667
1746476973112473900,7.512473876953125,0.1478431215584278,0.40042204435467715,-1.7766764955341814
1746476973122454000,7.5224541015625,-0.13593290353417395,0.23358429946899412,-1.5648019235700368
1746476973132433000,7.532432861328125,-0.40478783834874627,-0.11596154412925243,-1.322301911717653
1746476973142412800,7.542412841796875,-0.5786361926488578,-0.5253922398477793,-1.0826952832192183
1746476973152393000,7.55239306640625,-0.592194470141083,-0.9548457328975201,-0.9384890568584203
1746476973162371800,7.562371826171875,-0.43560485528633,-1.3482161051750183,-0.8770154742419719
1746476973172351700,7.572351806640625,-0.09303535350672901,-1.552106108126044,-0.7126543486028909
1746476973182331000,7.582330810546875,0.14171543245837093,-1.6847148356735706,-0.41716684292852874
1746476973192311000,7.59231103515625,0.3391962990194559,-1.7107973714351654,-0.19702654692232607
1746476973202291000,7.602291015625,0.3966729209542274,-1.8208423849970101,-0.018324761241674422
1746476973212270000,7.61227001953125,0.44745523288212713,-1.8530495411187409,0.00803133076429367
1746476973222250000,7.62225,0.3507768466979265,-1.842142947179079,0.1379091720432043
1746476973232230000,7.63222998046875,0.21194354554712772,-1.8106728731602428,0.20305881282389163
1746476973242209000,7.642208984375,0.1607839247394353,-1.6912819391041993,0.2874742950886488
1746476973252189000,7.65218896484375,0.1201793079547584,-1.5616928516387938,0.3863011645436287
1746476973262167800,7.662167724609375,0.05094327464327216,-1.4462363344222307,0.44883331630229945
1746476973272148000,7.67214794921875,0.011638415345549583,-1.3385066120654343,0.4096183272451162
1746476973282128000,7.6821279296875,-0.040270635589957235,-1.2354232542097567,0.3134428490817547
1746476973292106800,7.692106689453125,-0.17104513344764707,-1.1898369765549897,0.18163082486987112
1746476973302087000,7.7020869140625,-0.3362590765237808,-1.253700084656477,0.07156652208566665
1746476973312067000,7.712067138671875,-0.44539457402527327,-1.3600567650943993,-0.06515665504336357
1746476973322046000,7.7220458984375,-0.5151847340881824,-1.5073814157366752,-0.2153039618909359
1746476973332026000,7.732026123046875,-0.5522503630917519,-1.671582382377982,-0.2978074730545282
1746476973342006000,7.742006103515625,-0.5560742322288453,-1.8139269065201282,-0.32359599430561065
1746476973351985000,7.75198486328125,-0.5245299969952553,-1.8963608595788477,-0.3890069163709879
1746476973361965000,7.761965087890625,-0.4204530249923467,-1.8508716125577687,-0.4823720132887363
1746476973371944000,7.77194384765625,-0.3052717445205897,-1.6734148585021495,-0.5419008915781974
1746476973381923800,7.781923828125,-0.1757662436854094,-1.4239835860818624,-0.5888567040205002
1746476973391904000,7.791904052734375,-0.0513607694029808,-1.1011346107512712,-0.6394727925360203
1746476973401883000,7.8018828125,0.05944412261545658,-0.7407651753216982,-0.751737235713005
1746476973411862800,7.81186279296875,0.14650873114950955,-0.45840603128969665,-0.9258756590008735
1746476973421843000,7.821843017578125,0.16097323676645756,-0.27029578127264975,-1.1629133137941359
1746476973431821800,7.83182177734375,0.10295067138671875,-0.06994739645123481,-1.5044155516684055
1746476973441802000,7.841802001953125,-0.016148513181135058,0.05129764103889465,-1.8296540524840355
1746476973451781000,7.851781005859375,-0.20058343568630516,0.03566284953355789,-2.1262387057453394
1746476973461761000,7.861760986328125,-0.4187947363913059,-0.03204875068962574,-2.421212416678667
1746476973471741000,7.871740966796875,-0.6178728820811957,-0.15380466031134127,-2.7199446033626793
1746476973481720000,7.881719970703125,-0.7432365338712931,-0.1653758556395769,-2.998064210128784
1746476973491700000,7.891699951171875,-0.9085100981801748,-0.10840718322694301,-3.1659996871232985
1746476973501679900,7.901679931640625,-1.1219190401047467,-0.11356032820641994,-3.2084733857154846
1746476973511659000,7.911658935546875,-1.3658879554659127,-0.19654840801656245,-3.1842934687048197
1746476973521639000,7.921638916015625,-1.4590157364964484,-0.18920155238509176,-3.246777397407591
1746476973531618800,7.931618896484375,-1.4216490056544542,0.061733694857358926,-3.381646178841591
1746476973541598000,7.941597900390625,-1.2974217374831438,0.5505699357241391,-3.4473329952389
1746476973551578000,7.951578125,-1.1518512370318175,1.22648416095078,-3.385394133198261
1746476973561556700,7.961556640625,-1.1036585762709379,1.7804361403286455,-3.259672242555022
1746476973571537000,7.971536865234375,-1.1428577832370996,2.000411601161957,-3.125990332818031
1746476973581517000,7.98151708984375,-1.2832558494865893,1.8596230742901563,-3.015128742176294
1746476973591496000,7.991495849609375,-1.4792185665696858,1.316770581075549,-2.9809201831042764
1746476973601475800,8.001475830078125,-1.636122946462035,0.44886838761568065,-3.045321635866165
1746476973611456000,8.0114560546875,-1.6703297519683837,-0.4235182577818632,-3.1065579025954007
1746476973621435000,8.021434814453125,-1.5863661051243543,-1.0865940442234276,-3.1149937225073576
1746476973631414800,8.031414794921876,-1.3671750726670027,-1.5360066217184065,-3.0919483624845743
1746476973641394000,8.041393798828125,-1.060091821745038,-1.672882359060645,-2.9342087008118627
1746476973651373800,8.051373779296876,-0.7223270898986608,-1.5557950257718562,-2.4943273372501134
1746476973661353700,8.061353759765625,-0.40326756997890767,-1.1971312252163886,-1.9908412242621183
1746476973671332900,8.071332763671874,-0.1688053186316043,-0.790132140558958,-1.6615379582256078
1746476973681313000,8.08131298828125,0.08530161744952201,-0.5497568657755851,-1.4660516264826058
1746476973691293000,8.09129296875,0.48427865062765774,-0.37861645525991916,-1.355904321590066
1746476973701272000,8.10127197265625,0.8559293585281819,-0.2366144609451294,-1.2979647583186626
1746476973711252000,8.111251953125,1.0688146419048308,-0.1592851375490427,-1.2651859397888183
1746476973721232000,8.12123193359375,1.1295541380930691,-0.1416822608411312,-1.1649918736338614
1746476973731211000,8.1312109375,0.9321312853295356,-0.1709866812586784,-1.0652858832567929
1746476973741191000,8.14119091796875,0.4696060552179813,-0.27043489748239513,-1.0359580819636582
1746476973751169800,8.151169677734375,-0.17096388490498066,-0.40590076802670955,-1.025553592327237
1746476973761150000,8.16114990234375,-0.7678582763653248,-0.5082400295168161,-0.9463163894832134
1746476973771129900,8.1711298828125,-1.252773032939434,-0.5279045149296522,-0.8254238186925649
1746476973781108700,8.181108642578126,-1.5929413918614386,-0.5046586638987064,-0.5936521216034889
1746476973791089000,8.1910888671875,-1.8318150299102067,-0.421233946236968,-0.28571429967880246
1746476973801069000,8.201069091796874,-1.9788661243081092,-0.28271862499415873,0.07564531583189964
1746476973811048000,8.2110478515625,-1.9608815548062324,-0.146361943089962,0.4499503376334905
1746476973821028000,8.221028076171875,-1.7862386891275643,0.02490881580710411,0.7985860806494951
1746476973831007000,8.231007080078125,-1.488787774425745,0.1606225236326456,1.165322713023424
1746476973840987000,8.24098681640625,-1.150371227607131,0.356240372800827,1.5338982512623072
1746476973850967000,8.250967041015626,-0.8870728309411555,0.5383393997043371,1.9164117139607666
1746476973860946000,8.26094580078125,-0.6747767456293106,0.6853940012335777,2.2811124565929175
1746476973870925800,8.27092578125,-0.5168003160586581,0.8447633099347353,2.609730662974715
1746476973880906000,8.280906005859375,-0.3954015127789229,0.9921879138201475,2.86768894072175
1746476973890884900,8.290884765625,-0.30474691692888733,1.0922159757584333,3.076818013370037
1746476973900864800,8.30086474609375,-0.2983190027732402,1.0978402453809977,3.230034060138464
1746476973910844000,8.310843994140624,-0.3268343186397105,1.0820762745380401,3.300070303916931
1746476973920824000,8.320823974609375,-0.3782862003922462,1.0498393077999353,3.3282173709928986
1746476973930804000,8.330803955078125,-0.4392733877312392,0.9807704477488994,3.391953053322434
1746476973940783000,8.340783203125,-0.48396951161324975,0.9129664930671453,3.439005311876535
1746476973950763000,8.350762939453125,-0.40856669930033385,0.82959204428792,3.5293916852444407
1746476973960743000,8.360742919921876,-0.39450551378726956,0.7317267133414745,3.5658640975952145
1746476973970722000,8.37072216796875,-0.31266368140280243,0.5751239467442035,3.632078152737021
1746476973980702000,8.380701904296876,-0.1520206995040178,0.5859083756089211,3.6380396914899347
1746476973990680800,8.390680908203125,0.029575127117708322,0.5965227086037397,3.5014527079612017
1746476974000661000,8.400660888671876,0.16931955176405608,0.6740162826508284,3.4033751955688
1746476974010641000,8.410640869140625,0.2590565943777561,0.873908155876398,3.2347675184011457
1746476974020619800,8.420619873046874,0.3324380569308996,1.1016811387181282,3.126342799517512
1746476974030600000,8.430599853515625,0.43783612146973605,1.2825935861855744,2.973212677466869
1746476974040580000,8.440580078125,0.4451894068419933,1.553175198662281,2.7729782744139433
1746476974050559000,8.45055908203125,0.31412030995190143,1.8573066140413284,2.5568296783924103
1746476974060539000,8.460538818359375,0.14045644537322222,2.1421634201079605,2.448512511536479
1746476974070517800,8.470517822265625,-0.1259007543414831,2.414761633104086,2.4450036266326904
1746476974080497700,8.48049755859375,-0.35645372329056263,2.545197692787647,2.522819272240996
1746476974090477800,8.490477783203126,-0.49182957746386524,2.6347645664662123,2.4495313331902024
1746476974100456700,8.500456787109375,-0.44354163963496684,2.8014392297446724,2.262312479054928
1746476974110436600,8.5104365234375,-0.28971703251414,2.824337290251255,2.1456039159506557
1746476974120416800,8.520416748046875,-0.1349725340694189,2.597214880272746,2.1145430072546003
1746476974130395600,8.530395751953124,0.08621588275022804,2.344608484947681,1.9538322208166121
1746476974140375600,8.54037548828125,0.42655660256445405,2.2440064225137233,1.6583979066342114
1746476974150354700,8.550354736328124,0.7958189540237188,2.3668542190253734,1.416609842443466
1746476974160334600,8.56033447265625,1.1257687743354587,2.729946941938996,1.2725602679491042
1746476974170314800,8.570314697265625,1.2792460293233394,3.2639988735824823,1.281771748408675
1746476974180294000,8.5802939453125,1.2339596113979816,3.7942449832022187,1.3918062405765055
1746476974190273800,8.590273681640625,0.9485469250142574,4.119699757117033,1.6000719743937253
1746476974200253700,8.600253662109376,0.38749483130760487,4.070535620975494,2.0818547896176574
1746476974210232800,8.61023291015625,-0.3165891842834651,3.5798704111158846,2.589165429329872
1746476974220212700,8.620212646484376,-0.9710130238443613,2.7045652479231355,2.7639678694844245
1746476974230192600,8.630192626953125,-1.2916243032507597,1.5975445017427206,2.3067221141457557
1746476974240171800,8.640171875,-1.1187480088531971,0.5447258858710528,1.5697990012049674
1746476974250151700,8.650151611328125,-0.5014163209766149,-0.19852116939425468,0.8486790220737457
1746476974260130600,8.660130615234374,0.28155484191179275,-0.6229980430752039,0.2594569918721914
1746476974270110700,8.67011083984375,1.0466051481842995,-0.7107949844717979,-0.09459726906120776
1746476974280090600,8.680090576171875,1.6961631352744995,-0.5787900680363178,-0.15941314784288405
1746476974290069500,8.690069580078125,2.1450572418533262,-0.27795886324644087,-0.0703098000228405
1746476974300049700,8.700049560546875,2.33089779337272,0.05118716640174389,0.0315887319624424
1746476974310028800,8.71002880859375,2.275316337534785,0.34964112066626546,0.09027531420886516
1746476974320008700,8.7200087890625,2.08009713229537,0.6255331145107745,0.07776596124768256
1746476974329988600,8.729988525390626,1.7588567612051962,0.8068155643343925,-0.09541559970676898
1746476974339967700,8.7399677734375,1.232520080114156,0.8735784855306148,-0.2537637486666441
1746476974349947600,8.74994775390625,0.7659690285526216,0.8098895649522543,-0.31171675594151016
1746476974359927600,8.759927490234375,0.395190135050565,0.6644768854111432,-0.29004385331571103
1746476974369906700,8.76990673828125,0.048412002599984405,0.3574953412979841,-0.16568389867544173
1746476974379886600,8.779886474609375,-0.23313933218047023,-0.0693383246421814,-0.0026180735439062116
1746476974389866500,8.789866455078124,-0.39308468720391393,-0.46832419871389863,0.1439963830024004
1746476974399845600,8.799845703125,-0.40613165417313574,-0.8600070562958717,0.2686959448605776
1746476974409825800,8.80982568359375,-0.24200316824615,-1.1867998008161782,0.3107388508200645
1746476974419804700,8.8198046875,0.05606865483298897,-1.3909049078226088,0.3066150488883257
1746476974429784800,8.829784912109375,0.3169920659959316,-1.4576590611904858,0.2983925794661045
1746476974439764700,8.8397646484375,0.5431507455088198,-1.4746534506112337,0.2658101602911949
1746476974449744000,8.849743896484375,0.6864807735569775,-1.4548562787294388,0.20460721130967138
1746476974459723800,8.859723876953124,0.7997126004613936,-1.3990630798369645,0.09323591758012771
1746476974469703700,8.86970361328125,0.9138644648201764,-1.303006844139099,-0.008972995528578758
1746476974479682600,8.8796826171875,0.9948967343874275,-1.1651678147226572,-0.17548048554658888
1746476974489662700,8.889662841796875,1.0611362162314355,-0.9934265157043933,-0.32182255489230155
1746476974499641600,8.8996416015625,1.107815111428499,-0.8582149121820927,-0.46274201466739173
1746476974509621500,8.90962158203125,1.0634323643445969,-0.7993529733687639,-0.5973451309025287
1746476974519601700,8.9196015625,0.8714508258521556,-0.7687287025243044,-0.7279512864559888
1746476974529580500,8.92958056640625,0.6431605411380529,-0.777013715788722,-0.886955853497982
1746476974539560700,8.939560791015625,0.4348936382770538,-0.8449415891110896,-1.070248474100232
1746476974549539600,8.94953955078125,0.2890630255848169,-0.9845569805502891,-1.2144032625347376
1746476974559519700,8.959519775390625,0.1283681673683226,-1.1867436867147683,-1.4242238245785235
1746476974569499600,8.969499755859376,-0.006734276691079139,-1.4480460141927003,-1.5955699867993591
1746476974579478800,8.979478759765625,-0.12454744003638625,-1.7653788564503192,-1.7916987080991267
1746476974589458700,8.989458740234374,-0.20703473071753978,-2.039129746612906,-1.955432641750574
1746476974599438600,8.9994384765625,-0.19272855746746062,-2.254769808590412,-2.0931395692199466
1746476974609417700,9.009417724609374,-0.05982515782229602,-2.344634788432717,-2.2815654610574243
1746476974619397600,9.019397705078125,0.10325111563801764,-2.2576211063683034,-2.3941630817115307
1746476974629376800,9.029376708984374,0.24926219946369527,-2.0318600478708744,-2.4151374806791543
1746476974639356700,9.039356689453125,0.3523427808403969,-1.7313082445442676,-2.3660540085583923
1746476974649336600,9.049336669921875,0.4040298595882952,-1.425066120621562,-2.3289847993582486
1746476974659315700,9.059315673828126,0.3821996475089341,-1.099389228388667,-2.3608429959118364
1746476974669295900,9.0692958984375,0.2799965065538883,-0.8210960186213254,-2.4787863615080714
1746476974679275800,9.07927587890625,0.09857669408619403,-0.5495394236326218,-2.6125144484743474
1746476974689254700,9.089254638671875,-0.13241108608357607,-0.3527385021597147,-2.705129603807628
1746476974699234800,9.09923486328125,-0.3809275817465037,-0.1722609389781952,-2.7428005782932043
1746476974709213700,9.109213623046875,-0.6265536897301673,-0.11737491805851459,-2.7817382117137313
1746476974719193600,9.119193603515624,-0.7983809865314513,-0.06652560530900954,-2.8603672195315357
1746476974729173800,9.129173828125,-1.015506830087304,0.03183656924366951,-2.9714485904037953
1746476974739152600,9.139152587890624,-1.3187718378953635,0.056878071519732475,-3.0161171686917543
1746476974749132500,9.149132568359375,-1.6137410187840462,0.05828793831765652,-3.052601271480322
1746476974759112700,9.15911279296875,-1.7977976094961166,0.1206552549034357,-3.1938249748989938
1746476974769091600,9.169091552734375,-1.825251433610916,0.338104996651411,-3.3729391407728193
1746476974779071500,9.179071533203125,-1.7800778284102676,0.6625532238721847,-3.4730730011731383
1746476974789050600,9.189050537109376,-1.687222434580326,1.018658572116494,-3.4980955064877866
1746476974799030800,9.19903076171875,-1.6146879442453383,1.357905140018463,-3.5322362610206004
1746476974809010700,9.2090107421875,-1.591530940541625,1.5464882682442664,-3.541625436134636
1746476974818989800,9.21898974609375,-1.4985837767750023,1.5493641159415243,-3.566417639824748
1746476974828969700,9.2289697265625,-1.5224854613661765,1.2362743180811404,-3.5583670198380943
1746476974838949600,9.23894970703125,-1.6017852080523967,0.6073842943578959,-3.5448832688868044
1746476974848928800,9.2489287109375,-1.6699276009082793,-0.15566694705188275,-3.5349048957079647
1746476974858908700,9.25890869140625,-1.684631833565235,-0.8834311865031719,-3.415555462706089
1746476974868887600,9.268887451171874,-1.623330684906244,-1.3851952980041502,-3.271795226547122
1746476974878867700,9.27886767578125,-1.4759008203238249,-1.6452128463685511,-3.2026229061216114
1746476974888847600,9.28884765625,-1.310509767115116,-1.6163023937046528,-3.0193510360464453
1746476974898826500,9.298826416015626,-1.1117782429058105,-1.3622007913857697,-2.604514974153042
1746476974908807000,9.308806884765625,-0.8432190031021833,-0.9604553894728421,-2.0643290697991845
1746476974918785500,9.31878564453125,-0.5910854859858751,-0.577318241918087,-1.6302940941780804
1746476974928765700,9.328765625,-0.3963530413500964,-0.2760024684816599,-1.309597912967205
1746476974938745900,9.338745849609374,-0.277111891028285,0.020499767193198203,-1.040222169148922
1746476974948724700,9.348724853515625,-0.15041333737261592,0.2222609414219856,-0.8021189309507608
1746476974958704600,9.35870458984375,-0.05677051949203014,0.4085077356547117,-0.5703963337004184
1746476974968684800,9.368684814453125,-0.04031447473168373,0.5686281549841166,-0.34816111124157906
1746476974978663700,9.37866357421875,-0.140615435327217,0.5517687901198863,-0.11416647740602492
1746476974988643600,9.3886435546875,-0.3352934463620186,0.42155543327629563,0.08598959971368313
1746476974998622700,9.398622802734375,-0.628518267801404,0.19140753799676893,0.2569336108744144
1746476975008602600,9.4086025390625,-0.879613089519739,-0.06807341927289963,0.38606560222208497
1746476975018582500,9.41858251953125,-1.05449268656373,-0.37835458945333955,0.4310667734652757
1746476975028561700,9.428561767578126,-1.1176509343314915,-0.6161182204335928,0.383385569357872
1746476975038541800,9.438541748046875,-1.0248744509566574,-0.8036398569077253,0.3927092780202627
1746476975048521700,9.448521728515624,-0.8361930499881506,-0.8964660246431827,0.461204722097516
1746476975058500900,9.4585009765625,-0.6204536923546343,-0.8874597113668918,0.6434995638340711
1746476975068480800,9.468480712890624,-0.4602191451262682,-0.7931950352609157,0.9314537513941525
1746476975078459400,9.47845947265625,-0.3205699244827032,-0.6532236699908971,1.1763275066405534
1746476975088439800,9.488439697265624,-0.2288275333959609,-0.5339227523058653,1.3442980549484491
1746476975098419700,9.498419677734375,-0.09563369943685829,-0.4118237283349037,1.5028823507517575
1746476975108398600,9.508398681640625,-0.00934423999376595,-0.27991993418633937,1.5952742187231779
1746476975118378800,9.518378662109376,0.10928513510525226,-0.08954232375919818,1.781597585323453
1746476975128357600,9.528357666015625,0.15033727646172046,0.020544190856814384,1.941633248978853
1746476975138337500,9.538337646484376,0.16628478717803954,0.1351595810741186,2.1260627646565435
1746476975148317700,9.548317626953125,0.19259696697704493,0.2032470288723707,2.256127652940154
1746476975158296600,9.558296630859376,0.1608007297437638,0.27704993170797826,2.3731834220468997
1746476975168276500,9.5682763671875,0.08672602422945201,0.33445582649409766,2.524983756798506
1746476975178256400,9.57825634765625,0.02227496017217636,0.34243162767887114,2.639593301796913
1746476975188235500,9.588235595703125,-0.02332425002939999,0.33819559754431244,2.746801630628109
1746476975198215400,9.59821533203125,-0.04154018060173839,0.2879068412870169,2.7983780886083838
1746476975208194600,9.608194580078125,-0.047397016871161754,0.17677286344468593,2.81809868812263
1746476975218174700,9.6181748046875,-0.04117956712841987,0.05413315672576427,2.8007845652282235
1746476975228154600,9.628154541015626,-0.02239478715956211,-0.04827098669409752,2.754835299479961
1746476975238133800,9.6381337890625,0.03526245203912258,-0.04435118290185928,2.685039878720045
1746476975248113700,9.64811376953125,0.15688158353865145,0.12465864532589911,2.563646957191825
1746476975258092500,9.658092529296875,0.2955372265676036,0.4523801951289177,2.5258447575420138
1746476975268072700,9.66807275390625,0.3439795147079974,0.8525292677611113,2.508690209123492
1746476975278052600,9.678052490234375,0.33775022839698937,1.2274299173682928,2.479105802720785
1746476975288031500,9.688031494140626,0.2552518683325499,1.592840269574523,2.355027003109455
1746476975298011600,9.69801171875,0.14793671812601386,1.8499071514397858,2.164130337244272
1746476975307991600,9.707991455078124,0.058117257925868034,2.074517286336422,1.97979726767838
1746476975317970400,9.717970458984375,-0.06452011070549488,2.247809321928024,1.876296561193466
1746476975327950600,9.72795068359375,-0.23421682521887122,2.3178420585751534,1.8247820625334976
1746476975337929500,9.737929443359375,-0.3847797271300107,2.3556997878044843,1.8250047653734682
1746476975347909600,9.74790966796875,-0.45412031679451464,2.4599895988404747,1.8389549647927284
1746476975357889500,9.7578896484375,-0.4831219548732042,2.4927011973530053,1.9079507596075533
1746476975367868700,9.76786865234375,-0.43295587514750655,2.3691396996140477,1.8941490287482738
1746476975377848600,9.7778486328125,-0.2975865968454629,2.1889824544280767,1.723435319212079
1746476975387827700,9.78782763671875,0.029157193966582416,2.111872911262512,1.4065554814189671
1746476975397807600,9.7978076171875,0.4337620038986206,2.2164912236005065,1.049455861440301
1746476975407787500,9.80778759765625,0.8221626980047673,2.5944629512161015,0.7874141137719154
1746476975417766700,9.8177666015625,1.091817989416793,3.1981594969719644,0.7231050154685974
1746476975427746600,9.82774658203125,1.118956610102579,3.79353420458436,0.7637251951485872
1746476975437726500,9.8377265625,0.824547035858035,4.132914627999067,0.9723188457459211
1746476975447705600,9.84770556640625,0.23503975897431373,4.003717754721642,1.5110919606924056
1746476975457685800,9.857685791015625,-0.4753617692004889,3.297728124704957,2.0973440351724624
1746476975467664600,9.86766455078125,-1.121777001285553,2.2062971618443727,2.176374317267537
1746476975477644800,9.877644775390625,-1.5260457841962576,0.9694850836247205,1.6970616915494203
1746476975487624700,9.887624755859376,-1.5029460636377334,0.05640519331097602,1.1039654502630234
1746476975497603600,9.897603515625,-1.0514267961870878,-0.505539538386464,0.3912713541716337
1746476975507583700,9.907583740234376,-0.46030397386550903,-0.802249279332161,-0.1314525432497263
1746476975517562600,9.917562744140625,0.19870354022383688,-0.8251660445392132,-0.3983353012084961
1746476975527542500,9.92754248046875,0.877576615256071,-0.6660434040755033,-0.3804349028587341
1746476975537522400,9.9375224609375,1.4239572825968265,-0.3102186263382435,-0.17980770109593866
1746476975547501600,9.94750146484375,1.7822803068906068,0.0421937126070261,0.010648235264420509
1746476975557481500,9.9574814453125,1.9142378770530222,0.280868028691411,0.053151744472980496
1746476975567461400,9.96746142578125,1.8625936145335436,0.44883682343363757,0.10203004941046237
1746476975577440500,9.9774404296875,1.6175193682789801,0.5295961212784052,0.004869651862978935
1746476975587420700,9.987420654296875,1.0915035166401414,0.5466588997602463,-0.2186930198073387
1746476975597399800,9.99739990234375,0.5594803874105215,0.48461365473568435,-0.3694301092416048
1746476975607379700,10.007379638671875,0.1234142712879926,0.3463660445183515,-0.3466331710219383
1746476975617359600,10.017359619140626,-0.2379296351969242,0.1472714591503143,-0.0775555333673954
1746476975627338800,10.0273388671875,-0.5072499225009233,-0.0930664062321186,0.2375549566656351
1746476975637318700,10.037318603515626,-0.6891577376812696,-0.35083471436500546,0.5687953282445669
1746476975647297500,10.047297607421875,-0.7554951269418001,-0.6127665719181299,0.8788771764606237
1746476975657277700,10.057277587890624,-0.7096515865903348,-0.8760030823290348,1.0736498069763183
1746476975667257600,10.067257568359375,-0.49610951980538665,-1.0995938110500574,1.1190461150169373
1746476975677236500,10.077236572265624,-0.17698489876016973,-1.2441127566218375,1.11228962649405
1746476975687216600,10.087216552734375,0.11562953569591045,-1.2865022840619087,1.1283137095779179
1746476975697195500,10.097195556640624,0.3262953163921833,-1.269350658252835,1.1617799258500336
1746476975707175400,10.107175537109375,0.4868588763792068,-1.199079436674714,1.1304723489165305
1746476975717155600,10.117155517578125,0.6487948206979781,-1.1394909371525048,1.0268950700640678
1746476975727134700,10.127134765625,0.759997772123292,-1.0276216307729482,0.8953460807025432
1746476975737114600,10.137114501953125,0.7902290981274098,-0.9389642731547355,0.7647615524590015
1746476975747094500,10.147094482421876,0.8119014892965555,-0.9406541259378194,0.6040525195866823
1746476975757073700,10.15707373046875,0.7351099260389804,-0.9720078801006078,0.36507132951021193
1746476975767053600,10.167053466796874,0.5904108746599406,-1.0212719694852828,0.0672463207989931
1746476975777032700,10.17703271484375,0.4224280513923615,-1.03841658103168,-0.18349486517608166
1746476975787012600,10.1870126953125,0.33893918245323,-1.0619085157781838,-0.4530798678308725
1746476975796992500,10.196992431640625,0.2813666989285499,-1.1470540658831596,-0.709662765571475
1746476975806971600,10.2069716796875,0.18603519730865956,-1.2513976529330015,-0.9307230990320443
1746476975816951600,10.21695166015625,0.08079086202681064,-1.3670838872522115,-1.1205553505361079
1746476975826930400,10.226930419921874,0.0023592034120112656,-1.4977198534220457,-1.3541238679140806
1746476975836910600,10.23691064453125,-0.060727659619972105,-1.6404764654964208,-1.5293910029709339
1746476975846890800,10.246890869140625,-0.10423479291312396,-1.806135229730606,-1.7193723075568674
1746476975856869600,10.25686962890625,-0.13516886035911738,-1.8802631267368792,-1.8668869278132914
1746476975866849500,10.266849609375,-0.14623283681757748,-1.7923633094877003,-2.014481043046713
1746476975876829700,10.27682958984375,-0.1991384245097637,-1.6279466542690992,-2.087912774482369
1746476975886808600,10.28680859375,-0.19036935405544936,-1.4601315887838602,-2.113100407230854
1746476975896788500,10.29678857421875,-0.15142499863319098,-1.2607453269928692,-2.1519749122872947
1746476975906767600,10.306767578125,-0.11076521759517491,-1.0828642100453376,-2.1546648820236323
1746476975916747500,10.31674755859375,0.013716975185275078,-0.8739654390215873,-2.1837194193333387
1746476975926727400,10.3267275390625,0.08844524923749268,-0.6161240656524897,-2.2747844226151703
1746476975936706600,10.33670654296875,0.07474752674195916,-0.33602117611467835,-2.3081992009609937
1746476975946686500,10.3466865234375,-0.03454064057059586,-0.10683540386557579,-2.2949393218934535
1746476975956665600,10.35666552734375,-0.2762860346633941,0.07817045039534569,-2.3321306961685417
1746476975966645800,10.366645751953126,-0.5944224849214776,0.2222054118424654,-2.431363516075909
1746476975976625700,10.376625732421875,-0.8527636610388756,0.3686462653875351,-2.6863202739194034
1746476975986604800,10.386604736328126,-1.0860276425123214,0.4672971937537193,-3.0078076055079697
1746476975996584700,10.396584716796875,-1.3463070566833018,0.46733051150143146,-3.1881174109071493
1746476976006563600,10.4065634765625,-1.6420505829453467,0.3196791131228208,-3.2372245561644433
1746476976016543700,10.416543701171875,-1.8373580509901046,0.23010464065968989,-3.3644302556246517
1746476976026523600,10.426523681640624,-1.9060399575501679,0.29284195960164067,-3.547955223678052
1746476976036502500,10.43650244140625,-1.8341501948595047,0.49377661987841126,-3.763206870859861
1746476976046482700,10.446482666015624,-1.623148314076662,0.7740466826766729,-3.901926774764061
1746476976056462600,10.456462646484376,-1.3251555475831032,0.9439946685373782,-3.973868852163851
1746476976066441500,10.46644140625,-0.9940209744662046,0.9909066418379545,-3.9906571976184844
1746476976076422400,10.47642236328125,-0.5892016084680334,0.8333850068300962,-3.968339275087416
1746476976086401500,10.486401611328125,-0.27323998149838297,0.396395857578516,-4.039384695908427
1746476976096381700,10.496381591796874,-0.06606905718054622,-0.17362229045927524,-4.217035218970477
1746476976106361600,10.506361572265625,0.07950436588022858,-0.6024404082149267,-4.387722332760691
1746476976116340700,10.5163408203125,0.17349895634055137,-0.8010849117279052,-4.492894187328219
1746476976126320600,10.526320556640625,0.15798282277882097,-0.7500280937075614,-4.375647864085436
1746476976136299500,10.536299560546874,-0.10024784216880797,-0.5354033462524413,-3.87621862527281
1746476976146279700,10.54627978515625,-0.3870785421242937,-0.2633867325365543,-3.1533845357000825
1746476976156259600,10.556259521484375,-0.6072884327679872,-0.0507031822770834,-2.4882287281140685
1746476976166238500,10.566238525390625,-0.7698170822829008,0.07086100416481494,-1.8120114282876252
1746476976176218600,10.576218505859375,-0.8395452830255031,0.07090367426276206,-1.1587234608888626
1746476976186197500,10.586197509765626,-0.8333072654187679,-0.030556466305255887,-0.6075339319616556
1746476976196177400,10.596177490234375,-0.7218593993216753,-0.1214221476227045,-0.24845862799584864
1746476976206157600,10.606157470703126,-0.5720861499508842,-0.1947895816504955,-0.056607437884807585
1746476976216136400,10.616136474609375,-0.32980241119768466,-0.2126987478286028,0.2975274870693683
1746476976226116600,10.62611669921875,-0.07417641232311725,-0.26770050408244134,0.4576479063987732
1746476976236095700,10.636095703125,-0.06574585310816765,-0.47638066391944883,0.6660843206077813
1746476976246075600,10.64607568359375,-0.09094349579401313,-0.6602659897178411,0.8575280989617109
1746476976256055600,10.6560556640625,-0.09881221987511962,-0.7752969749987125,0.9211018687278032
1746476976266034700,10.66603466796875,-0.23294892417490481,-1.0324801767200231,0.9766068983286619
1746476976276014600,10.6760146484375,-0.4123334314227104,-1.18776660002172,0.9544874209791422
1746476976285993500,10.685993408203124,-0.4226537133743986,-1.2923667921811341,0.8282073119312524
1746476976295973600,10.6959736328125,-0.4791378171404823,-1.357770699983835,0.765441351416707
1746476976305953500,10.70595361328125,-0.56105676988177,-1.2844441824883222,0.706542587724328
1746476976315932400,10.715932373046876,-0.5747527388116345,-1.0682646068066357,0.7419687058925628
1746476976325912600,10.72591259765625,-0.5709504604518413,-0.8414964170932769,0.9001315614134072
1746476976335892500,10.735892578125,-0.51272740406394,-0.5332242486476898,1.029593223106861
1746476976345871400,10.745871337890625,-0.46213761903345585,-0.24666882196962833,1.0729086332201958
1746476976355851800,10.755851806640624,-0.46796354870796203,-0.059225511428713795,1.1116811392068862
1746476976365830700,10.76583056640625,-0.4939806180179119,0.08545417766273021,1.1701041020810603
1746476976375810600,10.775810546875,-0.5377648146867752,0.22516075451672077,1.2194161222606896
1746476976385790500,10.78579052734375,-0.6125380238592625,0.33118542652130123,1.309724754217267
1746476976395769600,10.79576953125,-0.7423410463362932,0.4300082043230533,1.42995623075068
1746476976405749500,10.80574951171875,-0.8557593357235193,0.47606560662090774,1.5518150162249802
1746476976415728600,10.815728759765625,-1.0022399367570876,0.4783294598996639,1.6823633041113615
1746476976425708500,10.82570849609375,-1.1247948878020047,0.45394145309627054,1.8409931926220655
1746476976435688400,10.8356884765625,-1.1357535041898488,0.372840794467926,1.961242204812169
1746476976445667600,10.84566748046875,-1.1403460926771163,0.20720424206554888,2.073314340287447
1746476976455647500,10.8556474609375,-1.089251280733943,0.00772854842543602,2.1532143909543753
1746476976465626400,10.86562646484375,-0.9821540110617876,-0.0695645346134901,2.1571301030933854
1746476976475606500,10.8756064453125,-0.8148392963141202,-0.01228431203365326,2.122589535588026
1746476976485586700,10.885586669921874,-0.6704203039854765,0.22729718202352522,2.118999402141571
1746476976495565600,10.895565673828125,-0.5369552518695593,0.5932441253244877,2.1637463063627482
1746476976505545700,10.905545654296875,-0.41515842571556566,0.9855465761095284,2.1896353653788565
1746476976515524600,10.915524658203125,-0.3938023339539766,1.344676825132966,2.198868473148346
1746476976525504500,10.92550439453125,-0.4434861100554466,1.6300123546272516,2.1329542777359483
1746476976535484700,10.935484619140626,-0.5317740498393774,1.82393859744668,2.05799694416821
1746476976545463600,10.945463623046875,-0.6507306841313839,2.0249498300909994,1.9882915397793053
1746476976555443500,10.955443359375,-0.7788087825119495,2.2251485773086546,1.9173481180280445
1746476976565422600,10.965422607421875,-0.9244798207283019,2.31229026966691,2.0043156228631736
1746476976575402500,10.975402587890626,-1.0699152966231107,2.287827444061637,2.157217196854949
1746476976585382400,10.98538232421875,-1.1221925963491202,2.357739184677601,2.1777584651023147
1746476976595361500,10.995361572265624,-0.9949702380150556,2.463503159919381,2.1231109291136265
1746476976605341700,11.005341796875,-0.801096602165699,2.4974171199589965,2.0556997731417415
1746476976615321600,11.015321533203124,-0.6054302376806736,2.3661960473775863,2.0357231530398128
1746476976625300700,11.02530078125,-0.40312896522581576,2.144360053369403,1.8863748876154423
1746476976635280600,11.03528076171875,-0.11789744409527629,1.9975398451179265,1.5905512818545102
1746476976645259500,11.045259521484375,0.1375432248076424,1.9907330877125262,1.2406915500015019
1746476976655239700,11.05523974609375,0.35810729918386786,2.213455801427364,0.7832184156477451
1746476976665219600,11.065219482421876,0.5222159478992223,2.7248621860206126,0.2552051796466112
1746476976675198500,11.075198486328125,0.5016010298937559,3.4085265869826076,-0.17937690846323967
1746476976685178600,11.0851787109375,0.3115536743342876,3.8887452216297387,-0.2438157706260681
1746476976695157500,11.095157470703125,-0.04847903995420783,3.9281875897020098,0.17837854507565498
1746476976705137400,11.105137451171874,-0.5271598340421915,3.2237358367770907,0.9337176046729088
1746476976715117600,11.11511767578125,-1.0527724386423825,2.297655595114827,1.4689572847962378
1746476976725096400,11.125096435546874,-1.5149994895249603,1.2592191403388977,1.603368093329668
1746476976735076600,11.13507666015625,-1.7672727073729038,0.4264221625298261,1.5167308433622122
1746476976745055700,11.1450556640625,-1.6754156769305466,-0.08274258061647415,1.1377741963624954
1746476976755035600,11.15503564453125,-1.3543196827471256,-0.3613865035176277,0.7401783153444528
1746476976765015600,11.165015625,-0.8807564143359661,-0.3551204288601875,0.5696247648060322
1746476976774994700,11.17499462890625,-0.23447569535076618,-0.10551555343866348,0.7905448130130768
1746476976784974600,11.184974609375,0.46239363962113855,0.38209319145977494,1.3237117785155772
1746476976794953500,11.194953369140626,0.984900752486661,0.8307505666732787,1.7468144412338733
1746476976804933600,11.20493359375,1.4031547330647707,1.1567413471609354,2.0569307762414217
1746476976814913500,11.21491357421875,1.6737835456840693,1.3513193318873644,2.349545941349864
1746476976824892400,11.224892333984375,1.8913940309517085,1.5196668968141078,2.473991820707917
1746476976834872600,11.23487255859375,2.056580793759972,1.504298647290468,2.4987638583928344
1746476976844851500,11.2448515625,2.060449598017335,1.24067635243237,2.2617028227239846
1746476976854831400,11.254831298828124,1.9571813851140438,0.893645706525445,1.8713298786967991
1746476976864811800,11.264811767578125,1.711178479707241,0.4918494512081146,1.5503753388106822
1746476976874790700,11.274790771484374,1.4218682013630866,0.12316110024452209,1.3308914608865976
1746476976884770600,11.2847705078125,1.257908496131748,-0.1721814440011978,1.171664191004634
1746476976894749700,11.294749755859375,1.1468312169127166,-0.35174598399102686,1.0239730451375246
1746476976904729600,11.3047294921875,1.0496754955403507,-0.5275502946645021,0.9187158503741025
1746476976914709500,11.31470947265625,0.9502180730968713,-0.7367723062932491,0.8623901520401239
1746476976924688600,11.324688720703126,0.890147781407088,-0.9301192879199981,0.7087497423797845
1746476976934668500,11.33466845703125,1.0207190117776392,-1.0275409667521715,0.5197638785719871
1746476976944647400,11.3446474609375,1.157223650785163,-1.1912047577768563,0.4289332685679197
1746476976954627600,11.354627685546875,1.254083384885639,-1.3251836046338081,0.29602701937854287
1746476976964607500,11.364607421875,1.3584439230702816,-1.3753069411963224,0.07946925803422927
1746476976974586400,11.37458642578125,1.4240356085300445,-1.3538456354945898,-0.061768766170740126
1746476976984566500,11.38456640625,1.4231488888233899,-1.2788041307747364,-0.16789222237467766
1746476976994545400,11.39454541015625,1.4197949022203682,-1.1364572685450314,-0.23533844965994358
1746476977004525600,11.404525634765625,1.3585007678240537,-0.9711930565863847,-0.2452414195150137
1746476977014505700,11.414505615234376,1.2385492772758007,-0.796696905902028,-0.2504249596327543
1746476977024484600,11.424484619140625,1.0333908618241547,-0.6767793176233768,-0.2959907790213823
1746476977034464500,11.434464599609376,0.7830116410292685,-0.6354816770732402,-0.4019879784971475
1746476977044443600,11.444443603515625,0.5046019652754068,-0.61604866232872,-0.5039017080515623
1746476977054423600,11.454423583984376,0.27730127612054345,-0.6446855587482452,-0.6447650537252426
1746476977064403500,11.464403564453125,0.09953121833205222,-0.6884943053364754,-0.7491483882635831
1746476977074382000,11.474382080078126,0.0038233576804399486,-0.7899316495507955,-0.7976333099693059
1746476977084362000,11.484362060546875,-0.10432605139315128,-0.9221703747421502,-0.8753302976340055
1746476977094341000,11.494341064453126,-0.21557108839452266,-1.0811357788175344,-1.0011790295273064
1746476977104321000,11.504321044921875,-0.24889066273756325,-1.2792962982058524,-1.2499071221143006
1746476977114301000,11.514301025390624,-0.36798107947707176,-1.440707926389575,-1.5188818839162588
1746476977124280000,11.524280029296875,-0.46051147913634777,-1.5549609130352735,-1.7933879763603209
1746476977134260000,11.534260009765624,-0.44664713136963546,-1.5126900435388086,-2.01064424136281
1746476977144238800,11.54423876953125,-0.43748358170501883,-1.381348559448123,-2.2202052756875754
1746476977154219000,11.554218994140625,-0.4313403297096491,-1.1842436865925787,-2.274572825691104
1746476977164199000,11.564198974609376,-0.34448856020867824,-0.9373603450894356,-2.1784400176256895
1746476977174177800,11.574177734375,-0.15264679551310836,-0.729853320685029,-2.0523072080940006
1746476977184158200,11.584158203125,0.07505728681087494,-0.5913906064122915,-2.019549432352185
1746476977194136800,11.59413671875,0.20044541545510292,-0.45932723778784273,-2.090080181649327
1746476977204117000,11.604116943359376,0.2793727486323565,-0.40337855607271195,-2.246788162186742
1746476977214097000,11.614096923828125,0.27582418930530544,-0.3974176018416881,-2.423252690334618
1746476977224076000,11.624075927734374,0.20668160643093286,-0.36991117075681684,-2.5838228992581365
1746476977234056000,11.634055908203125,0.1309733083654195,-0.37309096983671186,-2.72915608382225
1746476977244035000,11.64403515625,0.08185118473470211,-0.3435971643269062,-2.887536381486058
1746476977254015000,11.654014892578125,0.0861217747259885,-0.14036357945799827,-3.0729601688981054
1746476977263995000,11.663994873046875,-0.0012046265494078396,0.1129869122326374,-3.0893419793784616
1746476977273974000,11.67397412109375,-0.2155943231396377,0.22793197279572486,-2.9125360904470083
1746476977283954000,11.683953857421875,-0.4041447912048548,0.23316169014275073,-2.7899457758277655
1746476977293932800,11.693932861328125,-0.498468065630272,0.23165654627680776,-2.75693519436866
1746476977303913000,11.703912841796875,-0.48014798056371505,0.19160218378603458,-2.771715999393165
1746476977313893000,11.71389306640625,-0.39307869585454464,0.2817997565835714,-2.8711873042315244
1746476977323872000,11.7238720703125,-0.27876966817267235,0.4804208792209625,-2.963570696635544
1746476977333852200,11.73385205078125,-0.2299550030559301,0.6761644005954265,-2.887922750455141
1746476977343831000,11.7438310546875,-0.2119306130003184,0.7908826666653156,-2.715041633751988
1746476977353811000,11.75381103515625,-0.2986217120468616,0.7416536485940217,-2.541801620608568
1746476977363791000,11.763791015625,-0.40824820793569083,0.5177484470963478,-2.453879883788526
1746476977373770000,11.77377001953125,-0.4891267482459545,0.1522229440778494,-2.4890254314497113
1746476977383750000,11.78375,-0.5934855328649282,-0.33859248790740964,-2.521577163225412
1746476977393729000,11.79372900390625,-0.6195347508788108,-0.696497579050064,-2.587411863660812
1746476977403709000,11.803708984375,-0.6094319476027041,-0.9160995303958653,-2.56803788562715
1746476977413688800,11.813688720703125,-0.6030962417751551,-1.0003606988817453,-2.311645542022586
1746476977423668000,11.82366796875,-0.6620651480942964,-0.9406202236682176,-1.972284992352128
1746476977433647900,11.83364794921875,-0.7676911761701106,-0.8027794406861066,-1.5822703602433204
1746476977443627000,11.843626953125,-0.863513091655448,-0.6593856997519731,-1.2196855868518353
1746476977453607200,11.853607177734375,-0.8961813624829054,-0.499099860727787,-0.9326023369073867
1746476977463587000,11.863587158203124,-0.8478180213302373,-0.3782821087390184,-0.7131751576066017
1746476977473566000,11.87356591796875,-0.7704244005262851,-0.31629297781586646,-0.5220101961940526
1746476977483546000,11.883546142578124,-0.6384914533484727,-0.30914544414877887,-0.33918986927866934
1746476977493525000,11.89352490234375,-0.40127252370417116,-0.29921850889623164,-0.2313029105335474
1746476977503505000,11.9035048828125,-0.17163542749099434,-0.2557926241457462,-0.20507541334331034
1746476977513485000,11.913485107421875,-0.044372737146541476,-0.25045944642424584,-0.08485387368202209
1746476977523464000,11.9234638671875,0.0200771578669548,-0.29590719239115715,0.049530631366372105
1746476977533443800,11.93344384765625,0.014230769926309585,-0.3471954810798168,0.0755295804977417
1746476977543423000,11.943423095703125,-0.08371054886579513,-0.44501521931886673,0.1526741949766874
1746476977553403000,11.95340283203125,-0.25086685818135734,-0.6321370428204536,0.15236264480948447
1746476977563382800,11.9633828125,-0.48302901589274405,-0.8280033137917518,0.08744505921900272
1746476977573362000,11.97336181640625,-0.7174024929780513,-1.0263000267803668,0.01637947239279747
1746476977583342000,11.983342041015625,-0.9068675916701555,-1.1271662931084632,-0.07638298245668411
1746476977593321000,11.993321044921874,-1.0119746373731642,-1.1878490176081657,-0.11631751796007156
1746476977603301000,12.003301025390625,-1.0141273584276438,-1.1821522672712803,-0.1321276660323143
1746476977613281000,12.013281005859374,-0.930800255921483,-1.0853554423391818,-0.085467621666193
1746476977623260000,12.023260009765625,-0.7590455128997564,-0.9246557618170976,0.019027941074967383
1746476977633240000,12.033239990234375,-0.575518499019742,-0.7463707402437925,0.1865513301372528
1746476977643219000,12.043218994140625,-0.40230478936135766,-0.6029349137336015,0.3496528111040592
1746476977653198800,12.05319873046875,-0.3182459019819274,-0.5041080442786217,0.48434769727587695
1746476977663179000,12.063178955078126,-0.32711127241756766,-0.46651101181209087,0.5249065021574497
1746476977673158000,12.073157958984375,-0.36971356582548465,-0.4464315158575773,0.5230249261945485
1746476977683137800,12.0831376953125,-0.4004652624418959,-0.45734804666936396,0.5694131678819656
1746476977693117000,12.093116943359375,-0.4727910784622654,-0.4097749791115522,0.7012614324510097
1746476977703096800,12.103096923828126,-0.6168149705260991,-0.3182867819815874,0.8598872293084859
1746476977713077000,12.113076904296875,-0.7190805822581052,-0.22627543776035308,1.0029355178058146
1746476977723056000,12.12305615234375,-0.7828022360622883,-0.1686702210098505,1.0923317110925912
1746476977733036000,12.1330361328125,-0.8546715404868125,-0.1041769983112812,1.2199872001469134
1746476977743015200,12.14301513671875,-0.9597136311948299,-0.04252805912792682,1.3680232139289379
1746476977752995000,12.1529951171875,-0.9806447755426168,-0.023051205241680143,1.5101818601101635
1746476977762975000,12.16297509765625,-0.8859013760089873,-0.06152677410840988,1.6132611263126133
1746476977772954000,12.1729541015625,-0.7378297063916921,-0.10707271975278854,1.6351760210007429
1746476977782934000,12.18293408203125,-0.5756441712260246,-0.1081552542924881,1.5766922678500412
1746476977792913000,12.192912841796876,-0.41072424266040325,0.031048049214482305,1.4283067099779843
1746476977802892800,12.202892822265625,-0.2742196767181158,0.3132067022383213,1.3402163385927677
1746476977812873000,12.212873046875,-0.21256489231586456,0.6695294926255941,1.3449252469360828
1746476977822851800,12.222851806640625,-0.15138357064425945,1.0129068767219782,1.4058108005315064
1746476977832831700,12.232831787109374,-0.08832125753164291,1.2814052531838416,1.3850415687471627
1746476977842811000,12.242810791015625,-0.059923430564999575,1.4929980855971574,1.3853706545710562
1746476977852791000,12.252791015625,-0.09667699794471263,1.6703443650156258,1.3824141428530214
1746476977862771000,12.26277099609375,-0.19484101957678793,1.8372627739220857,1.453475638025999
1746476977872750000,12.27275,-0.2686918532073498,1.8446850328773259,1.4560294141620396
1746476977882730000,12.28272998046875,-0.43486028399672355,1.7728771032512187,1.535095936614275
1746476977892709000,12.292709228515625,-0.631904987630248,1.6538474037230013,1.5361480760157107
1746476977902689000,12.30268896484375,-0.6855822172820568,1.554922334590554,1.5290788682818413
1746476977912669000,12.3126689453125,-0.5497586193412543,1.5742548115700483,1.43247376652956
1746476977922648000,12.32264794921875,-0.2539086735626683,1.7533476423949002,1.2837772430121899
1746476977932628000,12.3326279296875,0.0378887088894844,1.9088105913072824,1.2518886513203382
1746476977942606800,12.34260693359375,0.24359241019897163,1.947687142190337,1.3565759372413158
1746476977952587000,12.3525869140625,0.4223923955570906,1.9773142186909913,1.3193208500802516
1746476977962567200,12.362567138671874,0.5891278491120785,2.0874866580247877,1.1244891828536987
1746476977972545800,12.3725458984375,0.7869581866979598,2.2626783897578715,0.854547621846199
1746476977982526000,12.38252587890625,0.9926198754966259,2.6412597737044092,0.609196896737814
1746476977992505000,12.392505126953125,1.0856435385655612,3.163537096402049,0.507943676918745
1746476978002485000,12.402485107421874,0.9196457516353577,3.5292174977213144,0.6557867984771728
1746476978012465000,12.41246484375,0.4105383646994829,3.516280859258771,1.0211310997098684
1746476978022444000,12.422444091796875,-0.30677411190755666,3.1592069582432507,1.4873288077890872
1746476978032424000,12.432423828125,-0.997333313884586,2.52719500310719,1.7781997595787047
1746476978042403000,12.442403076171875,-1.555495166042447,1.660835947436094,1.835926556882262
1746476978052383000,12.452383056640626,-1.8878126653335987,0.819888396397233,1.6590993329018353
1746476978062361900,12.46236181640625,-1.7114479442983865,0.25263620594143865,1.2564409077972174
1746476978072342300,12.47234228515625,-1.090661805118993,-0.10232581748664378,0.8001508457481861
1746476978082322400,12.482322509765625,-0.31559622772336005,-0.25730595131814477,0.5242857399106026
1746476978092301300,12.49230126953125,0.5046779531210661,-0.15753157187998293,0.5520563748896121
1746476978102281200,12.50228125,1.2076316495079547,0.10132628505527973,0.8088684052109718
1746476978112260400,12.51226025390625,1.6577923419564962,0.39583647013008594,1.0681605619102716
1746476978122240300,12.522240234375,1.8907950421452522,0.5762368764221668,1.1898510050803421
