time,seconds_elapsed,z,y,x
1746477135632669200,0.016669189453125,1.637059350529313,-0.4399798555001616,0.8512374743849038
1746477135642648300,0.0266484375,1.7254817303478718,-0.543923337316513,0.8529480776950716
1746477135652627200,0.036627197265625,1.689412053579092,-0.6297039704546332,0.8215896473571658
1746477135662607000,0.046607177734375,1.569596756631136,-0.6623799131318926,0.7549024217456579
1746477135672586200,0.056586181640625,1.4058902955085038,-0.66783057975322,0.6874488879367708
1746477135682565000,0.066565185546875,1.2231032863408327,-0.6224871709436178,0.5911380929559469
1746477135692544300,0.076544189453125,1.0642653080374003,-0.5898413311436772,0.5316849102512001
1746477135702523100,0.086523193359375,0.8984241729736328,-0.5654433874681591,0.3878732361659407
1746477135712503300,0.09650341796875,0.8437368894964457,-0.5170438059583305,0.3209630154535174
1746477135722482200,0.106482177734375,0.8087211056947707,-0.4708408577099442,0.24205869782567022
1746477135732461300,0.11646142578125,0.5736006826996803,-0.44270957272499795,0.07609452090412377
1746477135742440200,0.126440185546875,0.06199263805449009,-0.4540843686982989,-0.02892769605964422
1746477135752419300,0.13641943359375,-0.4694529104828834,-0.460449519816041,-0.17273410944789647
1746477135762399200,0.146399169921875,-0.8832552454143762,-0.4208335487425327,-0.3522174008950591
1746477135772378000,0.156378173828125,-1.0363625711113214,-0.3126265642628073,-0.5270400070548057
1746477135782357200,0.166357177734375,-0.9040946198254823,-0.20552695650309324,-0.634432168020308
1746477135792336100,0.176336181640625,-0.5234948817938566,-0.13234130878299474,-0.6812611392125487
1746477135802315300,0.186315185546875,-0.15861235285401343,-0.06036795946210623,-0.6766136056676506
1746477135812295200,0.196295166015625,0.0676689301252365,-0.0512695839881897,-0.6982450072392821
1746477135822274300,0.2062744140625,0.15529285304248333,-0.0031268998488783836,-0.759572167122364
1746477135832253200,0.216253173828125,0.18304419879913328,0.1333098615542054,-0.7824304801404476
1746477135842232300,0.226232421875,0.35001696824133394,0.2181435692310333,-0.6608484657809138
1746477135852211200,0.236211181640625,0.42213995516598224,0.24008885905742644,-0.441124349360168
1746477135862191000,0.246191162109375,0.2779518489837646,0.15978753411322832,-0.2330257888033986
1746477135872170200,0.256170166015625,-0.05589432117938995,-0.040194063222408295,-0.021180735194683074
1746477135882149000,0.266149169921875,-0.3810422211021185,-0.07319003163427114,-0.009921674555540085
1746477135892128300,0.276128173828125,-0.4782148936092853,0.046508068674802776,-0.21078531542271375
1746477135902107100,0.286107177734375,-0.3821113116383552,0.14069558789134023,-0.41199382420480246
1746477135912086300,0.296086181640625,-0.17872224394679068,0.13172317688465118,-0.5132391529783606
1746477135922066200,0.306066162109375,-0.09177870450913905,0.014492051210999488,-0.5388932341948152
1746477135932045300,0.31604541015625,-0.10387596953809261,-0.0534413750693202,-0.6970736253723502
1746477135942024200,0.326024169921875,-0.11671323927938937,0.058334992329776285,-0.8814613477349281
1746477135952003300,0.33600341796875,-0.06400748500823975,0.24653175158649682,-0.9957090736836195
1746477135961982200,0.345982177734375,0.08224398344457148,0.516198295044899,-1.0460150733366609
1746477135971962000,0.355962158203125,0.2955781065672636,0.7747825957357883,-1.013524424098432
1746477135981941200,0.365941162109375,0.45391398056745524,0.9477163194090127,-0.9076783235311507
1746477135991920000,0.375920166015625,0.4157920474439859,0.9841963305443525,-0.7415858440548181
1746477136001899300,0.385899169921875,0.08677227452397346,0.8980033172130584,-0.45235330712199207
1746477136011878100,0.395878173828125,-0.403204953071475,0.7007444228395819,-0.0730021078467369
1746477136021858300,0.4058583984375,-0.8809142352461814,0.5772635891214013,0.3047498395383358
1746477136031837200,0.415837158203125,-1.1274223136961459,0.5439969870746135,0.5309717935457825
1746477136041816300,0.42581640625,-1.165203470557928,0.6604600509852171,0.5656050077706575
1746477136051795200,0.435795166015625,-1.0115940405577422,0.846335966078937,0.5740536871641874
1746477136061774300,0.4457744140625,-0.6419511653482913,0.9420639927357435,0.5806158221587538
1746477136071754200,0.455754150390625,-0.19612989034354686,0.9805071206375956,0.5508697954535484
1746477136081733000,0.465733154296875,0.22848493050336838,0.9905845702767372,0.4919055653095245
1746477136091712300,0.475712158203125,0.6071206749856471,0.9762675833716988,0.4918184715479612
1746477136101691100,0.485691162109375,0.9298895708173512,0.9956097049623727,0.5153256038635969
1746477136111670300,0.495670166015625,1.20938163498044,0.9786597392052412,0.43892917740345
1746477136121650200,0.505650146484375,1.5241232917010783,0.9651531919002533,0.4184288256883621
1746477136131629300,0.51562939453125,1.7374276042073964,0.9437170206397771,0.4925915017470717
1746477136141608200,0.525608154296875,1.9430431157767771,0.9291054347023368,0.6049608666032552
1746477136151587300,0.53558740234375,2.1271581586778163,0.8300982402443885,0.6453393464818596
1746477136161566200,0.545566162109375,2.2424264598459005,0.6390440457299351,0.7266720603004098
1746477136171546000,0.555546142578125,2.290888000676036,0.36320875050872564,0.814782013168931
1746477136181525200,0.565525146484375,2.265726671412587,0.09724982939660548,0.7756766219660639
1746477136191504100,0.575504150390625,2.189979064249992,-0.1041615084812045,0.661344140343368
1746477136201483300,0.585483154296875,2.1353718602716922,-0.29548078367263075,0.5827911203712225
1746477136211462100,0.595462158203125,2.136576559886336,-0.508376515378058,0.5769152140751481
1746477136221442300,0.6054423828125,2.30546480756104,-0.6700438718885183,0.4570911492988467
1746477136231421400,0.61542138671875,2.4302993939757345,-0.6163526137113571,0.3138233728319406
1746477136241400600,0.625400634765625,2.564083010521531,-0.587885228639841,0.24742694686055183
1746477136251379500,0.63537939453125,2.7235587022066117,-0.49401422802656886,0.3301636822581291
1746477136261358600,0.645358642578125,2.8547949723571535,-0.3522533489912748,0.4553980816453695
1746477136271338500,0.65533837890625,3.283031490832567,-0.2967386747792363,0.8111769744142889
1746477136281317400,0.6653173828125,3.8659681571543216,-0.1656350910976529,1.2972159857779741
1746477136291296500,0.675296630859375,4.136091504469514,-0.24731910257190465,1.6281979986816644
1746477136301275400,0.685275390625,4.184275397402048,-0.2779252532377839,1.683100970736146
1746477136311254500,0.695254638671875,4.111587762331962,-0.2799167193159461,1.523107392656803
1746477136321234400,0.705234375,3.8047266297280786,-0.21886691506952047,1.2908195627391337
1746477136331213600,0.715213623046875,3.481192010220885,-0.2275447270438075,0.8788625634133815
1746477136341192400,0.7251923828125,3.0823744784533975,-0.20328794540464876,0.47707624496817586
1746477136351171600,0.735171630859375,2.6028011559724806,-0.12872282602488994,0.2038356424152851
1746477136361150500,0.745150390625,1.988178142532706,-0.07055354565083981,0.12041034023165702
1746477136371130400,0.75513037109375,1.3904729461461305,-0.14113222574293613,0.05846621749401092
1746477136381109500,0.765109619140625,0.9991852253615856,-0.23867197799682616,0.10822831952869892
1746477136391088400,0.77508837890625,0.5299105940550566,-0.2122223624885082,0.21424656179249285
1746477136401067500,0.785067626953125,0.31188451372385023,-0.2926765399068594,0.1854927609950304
1746477136411046400,0.79504638671875,0.22610417284667492,-0.37340076643824577,0.10763561433255672
1746477136421026600,0.805026611328125,0.17522329591512678,-0.3584422667592764,0.016136895808577537
1746477136431005400,0.81500537109375,0.14605097744464873,-0.16354513308107851,-0.1438917535841465
1746477136440984600,0.824984619140625,-0.006098024614155292,0.04433130915760994,-0.2154465852320194
1746477136450963500,0.83496337890625,-0.42365094425082206,0.4995528651922941,-0.07253098320364952
1746477136460942600,0.844942626953125,-1.101881045204401,1.0491875658929348,0.1288952599823475
1746477136470922500,0.854922607421875,-1.433130184611678,0.808004481858015,0.24288228916823862
1746477136480901400,0.8649013671875,-1.1945622515112162,0.408898780798912,0.19119652559459208
1746477136490880500,0.874880615234375,-0.8693465470492839,0.6508265457212925,0.1565361311018467
1746477136500859400,0.884859375,-0.541390603968501,0.6211760883450508,-0.2125759982317686
1746477136510838500,0.894838623046875,-0.40035160946696996,0.3971154040247202,-0.6488625521719456
1746477136520818400,0.904818359375,-0.3874839445874095,0.23479952047765254,-1.1013099673181772
1746477136530797600,0.914797607421875,-0.3363327262818813,0.14015665870904923,-1.538176951494813
1746477136540776400,0.9247763671875,-0.38265491699576376,0.21132687495350835,-1.9482360082447527
1746477136550755600,0.934755615234375,-0.41260640314519403,0.23338848463594913,-2.3385791416555644
1746477136560734500,0.944734375,-0.4855772390708327,0.25253040747940536,-2.5514842257112265
1746477136570714400,0.95471435546875,-0.7593553095012903,0.21268647286891937,-2.632552151113748
1746477136580693500,0.964693603515625,-1.1801909040704368,0.1833575025320053,-2.7435189556956288
1746477136590672400,0.97467236328125,-1.5690765321493148,0.3042857291579246,-2.910668250748515
1746477136600651500,0.984651611328125,-1.9272750532805918,0.56339960668087,-3.168522483599186
1746477136610630400,0.99463037109375,-2.2260811819836497,0.8744862480252981,-3.527697740808129
1746477136620609300,1.004609375,-2.3031857567131517,1.1016320388793945,-3.65604530377984
1746477136630589400,1.01458935546875,-2.1281647053718564,1.1229191570580006,-3.631296062448621
1746477136640568600,1.024568603515625,-1.784492576112598,1.0653729770183562,-3.7486271413654086
1746477136650547500,1.03454736328125,-1.4962920125760137,0.7928174341201781,-3.8980233375847337
1746477136660526600,1.044526611328125,-1.15301662754938,0.2380085456520319,-3.9648973179399967
1746477136670505200,1.054505126953125,-0.7482220671989023,-0.35460955672860145,-4.010758320882916
1746477136680485400,1.0644853515625,-0.46308103736340994,-0.9135971921861171,-4.05200393898487
1746477136690464500,1.074464599609375,-0.48358650364503264,-1.2688801181316376,-3.9906291405677794
1746477136700443400,1.084443359375,-0.8961930529206991,-1.490934138804674,-3.7766537969321012
1746477136710422500,1.094422607421875,-1.464103268893808,-1.5083365245044231,-3.4470863270014522
1746477136720401400,1.1044013671875,-1.955378281214833,-1.4013555746883153,-3.1886943340122698
1746477136730381600,1.114381591796875,-2.4445628971278666,-1.317951315292716,-2.9795903958052397
1746477136740360400,1.1243603515625,-2.9228385810136794,-1.1522931355804205,-2.8302275173336264
1746477136750339600,1.134339599609375,-3.187279791039228,-0.9272668210983276,-2.7603105160206556
1746477136760318500,1.144318359375,-3.1842724259167907,-0.8220148870319127,-2.760457231014967
1746477136770297300,1.15429736328125,-3.0096698922485112,-0.7485188581883907,-2.826310051628947
1746477136780277500,1.164277587890625,-2.702595409154892,-0.7114695227324962,-2.891152818417549
1746477136790256400,1.17425634765625,-2.307998709952831,-0.6815063461452722,-2.8496225381553173
1746477136800235500,1.184235595703125,-1.9230659111529587,-0.5989870528906583,-2.762547481292486
1746477136810214400,1.19421435546875,-1.692453905493021,-0.6727659903287887,-2.4879174702078104
1746477136820193300,1.204193359375,-1.584990140596032,-0.8141694342285394,-2.202005017608404
1746477136830173400,1.21417333984375,-1.5921803443610667,-0.9916899011701344,-2.015823689827323
1746477136840152600,1.224152587890625,-1.7279601031601428,-1.2768424753129481,-1.8569816198706626
1746477136850131500,1.23413134765625,-1.8867676863253116,-1.5532985327810047,-1.7098066068321465
1746477136860110300,1.2441103515625,-1.9562872127532958,-1.7382821752101183,-1.500664090180397
1746477136870089200,1.254089111328125,-1.9145991115808485,-1.866686436805129,-1.2379781993895769
1746477136880069400,1.2640693359375,-1.7578022837162017,-1.7659417510300874,-0.9897311683177947
1746477136890048500,1.274048583984375,-1.5997458111792802,-1.574721260038018,-0.4497977774202823
1746477136900027400,1.28402734375,-1.5253461114943028,-1.4626765970915556,-0.09507306987941265
1746477136910006300,1.29400634765625,-1.142474263812229,-1.3527473188638686,-0.09669336455762385
1746477136919985400,1.3039853515625,-0.8546388072609901,-1.2256196530759333,0.14501228204667568
1746477136929965600,1.313965576171875,-0.35385676559992135,-1.1620388690471648,0.21871640068292617
1746477136939944400,1.3239443359375,0.35212658080644904,-1.1126222194492816,0.5395955372452735
1746477136949923600,1.333923583984375,0.8413847003471105,-1.1893798804372548,0.7600076359301805
1746477136959902200,1.343902099609375,1.0644881570078433,-1.1217559584975243,0.7043190664559602
1746477136969881300,1.35388134765625,1.1660247968781738,-0.9954998148471117,0.4981576114416122
1746477136979861500,1.363861572265625,1.1591391290176658,-1.0038462029099464,0.3286205444693565
1746477136989840400,1.37384033203125,1.1323914073456078,-1.0650199257969855,0.19768822570145128
1746477136999819500,1.383819580078125,1.1728917600382118,-0.8818079692155122,0.41105449752807616
1746477137009798400,1.39379833984375,0.040701939679309726,-0.6042056643217801,1.3386650174975394
1746477137019777300,1.40377734375,0.00447509958744049,-0.5341875407218932,1.0453986950039862
1746477137029757400,1.41375732421875,0.35646731342449783,-0.28287060068547726,0.8884797020643949
1746477137039736600,1.423736572265625,0.3458393902957439,-0.28934067348241804,1.003910500317812
1746477137049715200,1.433715087890625,0.15304828898608683,-0.24315116923749444,1.0463976429134607
1746477137059694300,1.4436943359375,0.030552301586791872,-0.11600246066153048,1.1011527309298514
1746477137069673200,1.453673095703125,-0.04571187679581344,-0.009784896433353424,1.0905874977737664
1746477137079653400,1.4636533203125,-0.035518399561569096,0.14941490091979504,0.9502034600496292
1746477137089632500,1.473632568359375,0.025609146096184848,0.46541854040026664,0.8184370285451412
1746477137099611400,1.483611328125,0.022756679274514316,0.8452034549176692,0.7784796966880559
1746477137109590300,1.49359033203125,0.03215622965209186,1.2578466829419135,0.7463292391896248
1746477137119569400,1.5035693359375,0.054959670677781104,1.5945318759232758,0.8028221107840537
1746477137129549600,1.513549560546875,0.10522563058137893,1.9761404987365006,0.9565326630711555
1746477137139528400,1.523528564453125,0.14014730635881423,2.3378829760849476,1.0992582954853773
1746477137149507300,1.53350732421875,0.09266834682524204,2.6199890221387148,1.1932798104852438
1746477137159486200,1.543486328125,-0.012879939839243888,2.756979910293221,1.3221090194940566
1746477137169465300,1.55346533203125,-0.11913725155591964,2.7404443705558776,1.6542413714766502
1746477137179444200,1.5634443359375,-0.21275953810513018,2.5924317376494406,2.1352537868499755
1746477137189424600,1.573424560546875,-0.22941432030797004,2.4459347700029612,2.473030866721272
1746477137199403300,1.5834033203125,-0.08994863953776656,2.4575299307286738,2.4759634130418298
1746477137209382400,1.59338232421875,0.08801146093010902,2.4991350297927855,2.3057617446810004
1746477137219361300,1.603361328125,0.2189800200551748,2.4570681584358214,2.1415479185581208
1746477137229341000,1.6133408203125,0.3417261828232556,2.2538275593042374,1.9607792634755372
1746477137239321000,1.623321044921875,0.47425709589421744,2.1629168698012826,1.6047113246321678
1746477137249300000,1.633300048828125,0.6572083557128906,2.257621690890193,1.2598854952931404
1746477137259279000,1.643279052734375,0.8555735308278352,2.3704601345628498,1.0614426518321036
1746477137269258000,1.653258056640625,1.0829255848437547,2.6006103679299355,0.9005418957799672
1746477137279237000,1.663237060546875,1.2899322585105895,3.050457829710841,0.8707780411571264
1746477137289217000,1.673217041015625,1.3763555734664201,3.3537726680099964,1.0747943008363245
1746477137299196000,1.68319580078125,1.307788817718625,3.375966379639506,1.4381144027650354
1746477137309175000,1.693175048828125,0.9935125865526496,3.070866411489248,1.866888096857071
1746477137319154000,1.70315380859375,0.4230862961053848,2.487685999539494,2.277795294868946
1746477137329133000,1.713133056640625,-0.11725333750545978,1.8195400702267883,2.4367601144224404
1746477137339113000,1.723113037109375,-0.4253028031110763,1.2894359994262456,2.132002091577649
1746477137349092000,1.733092041015625,-0.3963001421190798,0.9084241734623908,1.5275404066681861
1746477137359071000,1.743071044921875,-0.13194164194092153,0.7677730092346667,1.0076350737988948
1746477137369050000,1.753050048828125,0.19867957482635973,0.644130262953043,0.7794786445975304
1746477137379029000,1.763029052734375,0.6150619893789291,0.5823065517246723,0.5779454339057207
1746477137389009000,1.7730087890625,1.03188922508955,0.6514397091835736,0.46243163354396816
1746477137398988000,1.782988037109375,1.3215771045744418,0.6836883663594723,0.49982817500233645
1746477137408967000,1.792966796875,1.502211904144287,0.6955500690668821,0.6425304265409708
1746477137418946000,1.802946044921875,1.5806091490328311,0.710749976286292,0.800686267799139
1746477137428925000,1.812925048828125,1.6269718178875743,0.6641711804628372,0.8753963486075401
1746477137438905000,1.822905029296875,1.5840760944910346,0.6052917059928179,0.9836275907456874
1746477137448884000,1.832884033203125,1.3880822516173124,0.47033612305819983,1.139651096150279
1746477137458863000,1.842863037109375,1.11491939047575,0.26924714900255203,1.2642144644081592
1746477137468842000,1.852842041015625,0.8145335913658142,-0.006052139645814895,1.4098703050553798
1746477137478821000,1.862821044921875,0.6098417705126107,-0.3027057664901018,1.4824585714042187
1746477137488801000,1.872801025390625,0.4546002092659473,-0.5671253492057323,1.581536200749874
1746477137498780000,1.88277978515625,0.3997989440202713,-0.9105459879219532,1.6757383330136537
1746477137508759000,1.892759033203125,0.44233051027953624,-1.1445043814003466,1.6743693827480077
1746477137518738000,1.902738037109375,0.5906225446492434,-1.270761109572649,1.5862708280563353
1746477137528717000,1.912717041015625,0.6954110989876091,-1.3596382474213837,1.4934826542437076
1746477137538696000,1.922696044921875,0.7200842063426971,-1.3203034313768147,1.3677701159507036
1746477137548676000,1.932676025390625,0.743746675350517,-1.2386077294647693,1.1234019721388817
1746477137558655000,1.942655029296875,0.6657090575546026,-1.0398311240047216,0.901926043614745
1746477137568634000,1.952634033203125,0.46865737619102,-0.8314110764086245,0.8479635672807693
1746477137578613000,1.962613037109375,0.3131657857060432,-0.6002069500744343,0.7946399733722209
1746477137588592000,1.972592041015625,0.2000795047521591,-0.36934535356760023,0.728572048702836
1746477137598572000,1.982572021484375,0.045488151042535896,-0.21725275787115095,0.6880015533834696
1746477137608551000,1.992551025390625,-0.17363412702754139,-0.19385083949565887,0.5970242283850908
1746477137618530000,2.002530029296875,-0.3164301943294704,-0.2314858658850193,0.41717619527876376
1746477137628509000,2.012509033203125,-0.3938637087523937,-0.31071079376935956,0.22060849803984164
1746477137638488000,2.022488037109375,-0.44048970471844073,-0.43446050755679605,0.03950666548013687
1746477137648468000,2.032468017578125,-0.4833071021817624,-0.6063070205152035,-0.2725982129961252
1746477137658447000,2.042447021484375,-0.500919331239909,-0.6952063701957464,-0.5406605361282825
1746477137668426000,2.052426025390625,-0.5378986701995134,-0.8350298514276743,-0.7223825464129447
1746477137678405000,2.062405029296875,-0.5979759030867368,-0.9707681091725826,-0.9324486076503992
1746477137688384000,2.072384033203125,-0.67832822756581,-1.140503329065442,-1.0735773262619972
1746477137698364000,2.082364013671875,-0.7702309237807988,-1.3614070106595755,-1.2235516146302223
1746477137708343000,2.092343017578125,-0.8604325882315635,-1.5370546694666147,-1.3240566464304924
1746477137718322000,2.102322021484375,-0.8562029147725552,-1.6681237663567066,-1.4507722242861985
1746477137728301000,2.112301025390625,-0.697506463831663,-1.7550889331042765,-1.5711808109521865
1746477137738280000,2.122280029296875,-0.4912175099801272,-1.7161141825437545,-1.6929583478838204
1746477137748260000,2.132260009765625,-0.3159926066298038,-1.5733119777619837,-1.7422966715484856
1746477137758239000,2.142239013671875,0.014993644057586788,-1.4993711277604103,-1.7557096953511238
1746477137768218000,2.152218017578125,0.29865510285980995,-1.2912912719041107,-1.694333727890253
1746477137778197000,2.162197021484375,0.47263563217222687,-1.1112462549209594,-1.7043278831601143
1746477137788176100,2.172176025390625,0.48039742528013885,-0.9020674979120492,-1.7337141366422175
1746477137798156000,2.182156005859375,0.31047172431647774,-0.7054670674473047,-1.8525670182988045
1746477137808135000,2.192135009765625,0.05167633815817534,-0.5475684158205986,-2.039937848125398
1746477137818114000,2.202114013671875,-0.31306817055046554,-0.47230596182644363,-2.29131850104779
1746477137828093000,2.212093017578125,-0.6726227094005793,-0.4410363788157701,-2.556138188996911
1746477137838071800,2.22207177734375,-0.8973480681747198,-0.4244610915899277,-2.88323400811702
1746477137848051000,2.232051025390625,-0.941328079676628,-0.32971184683740135,-3.2186642326012254
1746477137858031000,2.242031005859375,-0.8542992000430822,-0.15609598611891268,-3.4354905817538497
1746477137868010000,2.252010009765625,-0.7743851208508015,-0.05082125569880008,-3.489860469844937
1746477137877989000,2.261989013671875,-0.6694885030280798,0.06034253275990486,-3.514502743670344
1746477137887967700,2.2719677734375,-0.39978674212582405,0.12564181114435194,-3.594467091745138
1746477137897947000,2.28194677734375,0.03058620385639369,0.2692641001373529,-3.7318276899948715
1746477137907927000,2.291927001953125,0.4961316585719585,0.5354851793169975,-3.8696138201802968
1746477137917906000,2.301906005859375,0.8345932135760784,0.9483867660164832,-3.9298517235219474
1746477137927885000,2.311885009765625,1.0283598819196225,1.2938462170839309,-3.8543838100835677
1746477137937864000,2.321864013671875,1.0218133098203688,1.4651128843277692,-3.80921868045032
1746477137947842800,2.3318427734375,0.8590892838638275,1.4695231019854544,-3.7731151014119386
1746477137957823000,2.341822998046875,0.5533423961121589,1.2540882071912287,-3.8257027822613714
1746477137967802000,2.351802001953125,0.2042540870230645,0.8389531623512506,-3.910215879681706
1746477137977781000,2.361781005859375,-0.07314356214404105,0.28700492401123046,-3.9498441257148977
1746477137987759900,2.371759765625,-0.2605074507731944,-0.34187750092744823,-3.9161648512139915
1746477137997738800,2.38173876953125,-0.4028349507153034,-0.8369412380069494,-3.774839440986514
1746477138007719000,2.391718994140625,-0.5980722761332988,-1.2329209160000085,-3.4545927571088075
1746477138017698000,2.401697998046875,-0.812286689221859,-1.512049992069602,-3.0973195341289044
1746477138027677200,2.41167724609375,-0.969900094166398,-1.5578104572474956,-2.669080969826877
1746477138037655800,2.42165576171875,-0.9883412483293562,-1.4570032276302576,-2.1549746786251665
1746477138047635000,2.431635009765625,-0.9127420366615057,-1.2567594722270965,-1.6926967743381858
1746477138057615000,2.441614990234375,-0.7743501226026565,-0.9614543373823166,-1.2453572037249803
1746477138067594000,2.451593994140625,-0.6294464885622263,-0.7367115160167217,-0.8366910626381635
1746477138077572900,2.46157275390625,-0.4482599733937531,-0.49315059693455693,-0.4522983620643615
1746477138087551700,2.4715517578125,-0.2545646167207509,-0.3100602209061384,-0.13032207791507244
1746477138097531000,2.48153076171875,-0.04617131100110709,-0.1850871028035879,0.13069734096825122
1746477138107511000,2.491510986328125,0.1310177320290357,-0.09208733206689357,0.25329145497977734
1746477138117490200,2.501490234375,0.2121229937672615,-0.016236849051713943,0.3703793727904558
1746477138127468800,2.51146875,0.17445472269542514,-0.028410686448216437,0.4200128800094127
1746477138137448000,2.521447998046875,0.022344445211812853,-0.11624445272386073,0.46850540049970146
1746477138147426800,2.5314267578125,-0.2525589759867638,-0.23352935441136358,0.4602227253228426
1746477138157407000,2.541406982421875,-0.5869885355284438,-0.3884294087439775,0.4550765946060419
1746477138167386000,2.55138623046875,-0.8852169008761643,-0.5559112967520952,0.40625615733563897
1746477138177364700,2.56136474609375,-1.110594586079195,-0.6821709475338459,0.3394903135299682
1746477138187344000,2.57134375,-1.236534430322051,-0.7579279070466757,0.3185737822294235
1746477138197322800,2.58132275390625,-1.2495347816705702,-0.8161497943907976,0.38049452409148216
1746477138207302000,2.591302001953125,-1.2498346413999795,-0.8170370986193418,0.424333665817976
1746477138217282000,2.601281982421875,-1.2165437816947697,-0.6941232511341572,0.4222673809379339
1746477138227260700,2.6112607421875,-1.181945346522331,-0.541838347736001,0.47974224930703635
1746477138237239600,2.621239501953125,-1.1763105555057525,-0.3831809866964817,0.5688280614703893
1746477138247218700,2.63121875,-1.1742051076591014,-0.18790099118053913,0.6847732389867305
1746477138257197600,2.641197509765625,-1.1787404130011796,-0.026670564782619473,0.8628682909458875
1746477138267177500,2.651177490234375,-1.211464870995283,0.1202022504389286,1.020163715982437
1746477138277156600,2.661156494140625,-1.2469237223893403,0.1985369514852762,1.2512369094133375
1746477138287135500,2.671135498046875,-1.2392933736413716,0.26586042917370795,1.4645757087111473
1746477138297114600,2.681114501953125,-1.0878624567240476,0.29687866777181626,1.664998912334442
1746477138307093500,2.691093505859375,-0.8879916262865066,0.33746552970409394,1.812504180240631
1746477138317073700,2.70107373046875,-0.709651659655571,0.4197323095023632,1.926273182761669
1746477138327052500,2.711052490234375,-0.5643915403276681,0.4954144502133131,2.0062696795403956
1746477138337031700,2.72103173828125,-0.470309819573164,0.5395335779249668,2.038777864435315
1746477138347010600,2.731010498046875,-0.4857423299720511,0.6130155782431363,2.050225141122937
1746477138356989700,2.74098974609375,-0.5509942986160516,0.643809360435605,2.090928907433152
1746477138366969600,2.750969482421875,-0.6233616156905889,0.6491524750292301,2.15285140286088
1746477138376948500,2.760948486328125,-0.6264011295169591,0.6362713661462068,2.236679440626502
1746477138386927600,2.770927734375,-0.6286907017588615,0.561695140850544,2.2482769394397732
1746477138396906500,2.780906494140625,-0.5794908732494339,0.5010352127045393,2.2784540510386226
1746477138406885600,2.7908857421875,-0.49001288343071936,0.49003041908740996,2.270035182261467
1746477138416865500,2.800865478515625,-0.37368484407663344,0.5491057083904742,2.1615075875252483
1746477138426844700,2.8108447265625,-0.2721533553054556,0.7052227372974157,2.083112680724263
1746477138436823600,2.820823486328125,-0.17724274597875772,0.8881114532738924,2.0635534092515706
1746477138446802700,2.830802734375,-0.1413116739630699,1.083607721889019,2.0592244401365516
1746477138456781600,2.840781494140625,-0.1451899401685223,1.2602508214741945,2.0732962201088667
1746477138466760700,2.8507607421875,-0.1589484529405832,1.4153244788080452,2.1281430780619384
1746477138476740600,2.86074072265625,-0.21110417211353777,1.4930086069911717,2.091488879403472
1746477138486719500,2.870719482421875,-0.2797154245901853,1.5606635085910558,2.0724363884091375
1746477138496698600,2.88069873046875,-0.30039569944944233,1.7154887441217899,2.069576322802901
1746477138506677500,2.890677490234375,-0.32201193998456,1.882919194203615,2.1789713480234143
1746477138516656600,2.90065673828125,-0.38840244767181575,1.9361141932964323,2.327114913833141
1746477138526636500,2.910636474609375,-0.35119419532716273,2.032854319605231,2.3544389740884304
1746477138536615700,2.92061572265625,-0.1695902584642172,2.2509581413477657,2.208056572732329
1746477138546594600,2.930594482421875,0.08101816797666252,2.424758126461506,2.0525486156344415
1746477138556573700,2.94057373046875,0.32548166192173955,2.3836837732732294,1.9328700968086718
1746477138566552600,2.950552490234375,0.5336023612450808,2.161010159397125,1.7931962531805037
1746477138576532500,2.960532470703125,0.7707002948582172,1.9398165549457071,1.5027046560972928
1746477138586511600,2.97051171875,1.0666519109129906,1.97075179143548,1.1148375574111937
1746477138596490500,2.980490478515625,1.3956348589539527,2.1406647059828043,0.7726116814374924
1746477138606469600,2.9904697265625,1.7623457723647356,2.5089842236340045,0.5316033694475889
1746477138616448800,3.00044873046875,2.075204684078693,2.987137742444873,0.48955520279109477
1746477138626428700,3.0104287109375,2.188710651749372,3.3949814612329003,0.5766963106274604
1746477138636407600,3.020407470703125,1.9228436467044054,3.5848294948279857,1.0043348632097244
1746477138646386700,3.03038671875,1.137743216702342,3.265143951964378,1.799583323869109
1746477138656365600,3.040365478515625,0.15069836485907434,2.6495868725448846,2.4393928010135886
1746477138666344700,3.0503447265625,-0.6705553285419941,1.9107681551158426,2.395911971205473
1746477138676324600,3.06032470703125,-1.133075955543667,1.102780039870739,1.8361720560759305
1746477138686303500,3.070303466796875,-1.159263559114933,0.4536076910972595,0.9763999775797129
1746477138696282600,3.08028271484375,-0.7750089518375695,0.14246376660764218,0.30916181076169014
1746477138706261800,3.09026171875,-0.2627490191549063,-0.030944004318118095,-0.06682663408219813
1746477138716240600,3.10024072265625,0.30593802640959616,-0.06916296807527542,-0.1392073951601982
1746477138726220500,3.110220458984375,0.8283293308757245,0.13815642480254173,-0.025467034211754797
1746477138736199700,3.12019970703125,1.1735165408730506,0.30831951471865177,0.08191080596745014
1746477138746178600,3.130178466796875,1.36717974884212,0.4415127641558647,0.15128303287923336
1746477138756157700,3.14015771484375,1.486515299449116,0.45193595849275586,0.22442893311083315
1746477138766136600,3.150136474609375,1.5618302142828702,0.41674131099283696,0.08720365167856216
1746477138776116700,3.16011669921875,1.452086229494214,0.27397476204633714,-0.06566694265305996
1746477138786095600,3.170095703125,1.1918157292820513,0.01217091478705406,-0.25029578029513355
1746477138796074800,3.18007470703125,0.9255424815237522,-0.27934944082200525,-0.34445290437340736
1746477138806053600,3.1900537109375,0.694384532418847,-0.6510889960497618,-0.3242605956941843
1746477138816032800,3.20003271484375,0.49280229495353994,-1.040458900514245,-0.25821838998794555
1746477138826011600,3.21001171875,0.40097134880051016,-1.467134745544195,-0.17945055822134018
1746477138835991600,3.219991455078125,0.40245501148700713,-1.772425267830491,-0.12670856359302995
1746477138845970700,3.229970703125,0.43739195789881047,-1.9712936432272194,-0.19736849222779274
1746477138855949600,3.239949462890625,0.5279740730345249,-2.084084156104922,-0.32113807975947856
1746477138865928700,3.2499287109375,0.6900392697561532,-2.0934569646060464,-0.34522973396480083
1746477138875907600,3.259907470703125,0.7987696205228567,-1.9848212333202362,-0.26290976267457006
1746477138885887700,3.2698876953125,1.0375263541936874,-1.8062170627951621,-0.12755378224551678
1746477138895866600,3.27986669921875,1.1439660367399453,-1.5238134950995443,-0.06814122381210327
1746477138905845800,3.289845703125,1.1594440302483737,-1.3061544945150614,-0.02161269687116146
1746477138915824600,3.29982470703125,1.0087170238167047,-1.0599766709327698,-0.009094576081633568
1746477138925803800,3.3098037109375,0.8778619350034743,-0.8360720539569855,-0.03270750685930252
1746477138935783700,3.31978369140625,0.7427285843491553,-0.575294627135992,-0.06844459067285061
1746477138945762600,3.329762451171875,0.5246512122221291,-0.3737386200904846,-0.016785130584239957
1746477138955741700,3.33974169921875,0.41889512802585954,-0.2929951043367386,-0.008089198431372641
1746477138965720600,3.349720458984375,0.26593933962881566,-0.25217443364858627,-0.020381109249591828
1746477138975699700,3.35969970703125,-0.03763151925802231,-0.3138426620543003,-0.07978489985466003
1746477138985679600,3.3696796875,-0.357180283999443,-0.4598953930646181,-0.2711813319355249
1746477138995658800,3.37965869140625,-0.7174054155874997,-0.6793512139379978,-0.422515218219161
1746477139005637600,3.3896376953125,-0.9716261142414062,-0.9597574703365563,-0.5978326221585274
1746477139015616800,3.39961669921875,-1.0579646735232322,-1.2301695714652539,-0.736056266978383
1746477139025595600,3.409595703125,-1.0401701467007398,-1.4858897148966788,-0.8419938452214002
1746477139035575600,3.419575439453125,-0.9642553662776946,-1.7602531839996576,-0.9197498695969581
1746477139045554700,3.4295546875,-0.7258382398247718,-1.9480092137515543,-1.1049760886102915
1746477139055533600,3.439533447265625,-0.4333920746076852,-2.0645511881172656,-1.3619810111552475
1746477139065512700,3.4495126953125,-0.08329320023655891,-2.0502982063591477,-1.6395535054326056
1746477139075491600,3.45949169921875,0.2452922729194164,-1.899450642287731,-1.8075258073061704
1746477139085470700,3.469470703125,0.5286497072737664,-1.676442681890726,-1.928622960758209
1746477139095450600,3.47945068359375,0.6839378841411322,-1.4324825343579053,-2.038901198554039
1746477139105429800,3.4894296875,0.7353232765287161,-1.2692062813460827,-2.1255296806931496
1746477139115408600,3.49940869140625,0.8118482247393578,-1.114286937791109,-2.2507067969352006
1746477139125387800,3.5093876953125,0.781297676718235,-0.9970295086324215,-2.3827684119939803
1746477139135366700,3.51936669921875,0.543084621470049,-0.805128634160757,-2.4391601613014937
1746477139145346600,3.5293466796875,0.10928279701769351,-0.6906126126646995,-2.545388246923685
1746477139155325700,3.53932568359375,-0.3402466848552227,-0.6166507198750972,-2.6351421676069497
1746477139165304600,3.5493046875,-0.6620785920977592,-0.47611412193775177,-2.6723770887628198
1746477139175283700,3.55928369140625,-0.8170768461078405,-0.2268967845290899,-2.6650270182609557
1746477139185262600,3.5692626953125,-0.9437655359566212,0.07684884640276432,-2.5773703621178865
1746477139195242800,3.57924267578125,-1.0954115569293499,0.30652853964865207,-2.4009032036215063
1746477139205221600,3.5892216796875,-1.204137304586172,0.4832663317799568,-2.2018805144459006
1746477139215200800,3.59920068359375,-1.2378414212673903,0.6578367167443037,-2.115590178219974
1746477139225179600,3.6091796875,-1.168750933906436,0.9158096075385809,-2.1759373871549963
1746477139235158500,3.619158447265625,-1.1553092685312032,1.1964800678312777,-2.3450948071599007
1746477139245138400,3.629138427734375,-1.066083755636215,1.4841893407195805,-2.5840759972363707
1746477139255117300,3.639117431640625,-0.9313754254609345,1.7386626989603042,-2.779468805477023
1746477139265096400,3.649096435546875,-0.832458539634943,1.8701117350786922,-2.984059650173783
1746477139275075300,3.659075439453125,-0.6513415095061064,1.882826255223155,-3.302021437984705
1746477139285054500,3.669054443359375,-0.6011982626667246,1.7344862900584934,-3.570950607079267
1746477139295034400,3.679034423828125,-0.7333499306291341,1.30602648422122,-3.706919750970602
1746477139305013500,3.689013427734375,-0.9831301626175641,0.7212877369135617,-3.719791799764335
1746477139314992400,3.698992431640625,-1.1989970190882682,0.11142623878717421,-3.629663200549781
1746477139324971500,3.708971435546875,-1.3738222555965185,-0.41251521773040295,-3.452778693424165
1746477139334950400,3.718950439453125,-1.5003332507908342,-0.7863613898485898,-3.173822343572974
1746477139344929500,3.728929443359375,-1.6044687480479478,-0.9527806170612573,-2.7635429220706222
1746477139354909400,3.738909423828125,-1.6102210279643534,-0.9424591295331716,-2.290776941516995
1746477139364888300,3.748888427734375,-1.5144132140696047,-0.8148550784051418,-1.7612392724275587
1746477139374867500,3.758867431640625,-1.3918886581629515,-0.6452759258568287,-1.263498425093293
1746477139384846300,3.768846435546875,-1.250152621307969,-0.49313539936542505,-0.8870423627376556
1746477139394825500,3.778825439453125,-1.093548101145029,-0.34793373222649093,-0.5821159975886344
1746477139404805400,3.788805419921875,-0.892765416559577,-0.24967267996072767,-0.43904315917193887
1746477139414784500,3.798784423828125,-0.7705465656012296,-0.16144260784387587,-0.3095253833770752
1746477139424763400,3.808763427734375,-0.6465414157480001,-0.15664251408576965,-0.16175181992352008
1746477139434742500,3.818742431640625,-0.5778332422355189,-0.264482126557827,-0.11047580619454384
1746477139444721400,3.828721435546875,-0.6799883427977561,-0.4739513909459114,-0.08269991051852703
1746477139454701300,3.838701416015625,-0.8290934471160173,-0.7423071440666914,-0.0750455963730812
1746477139464680400,3.848680419921875,-0.9360814111948013,-1.006610991448164,-0.01751929007768631
1746477139474659300,3.858659423828125,-0.9221493319541215,-1.196209434196353,0.05044540812373161
1746477139484638500,3.868638427734375,-0.8400760289013385,-1.3236796298116444,0.09205459884107112
1746477139494617300,3.878617431640625,-0.8132891442626714,-1.4225357253611086,0.11149521237015723
1746477139504597500,3.888597412109375,-0.7460539293795824,-1.3245353698581457,0.08190905240178108
1746477139514576400,3.898576416015625,-0.6776479171514511,-1.1098679523050785,0.250151403388381
1746477139524555500,3.908555419921875,-0.6131032565265894,-0.8234241693079472,0.45012394063472744
1746477139534534400,3.918534423828125,-0.5150292147329076,-0.5536971278339624,0.6824182002931833
1746477139544513500,3.928513427734375,-0.3850526623198762,-0.25265841777324677,0.9651999536514282
1746477139554493400,3.938493408203125,-0.27069906484391537,-0.00888882437646389,1.1953531096279622
1746477139564472300,3.948472412109375,-0.269390977920033,0.20849252831041812,1.3949977300941943
1746477139574451500,3.958451416015625,-0.2922615293651819,0.42402094660699363,1.5714719028532504
1746477139584430300,3.968430419921875,-0.3693623047024011,0.57164311889112,1.699197534534335
1746477139594409500,3.978409423828125,-0.47322950641214845,0.6836456962615252,1.8183429693967104
1746477139604389400,3.988389404296875,-0.5608394008040428,0.7429314134448767,1.9256687871277332
1746477139614368500,3.998368408203125,-0.6346130775451659,0.7914607588142156,2.0347394026994703
1746477139624347400,4.008347412109375,-0.6434042867660522,0.8297837674677372,2.07384917781651
1746477139634326500,4.018326416015625,-0.6399415790915489,0.8457833006322384,2.082020209312439
1746477139644305400,4.028305419921875,-0.6990162838727235,0.840716664892435,2.059505595165491
1746477139654284500,4.038284423828125,-0.7473124050080776,0.8243108890146017,2.0587118144392966
1746477139664264400,4.048264404296875,-0.7487427300721406,0.7805570874840021,2.0964298429369923
1746477139674243300,4.058243408203125,-0.7501870836615562,0.6348153221189975,2.157346960714459
1746477139684222500,4.068222412109375,-0.6842348943263292,0.40757308515310287,2.2138205430865288
1746477139694201300,4.078201416015625,-0.5702800503769889,0.14566694656312465,2.274195809072256
1746477139704180500,4.088180419921875,-0.4585726200282573,-0.026232173365354536,2.2582120579987763
1746477139714160400,4.098160400390625,-0.31323775496371087,-0.07558744816482067,2.1614742697775364
1746477139724139500,4.108139404296875,-0.1321446171671152,-0.01478606572151184,2.06799343752563
1746477139734118400,4.118118408203125,-0.028682452594302594,0.1795493424206972,2.0449778881192207
1746477139744097500,4.12809765625,0.05559398652594536,0.4563134429246187,2.0682219855844974
1746477139754076400,4.138076416015625,0.1285902126211673,0.7844131783902645,2.1324194402068852
1746477139764056300,4.148056396484375,0.12206629074513911,1.161113570895791,2.185609178602695
1746477139774035500,4.158035400390625,0.08075933437738567,1.5252268690288067,2.2466204044044016
1746477139784014300,4.168014404296875,0.012730813692137598,1.826883418726921,2.3030425488501787
1746477139793993500,4.177993408203125,-0.11604805336892604,2.0605641643077135,2.41225403419733
1746477139803972600,4.18797265625,-0.31972244080789386,2.1968127096623182,2.558223178577423
1746477139813952500,4.197952392578125,-0.4950643216013908,2.1828584185898303,2.6550048059403895
1746477139823931400,4.207931396484375,-0.5174649539798498,2.06508427208066,2.5625264287292957
1746477139833910500,4.21791064453125,-0.34732407589554787,1.9891092859029769,2.298570956394076
1746477139843889400,4.227889404296875,0.03980192209966481,1.9925415984392165,1.9703449642002582
1746477139853868500,4.23786865234375,0.43987383784241973,1.9839234076976775,1.7387223201930522
1746477139863848400,4.247848388671875,0.7061479623835534,1.85312611348629,1.6288900725990534
1746477139873827600,4.25782763671875,0.8790536290060729,1.700851731482148,1.4520400522649288
1746477139883806500,4.267806396484375,1.0324813457638025,1.5966349856823683,1.2717968823611736
1746477139893785600,4.27778564453125,1.1479519645709544,1.6020558416873216,1.1064748027354478
1746477139903764500,4.287764404296875,1.2027812138020992,1.8038111706972122,0.9872574716806412
1746477139913744400,4.297744384765625,1.130907744659111,2.230239178445935,0.9490028520882129
1746477139923723500,4.3077236328125,0.9553741406857967,2.798352369645238,0.9856512055277824
1746477139933702400,4.317702392578125,0.681788012630865,3.2791315607845783,1.0534680196911097
1746477139943681500,4.327681640625,0.3264035260070115,3.5235827067047354,1.3021873444497585
1746477139953660400,4.337660400390625,-0.14849486346542834,3.2958453796982763,1.7206185082256793
1746477139963639600,4.3476396484375,-0.7933645466089249,2.566505269232392,1.984822986885905
1746477139973619500,4.357619384765625,-1.2841431537151335,1.5966075131535529,1.791722088974714
1746477139983598600,4.3675986328125,-1.364061324560642,0.7652601496309042,1.3285206401020289
1746477139993577500,4.377577392578125,-0.9843366157978772,0.1501268485814333,0.8706178821593522
1746477140003556600,4.387556640625,-0.39405309384465215,-0.2315910798251629,0.4404302296161651
1746477140013535500,4.397535400390625,0.12547054623067377,-0.37896716839373107,0.1993470988243818
1746477140023515400,4.407515380859375,0.6179577108204365,-0.3126689420998096,0.12589023294746876
1746477140033494500,4.41749462890625,1.0185602263085543,-0.09977905561327934,0.1369499716222286
1746477140043473400,4.427473388671875,1.2441910825550555,0.12486088989973068,0.11017010124623774
1746477140053452500,4.43745263671875,1.3655166379354893,0.28096213671565057,0.015482231292128562
1746477140063431400,4.447431396484375,1.450024474658817,0.49634267097413537,-0.09971066655218601
1746477140073411600,4.45741162109375,1.357129479470849,0.5354933626234532,-0.1283107380926609
1746477140083390500,4.467390380859375,1.0491695187795906,0.4993085350424051,-0.3827110310971737
1746477140093369600,4.47736962890625,0.6822048498034476,0.4682499644339084,-0.48816170260608194
1746477140103348500,4.487348388671875,0.3237625830441713,0.33691023390889163,-0.4014233303517103
1746477140113327600,4.49732763671875,0.009898366745188831,0.13152502396404742,-0.26497429398894307
1746477140123307500,4.5073076171875,-0.2465904960364103,-0.16411971809864043,-0.11934534134864806
1746477140133286400,4.517286376953125,-0.3378373586911708,-0.48365036266148087,-0.012962357425689696
1746477140143265500,4.527265625,-0.3301192585945129,-0.8003080821365117,0.06537526623010635
1746477140153244400,4.537244384765625,-0.25211715050339695,-1.004169443514943,0.12685177145600318
1746477140163223600,4.5472236328125,-0.09645013038627803,-1.226176117914915,0.06358312211632729
1746477140173202400,4.557202392578125,0.20609481951892375,-1.2959651089340447,-0.11899638178050517
1746477140183182600,4.5671826171875,0.43864743785262106,-1.3595663512289524,-0.1397697052180767
1746477140193161500,4.577161376953125,0.596145034397766,-1.39780343516469,-0.1353688399106264
1746477140203140600,4.587140625,0.7448153274953365,-1.3198036651611327,-0.11795476377308368
1746477140213119500,4.597119384765625,0.795156033135578,-1.2309592605382202,-0.09370528865754604
1746477140223098600,4.6070986328125,0.7487840849958359,-1.0728981118261813,-0.09950666841268539
1746477140233079000,4.6170791015625,0.6947076268933713,-0.9335784884631633,-0.14171148693561553
1746477140243058000,4.627057861328125,0.5965881019901484,-0.9130869045764207,-0.15952245343625546
1746477140253037000,4.637037109375,0.4380214879740029,-0.9166694392383098,-0.22377368407249448
1746477140263016000,4.647015869140625,0.30187991012521087,-1.000680432355404,-0.3191208947181701
1746477140272995000,4.6569951171875,0.20145020858347415,-1.0835475161343813,-0.47215281709134577
1746477140282975000,4.66697509765625,0.12140702311880885,-1.1519529438406229,-0.598840337896347
1746477140292953900,4.676953857421875,0.03891454480588436,-1.1900702007889747,-0.6737538323223591
1746477140302933000,4.68693310546875,-0.021128712746500966,-1.2655080113500357,-0.6889157456189393
1746477140312912000,4.696911865234375,-0.027407135428860783,-1.4205653020709752,-0.7155389641284943
1746477140322891000,4.70689111328125,0.0018306494932621717,-1.6185148090571164,-0.7658394108235835
1746477140332871000,4.716870849609375,-0.012420505633950233,-1.833127281552553,-0.8516682670176029
1746477140342850000,4.72685009765625,-0.009452303478121756,-2.0493670629888774,-1.0192845950603484
1746477140352829000,4.736828857421875,0.01193820200972259,-2.137071065405011,-1.1508587188631296
1746477140362808000,4.74680810546875,0.12455240847244858,-2.0743021822810173,-1.3004524834811686
1746477140372787000,4.756786865234375,0.26350721711106595,-1.9462433731228113,-1.451698106959462
1746477140382766800,4.766766845703125,0.4375204796493053,-1.7614456086546182,-1.593127269822359
1746477140392746000,4.77674609375,0.5366613104242831,-1.4932763180166482,-1.659310929825902
1746477140402724900,4.786724853515625,0.5006324771225452,-1.2729413762211799,-1.6995944248974322
1746477140412704000,4.7967041015625,0.4550836088687181,-1.0155477466195821,-1.85044023540318
1746477140422683000,4.806682861328125,0.3534124558985233,-0.699634708032012,-2.0731758085995913
1746477140432663000,4.8166630859375,0.18531565086245536,-0.3707143038332462,-2.1850269948005674
1746477140442642000,4.826641845703125,0.025655907847359775,-0.11849310843348503,-2.37875859183073
1746477140452621000,4.83662109375,-0.15505487956814468,0.053634559553861615,-2.5010908400356766
1746477140462600000,4.846599853515625,-0.36428452651407567,0.0959469301044941,-2.6463100428313013
1746477140472579000,4.8565791015625,-0.5561866065621376,0.12104922265708445,-2.8400299494236707
1746477140482558000,4.866557861328125,-0.7009277435172349,0.12262626271545886,-3.070963442122936
1746477140492537900,4.876537841796875,-0.8371317921429872,0.1213479133427143,-3.2339246378362176
1746477140502517000,4.88651708984375,-0.9341385334987192,0.10432605139315128,-3.2545874866366384
1746477140512495900,4.896495849609375,-0.9363234763223678,0.05162263520956039,-3.268462282732129
1746477140522475000,4.90647509765625,-0.8322878592431545,0.0975631331294775,-3.421220648860931
1746477140532454000,4.916453857421875,-0.6481032582372427,0.24517186141014097,-3.580219955205917
1746477140542434000,4.92643408203125,-0.40498010951783503,0.46038872953951354,-3.7024633560836313
1746477140552413000,4.936412841796875,-0.21217267812788485,0.7515227161794901,-3.693134971246123
1746477140562392000,4.94639208984375,-0.10430968478024005,0.9652800331503152,-3.581086216646433
1746477140572371000,4.956370849609375,-0.058829169054888185,1.101699843418598,-3.3954046550810335
1746477140582350000,4.96635009765625,-0.0781692448189482,1.0029828640788794,-3.154962744802236
1746477140592330000,4.976330078125,-0.20276596735715866,0.6723726070970296,-2.944982608282566
1746477140602308900,4.986308837890625,-0.35863990822322667,0.25269699621796604,-2.782109675374627
1746477140612288000,4.9962880859375,-0.4506355068860575,-0.18939035295546053,-2.6355694531083107
1746477140622267000,5.006266845703125,-0.4770212633779272,-0.43046120878756045,-2.4318606519430874
1746477140632246000,5.01624609375,-0.4989162477891892,-0.4606301370799541,-2.1058798083275554
1746477140642226000,5.026225830078125,-0.6086667353838682,-0.29057693727910516,-1.5819190625876187
1746477140652205000,5.036205078125,-0.6728524265032261,-0.07248188336491584,-1.0070815315693615
1746477140662184000,5.046183837890625,-0.7092004087567328,0.17426701810359954,-0.40075346826612945
1746477140672163000,5.0561630859375,-0.6919763022333383,0.42837914181649683,0.23029051862061023
1746477140682142000,5.066141845703125,-0.5609381850033999,0.6217658709317445,0.7015729826182127
1746477140692121900,5.076121826171875,-0.48051856744177635,0.7391618317782879,1.1130074193745851
1746477140702101000,5.08610107421875,-0.45991475535221393,0.7207453005999326,1.3401128782182932
1746477140712080100,5.096080078125,-0.37875681357868013,0.6247615456163883,1.3630834194391965
1746477140722059000,5.10605908203125,-0.3865403070617467,0.46171325614154335,1.2111468910872936
1746477140732038100,5.1160380859375,-0.4335433927118778,0.18026655077934264,0.9468862983256577
1746477140742018000,5.12601806640625,-0.42160562909357246,-0.09052724314332007,0.7189537410080432
1746477140751997000,5.135996826171875,-0.48106443782150743,-0.35841362518668174,0.5778624317973852
1746477140761976000,5.14597607421875,-0.5606576875615865,-0.6236480314165354,0.5495446843296289
1746477140771955000,5.155954833984375,-0.6319470732063055,-0.8782230964660644,0.5092079977661371
1746477140781934000,5.16593408203125,-0.6412970853537321,-1.0894254682570694,0.41367666272521014
1746477140791913000,5.175912841796875,-0.6146627609282732,-1.2564718874573706,0.4014133934795856
1746477140801893000,5.18589306640625,-0.5344336244374513,-1.418191558676958,0.42054537945091724
1746477140811872000,5.1958720703125,-0.46379294849243013,-1.5037854370713233,0.4137877218842506
1746477140821851100,5.20585107421875,-0.41662086295094336,-1.541145738172531,0.3572153553128242
1746477140831830000,5.215830078125,-0.37969197553694245,-1.4794517908036708,0.26336101357340813
1746477140841809200,5.22580908203125,-0.40820495331585405,-1.3978320767372845,0.26850948237776756
1746477140851789000,5.2357890625,-0.4531844972491264,-1.229665713596344,0.34686697977781294
1746477140861768000,5.245767822265625,-0.4541916284650564,-1.0121861612319947,0.45102468886673447
1746477140871747000,5.2557470703125,-0.4561187971353531,-0.8063818490922451,0.6339513987660408
1746477140881726000,5.265725830078125,-0.49635669949948785,-0.6080436350494622,0.7875076372742652
1746477140891705000,5.275705078125,-0.5819833111196756,-0.4379045105308294,0.9158838418185711
1746477140901685000,5.28568505859375,-0.7527028658747673,-0.35015023923218247,1.0818167468190192
1746477140911664000,5.2956640625,-0.8906114533960818,-0.247079740858078,1.2364192795097828
1746477140921643000,5.30564306640625,-0.9980845706433057,-0.1449976689994335,1.3894997171998023
1746477140931622100,5.3156220703125,-1.0890338385909795,-0.09009703503251075,1.492570215573907
1746477140941601000,5.32560107421875,-1.1332423981517552,-0.06412438938617705,1.5585317572593689
1746477140951581000,5.335580810546875,-1.1218360379964112,-0.09631810150444507,1.6056676024436949
1746477140961560000,5.34556005859375,-1.0653168629169463,-0.1518038418829441,1.6865578331917523
1746477140971539000,5.3555390625,-1.0069809938043355,-0.2185363679409027,1.7595576029509306
1746477140981518000,5.36551806640625,-0.9192793294757604,-0.23946517420113086,1.8024702774822712
1746477140991497000,5.3754970703125,-0.7670400187849998,-0.2111900968313217,1.776423982077837
1746477141001476000,5.38547607421875,-0.6046025546848773,-0.07406067698895931,1.7433540716469287
1746477141011456000,5.3954560546875,-0.36901276061236854,0.1551800403177738,1.7254186019837856
1746477141021435100,5.40543505859375,-0.15614740577889605,0.5098749372422695,1.7036106748014688
1746477141031414000,5.4154140625,-0.07161151200486347,0.8142091817170382,1.711493537005782
1746477141041393200,5.42539306640625,-0.09094517629444598,1.127588317912817,1.662156966906786
1746477141051372000,5.4353720703125,-0.1856283700734377,1.4755746571093797,1.6580922016859054
1746477141061352000,5.44535205078125,-0.3315408158302307,1.7803151442974805,1.6504788040727376
1746477141071331000,5.4553310546875,-0.41369536742568014,2.028147164827585,1.59381525208652
1746477141081310000,5.46531005859375,-0.5322089341253042,2.211900388678908,1.5798457634449004
1746477141091289000,5.4752890625,-0.5992863280981778,2.3194886567384003,1.6219108812361955
1746477141101268000,5.48526806640625,-0.6734732618153095,2.365537875729799,1.6737153027534484
1746477141111248100,5.495248046875,-0.7021738711208104,2.3543530493706464,1.761667726972699
1746477141121227000,5.50522705078125,-0.6175058753997087,2.3952654899954795,1.7813947562277317
1746477141131206100,5.5152060546875,-0.4945078932950273,2.5071920795202254,1.791632657125592
1746477141141185000,5.52518505859375,-0.4388841692179441,2.3943758476793766,1.8207891935050486
1746477141151164200,5.5351640625,-0.38177517501916736,2.1188976953327656,1.6709224571645258
1746477141161144000,5.54514404296875,-0.15386669269688427,1.8590274464845655,1.3489631241500377
1746477141171123000,5.555123046875,0.15253862243089825,1.816113018387556,0.9990963780343532
1746477141181102000,5.56510205078125,0.5405220044404268,1.8538912526398896,0.6910539266914129
1746477141191081000,5.5750810546875,1.0200368747323751,2.1444202591240407,0.3505342701137066
1746477141201060000,5.58506005859375,1.341735510984063,2.4667846658080816,0.26381986325681206
1746477141211040000,5.5950400390625,1.490700914570689,2.778008669796586,0.3321154008477926
1746477141221019100,5.60501904296875,1.3379846340179442,2.9408897860109806,0.5527145465373993
1746477141230998000,5.614998046875,0.8241649046726525,2.7520336860626933,0.8941858047515153
1746477141240977200,5.62497705078125,0.066154580039531,2.177196739566326,1.2193740366846322
1746477141250956000,5.6349560546875,-0.6602426819074898,1.2892203108489513,1.1384674393236636
1746477141260936000,5.64493603515625,-1.0602414593487977,0.3224696206241846,0.7064964104950427
1746477141270915000,5.6549150390625,-0.9404034391123801,-0.3967272814899683,0.2576519882768392
1746477141280894000,5.66489404296875,-0.6296206030201167,-0.7617378207236528,-0.004283960929512978
1746477141290873000,5.674873046875,-0.12796053641550242,-0.9519535185873508,-0.0860860458254814
1746477141300852000,5.68485205078125,0.47430502668917174,-0.9358294822603463,-0.16369067903161047
1746477141310830800,5.694830810546875,0.9021909050960093,-0.7167226209551095,-0.07424304781854152
1746477141320811000,5.70481103515625,1.2195780348241327,-0.3912152400702238,0.09713993928134441
1746477141330790100,5.7147900390625,1.5467477959632872,-0.02694529007077217,0.10799567981660366
1746477141340769000,5.72476904296875,1.679511567942053,0.2236865903109312,0.20553426302671432
1746477141350748000,5.734747802734375,1.440346107339859,0.33043197780549527,0.018913374784588814
1746477141360726800,5.744726806640625,1.111812072110176,0.41269232786297794,-0.14045885652601717
1746477141370707000,5.75470703125,0.7976578598886728,0.5360217704117298,-0.037888124367594714
1746477141380686000,5.76468603515625,0.5709574016492813,0.6188017604291439,0.26050971579551696
1746477141390665000,5.7746650390625,0.49660044512748713,0.6297451792478561,0.5185720384389162
1746477141400643800,5.784643798828125,0.3494511510521173,0.4526414764136076,0.8363689910769462
1746477141410622700,5.794622802734375,0.03584755845069885,0.12676058604121207,1.0463321764618159
1746477141420603100,5.80460302734375,-0.11880991929769515,-0.06401508379280567,1.0053718050420284
1746477141430582000,5.81458203125,-0.14590608908124267,-0.425469391849637,1.0214216070890425
1746477141440561200,5.82456103515625,0.004890110129117965,-0.7511334246009588,1.108848546129465
1746477141450539800,5.834539794921875,0.48108489608764643,-0.8223995024353266,1.1316104130357503
1746477141460519000,5.844518798828125,0.8341139056265353,-0.8242904307484626,1.243235389265418
1746477141470499000,5.8544990234375,0.9968861546389758,-0.8056459360331296,1.280899057227373
1746477141480478000,5.86447802734375,1.0624245024763046,-0.7064367892622947,1.1827946568280459
1746477141490457000,5.87445703125,1.0553466730445622,-0.6154769999206066,1.0245751026839016
1746477141500435700,5.884435791015625,1.0822649289779365,-0.5555950704097747,0.8377864566594362
1746477141510414800,5.894414794921875,1.07954485636428,-0.5350052868455648,0.6103226858973503
1746477141520395000,5.90439501953125,1.0128064850874245,-0.6059919632166624,0.39952480325400824
1746477141530374100,5.9143740234375,1.0040502741146833,-0.6922112800329924,0.15126608174443243
1746477141540353000,5.92435302734375,0.9503852463573217,-0.7919640321612358,-0.08808394164443016
1746477141550332000,5.934331787109375,0.8856266507208347,-0.9398574226021766,-0.31550387326478957
1746477141560310800,5.944310791015625,0.7908447458077221,-1.0822861178964376,-0.505862194469571
1746477141570291000,5.954291015625,0.6919628582298756,-1.2282745514988898,-0.6644388914883136
1746477141580270000,5.96427001953125,0.6671698508221656,-1.3245488138616084,-0.7802689181923865
1746477141590248700,5.974248779296875,0.6322580388516187,-1.4628887785375118,-0.8475473876953125
1746477141600227800,5.984227783203125,0.6451754611570387,-1.6068272938728332,-0.9038280778437853
1746477141610206700,5.994206787109375,0.6820015823163091,-1.693132535406947,-0.9721879128426313
1746477141620185900,6.004185791015625,0.6927344271242618,-1.748096297737956,-0.9755798933684825
1746477141630166000,6.014166015625,0.6824001531798393,-1.8337065427452324,-0.969577438083291
1746477141640145000,6.024144775390625,0.6975386125355959,-1.9162270050436256,-1.0484680194467306
1746477141650123800,6.034123779296875,0.6785206813979894,-1.8987416172355411,-1.202412380489707
1746477141660103000,6.04410302734375,0.7319540923565626,-1.8156366330474614,-1.3429875568717717
1746477141670081800,6.054081787109375,0.7172492751777172,-1.6033166554033755,-1.409685011616349
1746477141680062000,6.06406201171875,0.654675037842989,-1.2567998042374848,-1.3402823895663023
1746477141690040800,6.074040771484375,0.5272206243187189,-0.9082365419358015,-1.3076730823844671
1746477141700019700,6.084019775390625,0.36441556901521976,-0.7105576685845851,-1.4521166246324777
1746477141709998800,6.093998779296875,0.13320676650591193,-0.6346884808689356,-1.7120640303701162
1746477141719977700,6.103977783203125,-0.016631401327252385,-0.6414701038330793,-1.9856758043229579
1746477141729958100,6.113958251953125,-0.17407405281476676,-0.576186023017764,-2.268177571696043
1746477141739936800,6.123936767578125,-0.25037585979402066,-0.42722061943113804,-2.3752099594384433
1746477141749916000,6.133916015625,-0.30286950568445026,-0.2871545616149902,-2.4305291110783815
1746477141759894800,6.143894775390625,-0.342417014631629,-0.11216390541195868,-2.471775898224115
1746477141769874000,6.1538740234375,-0.3818026475479826,0.07435352245569228,-2.4865146176725625
1746477141779854000,6.16385400390625,-0.43986028424110263,0.1661386567056179,-2.440966918462515
1746477141789832700,6.173832763671875,-0.513680138211511,0.2781260365068912,-2.3942449147760865
1746477141799811800,6.183811767578125,-0.5054413021763786,0.5311982957780361,-2.3961790977090596
1746477141809791000,6.193791015625,-0.3652414984453469,0.8784738563567399,-2.495060619960725
1746477141819769900,6.203769775390625,-0.11820318557620048,1.2612450932085513,-2.7026933165714144
1746477141829749800,6.213749755859375,-0.011219897672533988,1.5941390772134065,-2.917488452157378
1746477141839729000,6.22372900390625,-0.0887310073763132,1.752325898131728,-3.212937087126076
1746477141849707800,6.233707763671875,-0.16248769645001737,1.7863503328084944,-3.6300390481248495
1746477141859687000,6.24368701171875,-0.2846153985261917,1.7076994054198265,-3.9568312081232664
1746477141869665800,6.253665771484375,-0.45484687750339503,1.5062363373547791,-4.072774339812994
1746477141879645000,6.26364501953125,-0.71319678491652,1.176749531444907,-3.867479438500106
1746477141889624800,6.273624755859375,-1.1713736836254596,0.6789502319216728,-3.490073820334673
1746477141899604000,6.28360400390625,-1.6177292116373776,0.08122866892218589,-3.124679834741354
1746477141909582800,6.293582763671875,-2.0418951196730135,-0.49071138708889483,-2.7705510472670194
1746477141919562000,6.30356201171875,-2.3657512262195346,-0.9281529562830925,-2.4221108268231153
1746477141929540900,6.313540771484375,-2.5218828681737184,-1.1802210069477557,-2.073720583000779
1746477141939520800,6.323520751953125,-2.4628590167969464,-1.2491373067855833,-1.6052718811243771
1746477141949500000,6.3335,-2.1440280449360607,-1.193778992179036,-1.0498843159854412
1746477141959478800,6.343478759765625,-1.5774533153504133,-1.1064958455234766,-0.5514888041347265
1746477141969458000,6.3534580078125,-1.065121632605791,-1.0016063150286674,-0.21113982794880864
1746477141979436800,6.363436767578125,-0.7457792040914296,-0.7957073103427886,-0.06016600714921951
1746477141989417000,6.3734169921875,-0.43017128593027587,-0.49657355712056156,0.11137772347033023
1746477141999395800,6.383395751953125,-0.11512622581627219,-0.25976912656128404,0.21096914755702018
1746477142009375000,6.393375,0.1324105746269226,-0.12955986137092113,0.3549859888255596
1746477142019353900,6.403353759765625,0.32794366812109943,-0.17427929306328296,0.30207097571790215
1746477142029333000,6.4133330078125,0.4470148687034845,-0.36419805380702014,0.04787292728722095
1746477142039313000,6.42331298828125,0.4050397672832012,-0.7155623450040817,-0.266371301305294
1746477142049291800,6.433291748046875,0.3643319823849946,-1.026788102558255,-0.49931087312996386
1746477142059271000,6.44327099609375,0.44506665724515915,-1.278726389363408,-0.5628782131552695
1746477142069249800,6.453249755859375,0.2698603124648332,-1.277083298331499,-0.461986227864027
1746477142079229000,6.46322900390625,-0.05209839949514716,-1.2708388509839772,-0.46765725923776624
1746477142089208800,6.473208740234375,-0.376617390397191,-1.1669126125633715,-0.3441705803006887
1746477142099188000,6.48318798828125,-0.5530290193140507,-0.8645698341667651,-0.1353910517424345
1746477142109166800,6.493166748046875,-0.6993933004915713,-0.5765770681619644,0.2678974879592657
1746477142119146000,6.50314599609375,-0.7280746205747127,-0.20784896970987318,0.5413467648267746
1746477142129124900,6.513124755859375,-0.7773316956967115,0.04665829080045223,0.8435586103200912
1746477142139104000,6.52310400390625,-0.8883183740228414,0.2579232064336538,1.0966127494126559
1746477142149084000,6.533083984375,-0.9513508765190839,0.4326286159545183,1.2761655989646912
1746477142159062800,6.543062744140625,-1.040177160963416,0.5506313105225563,1.5278525413572788
1746477142169042000,6.5530419921875,-1.1395283465534447,0.599289835229516,1.727680117174983
1746477142179020800,6.563020751953125,-1.2296937706470488,0.5848036292374134,1.8314929583489894
1746477142189000000,6.573,-1.3036843050092457,0.5482517219096422,1.9203642509788275
1746477142198979800,6.582979736328125,-1.3298328917443751,0.5206231257498264,2.019081814840436
1746477142208959000,6.592958984375,-1.3002619293451307,0.5901257010430098,2.1304496014386416
1746477142218937900,6.602937744140625,-1.2331617390185594,0.6546557486206293,2.213154188132286
1746477142228917000,6.6129169921875,-1.1737614555448292,0.7209165655136108,2.266756014460325
1746477142238895900,6.622895751953125,-1.105485791698098,0.7494307123363018,2.2460276992082595
1746477142248875800,6.632875732421875,-1.0557061540067196,0.8013467775344848,2.1943261535435914
1746477142258855000,6.64285498046875,-1.0165081160843372,0.8149462638199328,2.2381594500511883
1746477142268833800,6.652833740234375,-0.976755951410532,0.8077367708325386,2.347593053716421
1746477142278813000,6.66281298828125,-0.9286229118824004,0.7483838336318731,2.4580057315468786
1746477142288791800,6.672791748046875,-0.8487731300979852,0.657770665770769,2.496830844503641
1746477142298772000,6.68277197265625,-0.724748691022396,0.5117804786026477,2.4583336483269926
1746477142308750800,6.692750732421875,-0.5946937396109104,0.3901788827598095,2.4099597857803103
1746477142318730000,6.70272998046875,-0.43484333286192267,0.38917408963143824,2.412357494571805
1746477142328708900,6.712708984375,-0.22902499219682065,0.47153790006339547,2.419996026626229
1746477142338688000,6.72268798828125,-0.006520926201343536,0.630258389467001,2.409884382456541
1746477142348668000,6.73266796875,0.11915946338772773,0.8437912500321865,2.4394530067682263
1746477142358646800,6.742646728515625,0.1920581108599901,1.0598480761170386,2.478492054736614
1746477142368626000,6.7526259765625,0.21597316638939082,1.2496943561464546,2.4982541553050277
1746477142378604800,6.762604736328125,0.23612346255779265,1.3677584255129098,2.5152502982914444
1746477142388584000,6.772583984375,0.29962540919668973,1.4132231226146221,2.4912404771506784
1746477142398563800,6.782563720703125,0.3355477864492684,1.3417986393481491,2.391090834659338
1746477142408543000,6.79254296875,0.42695473503656683,1.2366267847806214,2.219353042772412
1746477142418521900,6.80252197265625,0.5269487485747784,1.2171668820291757,1.9666437715947627
1746477142428501000,6.8125009765625,0.5766103128444403,1.2831500510245561,1.7677713045448065
1746477142438480000,6.82247998046875,0.6453062479298561,1.4105349064439534,1.707428187263012
1746477142448459800,6.832459716796875,0.7847294777978211,1.5997031410813332,1.5705547880083321
1746477142458439000,6.84243896484375,0.9342149597357958,1.8350480204820632,1.319439508023858
1746477142468417800,6.852417724609375,1.0341157420326024,2.0198440313845873,1.1439800652652978
1746477142478397000,6.86239697265625,0.9501724803894758,2.087275645622611,1.123643964201212
1746477142488375800,6.872375732421875,0.6676759737133979,2.065406343641877,1.0608347490668297
1746477142498355000,6.88235498046875,0.49661914982795713,2.094278802382946,0.715875064215064
1746477142508334800,6.8923349609375,0.4662169973015785,2.3098113123327493,0.12437982838451861
1746477142518314000,6.90231396484375,0.5599749659944325,2.7312469186216592,-0.3559463582903147
1746477142528292900,6.91229296875,0.6859581379223615,3.232040723785758,-0.5670242269188165
1746477142538272000,6.92227197265625,0.6030803866188973,3.6746371915251013,-0.5086906958937645
1746477142548251000,6.9322509765625,0.24883739818036554,3.8247593639314172,-0.1390951669573784
1746477142558230800,6.942230712890625,-0.4577852690428495,3.525118245708942,0.36210429639816283
1746477142568210000,6.9522099609375,-1.454191677340865,2.6630928353279826,0.9529466212779283
1746477142578188800,6.962188720703125,-2.21928173110187,1.437261000806093,1.019233157134056
1746477142588168000,6.97216796875,-2.6116397114664314,0.14875848283767698,0.6065361530959605
1746477142598146800,6.982146728515625,-2.4016285952866077,-0.7756593785703182,-0.09148995069563388
1746477142608127000,6.992126953125,-1.876205375778675,-1.3522604121297597,-0.7326718852370977
1746477142618105900,7.00210595703125,-1.249210956543684,-1.6307114428073166,-0.9924661462396382
1746477142628085000,7.0120849609375,-0.5339110618680716,-1.7135113065689802,-1.17743400657773
1746477142638063900,7.02206396484375,0.2761965297490358,-1.4574959795832634,-1.3034464046001433
1746477142648043000,7.03204296875,0.7622079224534333,-1.170147356700897,-1.0031681575179099
1746477142658023000,7.04202294921875,1.2130887458700685,-0.6978782197535037,-0.49549452971220015
1746477142668001800,7.052001708984375,1.707423072696477,-0.3456225326746702,-0.07739478984773158
1746477142677981000,7.06198095703125,2.000673028577119,-0.14613807120621203,-0.23863281503021716
1746477142687959800,7.071959716796875,1.9799621028512715,0.07970657392144202,-0.24196692788898944
1746477142697939000,7.08193896484375,1.6082435904115437,-0.11170973190367221,-0.5581815797716378
1746477142707918800,7.0919189453125,1.1676958718955517,-0.06446750373542308,-0.9064818072229623
1746477142717898000,7.10189794921875,0.6718786861002445,-0.029658640682697295,-0.6267775616139173
1746477142727876900,7.111876953125,0.11213643288314341,-0.23928163432776928,-0.3609019348710775
1746477142737856000,7.12185595703125,-0.23330080635249614,-0.621561872792244,-0.4474550136864185
1746477142747835000,7.1318349609375,-0.3470820107679814,-0.9475245962291955,-0.5299591093719005
1746477142757814000,7.14181396484375,-0.4309796797037124,-1.2728554515033959,-0.4165682925134897
1746477142767794000,7.1517939453125,-0.39557935356386004,-1.5049007048368452,-0.3465057452499866
1746477142777772800,7.161772705078125,-0.2016652395736426,-1.6296300773113965,-0.2347013208001852
1746477142787752000,7.171751953125,-0.0063923313856124875,-1.6884242115855217,-0.11170330216288565
1746477142797730800,7.181730712890625,0.14747962200827897,-1.6930284905105828,0.017028291690349577
1746477142807710000,7.1917099609375,0.27044439596310255,-1.674896621492505,0.13376374280154704
1746477142817689900,7.20168994140625,0.342846784351021,-1.5890192499816416,0.22231647100150584
1746477142827669000,7.2116689453125,0.42710488409698005,-1.503038418096304,0.26728958519399165
1746477142837648000,7.22164794921875,0.5254052454598248,-1.401667709377408,0.22597148637771605
1746477142847627000,7.231626953125,0.6508652702964842,-1.3227525780946014,0.1651712729781866
1746477142857606000,7.24160595703125,0.729758701204136,-1.262355100277066,0.08749591262340545
1746477142867585800,7.251585693359375,0.8057460354067385,-1.2241092485129832,0.014213818791508674
1746477142877565000,7.26156494140625,0.8012713742107153,-1.1978905191510916,-0.0037584757506847377
1746477142887543800,7.271543701171875,0.769062318392843,-1.1565531311124562,-0.07720774284303188
1746477142897523000,7.28152294921875,0.754223207309842,-1.0818886430114507,-0.19615736287236213
1746477142907501800,7.291501708984375,0.6509692421276122,-1.0253618691474198,-0.29297698415815826
1746477142917482000,7.30148193359375,0.5016606511265039,-1.0001602078735827,-0.3465074988156557
1746477142927460900,7.3114609375,0.3227543558496982,-0.94229429436028,-0.4013397437214851
1746477142937440000,7.32143994140625,0.17303148495927453,-0.9798311210721731,-0.36722295458614823
1746477142947419000,7.3314189453125,0.07701375464089215,-1.0250731153339148,-0.36511516865193844
1746477142957398000,7.34139794921875,-0.014795418071746825,-1.0857295363485813,-0.3214905464589596
1746477142967378000,7.3513779296875,-0.1007658016283065,-1.1585293996214865,-0.21292554232180116
1746477142977356800,7.361356689453125,-0.10505845732092857,-1.201602817672491,-0.18617782064974306
1746477142987336000,7.3713359375,-0.09482873972952366,-1.208068798816204,-0.25447861893773077
1746477142997314800,7.381314697265625,0.0034732290685176846,-1.202048223352432,-0.3844476456314325
1746477143007294000,7.3912939453125,0.10716039803624153,-1.17064536935091,-0.5367085836321115
1746477143017273900,7.40127392578125,0.22108853664174674,-0.9962801515698433,-0.6781541131079196
1746477143027253000,7.4112529296875,0.2743763285845518,-0.7827426148295402,-0.9020628217369318
1746477143037231900,7.42123193359375,0.18395590681657195,-0.5547475136697292,-1.2193413034588099
1746477143047211000,7.4312109375,0.11888079257681965,-0.3405810313761234,-1.6389350812733172
1746477143057190000,7.44118994140625,0.11219196246266365,-0.14881693502664564,-2.0214362690120935
1746477143067169800,7.451169677734375,0.1448760884463787,0.00948269861638546,-2.201160383477807
1746477143077149000,7.46114892578125,0.17548698835261164,0.047588265126943585,-2.281830833995342
1746477143087127800,7.4711279296875,0.12997194930315017,0.00528290883898735,-2.247951360747218
1746477143097107000,7.48110693359375,0.08937690406441688,-0.08682546601593494,-2.312137709453702
1746477143107085800,7.4910859375,0.1359568689316511,-0.09427285941243171,-2.469122168844938
1746477143117065000,7.50106494140625,0.11915193766839802,0.03871989901661873,-2.6627853768140075
1746477143127044900,7.511044921875,0.019520693027973175,0.1640595123440027,-2.589146140107512
1746477143137024000,7.52102392578125,-0.09260105374269187,0.19877660546004772,-2.4269237800627947
1746477143147003000,7.5310029296875,-0.21995909422039983,0.18696224902570246,-2.2915859198123214
1746477143156982000,7.54098193359375,-0.2406178513675928,0.2236900974422693,-2.174375252404809
1746477143166961000,7.5509609375,-0.11475267979614436,0.41056291461884975,-2.1968010192245244
1746477143176940800,7.56094091796875,0.07902217185385525,0.7927391081869601,-2.230188909563422
1746477143186920000,7.570919921875,0.1636124261636287,1.180686870893836,-2.181607541745901
1746477143196898800,7.58089892578125,0.11779752738475799,1.3932161073744296,-2.0820003355681895
1746477143206878000,7.5908779296875,-0.0004296966541558504,1.42255209197402,-2.039020441019535
1746477143216856800,7.60085693359375,-0.10548282021284103,1.2164672093272209,-2.0439041214078664
1746477143226837000,7.6108369140625,-0.15107720810882747,0.7869727997452021,-2.18336227645874
1746477143236815400,7.6208154296875,-0.15232691590897737,0.2791255689382553,-2.430171968203783
1746477143246794500,7.63079443359375,-0.17039222249686717,-0.19197218614220618,-2.5857401310563084
1746477143256773400,7.6407734375,-0.11969605448246001,-0.44459144094884395,-2.6933102789372203
1746477143266752500,7.65075244140625,-0.15208908856511116,-0.5614122322559356,-2.7326111927121874
1746477143276732400,7.660732421875,-0.3226093944210559,-0.5298579870849848,-2.472410104474425
1746477143286711600,7.670711669921875,-0.43756263829059894,-0.34364275703430175,-1.8901754489421843
1746477143296690400,7.6806904296875,-0.5364367809534073,-0.10237141019403934,-1.4352736263811587
1746477143306669600,7.690669677734375,-0.7735487430918961,0.07689385458827018,-1.0107926610469817
1746477143316648400,7.7006484375,-0.9848633430857211,0.290267725199461,-0.7068401093661785
1746477143326628400,7.71062841796875,-1.0246043287783861,0.39618426065444945,-0.41154666495919223
1746477143336607500,7.720607421875,-0.8254081096667796,0.435417369890213,-0.11210019252598286
1746477143346586400,7.73058642578125,-0.5314672489125282,0.4041553856641054,0.11520984897911547
1746477143356565500,7.7405654296875,-0.27833471082150935,0.2944914803743362,0.2807575540542602
1746477143366544400,7.75054443359375,-0.0617875439364463,0.08606617208123206,0.4594552480816841
1746477143376524500,7.760524658203125,0.31214930213987824,-0.16790215924680232,0.6745178024321794
1746477143386503400,7.77050341796875,0.5609733293820173,-0.42590836778879165,0.8086351809769868
1746477143396482600,7.780482666015625,0.5469488226175307,-0.7526227863758802,0.9646025722801684
1746477143406461400,7.79046142578125,0.44657709834072734,-1.129449435609579,0.7307979080587625
1746477143416440600,7.800440673828125,0.1761765780519694,-1.330107032510638,0.3140776398539543
1746477143426419500,7.81041943359375,-0.38697336471676824,-1.4591741419285535,0.2924228574067354
1746477143436399400,7.8203994140625,-0.8415607875663786,-1.3941601102262735,0.28460020095705985
1746477143446378500,7.83037841796875,-0.9575310264587402,-1.0510182884514332,0.12673662064373492
1746477143456357400,7.840357421875,-1.0342419256955384,-0.9208686444938182,0.5801859063088893
1746477143466336500,7.85033642578125,-0.849127934885025,-0.6759492965400219,0.7470406023293733
1746477143476315400,7.8603154296875,-0.5714934812873601,-0.36356618564426896,0.7735229510635138
1746477143486295600,7.870295654296875,-0.6018535482376813,-0.2778957348823547,0.8471089962780475
1746477143496274400,7.8802744140625,-0.905837079578638,-0.2672527603149414,0.809548788690567
1746477143506253600,7.890253662109375,-1.1829764431357384,-0.2727846754789352,0.6838385884851217
1746477143516232400,7.900232421875,-1.3403297358393669,-0.261391759327054,0.6758288850307465
1746477143526211600,7.910211669921875,-1.4417524670064448,-0.2468564534962177,0.7833616235107183
1746477143536191500,7.92019140625,-1.4967068769872187,-0.24056933605074882,0.9167933578789234
1746477143546170400,7.93017041015625,-1.4422639236599206,-0.23322306494116782,1.0569295583218334
1746477143556149500,7.9401494140625,-1.3285031044453381,-0.25736498802900315,1.1502730279296636
1746477143566128400,7.95012841796875,-1.2553209638565779,-0.28882746326327324,1.1883692420899867
1746477143576107500,7.960107421875,-1.1203852546662092,-0.33550796589553356,1.2147931386351585
1746477143586087400,7.97008740234375,-0.9566869768500328,-0.3397492567270994,1.2611550768375397
1746477143596066600,7.980066650390625,-0.7210732173800468,-0.3017214316278696,1.3256494685798883
1746477143606045400,7.99004541015625,-0.5154635510295629,-0.261654794177413,1.458318986403942
1746477143616024600,8.000024658203126,-0.3220791234692558,-0.18832769216001033,1.5596511166781186
1746477143626003500,8.01000341796875,-0.13952241592612116,-0.07151099250614643,1.6136358048439026
1746477143635983400,8.0199833984375,0.02228840417563915,0.08760346465110778,1.636141651162505
1746477143645962500,8.02996240234375,0.08199789972901343,0.29293022240698335,1.6461580182641744
1746477143655941400,8.03994140625,0.059552259165048596,0.5403665216177702,1.6950234637200832
1746477143665920500,8.04992041015625,-0.08684015212841331,0.7827934682339429,1.7494903824448584
1746477143675899400,8.0598994140625,-0.2291717437237501,1.014760980156064,1.897621088773012
1746477143685878500,8.06987841796875,-0.3626805984487757,1.1893407174706458,2.0128397055804728
1746477143695858400,8.0798583984375,-0.4594803825229406,1.2920704395830631,2.004538325703144
1746477143705837600,8.089837646484375,-0.63087564458251,1.3792138855069875,2.0150503673672673
1746477143715816400,8.09981640625,-0.7625853774636984,1.4182880047887563,2.0986101095855236
1746477143725795600,8.109795654296875,-0.801665341964364,1.4974568185716866,2.0909692394435404
1746477143735774500,8.1197744140625,-0.7470154678881168,1.4914742370307446,2.116692294242978
1746477143745754400,8.12975439453125,-0.63860353542082,1.4637772518098353,2.1939684261471033
1746477143755733500,8.1397333984375,-0.3904559461355209,1.3711995058774948,2.1663602882534265
1746477143765712400,8.14971240234375,-0.13036540560014545,1.2490548891991375,1.9444547361403703
1746477143775691500,8.15969140625,0.1996312495280057,1.2020645899653435,1.5658412034898996
1746477143785670400,8.16967041015625,0.635621962326765,1.3270827162533998,1.136195402738452
1746477143795650600,8.179650634765625,1.0867449970014393,1.4716151058286429,0.8897668192654847
1746477143805629400,8.18962939453125,1.4302835630089044,1.515402809628844,0.8592337338358164
1746477143815608600,8.199608642578125,1.6177578532099723,1.534150180196762,0.9727151515871286
1746477143825587500,8.20958740234375,1.7325971153110264,1.5538012216061352,0.9212631967693566
1746477143835566300,8.21956640625,1.7236923627130687,1.7374287732511757,0.7179203063070774
1746477143845546500,8.22954638671875,1.549929933130741,2.087382028606534,0.44818040535151954
1746477143855525400,8.239525390625,1.3085317450404166,2.5480957523167134,0.25522972956597806
1746477143865504500,8.24950439453125,0.9924171194661409,2.9407307960569855,0.2239566394239664
1746477143875483400,8.2594833984375,0.5770272961474955,3.167919257009029,0.47794718258380886
1746477143885462300,8.269462158203124,0.014577391406893729,3.0978321598261593,0.8977706775009632
1746477143895442400,8.2794423828125,-0.6455540852110833,2.6339398060798644,1.3736971679121255
1746477143905421600,8.289421630859374,-1.2424661584585905,1.8036966044068334,1.5426064583748578
1746477143915400400,8.299400390625,-1.5858996566563843,0.9041296911388635,1.1952929038733244
1746477143925379600,8.309379638671874,-1.51011405557096,0.1852098524004221,0.5897796640843153
1746477143935358200,8.319358154296875,-0.9687391606282443,-0.18316519483029842,0.04898527244329452
1746477143945338400,8.32933837890625,-0.23538630738966165,-0.338935017734766,-0.20529344000816344
1746477143955317500,8.3393173828125,0.43886794873550533,-0.38299569325745103,-0.232269709739089
1746477143965296400,8.34929638671875,1.1020886966057122,-0.18327099329233168,-0.39751404795348644
1746477143975275500,8.359275634765625,1.6791374739326537,0.034730537119507784,-0.28973113410472867
1746477143985254400,8.36925439453125,1.886522187131643,0.1694856290459633,-0.18424889841377734
1746477143995234600,8.379234619140625,2.0824192916326223,0.2420341479063034,-0.38263270516395564
1746477144005213400,8.38921337890625,2.173238211198896,0.1640998443543911,-0.49729836426377294
1746477144015192600,8.399192626953125,1.926976362594962,0.13128946164250374,-0.5374404050379992
1746477144025171500,8.40917138671875,1.3710750027149914,0.09662205288708209,-0.5058078339338302
1746477144035150300,8.419150390625,0.8454893591869622,0.12234978386163711,-0.33179917450547214
1746477144045129200,8.429129150390626,0.39641982297599315,-0.052584173718094825,-0.22113515226244926
1746477144055109400,8.439109375,0.03854980314671993,-0.3603150748938322,-0.4661690665066242
1746477144065088500,8.449088623046874,-0.2591431036174297,-0.5432879620224237,-0.4786573766797781
1746477144075067400,8.4590673828125,-0.5109276611655951,-0.5687327844023704,-0.05192950920164585
1746477144085046300,8.46904638671875,-0.6080301179807632,-0.5192132589519024,0.3079395754903555
1746477144095025400,8.479025390625,-0.6188092861484736,-0.4913789110869169,0.6737468180596828
1746477144105005600,8.489005615234374,-0.4880891488265246,-0.4782365209192037,0.9536854569464921
1746477144114984400,8.498984375,-0.2770147873293608,-0.45572658294737334,1.0960481012672185
1746477144124963300,8.50896337890625,-0.044279798166081304,-0.48806934814751146,1.1420394525915383
1746477144134942200,8.518942138671875,0.08423428047895432,-0.5843062011092901,1.159017475399375
1746477144144921300,8.52892138671875,0.26395795655325055,-0.5543167210370302,1.125068444046378
1746477144154901500,8.538901611328125,0.2788847459197044,-0.5028355401247739,1.14576636416018
1746477144164880600,8.548880615234374,0.33814401348754763,-0.4470563697576523,1.184009877836704
1746477144174859300,8.558859375,0.41449214382655913,-0.3837409586668014,1.1215969685435294
1746477144184838400,8.56883837890625,0.4058008147835731,-0.3071656685084104,1.110560610744357
1746477144194817300,8.5788173828125,0.3949222778946161,-0.28805589436888696,1.1083026026844978
1746477144204797400,8.58879736328125,0.4280167382448911,-0.3122556851238012,0.9990998851656914
1746477144214776600,8.598776611328125,0.43273616798222064,-0.3457406060963869,0.7870709994226693
1746477144224755200,8.608755126953126,0.4033832322478294,-0.4080898025035858,0.5771896471023559
1746477144234735400,8.6187353515625,0.3794051214195788,-0.4831441667050123,0.3819967453479767
1746477144244714200,8.62871435546875,0.3821744400024414,-0.5147451736271381,0.17728198201060294
1746477144254694100,8.638694091796875,0.341273689815402,-0.5436959583014249,0.06050970602035522
1746477144264673300,8.64867333984375,0.24408523521721362,-0.5962696106255054,-0.05068856922984123
1746477144274652200,8.658652099609375,0.14671309461519122,-0.6272165375530719,-0.189022104164958
1746477144284631300,8.66863134765625,0.08883585599027574,-0.6672656393468379,-0.3098030312746763
1746477144294610200,8.678610107421875,0.07865852617323398,-0.7125695929288863,-0.4614250868499279
1746477144304589300,8.68858935546875,0.10563713399171828,-0.79602178311944,-0.6143734225928783
1746477144314569200,8.6985693359375,0.17123729501888155,-0.9069435795158147,-0.7308382400691509
1746477144324548400,8.70854833984375,0.2136677389912307,-0.9896621947348118,-0.8499421738773584
1746477144334527200,8.71852734375,0.25289807174801826,-1.0701415065944193,-0.954413186699152
1746477144344506400,8.72850634765625,0.31539924384653567,-1.148683128389716,-1.0496125133067369
1746477144354485200,8.7384853515625,0.4141531211305409,-1.1691261969596147,-1.1633335850328206
1746477144364465200,8.748465087890626,0.451881597957015,-1.158947917294502,-1.2276847689121961
1746477144374444300,8.7584443359375,0.4747511630214751,-1.0391413881748914,-1.2422235818743705
1746477144384423200,8.768423095703126,0.5211277142710984,-0.8537316292881965,-1.2193933259069918
1746477144394402300,8.77840234375,0.521209401205182,-0.6988818438380956,-1.2476917841523885
1746477144404381200,8.788381103515626,0.49422027199268337,-0.5845628062188625,-1.312654962450266
1746477144414361300,8.798361328125,0.4102839515469968,-0.47651393491029737,-1.474294554170966
1746477144424340200,8.80834033203125,0.250865689137578,-0.36967794652283187,-1.6461428206950426
1746477144434319400,8.8183193359375,0.06746916976943612,-0.2577969497054815,-1.7827029162168502
1746477144444298200,8.82829833984375,-0.10606668451540172,-0.17998130409717558,-1.923934510681033
1746477144454277400,8.83827734375,-0.20924356587342915,-0.11314414862096309,-2.063126708272099
1746477144464257300,8.84825732421875,-0.20334398644082247,0.04964928930997848,-2.2204268094837665
1746477144474236200,8.858236083984375,-0.2167319488674402,0.2586211255699396,-2.279831184610724
1746477144484215300,8.86821533203125,-0.3450683328580111,0.3993570454716682,-2.16290284127593
1746477144494194200,8.878194091796875,-0.5381032528609037,0.4264461279273033,-2.126514600077271
1746477144504173300,8.88817333984375,-0.6130010382611304,0.32254736203551293,-2.2376515005290507
1746477144514153200,8.8981533203125,-0.559756793199107,0.16915303609073162,-2.3941081366539
1746477144524132400,8.90813232421875,-0.3758218561053276,0.14158464568555354,-2.617265734654665
1746477144534111200,8.918111328125,-0.10413893132321536,0.24166180746257304,-2.820629667904973
1746477144544090400,8.92809033203125,0.12539813858158885,0.37103929800391194,-2.9705466731280086
1746477144554069200,8.9380693359375,0.2416553777217865,0.46891515034437176,-3.025805619013309
1746477144564048400,8.94804833984375,0.24294242185764015,0.4190554331541061,-3.103951519489288
1746477144574028300,8.9580283203125,0.10676818384826182,0.20931611965298652,-3.1653210572093724
1746477144584007200,8.968007080078126,-0.08276705747060477,-0.1686217056930065,-3.2519968856215473
1746477144593986300,8.977986328125,-0.3214578862983733,-0.569552284091711,-3.304422653907537
1746477144603965200,8.987965087890625,-0.4872445877611637,-0.8664823897898196,-3.3398516946852204
1746477144613944300,8.9979443359375,-0.6553945112239569,-1.0670622452795504,-3.3496284078121183
1746477144623924200,9.00792431640625,-0.9707067343741654,-1.0990998900532722,-3.207329476377368
1746477144633903400,9.0179033203125,-1.3832763126403091,-1.01911391466856,-2.8782997665852306
1746477144643882200,9.02788232421875,-1.7719839538037776,-0.9082032241880893,-2.439400984320044
1746477144653861400,9.037861328125,-2.022451583534479,-0.7790747399717569,-1.9955887110501527
1746477144663840300,9.04784033203125,-2.034848123770952,-0.6433341441392898,-1.5354069022595882
1746477144673820200,9.057820068359375,-1.831364948055148,-0.5293646506100893,-1.1426035162150858
1746477144683799300,9.06779931640625,-1.5345762966543435,-0.4540653717368841,-0.8112485783457756
1746477144693778200,9.077778076171874,-1.1258369442008436,-0.4264250851392746,-0.5595885239601135
1746477144703757300,9.08775732421875,-0.7808013445686548,-0.41279695728123184,-0.4153004645347595
1746477144713736200,9.097736083984374,-0.5041658388804644,-0.42978199435174463,-0.37432138841450213
1746477144723716400,9.10771630859375,-0.23584873726963995,-0.4507534707099199,-0.35433132430911063
1746477144733695200,9.1176953125,-0.1636415791928768,-0.4717582648158073,-0.32229251049160956
1746477144743674400,9.12767431640625,-0.02257489296682179,-0.38908231969475743,-0.0450561163008213
1746477144753653200,9.1376533203125,0.02486548812203109,-0.47437984549105167,0.2132902839809656
1746477144763632400,9.14763232421875,0.014819383469223976,-0.4798451251596212,0.2331400628328323
1746477144773612300,9.1576123046875,-0.0733065706860274,-0.5592319656074046,0.13558569753170013
1746477144783591200,9.167591064453125,-0.3406944286227226,-0.6631506052434444,-0.10292261433601378
1746477144793570300,9.1775703125,-0.585859860292077,-0.5756628759264946,-0.28557109181582924
1746477144803549200,9.187549072265625,-0.7514619259029627,-0.6490326480418444,-0.20181202763319014
1746477144813528300,9.1975283203125,-0.8441630059540272,-0.6892424933552742,-0.26022213102579117
1746477144823507200,9.207507080078125,-0.8933493539273738,-0.6868325096040964,-0.2823626511633396
1746477144833487400,9.2174873046875,-0.9167723150908946,-0.6705956605523824,-0.15882453429996968
1746477144843466200,9.22746630859375,-0.9833189631879329,-0.6060469082742929,-0.007184943068027496
1746477144853445400,9.2374453125,-1.06601887370646,-0.5684475377202034,0.1960796214610338
1746477144863424300,9.24742431640625,-1.1261346119731663,-0.5075853650003671,0.4151952505946159
1746477144873403100,9.257403076171874,-1.1548334677129983,-0.4379080176621675,0.5953203470766544
1746477144883383300,9.26738330078125,-1.1844833405673503,-0.4020271414637565,0.7516828751772642
1746477144893362200,9.277362060546874,-1.2454647557526826,-0.3877326586514711,0.9044400722622871
1746477144903341300,9.28734130859375,-1.2142460261464119,-0.3638391573667526,1.0823691200047731
1746477144913320200,9.2973203125,-1.1323615236639977,-0.30010815121233464,1.23379477622509
1746477144923299000,9.307299072265625,-1.0490291604608297,-0.22689035478830336,1.4221499409139156
1746477144933279200,9.317279296875,-0.9927636678814887,-0.13726444439888,1.555833019694686
1746477144943258400,9.32725830078125,-0.9383984559655189,-0.04263210402429104,1.671245113247633
1746477144953237200,9.3372373046875,-0.8970768500179052,0.048692426976561544,1.8134692258805036
1746477144963216400,9.34721630859375,-0.8342126898258924,0.0964911199837923,1.9303420396357773
1746477144973195000,9.357195068359376,-0.7462158419430256,0.1709486873358488,1.9855776046454905
1746477144983175200,9.367175048828125,-0.6531517737984657,0.18880992271900177,2.0074983445525167
1746477144993154300,9.377154296875,-0.5781366090962663,0.1935872201234102,1.975354901316762
1746477145003133200,9.38713330078125,-0.4923872113466263,0.2524514970242977,1.9330279177188872
1746477145013112300,9.3971123046875,-0.35788930905163285,0.3437240055769682,1.8699410546869037
1746477145023091200,9.40709130859375,-0.21123508675051852,0.5240367335855961,1.8250813377410173
1746477145033071400,9.4170712890625,-0.16542608798947184,0.7340326521962881,1.8355062856435775
1746477145043050200,9.42705029296875,-0.16430439048316328,0.9472036937117576,1.8668723147660493
1746477145053029400,9.437029296875,-0.16869884431613608,1.1736936510056257,1.903728757998347
1746477145063008300,9.44700830078125,-0.2385217193385586,1.3445692731052636,1.9107740003347395
1746477145072987100,9.456987060546876,-0.3517260737141594,1.5168606072217226,1.8675503601580856
1746477145082967300,9.46696728515625,-0.4845955345571041,1.6624381219357252,1.8959768286973238
1746477145092946200,9.4769462890625,-0.5957558158844709,1.795060878008604,1.9520950217604636
1746477145102925300,9.48692529296875,-0.7134411150664091,1.8890847310960293,1.9925696554899215
1746477145112904200,9.496904296875,-0.8258920207262038,1.8789725024044512,2.03363991702497
1746477145122883000,9.506883056640625,-0.895396934106946,1.8347364703148603,2.000889155545831
1746477145132862200,9.5168623046875,-0.8150339421033859,1.837594197833538,1.8437439526349304
1746477145142842400,9.52684228515625,-0.6083277492204681,1.9898580584436654,1.56947692964375
1746477145152821200,9.5368212890625,-0.44772626837585117,2.0791952150195834,1.5350497593849897
1746477145162800000,9.546800048828125,-0.3346388183781877,2.0233160914093253,1.7229823147475718
1746477145172779000,9.556779052734376,-0.23834698382616043,1.8994354447185993,1.8022943363934754
1746477145182758100,9.566758056640625,0.013232991060614586,1.8638976828694342,1.7379612726926803
1746477145192738300,9.57673828125,0.3775497028112411,1.9302537768304346,1.5701742642581462
1746477145202717200,9.58671728515625,0.6207873812884092,2.0840607752293345,1.4382412440150976
1746477145212696000,9.596696044921876,0.9597281711768358,2.448962008869648,1.214139643162489
1746477145222675200,9.60667529296875,1.1235540208954364,2.9112399131566282,1.1661275996655225
1746477145232653800,9.61665380859375,1.003820045555383,3.052404287603497,1.3245266020298003
1746477145242633700,9.6266337890625,0.6437678593814372,2.9210423452466725,1.6843343119233847
1746477145252612900,9.63661279296875,0.19616561924405396,2.630775204569101,1.903438250619173
1746477145262591700,9.646591796875,-0.17398359805233776,2.209552948769927,1.9223831895858048
1746477145272571000,9.65657080078125,-0.36813247064650056,1.7431734543830155,1.6021598865836857
1746477145282549800,9.6665498046875,-0.40341947260499,1.4145499873042107,1.078074053159356
1746477145292530000,9.676530029296876,-0.2574140148025006,1.2763649209290742,0.7119687044262886
1746477145302508800,9.6865087890625,0.010151903114840388,1.273638710835576,0.5378606762766838
1746477145312488000,9.696488037109376,0.2825976289629936,1.3618763817369937,0.49876551420688625
1746477145322466800,9.706466796875,0.41690271209962665,1.4411942486017941,0.5394803864330053
1746477145332446000,9.716446044921875,0.4475742561519146,1.483341783979535,0.5138806657522916
1746477145342425900,9.72642578125,0.3886275616645813,1.4231272615134716,0.3729547762364149
1746477145352404700,9.73640478515625,0.2886404162585735,1.2694167092263697,0.1560205827951431
1746477145362384000,9.7463837890625,0.21207667040750383,1.0019161116302013,-0.08958265576958656
1746477145372362800,9.75636279296875,0.20509185302145777,0.7792080109626054,-0.2573947986453771
1746477145382342000,9.766341796875,0.16806421794071794,0.5479454324394464,-0.27029461222887036
1746477145392320800,9.77632080078125,0.14805895626619459,0.36352293102443217,-0.12620645928978919
1746477145402301000,9.786301025390625,0.13220482292175292,0.1563181044369936,0.1506447349756956
1746477145412279800,9.79627978515625,0.190591033982113,-0.1317740302890539,0.42545477880239485
1746477145422259000,9.806259033203125,0.28386377644129096,-0.46682957624197,0.5842161847382784
1746477145432237800,9.81623779296875,0.4458277047455311,-0.8480635205239057,0.7235323009699582
1746477145442217000,9.826217041015624,0.5876894868720323,-1.1621177795022726,0.7421171744525432
1746477145452196900,9.83619677734375,0.7567132705599069,-1.2437678887069226,0.8387737141311168
1746477145462175700,9.84617578125,0.9015490269958972,-1.402211899256706,0.9559691839694976
1746477145472155000,9.85615478515625,0.9410183561403304,-1.4672797069728374,1.0399304927259683
1746477145482133800,9.8661337890625,1.0470768573492766,-1.3884674515426159,0.9892664734154939
1746477145492113000,9.87611279296875,1.1673263079307972,-1.248567397943139,0.9303940132081508
1746477145502092800,9.8860927734375,1.1724836906939744,-1.0967612179726363,0.9076450057834387
1746477145512072000,9.896072021484375,1.1176315720438956,-0.8342185350447893,0.9364034827560186
1746477145522050800,9.90605078125,1.0507498467735945,-0.5524328069865704,0.9857371302455663
1746477145532030000,9.916030029296875,0.9112712334565818,-0.33996085365116596,1.051207089021802
1746477145542008800,9.9260087890625,0.7221680268794298,-0.1679553507387638,1.0577589948832988
1746477145551988700,9.93598876953125,0.48916956447437404,-0.0596697480648756,0.9150865539610386
1746477145561967900,9.9459677734375,0.2648170576006174,-0.04037117335498333,0.7298767015606165
1746477145571946800,9.95594677734375,0.13826879913583398,-0.09349953695237637,0.5337789599210023
1746477145581926000,9.96592578125,0.005210866516083479,-0.14503098674714565,0.31370529941022396
1746477145591904800,9.97590478515625,-0.07481938640177249,-0.2698679112493992,0.06332651700675487
1746477145601884000,9.9858837890625,-0.08346870293393731,-0.42367666321396824,-0.20248598137199877
1746477145611863800,9.99586376953125,-0.021171382844448087,-0.589138443571329,-0.4575882851660251
1746477145621843000,10.005843017578124,0.00793722274005413,-0.8516273504853248,-0.687984017726779
1746477145631821800,10.01582177734375,0.11537585319578647,-1.1550158385425806,-0.9342816682964563
1746477145641801000,10.025801025390624,0.30979433651156724,-1.4568822315990924,-1.169347730755806
1746477145651779800,10.03577978515625,0.5028530757814645,-1.779711917707324,-1.428462192800641
1746477145661759700,10.045759765625,0.6362992770664394,-2.038065332251787,-1.688570926579833
1746477145671739000,10.05573876953125,0.8356349777139723,-2.1707319274663925,-1.9227046766251326
1746477145681717800,10.0657177734375,0.9894326237626373,-2.205378877955675,-2.1054203741222617
1746477145691697000,10.07569677734375,1.0637684644311667,-2.063011557459831,-2.117313056489825
1746477145701675800,10.08567578125,1.1766529392026364,-1.7672078254431485,-2.077051773250103
1746477145711656000,10.095656005859375,1.3193385318674147,-1.4437386723875998,-2.039422592079639
1746477145721634800,10.105634765625,1.3761632657647132,-1.1237012473464012,-2.0230027876764534
1746477145731614000,10.115614013671875,1.3372576349176466,-0.8452554773658514,-2.0961521950393913
1746477145741592800,10.1255927734375,1.197369125625491,-0.6913420959830284,-2.2068623945116994
1746477145751571700,10.13557177734375,0.9522832619983702,-0.6103554191231727,-2.298133149498701
1746477145761552000,10.1455517578125,0.6564941430289298,-0.7259066288858652,-2.23509772439301
1746477145771530800,10.15553076171875,0.40616073413714765,-0.9015876054406166,-2.227947852638364
1746477145781510000,10.165510009765624,0.24228651523217556,-1.058693060863018,-2.231920263400674
1746477145791488800,10.17548876953125,0.21012984718866645,-1.0726415067166089,-2.305273668903112
1746477145801467600,10.185467529296876,0.22368293704912065,-0.8096054873138666,-2.44202081142962
1746477145811447800,10.19544775390625,0.18607362962290644,-0.3084919486761093,-2.536012515813112
1746477145821427000,10.205427001953124,0.000009206219762563705,0.18456278666853904,-2.451313540431857
1746477145831405800,10.21540576171875,-0.2562767544008791,0.540439586853981,-2.2304823395520446
1746477145841385000,10.225385009765626,-0.5984013619571924,0.6812111625909805,-2.0577537830621004
1746477145851363600,10.235363525390625,-0.835826554763317,0.709312052437663,-1.9838579412460327
1746477145861342700,10.2453427734375,-0.8040349206399172,0.7333049224436282,-2.1912603362321854
1746477145871323000,10.255322998046875,-0.6005179887849837,0.8187631917595863,-2.584109314984083
1746477145881301800,10.2653017578125,-0.3814396229218691,0.9602829555153847,-2.8643928217858075
1746477145891281000,10.275281005859375,-0.22098609918057918,1.0778227087467909,-2.9451591338932515
1746477145901259800,10.285259765625,-0.2662112153727561,1.0490069486290217,-2.9366613546609877
1746477145911238700,10.29523876953125,-0.32145671725459396,0.7892536041587591,-2.970426846140623
1746477145921218800,10.30521875,-0.4090268641579896,0.34984921045899386,-3.0014649584829804
1746477145931198000,10.315197998046875,-0.5230657696615905,-0.2204880865305662,-3.1435616453438997
1746477145941176800,10.3251767578125,-0.6844008985430002,-0.6624632075011729,-3.274555338910222
1746477145951155700,10.33515576171875,-0.8544552673876286,-0.9785317289113998,-3.2801176492124795
1746477145961134600,10.345134521484376,-0.9741244338631629,-1.1431477060943842,-3.1619559646904465
1746477145971114800,10.35511474609375,-1.1452964085608721,-1.1282511657357215,-2.9996956107228994
1746477145981094000,10.365093994140626,-1.2799977244734764,-0.978354034256935,-2.661113644209504
1746477145991072800,10.37507275390625,-1.3178303192615508,-0.7538865227013826,-2.2133511720091104
1746477146001051600,10.3850517578125,-1.2651795100480316,-0.4989332719892263,-1.7423299892961979
1746477146011030800,10.39503076171875,-1.1113426279675216,-0.2911901007413864,-1.3197820378512144
1746477146021011000,10.405010986328126,-0.9464443267118186,-0.10483867709040641,-1.012560255241394
1746477146030989800,10.41498974609375,-0.711987920583412,0.06775076318979263,-0.631511604398489
1746477146040968700,10.42496875,-0.3558831568609923,0.1830488749742508,-0.08519815707504749
1746477146050947600,10.434947509765625,-0.08511793144568801,0.21223288388252257,0.24854163010418415
1746477146060926700,10.4449267578125,0.13287351596355437,0.15476093812286854,0.4763192891210317
1746477146070905600,10.454905517578124,0.3074853289168328,0.1257575464785099,0.6974257998108864
1746477146080885800,10.4648857421875,0.37651451454460616,0.09317571182548999,0.800391668766737
1746477146090864600,10.47486474609375,0.20232523785233497,-0.02806932566463947,0.7763298251777887
1746477146100843800,10.48484375,-0.2260609912920743,-0.21729893510043619,0.451851787340641
1746477146110822700,10.49482275390625,-0.5852636479645967,-0.28585926110744475,0.09719839147031306
1746477146120801800,10.5048017578125,-0.7446686125010251,-0.5751899977177382,0.11406418607532977
1746477146130782000,10.514781982421875,-0.7442132699489593,-0.7384989839553833,0.15340134020745752
1746477146140760600,10.524760498046875,-0.6377251451510936,-0.7471732887983322,0.17420915043652058
1746477146150739700,10.53473974609375,-0.45269057625234127,-0.778020847004652,0.314852131357789
1746477146160718600,10.544718505859375,-0.28378475638832895,-0.7605331211090087,0.4535726197838783
1746477146170697700,10.55469775390625,-0.25067981117665766,-0.7759124765485524,0.5174649539798498
1746477146180678000,10.564677978515626,-0.15256963862366973,-0.7194131752133369,0.5031552735984325
1746477146190656800,10.57465673828125,-0.23142620811965314,-0.6645107876807451,0.5055787013530731
1746477146200635600,10.5846357421875,-0.5228701009590179,-0.645980274733901,0.6199941850841045
1746477146210614800,10.59461474609375,-0.7242261284530163,-0.5514397042959929,0.7688865234345197
1746477146220593700,10.60459375,-0.8120042920839041,-0.3796247555196285,0.9719494279116392
1746477146230573800,10.61457373046875,-0.8439975862592458,-0.24488895281553266,1.2451198878377676
1746477146240553000,10.624552978515625,-0.810278345074132,-0.16210136401355266,1.5432991168141363
1746477146250531800,10.63453173828125,-0.7892197749543934,-0.09048924922049045,1.789456482130289
1746477146260511000,10.644510986328125,-0.842624544340372,-0.02577157011628151,1.9378946469724176
1746477146270489900,10.65448974609375,-0.805606188544631,0.037160979136824604,2.072391380223632
1746477146280470000,10.664469970703125,-0.7486549787234514,0.051395840716361996,2.119067791202664
1746477146290449000,10.674448974609374,-0.6940799965143203,0.0424245987534523,2.1549837387144564
1746477146300428000,10.684427978515625,-0.6603285335600376,-0.004077040180563926,2.1548136428445575
1746477146310407000,10.694406982421874,-0.6291647490113973,-0.08837327997982501,2.127485490936041
1746477146320386000,10.704385986328125,-0.5497264341047033,-0.2580763511687517,2.0793997976809737
1746477146330365000,10.714364990234374,-0.48999414219763127,-0.4041062858253717,2.025486421185732
1746477146340344800,10.7243447265625,-0.44959202571511264,-0.47063306017816064,2.051722686204314
1746477146350324000,10.734323974609374,-0.32462351072244344,-0.516729625442624,2.035030494600534
1746477146360302800,10.744302734375,-0.1408937042793259,-0.42036125505566596,1.9418360780745743
1746477146370282000,10.754281982421874,0.01882160484790802,-0.18503566487729547,1.8128315124988554
1746477146380260900,10.7642607421875,0.09613989539332687,0.11633330005109309,1.7590221808999775
1746477146390241000,10.774240966796874,0.1426058419594541,0.43205987615585323,1.6713702009320257
1746477146400220000,10.784219970703125,0.194621312411502,0.7344090842932463,1.5339040964812038
1746477146410199000,10.794198974609374,0.1221452012002468,1.023407227948308,1.327634504917264
1746477146420178000,10.804177978515625,0.0003998860377818346,1.3244833474099635,1.1790484560370444
1746477146430157000,10.814156982421874,-0.07054591033365577,1.6083435436546802,1.1217699870228768
1746477146440137000,10.824136962890625,-0.1823292919954285,1.821875819697976,1.151769988489151
1746477146450115800,10.83411572265625,-0.3734598762143403,1.8831535874813794,1.2335609674692154
1746477146460095000,10.844094970703125,-0.5406606091935188,1.753575605931878,1.308176940253377
1746477146470073900,10.854073974609374,-0.5955710704347118,1.7271996401816605,1.2811030553668736
1746477146480053000,10.864052978515625,-0.7702437101971358,2.14477564843297,0.8990221388667822
1746477146490031900,10.874031982421876,-1.1062878287959843,1.8709324038118123,0.9627449617147446
1746477146500012000,10.884011962890625,-1.0107901768289507,1.544609030368924,1.039697853013873
1746477146509991000,10.893990966796874,-0.5380862286608666,1.8360528136104344,0.5509089584201574
1746477146519970000,10.903969970703125,-0.13951887226216494,1.8400813384741543,0.3840472481369972
1746477146529949000,10.913948974609376,0.1644488769877702,1.8197545897603034,0.3379197032123804
1746477146539928000,10.923927978515625,0.6660230188746005,2.3191601554363963,0.0917985782533884
1746477146549908000,10.933907958984374,1.0838240680534392,3.0078602124780414,-0.14627192671895026
1746477146559886800,10.943886962890625,1.195407470163703,3.5643911024332042,-0.15219488702714443
1746477146569866000,10.953865966796876,0.9594207126628607,3.854002409550547,-0.028221301355957983
1746477146579844900,10.963844970703125,0.30898535821624096,3.717493751955032,0.2957815201848745
1746477146589824000,10.973823974609376,-0.5232855498921126,3.0463240909069773,0.8533440912753343
1746477146599804000,10.983803955078125,-1.2866460764467715,1.9719184971272945,1.2039362290561197
1746477146609783000,10.993782958984376,-1.686088462114334,0.8001666278392076,1.079378121495247
1746477146619762000,11.003761962890625,-1.6334458362072706,-0.26944004122614856,0.7082762796491384
1746477146629741000,11.013740966796876,-1.2063860333610326,-0.8167349008023739,0.19477672216892242
1746477146639720000,11.023719970703125,-0.562207766547799,-1.0127835426032543,-0.08364858954548836
1746477146649699800,11.033699951171876,0.03128894529826939,-0.9723451492309569,-0.1388058286219835
1746477146659679000,11.043678955078125,0.5950204873472452,-0.7458224587112665,-0.1580354297488928
1746477146669657900,11.053657958984376,1.147693605895713,-0.5376403115242719,-0.09375672658383846
1746477146679637000,11.063636962890625,1.4580530289441347,-0.316788067856431,-0.17464286567866802
1746477146689616000,11.073615966796876,1.5928776789754628,-0.12217618086040019,-0.2182797628313303
1746477146699595000,11.083594970703125,1.666895685866475,0.01312953068614006,-0.33149113146960735
1746477146709575000,11.093574951171876,1.6526621394611893,0.13818681994080542,-0.33311084162592886
1746477146719554000,11.103553955078125,1.416339793330431,0.25186522156894203,-0.27822482070624827
1746477146729533000,11.113532958984376,1.046351319553703,0.39970366695225235,-0.2721855405420065
1746477146739512000,11.123511962890625,0.6197353149522096,0.39770401756763457,-0.1901806265503168
1746477146749491000,11.133490966796876,0.20100538742542265,0.2711293094873428,0.038194998359680175
1746477146759470800,11.143470947265625,-0.10228723904192447,0.0706324561059475,0.2540875737935305
1746477146769450000,11.153449951171876,-0.24715806679129598,-0.16535072119832037,0.5284206477582455
1746477146779428900,11.163428955078125,-0.27466683596372604,-0.3671592417001724,0.7902852852940558
1746477146789408000,11.173407958984376,-0.1969078889787197,-0.47256139789223667,1.0196756402045488
1746477146799387000,11.183386962890625,-0.13850479984879494,-0.5805412956178188,1.1961714402735233
1746477146809367000,11.193366943359376,-0.061235828337818383,-0.6001987667679787,1.3090882098793983
1746477146819346000,11.203345947265625,0.08886369384527205,-0.5169155034035444,1.4861831448853016
1746477146829325000,11.213324951171876,0.2846107223510742,-0.4674398170948028,1.724591503509879
1746477146839304000,11.223303955078125,0.5095622180312872,-0.42075463828742504,1.8234850084602832
1746477146849283000,11.233282958984375,0.7037550028324127,-0.34291970345675943,1.9074393029540777
1746477146859263000,11.243262939453125,0.7698872979748994,-0.26935177842080593,1.899849870738387
1746477146869241900,11.253241943359376,0.7523023222498595,-0.2341734975337982,1.8201532336890696
1746477146879221000,11.263220947265625,0.6795696789942681,-0.27083763306438924,1.743636980241537
1746477146889199900,11.273199951171875,0.5640758985072374,-0.3296311828166246,1.6390104845970868
1746477146899179000,11.283178955078125,0.49221251236684616,-0.39629531981348987,1.5078636462956667
1746477146909158000,11.293157958984375,0.4037308766417205,-0.46259939132630823,1.4356073883801699
1746477146919138000,11.303137939453125,0.3339975613325834,-0.5959130522727966,1.3344272337973118
1746477146929117000,11.313116943359375,0.37472178590893745,-0.6950438731104135,1.083098603323102
1746477146939096000,11.323095947265625,0.3926280294775963,-0.7419248667508364,0.872144068813324
1746477146949075000,11.333074951171875,0.3827658300243318,-0.7598118210971355,0.7274842534661292
1746477146959054000,11.34305419921875,0.38902620559334755,-0.733911656165123,0.5046574948549271
1746477146969034000,11.353033935546875,0.36171368964537975,-0.7844336366564035,0.32052783890664577
1746477146979012900,11.363012939453125,0.3423047864288091,-0.875139158976078,0.10500000513195991
1746477146988992000,11.372991943359375,0.3775118550188839,-1.0066396330207585,-0.13679273523390292
1746477146998971000,11.382970947265624,0.4171446310967207,-1.172133562082052,-0.31990941474735735
1746477147008950000,11.392949951171875,0.4612187506228685,-1.3201958793491124,-0.5096230083078146
1746477147018930000,11.402929931640625,0.5144342079818248,-1.3721832562178373,-0.7161199788868426
1746477147028909000,11.412908935546875,0.5591484520424157,-1.3474550576746462,-0.8688076178669929
1746477147038888000,11.422887939453124,0.4990251149911433,-1.2139981888651847,-0.9663444475114344
1746477147048867000,11.4328671875,0.43025450723432,-1.0027519779324532,-1.0187158552616835
1746477147058846000,11.442845947265624,0.36237259194552895,-0.7596937476754189,-0.9965086996287107
1746477147068825900,11.452825927734375,0.29095227339752017,-0.5363941108554602,-0.9884165785878896
1746477147078805000,11.462804931640624,0.24121004510708152,-0.35678280911445615,-1.0819149464964866
1746477147088784000,11.472783935546875,0.2388444850195199,-0.16559037517309189,-1.2568787146925926
1746477147098763000,11.482762939453124,0.14218502273149788,-0.05951894141733646,-1.4850345593720673
1746477147108742000,11.492741943359375,0.05694996771216392,0.02277823351919651,-1.6784505145817994
1746477147118721000,11.502720947265624,-0.03408770917132497,0.010555296283960342,-1.8249451441407203
1746477147128701000,11.512700927734375,-0.11645838773548603,-0.09351824165284633,-1.9380472071856258
1746477147138680000,11.52268017578125,-0.052020694616436956,-0.08336158929765224,-2.1310925755172967
1746477147148659000,11.532658935546875,0.014668576821684836,0.007242810735106468,-2.3282395339488984
1746477147158638000,11.54263818359375,-0.059050885514169926,0.11470716015398502,-2.497117844751477
1746477147168617000,11.552616943359375,-0.2832622303515673,0.14063070596158503,-2.554875621715188
1746477147178596900,11.562596923828124,-0.4700234769124537,0.12010638884902,-2.592141814792156
1746477147188576000,11.572575927734375,-0.6195650729518384,0.08395020284056663,-2.695834828978777
1746477147198555000,11.582554931640624,-0.6621732115786523,0.046671150282025335,-2.8132606004416942
1746477147208534000,11.592533935546875,-0.6249463275987654,0.18062486269772052,-2.970397035524249
1746477147218513000,11.602512939453124,-0.6183113465636968,0.34272271957993505,-3.039358928069472
1746477147228493000,11.6124931640625,-0.6669763010114431,0.4398749338209629,-2.9996950262010094
1746477147238472000,11.622471923828124,-0.731254492719844,0.3269365369051695,-2.9231460395276545
1746477147248451000,11.632451171875,-0.6731237177252769,0.014126725029945372,-2.8476240578144787
1746477147258430000,11.642429931640624,-0.5097568638205527,-0.37187107265293595,-2.8566344627439975
1746477147268409000,11.6524091796875,-0.3356009048759937,-0.765657624515891,-3.0409564263939854
1746477147278388000,11.662387939453126,-0.11372107172608376,-1.0473808087319134,-3.2382799104362725
1746477147288367900,11.672367919921875,0.048265725997090336,-1.1660796688705681,-3.2904555033534764
1746477147298347000,11.682346923828124,0.14727971552200614,-1.0616887355476616,-3.2737147964328526
1746477147308326000,11.692325927734375,0.09788462016880511,-0.7813625586479902,-3.040709173634648
1746477147318305000,11.702304931640626,-0.10536825392246246,-0.4543552945941686,-2.637560334664583
1746477147328284000,11.712283935546875,-0.27349245842210945,-0.17946341770291327,-2.3241262534111735
1746477147338264000,11.72226416015625,-0.36299152756147085,-0.013222469666600227,-2.0747253761291504
1746477147348243000,11.732242919921875,-0.45149647109694774,0.07697451860904693,-1.8182529530256986
1746477147358222000,11.74222216796875,-0.5363010988097637,0.18386194492280483,-1.5805734931975601
1746477147368201000,11.752200927734375,-0.6391348658185452,0.1896662472873926,-1.44122055208683
1746477147378180000,11.76218017578125,-0.7615536963284015,0.17303426143825054,-1.2126625563472508
1746477147388160000,11.772159912109375,-0.6038368310093879,0.1681342144370079,-0.9320306744992732
1746477147398139000,11.782138916015626,-0.48644963799118995,0.062168579143285746,-0.7450824539989233
1746477147408118000,11.792117919921875,-0.5300585511583834,-0.12288579043447971,-0.5353624297201633
1746477147418097000,11.802096923828126,-0.42830834160260856,-0.29459903240203855,-0.37585751194059847
1746477147428076000,11.812075927734375,-0.4543476958096027,-0.5417419016242027,-0.33255729939639567
1746477147438055000,11.822054931640626,-0.6760428931076079,-0.7803793928295374,-0.4007902931451797
1746477147448035000,11.83203515625,-0.874945097708702,-0.9547212297350167,-0.40207448773682114
1746477147458014000,11.842013916015626,-0.8220482778448611,-0.9842045138508081,-0.3213584445118904
1746477147467993000,11.8519931640625,-0.6675812811672687,-1.001760044285655,-0.171297062382102
1746477147477972000,11.861971923828126,-0.5175572719058021,-0.9530880755752325,-0.03650514557659626
1746477147487951000,11.871951171875,-0.39380872716214504,-0.8780185138046741,0.019866729986667633
1746477147497931000,11.881930908203126,-0.3521283343721181,-0.8516910633713006,0.014697218394279479
1746477147507910000,11.891909912109375,-0.4388402570109814,-0.7447650586128235,0.010481646525859832
1746477147517889000,11.901888916015626,-0.6271726984113455,-0.6670072806715965,0.06925999870896339
1746477147527868200,11.9118681640625,-0.7426058347523212,-0.5660901609390974,0.1606885746061802
1746477147537847000,11.921846923828125,-0.7855179247617721,-0.46940439516603943,0.34444705915451046
1746477147547827000,11.931826904296875,-0.8155021441370248,-0.39522506023347376,0.510398084333539
1746477147557806000,11.94180615234375,-0.8111562238872051,-0.31142800212800503,0.7261796006083489
1746477147567785000,11.951784912109375,-0.8199994555562734,-0.2506254506409168,0.8940928657710552
1746477147577764000,11.96176416015625,-0.8413970483720302,-0.19412614930570124,1.02547351282835
1746477147587743000,11.971742919921875,-0.9001461744606495,-0.11475801355838774,1.0998328805029391
1746477147597722000,11.98172216796875,-0.9046884940654039,-0.041379473614692686,1.205966858100891
1746477147607702000,11.991701904296875,-0.8528186060965061,0.03237842103540897,1.3138994095534084
1746477147617681200,12.00168115234375,-0.7918781074434519,0.056169046467542644,1.4406775312513111
1746477147627660000,12.011659912109375,-0.7478051569610834,0.028504794472455977,1.5769517955690622
1746477147637639200,12.02163916015625,-0.7241723524391651,-0.05389116466343403,1.6953823601603506
1746477147647618000,12.0316181640625,-0.7053495785474777,-0.20076982510387897,1.7635247530162332
1746477147657598000,12.041597900390625,-0.6966290964752435,-0.3371206617891788,1.8190303671389818
1746477147667577000,12.0515771484375,-0.6517360617816448,-0.4410024765461683,1.8850684811919927
1746477147677556000,12.061555908203125,-0.572918545654416,-0.4309709118753671,1.8694319361209868
1746477147687535000,12.07153515625,-0.44911797846257684,-0.30383915443420406,1.8788614432454107
1746477147697514000,12.081513916015625,-0.29236553772892804,-0.01715805554986,1.865591627305746
1746477147707494100,12.091494140625,-0.10958262021448463,0.40039398730397224,1.9078765253275631
1746477147717473000,12.10147314453125,0.06392042777929455,0.9007640140980482,2.027236479723453
1746477147727452200,12.1114521484375,0.1393032567501068,1.312475514230132,2.08921684281826
1746477147737431000,12.12143115234375,0.11841357692386954,1.6125310584723949,2.0252105268537997
1746477147747410200,12.13141015625,0.03247720523476601,1.8715455672740935,1.8222697874516247
1746477147757389000,12.14138916015625,-0.16801555649340152,2.010387636253238,1.7207979564458131
1746477147767369000,12.151368896484374,-0.400709629124403,2.063071763214469,1.5556073942452668
1746477147777348000,12.16134814453125,-0.6280547419428825,1.9826123250991106,1.4436071549624203
1746477147787327000,12.171326904296874,-0.8599632171541451,1.7798393434792756,1.4052695332616567
1746477147797306000,12.18130615234375,-0.9247247354000806,1.646850676703453,1.2665344317883251
1746477147807285000,12.191284912109374,-0.782511728683114,1.6573650564551352,1.0583850178271532
1746477147817265200,12.20126513671875,-0.5994465236285701,1.709048481941223,0.9892506913244724
1746477147827244000,12.211244140625,-0.41796007566545157,1.664635339719057,1.0719973635941744
1746477147837223200,12.22122314453125,-0.18076277333106844,1.7026321851581334,1.1017086112469434
1746477147847202000,12.2312021484375,0.11967154109571128,1.9964286690056323,0.9482155011028051
1746477147857181200,12.24118115234375,0.43359194456133987,2.496219434607029,0.8067033361315726
1746477147867161000,12.2511611328125,0.6251409003227949,3.09932269064486,0.7525701794058084
1746477147877140000,12.261139892578125,0.5979390051424504,3.6168928585648534,0.8366308568835258
1746477147887119000,12.271119140625,0.3560813828468323,3.878412043663859,1.0399299082040787
1746477147897098000,12.281097900390625,-0.2509101493338123,3.795975167995691,1.4540157362520694
1746477147907077000,12.2910771484375,-1.0190379268229006,3.3246324982434508,2.053481512570381
1746477147917057000,12.30105712890625,-1.8018273034036159,2.3997096099227666,2.3818483745396137
1746477147927036200,12.3110361328125,-2.261502331715822,1.2891764717072247,2.3048487214893103
1746477147937015000,12.32101513671875,-2.338351762640476,0.3086772421151399,2.003404353237152
1746477147946994200,12.330994140625,-1.9954215377897022,-0.3743044372797012,1.5731711079865693
1746477147956973000,12.34097314453125,-1.2164876675933598,-0.7072352461636066,1.053514196920395
1746477147966952200,12.3509521484375,-0.41935587740540503,-0.6949240461230277,0.846703338086605
1746477147976932000,12.36093212890625,0.32946810120940206,-0.38256022444963456,0.9657137483924627
1746477147986911000,12.370910888671874,0.943743324124813,0.18632628920972347,1.1633172184199094
1746477147996890000,12.38089013671875,1.3842062869668006,0.8092553587019443,1.3573726405769586
1746477148006869000,12.390868896484376,1.6730284895330667,1.3505746509999037,1.5168214442551136
1746477148016848100,12.40084814453125,1.761729101771116,1.7426181585878133,1.6521891151219605
1746477148026828000,12.410828125,1.6485434520959854,1.9346417826563118,1.6808143211036919
1746477148036807200,12.42080712890625,1.3976041132003068,1.9191297407478094,1.5283996538460254
1746477148046786000,12.4307861328125,1.1580483381062745,1.7875135313689707,1.2377724476844072
1746477148056765200,12.44076513671875,0.8679705825209617,1.5519325051248072,0.9546738834619521
1746477148066744000,12.450744140625,0.5462648589413612,1.1570786162912845,0.8124439256101846
1746477148076723200,12.46072314453125,0.2954377482485026,0.7427250772178172,0.8302753503769635
1746477148086703000,12.470703125,0.18871866423897443,0.32500001588463784,0.9523428101658821
1746477148096682000,12.480681884765625,0.17878420326709746,-0.06735270378291607,1.001845969003439
