time,seconds_elapsed,z,y,x
1746477055657789000,0.020788818359375,3.0776351749718187,-0.028999884513020515,0.965108768236637
1746477055667768000,0.03076806640625,2.758022697344422,-0.24007658409774302,0.9210974848136305
1746477055677748000,0.040748046875,2.4473586653262376,-0.31445465647280213,0.7018456620797514
1746477055687726800,0.050726806640625,1.9030068734645842,-0.4060124117076397,0.6618781010895967
1746477055697706000,0.0607060546875,1.4112579600214958,-0.30488661766052244,0.7894634475171566
1746477055707685000,0.07068505859375,1.2783335906535387,-0.23307868803441523,0.8519152275159955
1746477055717665000,0.0806650390625,1.2562088526070117,-0.2529761054202914,1.068627887161076
1746477055727644000,0.090643798828125,1.1912953586697577,-0.30765315976440905,1.4345163782730699
1746477055737623000,0.100623046875,1.109630051895976,-0.30359394750148055,1.6979609784767031
1746477055747603000,0.11060302734375,1.0761246726572513,-0.24441607460677622,1.68903357565552
1746477055757581800,0.120581787109375,0.7691384523689746,-0.2449243163898587,1.5304285293251274
1746477055767561000,0.13056103515625,0.3800380124956369,-0.07616086413860321,1.3734998917743564
1746477055777540900,0.140540771484375,0.2857867803931236,0.09879150588065386,1.1796519748881458
1746477055787520000,0.15052001953125,0.7091209137797355,-0.05998597440719604,0.6962605554237962
1746477055797499000,0.160498779296875,1.3220990826219319,-0.35339112084954977,0.18148790926784275
1746477055807478000,0.17047802734375,1.5713018069833515,-0.6233017021968961,0.22861557114571332
1746477055817458000,0.1804580078125,1.510128668618202,-0.9165598413839936,0.21925094595104455
1746477055827436800,0.190436767578125,1.7986065877914428,-1.0338161014989018,-0.11270517268180846
1746477055837416000,0.200416015625,2.2986972131222485,-1.069360585349798,-0.3751224756643176
1746477055847395800,0.210395751953125,2.763085825952887,-1.0418459709584713,-0.11168985815942287
1746477055857375000,0.220375,2.808846291130781,-1.091907055939734,0.4976970081925392
1746477055867353900,0.230353759765625,2.4447920297086236,-0.8036573925644159,0.9411813646823167
1746477055877333800,0.240333740234375,1.4271125317573548,-0.3925014804884791,1.0576514428555965
1746477055887313000,0.25031298828125,0.2675321617782116,-0.376401117298007,0.4185509907633066
1746477055897291800,0.260291748046875,-2.002460350385308,-0.12809300368875265,0.8543395320534706
1746477055907272200,0.270272216796875,-2.424082419157028,-0.05785071594417095,0.6102648182302713
1746477055917251000,0.2802509765625,-1.4253759172230958,-0.06855360400527716,0.02930734302699566
1746477055927230000,0.29022998046875,-0.23335575141012668,-0.24918606548756358,0.2765899129807949
1746477055937208800,0.300208740234375,1.4227555055916308,-0.3366924995049834,0.023698855495452878
1746477055947189000,0.31018896484375,2.7706957164347172,-0.45807723772674797,-0.2136561946839094
1746477055957168000,0.320168212890625,3.4779426530361173,-0.354220557411015,-0.3760346220731735
1746477055967147000,0.33014697265625,3.2759161058694124,0.07370791802853345,-0.5273223311275244
1746477055977127200,0.340127197265625,2.681504105809331,0.529320519207418,-0.42240357453823085
1746477055987106000,0.35010595703125,2.0378087271422145,1.0692390047967433,-0.13367197286486626
1746477055997085200,0.360085205078125,1.4728011007428168,1.5130717363327741,0.2519914782971144
1746477056007064000,0.37006396484375,1.0592986255407333,1.6410425749465822,0.4525099589884281
1746477056017044000,0.3800439453125,0.5853448965072632,1.7067212080374359,0.27426585394740105
1746477056027023000,0.390023193359375,0.30292028602361676,1.7326161122724413,-0.07289221773147582
1746477056037002000,0.400001953125,0.5114835414826869,1.766734947234392,-0.346251478227973
1746477056046982100,0.409982177734375,1.0575725324004888,1.662482837860286,-0.45716450679600235
1746477056056961000,0.4199609375,1.530151465949416,1.7813401034310459,-0.3998720092564821
1746477056066940200,0.429940185546875,2.2970617208749053,1.932280314221978,-0.5384463672101497
1746477056076920000,0.439920166015625,3.2595430632174014,2.4186302912309765,-0.4576391385704279
1746477056086899000,0.44989892578125,4.054432627436518,2.893638790014386,-0.0742132372021675
1746477056096878000,0.459878173828125,4.670639110675454,3.4056063156217333,0.12833528801202773
1746477056106858000,0.46985791015625,4.61551635839045,3.8669507384508846,0.17750351580679416
1746477056116837000,0.479837158203125,3.8549738849312063,4.015305316662788,0.03678045538663864
1746477056126816000,0.48981591796875,2.331059852066636,4.0505660151362415,-0.020073066213726995
1746477056136795100,0.499795166015625,0.5390916793763637,3.7248020291417836,-0.22197452569603918
1746477056146775000,0.509775146484375,-0.9759849670380354,2.964877979841828,-0.7802472908824681
1746477056156754000,0.51975390625,-2.005108819067478,2.2696534894675016,-1.9795967766702174
1746477056166733000,0.529733154296875,-2.973585602432489,2.085527925172448,-2.6216841356188056
1746477056176713000,0.539712890625,-3.6873449896678325,1.731632069671154,-2.518268769329786
1746477056186692000,0.549692138671875,-4.055137853096426,1.62287241974473,-2.1322335622459647
1746477056196671000,0.5596708984375,-3.402966030246019,1.4284183536589146,-1.9493840092360972
1746477056206651000,0.56965087890625,-2.1183102508336304,1.40106682087481,-2.1301158394396302
1746477056216630000,0.579630126953125,-1.5465496430426835,1.5501637418866157,-2.12836344281435
1746477056226609000,0.58960888671875,-1.7980998073130845,1.4795704487472772,-1.8905571417361497
1746477056236589000,0.599589111328125,-2.4090815416410565,1.5302414823204278,-1.8466601323425769
1746477056246568000,0.60956787109375,-3.164702925311029,1.360630181068182,-1.7955238193452356
1746477056256547000,0.619547119140625,-3.8161306517958637,0.9575514847248792,-1.909510848531127
1746477056266526000,0.62952587890625,-4.296284989035129,0.5710018983781338,-1.871649027648568
1746477056276505900,0.639505859375,-4.342253251744807,0.04646130692362785,-1.536977512577176
1746477056286485000,0.649485107421875,-4.002268140435219,-0.544009262034297,-1.2707149323433637
1746477056296464000,0.6594638671875,-3.6806682883828876,-1.0514145942926407,-1.1401906098544596
1746477056306444000,0.669444091796875,-3.4254867818728085,-1.495777487182617,-0.8508142805367708
1746477056316423000,0.6794228515625,-3.1897870976850387,-1.4698662163347005,-0.4196399550437927
1746477056326402000,0.689402099609375,-3.038755116957426,-1.1867968782067297,0.5090899243444204
1746477056336382000,0.6993818359375,-2.7261136473864314,0.20845570343136785,0.6317395679354667
1746477056346360800,0.70936083984375,-1.4336489477887748,-0.7481962021052837,1.1148065777510403
1746477056356340000,0.719340087890625,-2.1864909298732877,-1.7535691761910914,1.6783330256819724
1746477056366319900,0.72931982421875,-3.47293973018229,-0.8139549146950245,1.3626719160288572
1746477056376299000,0.739299072265625,-3.342586672607064,-1.2548352261662483,1.1396499271064997
1746477056386278000,0.74927783203125,-2.9244176668986674,-1.7569564805418252,0.6843488760948181
1746477056396258000,0.759258056640625,-2.197482864008844,-1.8579378976821899,0.2682370951771736
1746477056406237000,0.76923681640625,-1.317272393117845,-1.8095511756539344,0.3302373320162296
1746477056416215800,0.7792158203125,-0.6146528240561485,-2.0637340265154838,0.2449754620552063
1746477056426195000,0.78919482421875,0.12917729179412127,-2.32387140186727,0.14066869988441466
1746477056436175000,0.799175048828125,0.7646335421651601,-2.3238696483016015,0.7477566416442394
1746477056446154000,0.809154052734375,1.2612927317425608,-2.2883219495803115,1.415647719413042
1746477056456132900,0.8191328125,1.9080436985880136,-2.3511989692538977,1.6822884853094815
1746477056466113000,0.829113037109375,2.358975156213343,-2.832244702374935,1.8122125038176773
1746477056476092200,0.839092041015625,2.784692969866097,-3.3610715928465127,1.5246826791495083
1746477056486071000,0.849071044921875,2.8971050048202276,-4.008739382275939,1.4577262812077998
1746477056496051200,0.85905126953125,2.530462772731483,-4.25646560434401,1.0684142444103955
1746477056506030000,0.869030029296875,1.8345374406114219,-3.8873856237143274,-1.4689087694793939
1746477056516009200,0.87900927734375,0.5026271580711007,-3.7002415883809325,-1.3629039712190627
1746477056525988000,0.888988037109375,-0.556754469577968,-3.1171886022031305,-1.2237947757363319
1746477056535968000,0.898968017578125,-1.7952035013496874,-2.7901035967379806,-1.9647493361502886
1746477056545947100,0.908947021484375,-1.99545880106017,-2.6149545351028443,-3.3388317039877173
1746477056555926000,0.918926025390625,-1.4281743157699702,-2.2727082008630037,-3.985808588543534
1746477056565906000,0.928906005859375,-0.45007542531788347,-2.07722479172945,-4.801204934218526
1746477056575885000,0.938885009765625,0.7719742603167891,-1.9522171868354081,-6.2675570049524305
1746477056585864200,0.9488642578125,1.3512515273481607,-1.8849059841066598,-7.520978857189417
1746477056595844000,0.958843994140625,1.575445190398395,-2.3090870897114275,-5.64582036011517
1746477056605823000,0.968822998046875,1.118740994590521,-6.297867387542128,0.6022679742574691
1746477056615802000,0.978802001953125,0.15573241350352762,-5.786366310402751,0.44842941167652606
1746477056625782000,0.988781982421875,-1.8146368083551525,-0.6228536661684513,-1.7584458423167466
1746477056635761000,0.998760986328125,-4.6470936921760435,0.19456746333241462,-1.4907903464198111
1746477056645740000,1.008739990234375,-3.670456690970063,0.22746143267452715,-1.3781009558290243
1746477056655720000,1.018719970703125,-4.215798662912845,1.4313392095416784,-1.6790969957917927
1746477056665699000,1.028698974609375,-4.932634096592665,2.081340994876623,-1.983282771706581
1746477056675678000,1.038677978515625,-5.132173503118753,2.1213643777072426,-1.644211560371518
1746477056685657000,1.048656982421875,-5.1323699024736875,1.520944077143073,-1.1045645851999522
1746477056695637000,1.058636962890625,-4.678165999048948,0.92666534807384,-1.198316635608673
1746477056705616000,1.068615966796875,-3.978884342238307,0.6938964566409588,-1.7657535349816083
1746477056715595000,1.078594970703125,-3.10331380610764,0.6581067658573388,-2.422660277399421
1746477056725575000,1.088574951171875,-2.2877727912649513,0.8318366083443164,-2.9044711496740576
1746477056735554000,1.098553955078125,-1.6119631954565643,0.9773211840778588,-3.2202924183249473
1746477056745533000,1.108532958984375,-1.0786819559246301,1.007826796978712,-3.5909003391742704
1746477056755512800,1.118512939453125,-0.7423366624221205,0.9569640402257442,-3.5056858154863115
1746477056765492000,1.128491943359375,-0.6068216920390724,0.5140799877166747,-3.092514179673791
1746477056775470800,1.138470947265625,-0.5718184754580259,0.019159458500146866,-2.7705513395279646
1746477056785451000,1.148450927734375,-0.5503992553323507,-0.24368191511332987,-2.577933841219544
1746477056795430000,1.158429931640625,-0.5512979577377438,-0.1754372309267521,-2.505722006967664
1746477056805409000,1.168408935546875,-0.6075283790037036,0.17289222261905668,-2.3756693936437365
1746477056815389000,1.178388916015625,-0.8820441160589456,0.7615420058906078,-2.04283444634974
1746477056825367800,1.188367919921875,-1.1646642491146921,1.0657798042535782,-1.4105553647100924
1746477056835347000,1.198346923828125,-1.1460521953642369,1.181470130226016,-0.8128221112728118
1746477056845325800,1.208325927734375,-1.1507187258705496,1.4208873736321925,-0.48129006327092644
1746477056855306000,1.218305908203125,-0.770605602312088,1.7734248002618551,-0.34842706870138646
1746477056865284900,1.228284912109375,-0.33336481638699766,1.9369325239419937,-0.21188450883626936
1746477056875264000,1.238263916015625,-0.01542348684221506,2.0901871491551396,0.09634031333625316
1746477056885244000,1.248243896484375,0.09633972881436348,2.3052537951588628,0.5126461555212736
1746477056895222800,1.258222900390625,0.213932965798676,2.16575647714138,0.8170160558313131
1746477056905202000,1.268201904296875,0.5298100562900304,1.953595489451289,0.9130500796973705
1746477056915182000,1.27818212890625,0.7510390243157744,1.6787667409241198,0.9416349536687135
1746477056925161000,1.288160888671875,0.5798743561416864,1.3800199411928653,1.1190922922462225
1746477056935139800,1.298139892578125,0.28297464558184143,0.9324456850409507,1.2766723794430495
1746477056945120000,1.3081201171875,0.014225655359774826,0.45670682615637775,1.3270581663340328
1746477056955099100,1.31809912109375,-0.26686756038963794,0.1644382825285196,1.5261521671801805
1746477056965078000,1.328078125,-0.4404091868281364,0.021807927182316778,1.7655214797914027
1746477056975057000,1.338056884765625,-0.31757571110278365,-0.05873685112893581,1.9913047501206398
1746477056985037000,1.348037109375,0.17096300812214613,0.08576455878615379,2.287618185225129
1746477056995016200,1.35801611328125,0.9581395137459039,0.2723328400582075,2.7283482745707035
1746477057004995000,1.3679951171875,1.8614274933636188,0.4563830010294914,3.1458050403565165
1746477057014975000,1.37797509765625,2.6313372223660347,0.5270604653209447,3.5662358535170555
1746477057024954000,1.3879541015625,3.4540035590440032,0.4436936153262853,3.9944565899014473
1746477057034933000,1.39793310546875,3.835245102110505,0.459080569550395,4.115454959154129
1746477057044913200,1.4079130859375,3.5389278676137326,0.6353875690490007,3.847661516091227
1746477057054892000,1.41789208984375,3.127012661603093,0.7202922961354256,3.6404274634093046
1746477057064871200,1.42787109375,2.588182555772364,0.7184890461057424,3.5127848338365553
1746477057074851000,1.43785107421875,2.132684520883858,0.8181108653306961,3.425217609542608
1746477057084830000,1.447829833984375,1.697683330579102,0.876285990923643,3.3988667782336472
1746477057094809000,1.45780908203125,1.5147770789459347,0.9019996933728456,3.3304671957463023
1746477057104789000,1.4677890625,1.2659458182454109,1.0576794999063015,3.3242689256280658
1746477057114768100,1.47776806640625,0.9840022692769765,1.1504618285000323,3.3861598568737503
1746477057124747000,1.4877470703125,0.7930445208743214,1.0994997030258178,3.4757033496767282
1746477057134726100,1.49772607421875,0.6542194030299783,1.0580004024237393,3.491958903428912
1746477057144706000,1.5077060546875,0.5942600243687629,0.9412456620901822,3.445639635324478
1746477057154684700,1.5176845703125,0.676314622721076,0.8853057482033967,3.3392923072367906
1746477057164663600,1.52766357421875,0.8295634027153254,0.9244675457686186,3.193865599170327
1746477057174643700,1.537643798828125,0.9860948576420545,0.9572101239413022,3.0849516354650257
1746477057184622800,1.547622802734375,1.1507160955220461,1.1100906551450491,3.10726751216948
1746477057194601700,1.557601806640625,1.1921169041857123,1.4430115271568298,3.0672423757731915
1746477057204581600,1.56758154296875,1.156922548946738,1.636000196865201,3.080693393498659
1746477057214560800,1.577560791015625,1.2042349197417497,1.81323307903707,3.0108909584760664
1746477057224539600,1.58753955078125,1.1772820308864116,2.0603853006094694,2.834122771206498
1746477057234519800,1.597519775390625,1.0636068441286683,2.291292489823699,2.6700702731251713
1746477057244498700,1.607498779296875,0.9102239163607359,2.488990067875385,2.5035183594435453
1746477057254477800,1.617477783203125,0.7302893740147351,2.5946505827426907,2.2732862930119038
1746477057264457700,1.627457763671875,0.9583663082391023,2.685117035609484,1.9348031106978654
1746477057274436600,1.6374365234375,1.5644012338146567,2.7239088308185337,1.6002648666173218
1746477057284415700,1.647415771484375,-0.6077434830591082,2.4883161141365764,1.6170675328582524
1746477057294395600,1.657395751953125,0.581613308763504,2.7623955056011673,0.8478039928048848
1746477057304374800,1.667374755859375,0.37098669103384013,2.6360335634887218,0.2805319286048412
1746477057314353700,1.677353759765625,-0.23139044268652795,2.624090027716756,0.19644787025153634
1746477057324332800,1.687332763671875,-0.43340413037166,2.7288796049684283,-0.2085153246641159
1746477057334312700,1.697312744140625,-0.6841833102695644,2.627677823075652,-0.43266602535545823
1746477057344291600,1.70729150390625,-0.5464641078405081,2.8849633161276578,-0.5775760160714387
1746477057354270700,1.717270751953125,-0.21318200130090117,3.3393349773347376,-0.892041778460145
1746477057364250600,1.727250732421875,-0.021696575762331485,3.8262212531775233,-1.1347615705430507
1746477057374229800,1.737229736328125,-0.16109744766801595,4.085018904358148,-1.0399807616084813
1746477057384208600,1.747208740234375,-0.6266236862264574,3.855435072702169,-0.6081693072557449
1746477057394188500,1.7571884765625,-1.1732201882749795,2.860180172526836,-0.03536357432603836
1746477057404167700,1.767167724609375,-1.5490467205554246,1.6098293982982634,0.26078736369311806
1746477057414146600,1.777146484375,-1.6697820549577473,0.5026391407698393,0.14211539156138897
1746477057424126700,1.787126708984375,-1.505574658575654,-0.38202480239868164,-0.29786300263404847
1746477057434105600,1.797105712890625,-1.0826590428620577,-1.069379290050268,-0.8389303659975528
1746477057444084700,1.807084716796875,-0.5008952197119594,-1.4053420139759778,-1.4005033417731523
1746477057454064600,1.817064697265625,0.23975363575369119,-1.1849404366850853,-1.6196972968399523
1746477057464043500,1.82704345703125,0.8260755605995654,-0.6022387481629848,-1.1814362279564141
1746477057474022700,1.837022705078125,0.994424879091978,-0.583657381811738,-0.9552204114288091
1746477057484001500,1.84700146484375,1.1901830135136842,-0.47582244551479813,-1.2703688953846692
1746477057493981700,1.856981689453125,1.1795768638253212,0.014552256965637207,-1.176290681761503
1746477057503960600,1.866960693359375,0.5750380220264196,-0.005374678775668144,-0.9947352602154016
1746477057513939700,1.876939697265625,-0.07050619937777519,-0.03841302502453327,-0.8734370312333106
1746477057523919600,1.886919677734375,-0.5974646656289696,-0.16673253094553947,-1.1330541821032762
1746477057533898500,1.8968984375,-0.9614429392054676,-0.39046588300764556,-1.2965683355242013
1746477057543877600,1.906877685546875,-1.2086243868723512,-0.6720955437213182,-1.4078285700947046
1746477057553857500,1.916857421875,-1.4142748236246405,-0.8891238451868295,-1.381312903612852
1746477057563836700,1.926836669921875,-1.5857687237530946,-1.1649193929195403,-1.317315355476737
1746477057573815600,1.936815673828125,-1.6981446644805371,-1.3769979630231857,-1.2242968800395726
1746477057583795500,1.94679541015625,-1.7628712575435637,-1.518560396876931,-1.122470828768611
1746477057593774600,1.956774658203125,-1.7222640834756195,-1.6290619220346212,-1.0204945553719997
1746477057603753500,1.96675341796875,-1.5565021511279045,-1.6597282784551382,-0.978322470074892
1746477057613734000,1.97673388671875,-1.3551749844022094,-1.6131939062952994,-0.9563988075584172
1746477057623712800,1.986712646484375,-1.1697060426741839,-1.578458693000674,-0.9766510297313332
1746477057633691600,1.996691650390625,-0.9860153626650571,-1.5322183353513479,-1.0404223678961395
1746477057643671800,2.006671875,-0.8011895411461591,-1.5538754558861254,-1.092419681636989
1746477057653650700,2.016650634765625,-0.6944470762610435,-1.592505923053622,-1.2793608878746627
1746477057663629800,2.0266298828125,-0.8358306464165449,-1.5599550680607557,-1.4823425438091158
1746477057673608700,2.036608642578125,-0.9148872319966554,-1.5735323425143957,-1.5437164654433726
1746477057683588900,2.0465888671875,-0.8388463409759104,-1.6809627896636723,-1.5453656939551232
1746477057693567700,2.056567626953125,-0.7767867751650511,-1.8209610429406164,-1.6217454615414142
1746477057703547000,2.066546875,-0.8443534139595925,-1.9169740240186453,-1.71075119420588
1746477057713526800,2.07652685546875,-0.820544814479351,-2.1259517054975032,-1.7682327845767138
1746477057723505700,2.086505615234375,-0.6222907715886831,-2.403932780575752,-1.870884765277803
1746477057733484800,2.09648486328125,-0.2907644226752221,-2.5653543456315995,-2.126406463527679
1746477057743464700,2.106464599609375,0.024176117618381975,-2.588548758736253,-2.446651393839717
1746477057753443800,2.11644384765625,0.11168299002721906,-2.458210314208269,-2.524902508255839
1746477057763422700,2.126422607421875,0.11365151362121105,-2.4275229149997233,-2.413431261283159
1746477057773402600,2.136402587890625,0.19301278123632074,-2.510229255259037,-2.4446727872431278
1746477057783381800,2.1463818359375,0.2772521762818098,-2.5591695195168254,-2.499528997546434
1746477057793360600,2.156360595703125,0.40551863684132694,-2.835230440187454,-2.6793597872570154
1746477057803340800,2.1663408203125,0.42060733877122397,-2.887148258951306,-2.708719737254083
1746477057813319700,2.176319580078125,0.2910626749694347,-2.3829402614295483,-2.4025056703820824
1746477057823298800,2.186298828125,0.4155880493044853,-2.4462679474800826,-2.627015559774637
1746477057833278700,2.19627880859375,0.5276657377377152,-2.2872429221719504,-2.553638773396611
1746477057843257600,2.206257568359375,0.5626157628268003,-1.8437977286487817,-2.3096295260250566
1746477057853236700,2.21623681640625,0.534395045992732,-1.5872428879588842,-2.28309310901612
1746477057863215600,2.226215576171875,0.4994596339508891,-1.2254168239802121,-2.191053123222291
1746477057873195800,2.23619580078125,0.43035248771607876,-0.9205138397067785,-2.097628405071795
1746477057883174700,2.246174560546875,0.30263518547192214,-0.6809089647740125,-2.0299501225963232
1746477057893153800,2.25615380859375,0.16638021037653086,-0.4987205060213804,-1.9721502600565552
1746477057903133700,2.2661337890625,-0.00813522953018546,-0.2840530884683132,-1.888945322625339
1746477057913112600,2.276112548828125,-0.260353063929081,-0.02740881592929363,-1.8036559801355003
1746477057923091700,2.286091796875,-0.5063663445994258,0.11763736838698387,-1.7861185698792337
1746477057933071600,2.296071533203125,-0.6927063700735568,0.20706571037769317,-1.8555904577732085
1746477057943050500,2.306050537109375,-0.8201078843668103,0.3456961824327707,-1.9167177111700175
1746477057953029600,2.316029541015625,-0.9134785342425107,0.4417126706421375,-1.9583909070342778
1746477057963009500,2.326009521484375,-0.9617786009006202,0.5970978781431913,-2.0654539821758866
1746477057972988700,2.33598876953125,-0.8884840859785675,0.9117413351863622,-2.2253113666549322
1746477057982967600,2.345967529296875,-0.723299661257863,1.292167470216751,-2.3916283025369047
1746477057992947500,2.355947509765625,-0.6013083354450762,1.7373615532338618,-2.5109552314460277
1746477058002926600,2.365926513671875,-0.6504314089238643,2.1646663438171148,-2.5388275732338426
1746477058012905500,2.375905517578125,-0.8109474034421146,2.424146132043004,-2.4877362684220072
1746477058022885600,2.3858857421875,-1.0135644638478756,2.398053074887395,-2.4499457592099905
1746477058032864500,2.395864501953125,-1.3112852815322578,2.160529097881913,-2.4382383702814576
1746477058042843600,2.40584375,-1.605202176889032,1.6736995206624268,-2.370778698992729
1746477058052823800,2.41582373046875,-1.7704348246656356,0.9539911618947983,-2.235443176829815
1746477058062802400,2.425802490234375,-1.800843114671856,0.29069910235404967,-2.1076853964447975
1746477058072781600,2.435781494140625,-1.7052058350384234,-0.13295710259377955,-1.8921143080502747
1746477058082761700,2.44576171875,-1.5190383896522224,-0.3405810313761234,-1.5145464850604533
1746477058092740900,2.455740966796875,-1.3176027941159902,-0.29240707531571386,-1.0267711514234543
1746477058102719700,2.4657197265625,-1.1562794287376106,-0.1297013156682253,-0.46877661865651604
1746477058112698600,2.47569873046875,-0.9884206702411175,0.10580664533972739,0.0050374096453189845
1746477058122678800,2.4856787109375,-0.7799515228062868,0.40137715312242506,0.4072843313395977
1746477058132657700,2.49565771484375,-0.5091678118862212,0.6149918467521667,0.7516583252578973
1746477058142636800,2.50563671875,-0.2673749253898859,0.819692581564188,0.9185258807599544
1746477058152616700,2.51561669921875,-0.04281140611395239,0.9354641560792922,1.0587702177524565
1746477058162595800,2.525595947265625,0.15054945790767668,0.9359919793456792,1.0855956808358431
1746477058172574700,2.53557470703125,0.2704512640953064,0.9252116421341896,1.0570137294739483
1746477058182554600,2.5455546875,0.2256559906877577,0.8016267635196447,1.0414023188441992
1746477058192533800,2.55553369140625,0.07761997690573334,0.6640940235733985,1.19091834205091
1746477058202512600,2.5655126953125,-0.13465280059576035,0.45291795526742934,1.3928326610147952
1746477058212492800,2.575492919921875,-0.5073128316693007,-0.058448681837320327,1.1271844132870434
1746477058222471700,2.5854716796875,-0.4707686692565679,-0.24779928730428216,0.7481997092366218
1746477058232450800,2.595450927734375,-0.7606855351917445,-0.4223725948780775,0.8793003703087567
1746477058242430700,2.6054306640625,-1.177881019692868,-0.6172463476806879,1.0348708712488413
1746477058252409600,2.61540966796875,-1.1740161609582602,-0.7200029578000307,1.1923685408592224
1746477058262388700,2.625388671875,-0.9686847270272672,-0.6282949804395437,1.2153303142517804
1746477058272368600,2.63536865234375,-0.7245002692192792,-0.7090870115101336,1.2939648750275372
1746477058282347800,2.64534765625,-0.2534726567655802,-0.6373217519819736,1.3004980761885643
1746477058292326700,2.65532666015625,0.21437705630436538,-0.4474380625516176,1.1868576684832572
1746477058302306600,2.665306640625,0.3627934477061033,-0.573278611138463,1.3212252223968506
1746477058312285700,2.67528564453125,0.3859516204535961,-0.6047510232448577,1.439752817621827
1746477058322264600,2.6852646484375,0.4859241528123617,-0.45822950567901133,1.4437772508323192
1746477058332244700,2.69524462890625,0.5857271738231182,-0.22438217135965824,1.589994232493639
1746477058342223600,2.7052236328125,0.6392927597939968,-0.09018880496919154,1.8358663511276243
1746477058352202800,2.71520263671875,0.6010634207732976,-0.029362872606515884,2.0105022025436163
1746477058362182700,2.7251826171875,0.5439660074144601,0.06741583214700221,2.070346722653508
1746477058372161500,2.73516162109375,0.4240590866602957,0.12774667446911334,2.0893238103240726
1746477058382140700,2.745140625,0.19579437477886677,0.2737286783307791,2.0641104586124417
1746477058392120600,2.75512060546875,-0.13748057136759162,0.5050163912951946,2.158815279701352
1746477058402099700,2.765099609375,-0.33762919583320616,0.5691039558023214,2.333693123179674
1746477058412078600,2.77507861328125,-0.38785584663972256,0.6203922444909811,2.461753685903549
1746477058422058500,2.78505859375,-0.31211072369515896,0.6208388192147016,2.5489310340970754
1746477058432037600,2.79503759765625,-0.1534375805646181,0.5966390284597873,2.609077752023935
1746477058442016500,2.8050166015625,-0.05124152693748474,0.6084317575842142,2.7076445092380044
1746477058451995600,2.81499560546875,-0.0232568108163774,0.6317243703663349,2.8328888454973695
1746477058461975600,2.8249755859375,0.01775309883356094,0.6584516337722539,2.850301752591133
1746477058471954700,2.83495458984375,0.105205902967602,0.7611205656081438,2.730360783436894
1746477058481933600,2.84493359375,0.26785949403643605,0.9165840990424156,2.6115748295366763
1746477058491913500,2.85491357421875,0.45190687852874395,1.0671423247784375,2.5125708499491215
1746477058501892600,2.864892578125,0.5723807855159044,1.3263280984938144,2.398272855117917
1746477058511871500,2.87487158203125,0.5394482377290726,1.707504175108671,2.3786983860760924
1746477058521852000,2.884851806640625,0.46616658228859303,1.8877333164870738,2.4108605340123175
1746477058531830500,2.89483056640625,0.3716458855949342,1.9910867234557865,2.3921382978856562
1746477058541809700,2.9048095703125,0.2657439631871879,2.1072920132130384,2.258406703788042
1746477058551789800,2.914789794921875,0.19346739313602446,2.1290935106545685,2.1530402034312486
1746477058561768700,2.924768798828125,0.19476795434057712,2.101179083290696,2.0417636022478343
1746477058571747800,2.934747802734375,0.30270810457766056,2.200113504773378,1.8057891927719114
1746477058581727700,2.944727783203125,0.46861412157118315,2.4190081846326588,1.5833318519949913
1746477058591707000,2.954706787109375,0.5782797804266214,2.468214406350255,1.462190859401226
1746477058601685800,2.964685791015625,0.684296853646636,2.356166820794344,1.3801836073219775
1746477058611665700,2.974665771484375,0.7837018152505159,2.170536697155237,1.29345634098351
1746477058621644800,2.984644775390625,0.8599982884675264,2.026505827361345,1.1709820539593696
1746477058631623700,2.994623779296875,0.840043295675516,2.0235680203437805,0.9541501518487929
1746477058641603600,3.004603515625,0.7870737759016454,2.3308915097624063,0.55002749941051
1746477058651582700,3.014582763671875,0.7638222257822752,2.8966578455746173,0.05283960978388786
1746477058661561600,3.0245615234375,0.7164670387588441,3.3708950677245855,-0.43226621238291263
1746477058671541800,3.034541748046875,0.6994207730203866,3.49908714787364,-0.5792337201505899
1746477058681520600,3.044520751953125,0.5770100527517498,3.0697628341615197,-0.3040402299642563
1746477058691499800,3.054499755859375,0.3266226486504078,2.3020488616377115,0.29238310991823674
1746477058701479700,3.064479736328125,-0.13071312305927277,1.5146598823070525,0.7569879958480596
1746477058711458600,3.07445849609375,-0.6420129785381257,0.8204933765530585,0.8617851718842983
1746477058721437700,3.084437744140625,-0.9516209256321191,0.35723639810085295,0.6456307306438684
1746477058731417600,3.09441748046875,-0.9608217385672032,-0.009310264658927916,0.16158932283818722
1746477058741396700,3.104396728515625,-0.672815966950357,0.0479494996547699,-0.31312545369565487
1746477058751375600,3.114375732421875,-0.21353096086904405,0.08547463592886924,-0.7100982343792915
1746477058761355500,3.12435546875,0.27701018421947954,0.16804595163166522,-1.1718915700197219
1746477058771334700,3.134334716796875,0.5244920761376619,0.6370867741823196,-1.1468284404337405
1746477058781313500,3.1443134765625,0.28131796441599727,1.2780471749275921,-0.2854641243100166
1746477058791292700,3.154292724609375,-0.10315116239488124,1.1548019035309554,0.028683073648810384
1746477058801272600,3.1642724609375,-0.34300431300029155,1.1239520072370768,-0.11067805076837539
1746477058811251700,3.174251708984375,-0.6193650934003293,0.8482283556967973,-0.15500351470708845
1746477058821230600,3.184230712890625,-0.7828973669998347,0.5436018502771854,-0.26930735475718975
1746477058831210500,3.19421044921875,-0.8108375133268535,0.020609072786569593,-0.5997773264855146
1746477058841189600,3.204189697265625,-0.7860017627559602,-0.15070318716466427,-0.3726479022443294
1746477058851168500,3.21416845703125,-0.9021030076168477,-0.42057460554540155,-0.3705284258723259
1746477058861148700,3.224148681640625,-0.9076056966863572,-0.7991478061854839,-0.29229017093777654
1746477058871127600,3.23412744140625,-0.7580676077783107,-1.1119453431010247,-0.1428150642633438
1746477058881106700,3.244106689453125,-0.5871954928100108,-1.290319212001562,0.06692541828155517
1746477058891086600,3.254086669921875,-0.4296827717609703,-1.6322884828656912,0.10017594597637652
1746477058901065500,3.2640654296875,-0.24788155876025555,-1.861122957459092,0.04992810625135898
1746477058911044600,3.274044677734375,-0.06671031422615051,-2.030364840877056,-0.045290509578585623
1746477058921024500,3.2840244140625,0.07286021515801548,-2.1786866858631373,-0.19803367813825606
1746477058931003600,3.294003662109375,0.18567527795508504,-2.2222306440353394,-0.31054712764024733
1746477058940982500,3.303982421875,0.2844499788314104,-2.2413445098280906,-0.47466392312943934
1746477058950962700,3.313962646484375,0.3542927458643913,-2.271120639410615,-0.6409276675194502
1746477058960941600,3.323941650390625,0.41987610188722607,-2.306759523546696,-0.8098819661676884
1746477058970920400,3.33392041015625,0.4223768326617777,-2.3163252242714165,-0.9896049115896225
1746477058980900900,3.34390087890625,0.37023748010173435,-2.2568740873932835,-1.1327087296664715
1746477058990879700,3.353879638671875,0.35215164218246936,-2.1996365349113938,-1.2840092982023954
1746477059000859000,3.36385888671875,0.40768575174733995,-2.07687115598619,-1.475978561735153
1746477059010838800,3.3738388671875,0.44776539480984207,-1.8103467099457977,-1.6549585798352955
1746477059020817700,3.383817626953125,0.3468492979906499,-1.7006360429048537,-1.7222487397760151
1746477059030796800,3.393796875,0.2525001584716141,-1.5608347735047339,-1.7969523908436298
1746477059040776700,3.403776611328125,0.1608411348193884,-1.3380091839373112,-1.8751584970742463
1746477059050755800,3.413755859375,-0.003249357184767723,-1.2460615526020526,-1.91724465765357
1746477059060734700,3.423734619140625,-0.16851532270908354,-1.1779822881102562,-1.829555852806568
1746477059070714600,3.433714599609375,-0.4210241028785705,-1.15277887327075,-1.7292261775732038
1746477059080693800,3.44369384765625,-0.7429225725512951,-1.1841180143862962,-1.6282909376621246
1746477059090672600,3.453672607421875,-1.0407440741311758,-1.2690361854761838,-1.5727099202156065
1746477059100652800,3.46365283203125,-1.21201139896214,-1.3567758437275885,-1.5726561442017555
1746477059110631700,3.473631591796875,-1.3013573233664035,-1.4576467862308025,-1.6045137562334537
1746477059120610800,3.48361083984375,-1.2492467585094273,-1.5246592982739209,-1.6447221402421592
1746477059130590700,3.4935908203125,-1.0867325759112834,-1.5648077687889337,-1.6627616548016666
1746477059140569600,3.503569580078125,-0.9260930280786007,-1.4560820211321115,-1.7741040146976708
1746477059150549200,3.51354931640625,-0.7998970901828258,-1.3431184897750614,-1.8285212490618228
1746477059160529200,3.523529052734375,-0.6405095882378519,-1.3294418466001747,-1.8557883184328674
1746477059170508000,3.533508056640625,-0.43890053583085537,-1.297270346313715,-2.00593504075855
1746477059180487200,3.543487060546875,-0.2522510060161352,-1.1907131748676298,-2.1788652573004366
1746477059190467300,3.55346728515625,-0.18704232852458952,-1.0170096358656882,-2.344882917974889
1746477059200446200,3.5634462890625,-0.15147994369082152,-0.7837854018807411,-2.581482765872776
1746477059210425000,3.573425048828125,-0.16599603336453436,-0.5110691154628991,-2.7800945361599325
1746477059220405200,3.5834052734375,-0.23998700611814855,-0.3370440894216299,-2.917618508277833
1746477059230384400,3.59338427734375,-0.40268348648063834,-0.19521978976130486,-3.0627889034956692
1746477059240363300,3.60336328125,-0.5947146362684667,-0.05617138455510139,-3.15785525137335
1746477059250343400,3.613343505859375,-0.702599987578392,0.16734394084215162,-3.293033244886994
1746477059260322300,3.623322265625,-0.7397071907013655,0.553125465425849,-3.4897175542429086
1746477059270301400,3.633301513671875,-0.7627988010186701,1.0545417864024638,-3.6300317416012287
1746477059280281300,3.64328125,-0.9384721057236194,1.559799585238099,-3.6412256280496713
1746477059290260200,3.65326025390625,-1.249710722759366,1.8060469669252632,-3.5023405967116354
1746477059300239400,3.6632392578125,-1.592843776705861,1.7775906877696512,-3.2773984533816574
1746477059310219300,3.67321923828125,-1.9148492869496345,1.4113093979477882,-3.100566553226113
1746477059320198400,3.683198486328125,-2.149471697294712,0.7697995466262102,-3.0331331854224204
1746477059330177300,3.69317724609375,-2.2648358600527048,0.07331307349205017,-2.9522026226639744
1746477059340157200,3.7031572265625,-2.1875597281485795,-0.6538017621397971,-2.788828754496574
1746477059350136300,3.71313623046875,-1.9988450824975965,-1.2605524347692727,-2.4807091462641955
1746477059360115200,3.723115234375,-1.8107289872616528,-1.659607282423973,-2.087368584603071
1746477059370095400,3.733095458984375,-1.5932798300355673,-1.756990382811427,-1.6431337020069359
1746477059380074200,3.74307421875,-1.446491185966134,-1.6101187366336582,-1.1561609169244766
1746477059390053400,3.753053466796875,-1.3294500299066305,-1.2902321182399987,-0.6975988182902336
1746477059400033300,3.763033203125,-1.156016540017724,-0.8681219736903906,-0.3260065625786781
1746477059410012200,3.77301220703125,-0.8903723839432001,-0.34849428871870036,-0.03547463348507881
1746477059419991300,3.7829912109375,-0.5520265642732382,0.1991127055466175,0.17659750687777995
1746477059429970200,3.79297021484375,-0.2926772705592215,0.658278030771017,0.2788561043471098
1746477059439950300,3.802950439453125,-0.035485593270510436,0.9001292233258485,0.34482232220768927
1746477059449929200,3.81292919921875,0.2690654357600957,0.9553472526788711,0.3884533741414547
1746477059459908400,3.822908447265625,0.5809481228530406,0.9080664460659027,0.42885552715659137
1746477059469888300,3.83288818359375,0.7212110184155404,0.742910370656848,0.4534340880960226
1746477059479867100,3.8428671875,0.5890099218208342,0.5934726733833551,0.6074474227219819
1746477059489846300,3.85284619140625,0.23555165401920675,0.3434615552484989,0.7931400902032851
1746477059499826200,3.862826171875,-0.08711728856936096,0.0633165801346302,0.8547557116389274
1746477059509805300,3.872805419921875,-0.39910621251575645,-0.1539209801673889,0.805706726309657
1746477059519784200,3.8827841796875,-0.6588900251895189,-0.35935353638529777,0.7370774267196655
1746477059529764000,3.89276416015625,-0.628321430055052,-0.4031903400242328,0.9595546412408351
1746477059539743200,3.9027431640625,-0.5809218193680048,-0.3869248493999243,1.1677882263541222
1746477059549722000,3.91272216796875,-0.32504034789502617,-0.29351357525289057,1.2274357625871897
1746477059559702300,3.922702392578125,-0.11069982420876621,-0.26904958060383793,1.4150667046546934
1746477059569681200,3.93268115234375,0.15190321060419082,-0.2658107448130846,1.377135325667262
1746477059579660300,3.942660400390625,0.3954629606425762,-0.17262334254980086,1.137162786465883
1746477059589640200,3.95264013671875,0.3889794438421726,-0.2364396889001131,1.1065730024129152
1746477059599619000,3.962619140625,0.30865503028333185,-0.2606464939177036,1.19302554346323
1746477059609598200,3.97259814453125,0.26379472881555555,-0.18510697654783725,1.208438216650486
1746477059619578400,3.982578369140625,0.2683341988760978,-0.11080781462788582,1.3028215507000684
1746477059629557200,3.99255712890625,0.33023207131922244,0.007713350856304168,1.4385451953977346
1746477059639536000,4.0025361328125,0.31540976524055003,0.1307078623622656,1.6385954740554094
1746477059649516300,4.012516357421875,0.25490195891633627,0.12955869232714176,1.7649901493936777
1746477059659495400,4.022495361328125,0.10163856587484478,0.1182715746372938,1.8048533732265233
1746477059669474300,4.032474365234375,-0.05897058681957423,0.1572673679858446,1.77462774631083
1746477059679454200,4.0424541015625,-0.17703297568559645,0.15493804825544355,1.7368980273753403
1746477059689433300,4.052433349609375,-0.2557498809825629,0.14516893391311167,1.717597699099779
1746477059699412200,4.062412109375,-0.2862747831057757,0.19070961886048315,1.7622352977275848
1746477059709392400,4.072392333984375,-0.31055348431579766,0.23069442324638365,1.9099813886523245
1746477059719371300,4.082371337890625,-0.2935359332151711,0.11996785716116427,2.044932295411825
1746477059729350400,4.092350341796875,-0.25383622938096523,0.05237257679402828,2.0866922927767035
1746477059739330300,4.102330322265625,-0.15532193300649522,0.09154781836271285,2.079833512923121
1746477059749309200,4.11230908203125,-0.004316621090099215,0.23590485137104986,2.0632062032490968
1746477059759288300,4.122288330078125,0.12903094212599098,0.507941923353076,2.0561182908147573
1746477059769268200,4.132268310546875,0.20154789680428803,0.8613777601271867,2.0745891825288534
1746477059779247400,4.142247314453125,0.22555822940170764,1.2590350159436463,2.1234517053753135
1746477059789226200,4.152226318359375,0.19715404575951395,1.548387379863858,2.0717221026599404
1746477059799206100,4.1622060546875,0.10879947048015892,1.8184505214244127,1.9565017322868108
1746477059809185300,4.172185302734375,0.03422090709693729,2.1166279968351125,1.8138912506848572
1746477059819164200,4.1821640625,-0.04537424233928323,2.3829057746380564,1.7087696649998425
1746477059829144300,4.192144287109375,-0.15664002986773848,2.595642516389489,1.7544880446016788
1746477059839123200,4.202123291015625,-0.277870527375862,2.804793800869584,1.8735329416990278
1746477059849102300,4.212102294921875,-0.3608113339781761,2.942108514150977,1.988758572769165
1746477059859082200,4.222082275390625,-0.39492914602681994,2.9977795479685065,1.973890673983097
1746477059869061000,4.23206103515625,-0.4367763102184981,2.8874522103339433,1.850416270005703
1746477059879040300,4.242040283203125,-0.39310456094816326,2.5289865626990795,1.7297767971932887
1746477059889020200,4.252020263671875,-0.14385887422785162,2.2604811719745395,1.4525129304736852
1746477059898999300,4.261999267578125,0.3227688958317041,2.401553776484728,1.0526222165167332
1746477059908978200,4.271978271484375,0.8219852225460111,2.792134225782752,0.7038450192034245
1746477059918958000,4.2819580078125,1.1964615092612803,3.311580708968639,0.5599018276929855
1746477059928937200,4.291937255859375,1.3192447161041199,3.8509827694684264,0.5781950247526169
1746477059938916000,4.301916015625,1.1330255405306815,4.301525227776169,0.6749965258598327
1746477059948896300,4.311896240234375,0.6773153241962194,4.37964891642034,0.9607201778888702
1746477059958875100,4.321875244140625,-0.11527465784363448,3.8480204125314947,1.5287182182759045
1746477059968854300,4.331854248046875,-1.0136819527477026,2.818846291619539,1.9968571235507726
1746477059978834200,4.341834228515625,-1.5936768665291368,1.6202935091674326,1.9512591554582117
1746477059988813000,4.35181298828125,-1.6138935789972544,0.631806203430891,1.5685083768725394
1746477059998792200,4.361792236328125,-1.1671966171365231,0.01732230620086193,1.0485837547808885
1746477060008772000,4.371772216796875,-0.4752512214981019,-0.3206178552776575,0.38257074584364886
1746477060018751200,4.381751220703125,0.2120131036520004,-0.5068167187154293,-0.0883083980500698
1746477060028730000,4.391730224609375,0.8541374336101114,-0.5079752411007881,-0.3383446506261825
1746477060038710300,4.401710205078125,1.373053755442053,-0.3326870632559061,-0.4330015409201383
1746477060048689400,4.411689453125,1.6729371579878032,-0.14067396058142184,-0.4163075957506895
1746477060058668000,4.42166796875,1.7248076304785906,0.14654256035387514,-0.2140045697301626
1746477060068648400,4.4316484375,1.5925234587103128,0.35427404116392136,-0.023874212062358856
1746477060078627300,4.44162744140625,1.214201017960906,0.4697025013297796,0.0017874679386615752
1746477060088606500,4.4516064453125,0.7782457418017089,0.5339683450132608,0.005203413861989975
1746477060098586400,4.46158642578125,0.38074711061306293,0.5793360114812851,0.040755204236507414
1746477060108565200,4.471565185546875,0.08635616800375283,0.5570668965280056,0.23648528160750865
1746477060118544400,4.48154443359375,-0.1507224763870239,0.4004115229606628,0.5656307267338038
1746477060128524300,4.491524169921875,-0.26308037000112233,0.10481178908348082,0.8895341795533895
1746477060138503400,4.50150341796875,-0.21935046080276369,-0.19097499179840086,1.2099638187825679
1746477060148482300,4.511482421875,-0.018803923060745,-0.44122167225480075,1.5608131461948156
1746477060158462500,4.52146240234375,0.14535437348261473,-0.7243173138678074,1.7408967416226864
1746477060168441600,4.531441650390625,0.2181030910901725,-1.0186053806245325,1.731012476468086
1746477060178420500,4.54142041015625,0.2389152852334082,-1.298234222909808,1.4400813189238308
1746477060188400400,4.551400390625,0.5249287139892578,-1.2847434576958416,1.1855161907464264
1746477060198379500,4.561379638671875,0.7393687525272369,-1.4186720356702804,1.0295669196218251
1746477060208358400,4.5713583984375,0.8431343935586512,-1.4946429301947355,0.9627350248426199
1746477060218338600,4.581338623046875,0.9607913434289396,-1.429603764051199,0.7422446002244949
1746477060228317400,4.5913173828125,0.98778178781569,-1.3759440700560808,0.5490162765413522
1746477060238296600,4.601296630859375,0.9805220259457826,-1.3386165021806955,0.2953682632088661
1746477060248276500,4.6112763671875,0.9521727142959833,-1.2568641016453503,0.0008288520395755767
1746477060258255400,4.62125537109375,0.8740344126045704,-1.1967559621632098,-0.2559545367091894
1746477060268234500,4.631234375,0.8488682610355317,-1.1238894633948802,-0.5697919380664825
1746477060278214400,4.64121435546875,0.7616815604917705,-1.1109534094542264,-0.8083078487187624
1746477060288193500,4.651193603515625,0.564992428830266,-1.128852638760209,-0.9412076681673526
1746477060298172400,4.66117236328125,0.38283860299959777,-1.157652032265067,-1.0632260281175374
1746477060308152300,4.67115234375,0.22632702181711792,-1.1825023958832024,-1.2007687049359081
1746477060318131500,4.68113134765625,0.09436404482722281,-1.2431167313218117,-1.310699736729264
1746477060328111400,4.691111328125,-0.06885477890893817,-1.3614648783266543,-1.3604367043226957
1746477060338090500,4.701090576171875,-0.2004763951152563,-1.5368459951519966,-1.4529250184059141
1746477060348069400,4.7110693359375,-0.3126620739676058,-1.7107172919362783,-1.5210077900290488
1746477060358048500,4.721048583984375,-0.3594739478945732,-1.9216934537559747,-1.5488661032915114
1746477060368028400,4.7310283203125,-0.3350642407160252,-2.0045482625752684,-1.576101316219568
1746477060378007300,4.74100732421875,-0.2379290506750345,-1.973254714167118,-1.681347405067086
1746477060387987700,4.75098779296875,-0.10754019113406538,-1.8585890550673008,-1.709732957074046
1746477060397966300,4.76096630859375,0.022098580691963434,-1.6790139936834574,-1.707028958812356
1746477060407945500,4.770945556640625,0.11195954194627701,-1.4719704951375723,-1.7139754169493913
1746477060417925600,4.780925537109375,0.19523674089610576,-1.2720341982483863,-1.8143758193314075
1746477060427904500,4.790904541015625,0.256397677366808,-1.1136638374567032,-2.018398508751392
1746477060437883600,4.800883544921875,0.2711959449827671,-0.9014987581133842,-2.3008587750703096
1746477060447863600,4.810863525390625,0.22249606535211205,-0.7135217790871858,-2.645561854812503
1746477060457842700,4.8208427734375,0.08639240836091339,-0.555329697471857,-2.9856349366664885
1746477060467821600,4.830821533203125,-0.08736965589523316,-0.5467331340402365,-3.221943108141422
1746477060477801500,4.840801513671875,-0.2518237205147743,-0.6186567990005016,-3.395590533041954
1746477060487780600,4.850780517578125,-0.374248907700181,-0.6112754565775395,-3.621706980848312
1746477060497759500,4.860759521484375,-0.49166298872530456,-0.4802630583107471,-3.825759480884671
1746477060507739600,4.87073974609375,-0.6318769305795431,-0.35248832679092884,-3.9305157403886315
1746477060517718500,4.880718505859375,-0.8329981264043599,-0.2925327475219965,-3.898595584514737
1746477060527697700,4.89069775390625,-0.9725064042072743,-0.2573977212548256,-3.7843192169934508
1746477060537677600,4.900677490234375,-0.9388765218060463,-0.1103074638903141,-3.6836277227103706
1746477060547656400,4.910656494140625,-0.777054632321,0.2770171984821558,-3.5952269702017303
1746477060557635600,4.920635498046875,-0.5188490287493914,0.70763915078938,-3.5209792462080713
1746477060567615500,4.930615478515625,-0.30796237184405323,1.0730173542916774,-3.4887387723386287
1746477060577594600,4.9405947265625,-0.21307686042599377,1.2639964377433062,-3.4476246716618535
1746477060587573500,4.950573486328125,-0.22480711877346038,1.1825281148463487,-3.286610518363118
1746477060597553400,4.960553466796875,-0.37197044137418267,0.8930272823661565,-3.1508705070525407
1746477060607532500,4.970532470703125,-0.5796780298519879,0.36880934699475765,-3.0826480346977707
1746477060617511400,4.980511474609375,-0.7574654771666973,-0.302300692820549,-3.019155513474345
1746477060627491600,4.99049169921875,-0.9137859927564859,-0.8207569959253073,-2.9042554610967635
1746477060637470500,5.000470458984375,-1.047501877828315,-1.1133037719726562,-2.7599200553983447
1746477060647449600,5.01044970703125,-1.2188397836774587,-1.155499822667241,-2.533098089671135
1746477060657429500,5.020429443359375,-1.3294441846877336,-0.9855588510692119,-2.116305925273895
1746477060667408400,5.030408447265625,-1.3885036918997764,-0.6599310586750506,-1.676058651009202
1746477060677387500,5.040387451171875,-1.3961748110495507,-0.370796721419692,-1.223934476467967
1746477060687367400,5.050367431640625,-1.2978572062909601,-0.12018997547924518,-0.834983674198389
1746477060697346600,5.0603466796875,-1.0471242766875772,0.09604045360684395,-0.4897323129236698
1746477060707325400,5.070325439453125,-0.6902496245712041,0.20814766039550303,-0.29699264954030513
1746477060717305300,5.080305419921875,-0.41707039681673047,0.23066695071756838,-0.2008370451211929
1746477060727284500,5.090284423828125,-0.19437332899980245,0.19314532157480716,-0.24146891523897646
1746477060737263400,5.100263427734375,-0.0350742359906435,0.06924889279305935,-0.3334925344198942
1746477060747243500,5.110243408203125,0.07660868097133934,-0.1021118824750185,-0.4315887515127659
1746477060757222400,5.120222412109375,0.07210669337697327,-0.3176549138188362,-0.4836977089345455
1746477060767201500,5.130201416015625,0.003897080503776669,-0.5509498749524354,-0.4673012854069471
1746477060777181400,5.140181396484375,-0.15675591133236885,-0.7183844166874885,-0.3767226043373346
1746477060787160300,5.150160400390625,-0.4527636414885521,-0.868136002215743,-0.2511404144257307
1746477060797139500,5.160139404296875,-0.7352683314710855,-1.057525770649314,-0.15526187338232994
1746477060807119600,5.17011962890625,-0.9100192606341093,-1.1680676278173923,-0.044939211922883984
1746477060817098500,5.180098388671875,-0.9588776918273418,-1.2221762346237897,0.06263619665503502
1746477060827077400,5.190077392578125,-0.884148979383707,-1.2116694536566734,0.20398469549715517
1746477060837057500,5.2000576171875,-0.6536819351524115,-1.0571849943876266,0.3884107040435075
1746477060847036700,5.21003662109375,-0.39199725729338825,-0.7959370274454355,0.6003752923786639
1746477060857015600,5.220015625,-0.12359532694332301,-0.5873217495381832,0.843062935757637
1746477060866995500,5.229995361328125,0.040053777968883514,-0.36406770542562006,1.0229173986047506
1746477060876974600,5.239974609375,0.14622392285875976,-0.1863373951256275,1.2087895143061875
1746477060886953500,5.249953369140625,0.13750994359254837,-0.03472702998816967,1.4142495430529116
1746477060896933600,5.25993359375,0.08350063244216144,0.14612404268085954,1.6608055522978304
1746477060906912500,5.26991259765625,0.014002879454568028,0.26153321362435816,1.9090438155412672
1746477060916891600,5.2798916015625,-0.11664309665262698,0.35805063709318635,2.072286750805378
1746477060926871600,5.28987158203125,-0.2690068374406546,0.46198447429835793,2.1863871772378682
1746477060936850400,5.299850341796875,-0.3610854747444391,0.5137713601589202,2.2753379648447036
1746477060946829600,5.30982958984375,-0.4422755652219057,0.5728308673709631,2.38053086220026
1746477060956809500,5.3198095703125,-0.5040074334483593,0.5857639987021684,2.4695593912184237
1746477060966788600,5.32978857421875,-0.5328332035034895,0.5388128624349833,2.533840432471037
1746477060976768500,5.3397685546875,-0.529899999595806,0.44599838513731954,2.529776251772046
1746477060986747400,5.349747314453125,-0.46984914325885474,0.3264168969452381,2.5405413914144037
1746477060996726500,5.3597265625,-0.35774010983929033,0.17939210603237152,2.595040458843112
1746477061006706400,5.36970654296875,-0.26127244379632175,0.06137012224197387,2.569856917747855
1746477061016685600,5.379685546875,-0.08074819192886352,0.03778992469012737,2.517970078644156
1746477061026664400,5.38966455078125,0.1761556083291769,0.1915963385671377,2.3796868125915527
1746477061036644400,5.399644287109375,0.39794425606429573,0.48040100547671316,2.261959427833557
1746477061046623500,5.40962353515625,0.5576027569703758,0.8111977249413729,2.15175016362071
1746477061056602400,5.419602294921875,0.6150619893789291,1.1557839003056287,2.0744132414400576
1746477061066582500,5.42958251953125,0.598939122095704,1.4693892464727163,1.9299293671816586
1746477061076561400,5.4395615234375,0.4774685322213918,1.742131836375594,1.7511872494906187
1746477061086540500,5.44954052734375,0.3048264849711209,2.01858964740932,1.6348831755340099
1746477061096520400,5.4595205078125,0.10135711858496069,2.183718250289559,1.6320096659243106
1746477061106499300,5.469499267578125,-0.08620163502916693,2.2437954101115465,1.6983891407608984
1746477061116478500,5.479478515625,-0.20001162714771925,2.299302193278074,1.8256360490143297
1746477061126458400,5.489458251953125,-0.26115911961495875,2.3178344597905873,1.8905209013789892
1746477061136437500,5.4994375,-0.2723789442222565,2.4142922620266676,1.8395394866824148
1746477061146416400,5.50941650390625,-0.23509411951005457,2.599540692871809,1.6035820283412932
1746477061156396000,5.51939599609375,-0.20039353913739322,2.6739398080348966,1.3446756560891866
1746477061166375200,5.529375244140625,-0.2513840869884938,2.5313901167094706,1.217136486890912
1746477061176354000,5.53935400390625,-0.26586452082693574,2.371416996896267,1.1566524998337029
1746477061186334200,5.549334228515625,-0.13696575371325015,2.4182477216541765,1.044597315493226
1746477061196313000,5.55931298828125,0.07853526511974632,2.7970325192183254,0.8625824597418308
1746477061206292200,5.569292236328125,0.25939452109523115,3.4281425570786,0.7839204264372587
1746477061216272100,5.579272216796875,0.37845001265183087,4.000271998181939,0.8632546599149703
1746477061226251000,5.5892509765625,0.35598683643117546,4.442271669071912,1.080384668189287
1746477061236230100,5.599230224609375,0.05753507412374019,4.528652898451686,1.549648193579912
1746477061246210000,5.6092099609375,-0.49245443136394024,3.9711616390317674,2.2435767989248037
1746477061256189200,5.619189208984375,-1.0519145066387952,2.8876790048271417,2.734393984475732
1746477061266168000,5.62916796875,-1.388270321535319,1.773370439726114,2.6289532498389483
1746477061276148000,5.63914794921875,-1.3748352320313453,0.787364429411292,2.0823545558333394
1746477061286127000,5.649127197265625,-0.8613513105116785,0.16776187399327755,1.464337223780155
1746477061296106000,5.65910595703125,-0.12399039067551493,-0.14420330375134943,0.7694535096675157
1746477061306086100,5.669086181640625,0.6294501418240368,-0.25901509332358835,0.2847159362912178
1746477061316065000,5.67906494140625,1.302659199745208,-0.22997955297529696,0.052819736039638514
1746477061326044200,5.689044189453125,1.8254981018483638,-0.07575228333771228,-0.013452186769247055
1746477061336024000,5.699024169921875,2.100723010086268,0.09286123904883861,-0.07687514988780021
1746477061346003000,5.7090029296875,2.165389397394657,0.15964052685797214,-0.17475450935959816
1746477061355982000,5.718982177734375,2.058129776767641,0.17804478307664393,-0.40769700379371643
1746477061365962200,5.728962158203125,1.5881928821600972,0.14994506227374077,-0.6884118877500295
1746477061375941400,5.73894140625,0.9679093587405979,0.06574351502060889,-0.7640577881038189
1746477061385921300,5.74892138671875,0.4312357002913952,-0.04388181182444095,-0.8371960895508527
1746477061395900200,5.758900146484375,0.06348199982941151,-0.14008593156039714,-0.8030944979846477
1746477061405879300,5.76887939453125,-0.2681983706019819,-0.3819517371624708,-0.6662292820364236
1746477061415859200,5.778859130859375,-0.4674702122330665,-0.6466805319577456,-0.4655529804348945
1746477061425838300,5.78883837890625,-0.5271720359366386,-0.8605114986866712,-0.31330957809090615
1746477061435817200,5.798817138671875,-0.5352518089525401,-1.2194459328770637,-0.27111469644010067
1746477061445797000,5.808797119140625,-0.45561187052652236,-1.5125094262748955,-0.2774620196402073
1746477061455776300,5.8187763671875,-0.2891518729120493,-1.6771207272827624,-0.25562603540718554
1746477061465755100,5.828755126953125,-0.09961714304983615,-1.8590981736332177,-0.19771920536160467
1746477061475735300,5.8387353515625,0.16457432999834418,-1.8795336434185503,-0.12766717949211598
1746477061485714200,5.848714111328125,0.5118114582628012,-1.796627396672964,-0.029394436788558957
1746477061495693300,5.858693359375,0.7429698457591235,-1.733870203986764,0.05360065728425979
1746477061505673200,5.868673095703125,0.8412719606876373,-1.6641583698570728,0.12358897026777267
1746477061515652000,5.878652099609375,0.910249635323882,-1.5061445674180984,0.12880524361133575
1746477061525631200,5.88863134765625,0.9045729048617184,-1.306634386986494,0.09233750743567944
1746477061535611100,5.898611083984375,0.7899732967354357,-1.1691846491485833,0.0824918207257986
1746477061545590300,5.90859033203125,0.6179927821338176,-1.0674982986092567,-0.01320142687857151
1746477061555569200,5.918569091796875,0.49062385493591426,-1.0002683444231748,-0.21717735454738138
1746477061565549000,5.928549072265625,0.37033714108392596,-0.947331704005599,-0.4266150547534227
1746477061575528200,5.938528076171875,0.1655722549945116,-0.9494687160342932,-0.520983775755763
1746477061585507000,5.948507080078125,0.009567892681807279,-0.9565864390850066,-0.6880383782625198
1746477061595487200,5.9584873046875,-0.06981368706896901,-0.9715987147778272,-0.8857955775469541
1746477061605466000,5.968466064453125,-0.20702786258533595,-1.0629483802199362,-1.0629384433478117
1746477061615445200,5.9784453125,-0.27184987884685397,-1.2483236523151398,-1.178818154412508
1746477061625425200,5.988425048828125,-0.31021438855454325,-1.4566758953720331,-1.2803197960346937
1746477061635404000,5.998404052734375,-0.27641470254436135,-1.628435314568877,-1.4003800076544284
1746477061645383200,6.008383056640625,-0.15484218666553495,-1.7881027294337748,-1.5504180089086292
1746477061655363000,6.018363037109375,-0.016139380026608703,-1.925228642144799,-1.7512807729929685
1746477061665342200,6.02834228515625,0.13205226270854473,-1.9342004686295986,-1.9750550415873527
1746477061675322000,6.038322021484375,0.3042578182376921,-1.8713047442555426,-2.1431331419229505
1746477061685301000,6.048301025390625,0.4037526500821113,-1.7421856123894452,-2.212033659669757
1746477061695280000,6.058280029296875,0.46479763202294705,-1.5606863049447535,-2.243930434668064
1746477061705260300,6.06826025390625,0.5767622154705226,-1.3741349748075007,-2.282705278742313
1746477061715239200,6.0782392578125,0.6372486867457627,-1.1724708312124013,-2.3646751214206216
1746477061725218000,6.088218017578125,0.6819032365083694,-0.974654010695219,-2.5121324585318563
1746477061735198200,6.0981982421875,0.6836649854838848,-0.7633323964387178,-2.6829765164494512
1746477061745177300,6.10817724609375,0.6310030703544617,-0.6138789170742035,-2.8119845891565083
1746477061755156200,6.11815625,0.4422669435240328,-0.5653080706506968,-2.902227170139551
1746477061765136100,6.12813623046875,0.24054193658716974,-0.5625684165537357,-3.0489485941916703
1746477061775115300,6.138115234375,0.09519881515093147,-0.502367338091135,-3.222462163579464
1746477061785094100,6.14809423828125,-0.045257118765637275,-0.46980362361669536,-3.3086750506550073
1746477061795074300,6.15807421875,-0.2493015085607767,-0.5170294851720333,-3.252846780449152
1746477061805053200,6.16805322265625,-0.45967619735598564,-0.6139607501387596,-3.1598154455304144
1746477061815032300,6.1780322265625,-0.48326625871472056,-0.5820628060966729,-3.2009085034191607
1746477061825012200,6.18801220703125,-0.37831191935539243,-0.3290565977990627,-3.3469705867797135
1746477061834991000,6.1979912109375,-0.25743615356907246,0.0840039788544178,-3.4812487088441846
1746477061844970200,6.20797021484375,-0.15807050106227397,0.603234188941121,-3.5538293764084576
1746477061854950100,6.2179501953125,-0.07554068641364574,1.1134358739197254,-3.663330784612894
1746477061864929300,6.22792919921875,-0.11144662398807703,1.515419760763645,-3.713585054078698
1746477061874908200,6.237908203125,-0.30345329692177475,1.6436059956938027,-3.6712019563794134
1746477061884888000,6.24788818359375,-0.6590215426146984,1.3864204558849333,-3.5338662003099914
1746477061894867200,6.2578671875,-1.0622001922011375,0.7653045732945203,-3.3429894081890583
1746477061904847000,6.26784716796875,-1.3875918377518652,0.10858546240329742,-3.1133360184282064
1746477061914826200,6.277826171875,-1.617750838947296,-0.37602000902593136,-2.8208640611827374
1746477061924805000,6.28780517578125,-1.7044740136325358,-0.6231272224128246,-2.6087866601228713
1746477061934785000,6.297784912109375,-1.7447627694010734,-0.6607084727883339,-2.4061212305307387
1746477061944764200,6.30776416015625,-1.7215134112387895,-0.5140560223191977,-2.0994658496320246
1746477061954743000,6.317742919921875,-1.567037719798088,-0.19429332256615162,-1.6284885060608385
1746477061964723200,6.32772314453125,-1.3105372396439312,0.22697043428719044,-1.0911562375724315
1746477061974702000,6.3377021484375,-1.1354845510553568,0.5321966591656208,-0.5813713167011737
1746477061984681200,6.34768115234375,-0.8381856851100921,0.6977028631865978,0.022632103046774862
1746477061994661000,6.3576611328125,-0.49381629430167373,0.72020929402709,0.40284079593420025
1746477062004640000,6.367639892578125,-0.32283611584901806,0.6451315489500761,0.6383160237163304
1746477062014619100,6.377619140625,-0.0655571986682713,0.5840455043464898,0.7933242145985364
1746477062024599000,6.38759912109375,0.028138299247622487,0.44038463690876956,0.7746329581320285
1746477062034578200,6.397578125,-0.018716317842528224,0.2774339625895023,0.7348609197139739
1746477062044557000,6.40755712890625,0.015855156257748602,-0.0027379005312919615,0.8243956446886063
1746477062054537000,6.417536865234375,-0.055009939560294145,-0.38511692319512364,0.8902285915583371
1746477062064516000,6.42751611328125,-0.17490063983201978,-0.7217869186073541,0.826158562707901
1746477062074495000,6.437494873046875,-0.36102234638035297,-0.9785662157028913,0.7928092508137226
1746477062084475400,6.447475341796875,-0.5431259033285081,-1.132047635409236,0.8370283317685127
1746477062094454000,6.4574541015625,-0.6437104301057756,-1.1676777517169714,0.8259890513598919
1746477062104434200,6.46743408203125,-0.6860616713620722,-1.0604781907141207,0.7293500473380088
1746477062114413300,6.477413330078125,-0.6288970379859209,-0.9217728998571634,0.642272652387619
1746477062124392200,6.48739208984375,-0.5118120427846908,-0.7511345936447381,0.6678694504588842
1746477062134372400,6.497372314453125,-0.3911684783190489,-0.5184539650171995,0.7344441556066275
1746477062144351200,6.507351318359375,-0.28412849179208277,-0.267251591271162,0.8945026156157254
1746477062154330400,6.517330322265625,-0.2440952451545745,-0.07039280213117599,1.0902046359360218
1746477062164310300,6.527310302734375,-0.28272089001648126,0.12335399246811866,1.1967962941735981
1746477062174289200,6.5372890625,-0.35203349569551645,0.2353887185424566,1.3277841425210237
1746477062184268300,6.547268310546875,-0.5235380633484572,0.31462299877703187,1.5078338356792926
1746477062194248200,6.557248291015625,-0.6738315006684511,0.43141047233641144,1.7150819168865679
1746477062204227300,6.567227294921875,-0.7246387278418988,0.5528080700397491,1.928589643010497
1746477062214206200,6.577206298828125,-0.7319979314982891,0.6399281350880861,2.1209289088994265
1746477062224186000,6.58718603515625,-0.7048749467730522,0.7216349429160356,2.26363291400373
1746477062234165200,6.597165283203125,-0.6775981597255915,0.7688274867236614,2.391194879555702
1746477062244144000,6.60714404296875,-0.6804887666005641,0.7587257794260979,2.527332950273156
1746477062254124300,6.617124267578125,-0.7005244234133511,0.6877630684524774,2.625432089975476
1746477062264103200,6.627103271484375,-0.7641279307305813,0.5559481216311455,2.7055665339201687
1746477062274082300,6.637082275390625,-0.7880418902814388,0.4102420121014118,2.7738170633256436
1746477062284062500,6.6470625,-0.781776984667778,0.28326164582967756,2.8015941280454397
1746477062294041300,6.657041259765625,-0.6971534126102924,0.30655425861179825,2.86955415007174
1746477062304021200,6.667021240234375,-0.5435796384453773,0.4355260909616947,2.9444670599758624
1746477062314000400,6.67700048828125,-0.36991475095339116,0.6831541133522987,2.94820157032907
1746477062323979300,6.686979248046875,-0.2291074463158846,1.0284592506408692,2.9164696305036544
1746477062333959400,6.69695947265625,-0.19791217065043745,1.3458978913605213,2.888895979401469
1746477062343938300,6.706938232421875,-0.28732984511666,1.697449814084172,2.87595115763247
1746477062353917400,6.71691748046875,-0.4311514560740441,1.9683108280241488,2.848238974842429
1746477062363897300,6.7268974609375,-0.6004272417616099,2.1034961280614137,2.7716642692059277
1746477062373876200,6.736876220703125,-0.7959427995990961,2.2051059062331912,2.6054887876212596
1746477062383855400,6.74685546875,-0.9098059101443737,2.2917150991499424,2.4367022467553614
1746477062393835300,6.756835205078125,-1.0481606339979916,2.369046176111698,2.339952183574438
1746477062403814400,6.766814453125,-1.0890916331928222,2.4359043743759394,2.2422867591142652
1746477062413793300,6.776793212890625,-0.9914910906624048,2.6004502089321613,2.076671249499917
1746477062423773200,6.786773193359375,-0.8844622100513428,2.690487622731924,1.9529262118875979
1746477062433752300,6.79675244140625,-0.8444909957993775,2.5494489204913378,1.8821254134774208
1746477062443731200,6.806731201171875,-0.8161531553916632,2.2884195647358894,1.709898961290717
1746477062453711400,6.81671142578125,-0.6720107880473136,2.1876339624285697,1.409191090619564
1746477062463690200,6.826690185546875,-0.4455659850694239,2.3694056570738553,1.0320862089663743
1746477062473669400,6.83666943359375,-0.15506971181109547,2.828707175898552,0.6812099935472011
1746477062483649300,6.846649169921875,0.14026640269383786,3.475130518224835,0.5063415024191141
1746477062493628200,6.856628173828125,0.3745797470897436,4.206981150206923,0.44062253731787204
1746477062503608300,6.8666083984375,0.39948279074318704,4.825512277001142,0.5053922388702631
1746477062513587200,6.876587158203125,-0.00700593323931098,4.92822095632553,0.900572290918231
1746477062523566300,6.88656640625,-0.7352595636427403,4.331380852335691,1.6108949817031621
1746477062533546200,6.896546142578125,-1.4974381138712167,3.325443230104446,2.0559072784125805
1746477062543525000,6.906525146484375,-2.0242823060929775,2.174244319501519,2.000129277089238
1746477062553504300,6.916504150390625,-2.2183868280887604,1.0372580586463211,1.6904700381994247
1746477062563484200,6.926484130859375,-1.9715788899093865,0.14753975469768046,1.2678472679525612
1746477062573463300,6.93646337890625,-1.3229882865466176,-0.3545826687216759,0.662183221516013
1746477062583442200,6.946442138671875,-0.5217402932114898,-0.5808376482158899,0.11153963603377341
1746477062593422000,6.956422119140625,0.27360899747386574,-0.6180266844034195,-0.18533669365048408
1746477062603401200,6.966401123046875,0.9718203947044909,-0.4447977771759033,-0.2393319032102823
1746477062613380000,6.976380126953125,1.5580179625183344,-0.12505319760143757,-0.16196575493514537
1746477062623360500,6.986360595703125,1.955207016301155,0.13167349252402782,-0.08688158011734486
1746477062633339400,6.99633935546875,2.1656752285987135,0.27315409331321716,-0.034067104774713516
1746477062643318300,7.006318359375,2.219896501999348,0.31367490427196026,-0.0025075989067554474
1746477062653298400,7.01629833984375,2.208229445081204,0.22147417495846747,-0.092246906542778
1746477062663277300,7.02627734375,2.0202163718283175,0.054363458350300785,-0.42906127886176104
1746477062673257500,7.036257568359375,1.6173128859214483,-0.21406828261613844,-0.8243746019005775
1746477062683236400,7.046236328125,1.188454582285881,-0.5914695168673991,-1.0522878699958325
1746477062693215500,7.056215576171875,0.9564959843225777,-0.753117291894555,-1.1586831288784742
1746477062703195400,7.0661953125,0.7412175952643155,-0.9643617492616176,-1.171482989218831
1746477062713174300,7.07617431640625,0.5169334774516523,-1.2855471752941607,-1.17749012067914
1746477062723153400,7.0861533203125,0.4929921915024519,-1.494431333270669,-1.0299737468570471
1746477062733133300,7.09613330078125,0.5110602015040815,-1.7220593546837568,-0.9024649727970361
1746477062743112400,7.106112548828125,0.5010344820521772,-1.85978381780982,-0.7059609884440898
1746477062753091300,7.11609130859375,0.6072165365755557,-1.852542176118493,-0.5097264686822891
1746477062763071200,7.1260712890625,0.6812948953516781,-1.7756676107525824,-0.4551707026302814
1746477062773050400,7.13605029296875,0.7491201850824057,-1.662497743168473,-0.4428063110977411
1746477062783029200,7.146029296875,0.7642961269043386,-1.540713191974163,-0.5076286196202039
1746477062793009400,7.156009521484375,0.8098657456852495,-1.3902391373902558,-0.6291758549273013
1746477062802988300,7.16598828125,0.8123669148512184,-1.2626187196493148,-0.7301689625054597
1746477062812967400,7.175967529296875,0.7386394153393805,-1.1580471690624952,-0.8405728725075722
1746477062822947300,7.185947265625,0.6541651886247098,-1.0634650975704192,-1.0108335775792598
1746477062832926200,7.19592626953125,0.5947730884574354,-1.0694880111217497,-1.1319102727651595
1746477062842906000,7.205906005859375,0.5288831507034599,-1.11739951685369,-1.2277356223165987
1746477062852885200,7.21588525390625,0.4877865856833756,-1.142066340598464,-1.3660060288876295
1746477062862864100,7.225864013671875,0.47375148445963855,-1.2353548651486634,-1.4631366158187389
1746477062872844300,7.23584423828125,0.49635830693468447,-1.333057699009776,-1.544618382719159
1746477062882823200,7.2458232421875,0.5285523113138973,-1.44010177718997,-1.6286059949606657
1746477062892802300,7.25580224609375,0.5857290735192596,-1.5257657982110977,-1.676010135692358
1746477062902782200,7.2657822265625,0.6061142744220793,-1.5892285088181495,-1.7091536958813667
1746477062912761000,7.275760986328125,0.585405832914263,-1.7014426831126213,-1.6784019992649555
1746477062922740200,7.285740234375,0.5998102058418094,-1.7807044358760118,-1.6865730307608842
1746477062932720000,7.29572021484375,0.5654292128123343,-1.8698218122214079,-1.652829751113057
1746477062942699300,7.30569921875,0.5661211405992508,-1.9790140083461998,-1.6509961059451101
1746477062952678100,7.31567822265625,0.6012054595924914,-2.0300316633999347,-1.6677356438219546
1746477062962658300,7.325658203125,0.6839585616029799,-2.0084388402730227,-1.6436510038793086
1746477062972637200,7.33563720703125,0.7733568007163703,-1.8826929842323064,-1.5748890178203583
1746477062982616000,7.345615966796875,0.844360135961324,-1.7051193257987498,-1.5220412247300148
1746477062992596500,7.355596435546875,0.8795452849805354,-1.501879895710945,-1.493276902538538
1746477063002575400,7.365575439453125,0.876658185236901,-1.2968056514114141,-1.5180711520552634
1746477063012554500,7.375554443359375,0.8132417979896068,-1.067074520239234,-1.6186206075191496
1746477063022534400,7.385534423828125,0.6318032808214425,-0.811624425920844,-1.6996142986416816
1746477063032513300,7.39551318359375,0.4190438888467848,-0.606734890538454,-1.741134057509899
1746477063042493400,7.405493408203125,0.2380256429173052,-0.444074723598361,-1.895381200891733
1746477063052472300,7.415472412109375,0.09207746826000511,-0.3276426393479109,-2.05555305814743
1746477063062451500,7.425451416015625,0.009977788656949996,-0.2736731487512588,-2.211422834295034
1746477063072431400,7.435431396484375,-0.0709700905624777,-0.1269862114906311,-2.363309678286314
1746477063082410200,7.44541015625,-0.17559680540263653,0.09935118559002876,-2.4123230077803135
1746477063092389400,7.455389404296875,-0.31841479227542874,0.30373978571295734,-2.3930893150001764
1746477063102369300,7.465369384765625,-0.5069324540495872,0.3880681742161512,-2.3143705830723045
1746477063112348400,7.475348388671875,-0.6330572264052927,0.44386838737130163,-2.360895602881908
1746477063122327300,7.485327392578125,-0.6288413622759282,0.629527152583003,-2.5343296772927046
1746477063132307200,7.49530712890625,-0.6130475808165967,0.8919728048771619,-2.688057765236497
1746477063142286300,7.505286376953125,-0.6449871720433235,1.1476730745643378,-2.734775677269697
1746477063152264700,7.5152646484375,-0.7756628126364201,1.309060737350583,-2.7837036665678023
1746477063162244600,7.52524462890625,-0.9421860847454517,1.3249883743226527,-2.84113118866384
1746477063172223500,7.535223388671875,-1.1343056434690952,1.1050187587082385,-2.8739520927697417
1746477063182203600,7.54520361328125,-1.340989661052823,0.7019032374858856,-2.8886913967400787
1746477063192182500,7.5551826171875,-1.570823668077588,0.2115869871944189,-2.81017198677659
1746477063202161700,7.56516162109375,-1.749023349454999,-0.39197570304870605,-2.6341169162124394
1746477063212141600,7.5751416015625,-1.8297247796326874,-0.9164251090884208,-2.461630936306715
1746477063222120400,7.585120361328125,-1.7954723814189433,-1.2418413045585155,-2.4023434655576943
1746477063232099600,7.595099609375,-1.7374281887292862,-1.3631219978839157,-2.308713580223918
1746477063242079500,7.60507958984375,-1.6211702920019626,-1.1983715806663036,-2.0342729542315006
1746477063252058600,7.61505859375,-1.4560598093003034,-0.8596791395157575,-1.5437690724134445
1746477063262037500,7.62503759765625,-1.2428688940405845,-0.5337222612977027,-1.044748122140765
1746477063272017400,7.635017333984375,-1.0238497110188007,-0.2544552380621433,-0.7393132229477166
1746477063281996500,7.64499658203125,-0.7911633102376013,0.030884383085370063,-0.5284054501891136
1746477063291975400,7.654975341796875,-0.5602011029005051,0.26112112569212914,-0.3369482278317213
1746477063301955600,7.66495556640625,-0.46283320008218287,0.4322545219451189,-0.20239654952287672
1746477063311934500,7.6749345703125,-0.4134638967573642,0.5563917737454176,-0.07429507026672363
1746477063321913600,7.68491357421875,-0.22999884219765662,0.48351709167063234,0.014330138647556305
1746477063331893500,7.6948935546875,-0.054014498782157895,0.34218612848520275,-0.018947861576080322
1746477063341872400,7.704872314453125,-0.055673883361741894,0.09060147742331028,0.035953356912732125
1746477063351852500,7.7148525390625,-0.11714045171551406,-0.1730015282124281,0.1573813497543335
1746477063361831400,7.72483154296875,-0.25882738873176275,-0.3376853099346161,0.19580781878232956
1746477063371810600,7.734810546875,-0.431823071725294,-0.4480699307143688,0.13494739962816238
1746477063381790700,7.744790771484375,-0.5937765517007559,-0.5218745871156454,0.09426526062786579
1746477063391769600,7.75476953125,-0.7209182460140436,-0.5640624545037746,0.16965806300342082
1746477063401748700,7.764748779296875,-0.6930090793471783,-0.5435054041653872,0.22394436446428298
1746477063411728600,7.774728759765625,-0.5608090056657791,-0.3892290346890688,0.4164022882968187
1746477063421707500,7.78470751953125,-0.49375031639337535,-0.2682797652751207,0.7803641952604055
1746477063431686700,7.794686767578125,-0.369935136154294,-0.12492927896082401,1.0562339772731064
1746477063441666600,7.80466650390625,-0.2321042169790715,0.006100654962658882,1.3282733873426913
1746477063451645700,7.814645751953125,-0.2316675791274756,0.1180412730127573,1.5788848094582557
1746477063461624600,7.82462451171875,-0.27592406948320564,0.24367314728498457,1.7876029632180928
1746477063471604500,7.8346044921875,-0.3665361413657665,0.38066637352705,2.0021353562146422
1746477063481583600,7.84458349609375,-0.37084640578031536,0.47993455700874327,2.1898013695955276
1746477063491562500,7.8545625,-0.30066337394230064,0.5564566556751728,2.3333055851668116
1746477063501542700,7.864542724609375,-0.24152217979617416,0.599946253311634,2.467695350912213
1746477063511521500,7.874521484375,-0.1738455047558993,0.6140975282609462,2.598306182640791
1746477063521501400,7.88450146484375,-0.09763853645324706,0.5554992088198661,2.6274247250974176
1746477063531480600,7.89448046875,-0.03483757769055664,0.5327624763548374,2.604990190449357
1746477063541459500,7.90445947265625,-0.009950316128134728,0.45149990516304966,2.498822895103693
1746477063551439600,7.914439697265625,0.017653145590424538,0.3655518065035343,2.420285949483514
1746477063561418500,7.92441845703125,0.008527516783401369,0.29322891309261323,2.3914871405005456
1746477063571397600,7.934397705078125,-0.023126535500213503,0.25274200440347194,2.41551858895123
1746477063581377500,7.94437744140625,-0.07250650634951888,0.1622995169341564,2.4582570759594438
1746477063591356400,7.9543564453125,-0.14094634778201579,0.0905395181030035,2.4955735379189252
1746477063601335600,7.96433544921875,-0.17068565248548984,0.019431845700740812,2.4868559784561395
1746477063611315500,7.9743154296875,-0.22417459302358328,0.04997311443686485,2.4323621717244386
1746477063621294600,7.984294677734375,-0.20265600417666135,0.24070786773860453,2.381547345766425
1746477063631273500,7.9942734375,-0.1917131698798388,0.4673363567203283,2.362369767087698
1746477063641253400,8.00425341796875,-0.1915775608014315,0.7321399703174829,2.3643045345425606
1746477063651232500,8.014232421875,-0.1554061772238463,0.9942805021852255,2.2982868787556887
1746477063661211400,8.02421142578125,-0.1375729988913983,1.1726222223818301,2.155376537424326
1746477063671191600,8.034191650390625,-0.1593243735808879,1.3182266251027583,1.9543986225277183
1746477063681170400,8.04417041015625,-0.23250761014819143,1.4463415483623743,1.6704957561850546
1746477063691149600,8.054149658203125,-0.33531441608481105,1.5556062252014875,1.445038649070263
1746477063701129500,8.06412939453125,-0.4360089060425758,1.6323223851352928,1.2507687073796987
1746477063711108400,8.0741083984375,-0.5116822058599442,1.6788175943285226,1.1684013898164034
1746477063721088800,8.0840888671875,-0.5699544351518154,1.7035715118348598,1.153985326451063
1746477063731067600,8.094067626953125,-0.558722262519598,1.8364356754481792,1.1058306596130132
1746477063741046500,8.104046630859376,-0.4310645084429532,2.1412533195257186,0.9886480492562055
1746477063751026700,8.114026611328125,-0.3209673993676901,2.4105209267944097,0.9350520681470632
1746477063761005600,8.124005615234376,-0.2757791811197996,2.496934889400005,0.9220359347075223
1746477063770984700,8.133984619140625,-0.2841962963312864,2.4814713628083465,0.7828957595646381
1746477063780964600,8.143964599609374,-0.23199140425436196,2.533260002234578,0.4543161316275596
1746477063790943700,8.15394384765625,-0.118694110898301,2.7436598254710436,0.04409691587984561
1746477063800922600,8.163922607421876,0.02189969711899757,3.134601509296894,-0.3014507979929447
1746477063810902500,8.173902587890625,0.10299684861600399,3.6141304081141947,-0.4846393736988306
1746477063820881700,8.183881591796874,0.05988835925161838,3.944323316466808,-0.47943420627117156
1746477063830860500,8.193860595703125,-0.2546644238334149,3.929523222219944,-0.3185696905761957
1746477063840840700,8.2038408203125,-0.773411818839237,3.437528225061297,-0.050499184137582774
1746477063850819600,8.213819580078125,-1.2258018777750432,2.4530600918382404,0.14701426951885221
1746477063860798700,8.223798828125,-1.3537772464334965,1.4208616546690462,0.16087328352332114
1746477063870778600,8.233778564453125,-1.0901841776698826,0.4884685765981674,0.023021979147195816
1746477063880757500,8.243757568359374,-0.6239461375802755,-0.26954116351306434,-0.14179390452206134
1746477063890737400,8.2537373046875,-0.15492460425198076,-0.7234235798984766,-0.2527911042422056
1746477063900716500,8.263716552734374,0.16849026133306325,-0.8485591950863599,-0.2969301056981087
1746477063910695700,8.27369580078125,0.37293008018657564,-0.7439905671089887,-0.1321107148975134
1746477063920675600,8.283675537109374,0.5160293682187795,-0.5272919359892606,0.1885205843836069
1746477063930654500,8.293654541015625,0.5693104381598532,-0.29658289969563484,0.4983692083656788
1746477063940633600,8.303633544921874,0.5866816980689764,-0.13052139987945555,0.6357423738360405
1746477063950613500,8.313613525390625,0.5150814198441803,-0.02149462344944477,0.7003373033434153
1746477063960592400,8.32359228515625,0.4398616359479725,-0.007884615769982338,0.7019184350550174
1746477063970571500,8.333571533203125,0.4196690350078046,-0.019311434191465377,0.6095318277806043
1746477063980551400,8.343551513671875,0.45695364052429793,-0.07703530888557433,0.5408937603622674
1746477063990530600,8.353530517578125,0.4574306103862822,-0.17009645442068574,0.584069469743967
1746477064000509400,8.363509521484374,0.43519773579016324,-0.27462299682199953,0.7464917362749576
1746477064010489300,8.3734892578125,0.42836467489972707,-0.4076169242948293,0.9403291317671537
1746477064020468500,8.383468505859375,0.3954413333326578,-0.6350380249589681,1.0610358245968818
1746477064030447400,8.393447265625,0.3603122984148562,-0.8592816646307706,1.1140402695536613
1746477064040427500,8.403427490234375,0.2956098168797791,-1.1214590213775635,1.082512912389636
1746477064050406400,8.413406494140625,0.3004910130500793,-1.351927819174528,0.9610966099858284
1746477064060386600,8.423386474609375,0.3990324896924197,-1.5125380678474902,0.7294517541468143
1746477064070365400,8.433365478515626,0.5490367348074913,-1.588470383927226,0.504685551905632
1746477064080344300,8.44334423828125,0.7629045264154672,-1.6455366714954376,0.3228606657683849
1746477064090324700,8.45332470703125,0.9665219960354268,-1.648905855667591,0.17911621170043945
1746477064100303600,8.4633037109375,1.1045815363347529,-1.5891981136798858,0.09027180707752704
1746477064110282500,8.473282470703126,1.207774199783802,-1.4806687653779982,0.004704816690087319
1746477064120262700,8.4832626953125,1.1926432661473751,-1.3213900575697421,-0.10090542929470539
1746477064130241500,8.493241455078126,1.1059645151257513,-1.198122574341297,-0.2588566878914833
1746477064140220700,8.503220703125,0.9465760633327066,-1.020070777001977,-0.4463642958402633
1746477064150200600,8.51320068359375,0.7050884433932602,-0.9238748405724764,-0.5773977368950843
1746477064160180000,8.523179931640625,0.5128745574496686,-0.9088111269533634,-0.7356652218341827
1746477064170158800,8.533158935546876,0.3862080794326961,-0.828480283653736,-0.9501432542949915
1746477064180138800,8.543138671875,0.27327552773579955,-0.785064920297265,-1.1214029072761535
1746477064190118000,8.553117919921876,0.18713512137457727,-0.8160340590566396,-1.2678145347267389
1746477064200096800,8.5630966796875,0.07468655380234122,-0.8507119892060756,-1.374862120038271
1746477064210077000,8.573076904296874,-0.04704480590000748,-0.8635042507618665,-1.4625480022758244
1746477064220055800,8.583055908203125,-0.1947685388624668,-0.9313537981510162,-1.4783470444321631
1746477064230035000,8.593034912109376,-0.3590297112584114,-1.0373989284217358,-1.4552444012641905
1746477064240014800,8.603014892578125,-0.522069232904911,-1.1841881570130586,-1.4346312368243932
1746477064249993700,8.61299365234375,-0.6257844589233398,-1.3982365658849476,-1.4248352344751358
1746477064259974000,8.622973876953125,-0.6342524275392294,-1.6213193450838326,-1.4878303275704383
1746477064269952800,8.632952880859374,-0.5649282775528729,-1.8123872758626938,-1.5402029043644665
1746477064279932000,8.642931884765625,-0.40983576938807964,-1.943134885713458,-1.604093484994769
1746477064289911800,8.652911865234374,-0.2182305899273604,-1.935171359488368,-1.5943378146559
1746477064299890700,8.662890625,-0.011625482798740268,-1.8905869523525236,-1.5531220071703196
1746477064309869800,8.672869873046874,0.1848521980691701,-1.8178192377835511,-1.4886018964648247
1746477064319849700,8.682849609375,0.342262116330862,-1.7051351078897714,-1.4253449375629423
1746477064329828900,8.692828857421874,0.48415582796558737,-1.5546534545212982,-1.4370833061516284
1746477064339807700,8.702807861328125,0.5926081655085087,-1.3888111504137515,-1.5482207911252974
1746477064349787600,8.71278759765625,0.6534865587107836,-1.2002274376660584,-1.7016566181242465
1746477064359766800,8.722766845703125,0.6430863068580627,-1.0176900193452834,-1.8821873727977274
1746477064369745700,8.73274560546875,0.6027561231005937,-0.853872499063611,-2.098762669798732
1746477064379725600,8.7427255859375,0.49822190884947776,-0.7002624845415354,-2.3354414281517264
1746477064389704700,8.75270458984375,0.3520446746766567,-0.5464823741495609,-2.5321219381153584
1746477064399683800,8.762683837890625,0.2257031908303499,-0.4300584732055664,-2.720912571612
1746477064409663700,8.772663818359375,0.13909757811017334,-0.24099954416155814,-2.95610839793086
1746477064419642600,8.782642578125,0.1008960769444704,-0.031107670447230337,-3.116155752024054
1746477064429621800,8.792621826171874,-0.011833645656704903,0.12290507965683936,-3.1061452301412817
1746477064439602000,8.802601806640626,-0.26557686299197375,0.1542792920857668,-2.976775922906399
1746477064449580800,8.812580810546875,-0.5478664489191025,0.1445277134001255,-2.9446622902870176
1746477064459561000,8.82256103515625,-0.7903186761070042,0.17434885116815566,-3.0396213783979413
1746477064469539800,8.832539794921875,-0.9793763630419969,0.21939327703118322,-3.1905542826652527
1746477064479519000,8.84251904296875,-1.1430359893482178,0.3878384571135044,-3.403383963397145
1746477064489499000,8.852498779296875,-1.2585603841692208,0.6521849745929241,-3.562560379874706
1746477064499477800,8.862477783203126,-1.3366121766209602,0.85685823687613,-3.525045764994621
1746477064509457000,8.872456787109375,-1.345512106913328,0.9125327778249979,-3.4608751983791586
1746477064519436800,8.882436767578126,-1.4403706572592259,0.8037754659861326,-3.4779607732146975
1746477064529416000,8.892416015625,-1.6903560564309357,0.45984804679155344,-3.5054052449792623
1746477064539394800,8.902394775390626,-1.9478689284980295,-0.005838789156079292,-3.452605382683873
1746477064549374700,8.912374755859375,-1.9926292767226694,-0.3144090637654066,-3.336161607995629
1746477064559353900,8.922353759765626,-1.9161656302452086,-0.4836754971027374,-3.210641377404332
1746477064569332700,8.932332763671875,-1.8269325185656546,-0.5619254424750805,-3.001525164237618
1746477064579313000,8.94231298828125,-1.7878350184082983,-0.5460960051804781,-2.558001644781232
1746477064589291800,8.952291748046875,-1.6274819593667984,-0.43721945087611674,-1.9979443342655896
1746477064599271000,8.96227099609375,-1.3756068009257316,-0.308895268779993,-1.4449439565241335
1746477064609250800,8.972250732421875,-1.0728799185823648,-0.23693244085311888,-0.9742354930222034
1746477064619229700,8.982229736328126,-0.8188326767992228,-0.2540560096114874,-0.5752624784320592
1746477064629209900,8.9922099609375,-0.5697124430894851,-0.20897358982563016,-0.1650917780011892
1746477064639188700,9.002188720703124,-0.2819756976723671,-0.16926994046866892,0.19996903011500836
1746477064649168000,9.01216796875,0.0059573009692132466,-0.08609364461004733,0.5381628740936517
1746477064659147800,9.022147705078124,0.24867431657314298,0.004249474138021469,0.8490455172985791
1746477064669126700,9.032126708984375,0.37078956102654337,0.06475041233003138,1.1449304978579282
1746477064679105800,9.042105712890624,0.4899971013396978,0.06278291164934635,1.3809230275124311
1746477064689085700,9.052085693359375,0.5734878699749708,0.02568739896416664,1.6012544621765612
1746477064699064800,9.06206494140625,0.6610990795411169,-0.12420505633950232,1.7743635424166917
1746477064709043700,9.072043701171875,0.7524041751891374,-0.33439620526134967,1.8334440924167632
1746477064719023600,9.082023681640624,0.7733125962484627,-0.5357984830498695,1.7439847707659004
1746477064729002800,9.092002685546875,0.5606663823246956,-0.727281424370408,1.46649118694365
1746477064738981600,9.101981689453124,0.23226444904208182,-0.8981009323686361,1.1111322731524704
1746477064748961800,9.1119619140625,-0.0661532648652792,-1.0020675027996302,0.9005635230898856
1746477064758940700,9.121940673828124,-0.3279292012043297,-1.0376093563020228,0.7702958057105541
1746477064768920800,9.1319208984375,-0.4336433459550142,-0.9988993941575288,0.6951204454779625
1746477064778900000,9.14189990234375,-0.4454395822107792,-0.8497054425120353,0.7077823586523533
1746477064788878600,9.151878662109375,-0.44506081202626224,-0.6030132396668195,0.8424462651640177
1746477064798859000,9.16185888671875,-0.42189438290707765,-0.3367892378777265,0.9747580555915832
1746477064808838000,9.171837890625,-0.43481238973438735,-0.08902093023359775,1.0788280863970519
1746477064818817000,9.181817138671875,-0.4394301126629114,0.1089823527663946,1.1298609390199184
1746477064828797000,9.191796875,-0.5498164870083332,0.34826457161605356,1.1893465626895428
1746477064838775800,9.20177587890625,-0.6867716462623328,0.5605792885631322,1.2981757707208395
1746477064848755000,9.2117548828125,-0.8437877429008483,0.7472317409873008,1.3925433226794004
1746477064858734800,9.22173486328125,-0.9599568653661757,0.8680588453263044,1.467351603165269
1746477064868713700,9.231713623046875,-0.9962503409534692,0.945494551706314,1.5434575222462414
1746477064878692900,9.24169287109375,-1.0194137743979692,0.9309843803167343,1.6332687260746954
1746477064888672800,9.2516728515625,-0.9894774127524345,0.832443342065811,1.725619092991948
1746477064898652000,9.26165185546875,-0.8981460136193782,0.6859060424089432,1.7789350881159305
1746477064908630800,9.271630859375,-0.8222930463861674,0.49288054782152174,1.8343997857064007
1746477064918610700,9.281610595703125,-0.7287438981384039,0.3117214321166277,1.9322505036056041
1746477064928589800,9.29158984375,-0.6215916103433817,0.10903145260512828,2.0091268225371834
1746477064938569700,9.30156982421875,-0.47944297409951686,0.01870002429485321,2.03147601698935
1746477064948548900,9.311548828125,-0.3364455390065908,0.08600655084848403,2.069216257318854
1746477064958527700,9.32152783203125,-0.19941607240736484,0.3004582798242569,2.0650421865046025
1746477064968507600,9.331507568359376,-0.07958375125937163,0.6294441504746675,2.0725725820094345
1746477064978486800,9.34148681640625,-0.0176852942943573,1.012019572493434,2.112693579995632
1746477064988465700,9.351465576171876,0.06595518500991165,1.3465835355371236,2.1113012488543985
1746477064998445800,9.36144580078125,0.10722871403209865,1.615161991497874,2.1069781249582764
1746477065008424700,9.3714248046875,0.08544650581292808,1.8379174384385346,2.0583388894736765
1746477065018403800,9.38140380859375,0.05939144258014858,2.0172844100296494,2.007015529471636
1746477065028383700,9.3913837890625,-0.011831307569146155,2.248747479560971,1.95545894523561
1746477065038362600,9.401362548828125,-0.11311024635136127,2.3782272614330053,1.9752508564203977
1746477065048341800,9.411341796875,-0.18107143742144108,2.402627543196082,2.022528155902028
1746477065058321700,9.42132177734375,-0.14559621941447257,2.463885437235236,1.9949065740048884
1746477065068300800,9.43130078125,-0.0031646015107631683,2.634074830636382,1.8538918371617792
1746477065078279700,9.44127978515625,0.11535546799488365,2.732072848051786,1.718552807867527
1746477065088259600,9.451259521484374,0.10531513549573719,2.6473148359596728,1.6443249576181171
1746477065098238700,9.46123876953125,0.06389832554534078,2.436666006398201,1.4919938769906758
1746477065108217600,9.471217529296876,0.054289881657436485,2.3232260897010564,1.2222101368933915
1746477065118197800,9.48119775390625,0.13164141688533126,2.430673487985134,0.8521218560039997
1746477065128176600,9.4911767578125,0.23826442010924218,2.752478507220745,0.5452046092987061
1746477065138156800,9.50115673828125,0.3555518060147762,3.2132582819044586,0.4583990170270204
1746477065148136000,9.511135986328124,0.38261633855104443,3.554164307451248,0.5496650958389043
1746477065158114600,9.521114501953125,0.09821180629655718,3.58001011184752,0.7889894002646207
1746477065168094700,9.5310947265625,-0.4035989208251238,3.2436890760034323,1.274949793434143
1746477065178073600,9.541073486328125,-0.996243326690793,2.6189614326566457,1.6226327657699584
1746477065188052700,9.551052734375,-1.417809281361103,1.9129764788150787,1.5865373700380325
1746477065198033000,9.561032958984375,-1.5134031602442264,1.2336813789784908,1.177076279181242
1746477065208011800,9.57101171875,-1.2971861751616,0.8894026621282101,0.7248854691445827
1746477065217990700,9.58099072265625,-0.7363104609351605,0.7275806995779276,0.389411405518651
1746477065227970800,9.590970703125,-0.043005613511800767,0.7184680033177137,0.2148597252547741
1746477065237950000,9.600949951171875,0.5075853650003671,0.748574387767911,0.1270727207303047
1746477065247928800,9.6109287109375,0.8714408889800309,0.7312965052306651,0.14033961406052112
1746477065257908700,9.62090869140625,1.0931646547853946,0.6743488756060599,0.07969196087419986
1746477065267887900,9.630887939453125,1.21484633012712,0.5984703355401754,-0.09594517653882503
1746477065277867800,9.64086767578125,1.1446752079226077,0.4985001412689686,-0.31792671649754045
1746477065287847000,9.650846923828125,1.0268911245413124,0.3238525994151831,-0.5958294656425714
1746477065297825800,9.66082568359375,0.8495936527006328,0.26453707161545753,-0.7134545590698719
1746477065307805700,9.6708056640625,0.5905412961065769,0.24216098915636539,-0.6818956377238035
1746477065317784800,9.680784912109376,0.3273674756683409,0.0919207433283329,-0.6006219606161117
1746477065327763700,9.690763671875,0.15765315243303774,-0.2233896531909704,-0.45741292859911914
1746477065337744000,9.700743896484376,0.10861527301967143,-0.5718839419096708,-0.1765261952072382
1746477065347722800,9.71072265625,0.20605507203042506,-0.9040624711215496,0.05643617297112941
1746477065357702000,9.720701904296876,0.20714871248602865,-1.1862597025901078,0.11353402472138405
1746477065367681800,9.730681884765625,0.21358678270950912,-1.3264467564374207,0.07929682407677173
1746477065377660700,9.74066064453125,0.4635159216493368,-1.4467144733279942,0.1227291385680437
1746477065387639800,9.750639892578125,0.7680436428695917,-1.5504665242254734,0.2034095259577036
1746477065397619700,9.76061962890625,1.04336353591457,-1.5830606338381767,0.44612055021226404
1746477065407598800,9.770598876953125,1.345721365749836,-1.5972475646227597,0.5888508588016033
1746477065417578800,9.780578857421874,1.5351900446385145,-1.5134405696451663,0.6567500905513763
1746477065427557600,9.7905576171875,1.6834676120914518,-1.375326230418682,0.7020026062071323
1746477065437536800,9.800536865234376,1.752585425850749,-1.2421055084526538,0.7255471479237079
1746477065447516700,9.8105166015625,1.8142472245156764,-1.093053595626354,0.7071329548329115
1746477065457495800,9.820495849609374,1.7561849116474388,-0.9616320320367813,0.6553115821808576
1746477065467474700,9.830474609375,1.6132034047760069,-0.8722294090092182,0.49438686073124405
1746477065477454600,9.84045458984375,1.3815005351394414,-0.806135765376687,0.25253917530775066
1746477065487433700,9.850433837890625,1.0877321083426474,-0.7891665103971958,0.008321253621578217
1746477065497412600,9.86041259765625,0.8241425467103719,-0.8032108178406954,-0.180120420306921
1746477065507392800,9.870392822265625,0.6295949571222067,-0.7281833416461944,-0.34594577327966686
1746477065517371600,9.88037158203125,0.4891822778254747,-0.6530863073468208,-0.5472849227041006
1746477065527350800,9.890350830078125,0.3083960870862007,-0.6316185719043016,-0.6718968062788248
1746477065537331000,9.9003310546875,0.1294441260367632,-0.7085112574487924,-0.7704273231357336
1746477065547309600,9.9103095703125,0.0033019641548395155,-0.786913178512454,-0.8877268378704786
1746477065557288700,9.920288818359374,-0.18479717994630335,-0.9549304885715245,-0.9924234761416911
1746477065567268900,9.930268798828125,-0.2404943711183965,-1.165177167072892,-1.0398603500992059
1746477065577247700,9.940247802734374,-0.21296105202659962,-1.3497095586031675,-1.072311251848936
1746477065587228000,9.950227783203125,-0.10088657846376299,-1.4738742829322815,-1.1308224775284528
1746477065597206800,9.960206787109374,0.07658975707516073,-1.5457313123971224,-1.1804057158648966
1746477065607186000,9.97018603515625,0.2843020947933197,-1.5361130047023295,-1.2571774053782223
1746477065617165800,9.980165771484375,0.4325127344898879,-1.481007203552127,-1.298033147379756
1746477065627144700,9.990144775390625,0.5436924511700868,-1.3736258562415837,-1.319801327073574
1746477065637123800,10.000123779296874,0.6355657020948827,-1.2441653635919094,-1.370587511458993
1746477065647103700,10.010103759765625,0.6349795727699995,-1.1122861193627118,-1.4650924260616303
1746477065657083000,10.020082763671875,0.5771409856550395,-0.9704910457968712,-1.5731711079865693
1746477065667061800,10.030061767578125,0.4798733283407986,-0.8176508466035127,-1.720816661146283
1746477065677041700,10.040041748046875,0.3204283240549266,-0.6687386345088482,-1.855436728516221
1746477065687020800,10.050020751953125,0.14036314106658102,-0.5408715485304594,-1.9040186808556316
1746477065696999700,10.059999755859375,-0.09800283972099423,-0.4890618663161993,-1.9019500578880308
1746477065706979800,10.069979736328126,-0.2819055550456047,-0.49263504862785334,-1.897876524838805
1746477065716958700,10.079958740234375,-0.310054887143895,-0.4224246173262596,-2.04082018391788
1746477065726937900,10.089937744140625,-0.3311123612850904,-0.25856501146852967,-2.241391856101155
1746477065736917800,10.099917724609375,-0.4110812394045293,-0.14126725029945372,-2.304437218078971
1746477065746896600,10.109896728515626,-0.6538643059819936,-0.11445347765386103,-2.245383556085825
1746477065756876800,10.119876708984375,-0.8173334512174129,-0.1945247932344675,-2.1534791793704033
1746477065766855700,10.129855712890626,-0.9108329881697893,-0.258446938046813,-2.178858535298705
1746477065776834800,10.139834716796875,-0.9485591269087046,-0.3282639861166477,-2.220992042151093
1746477065786814700,10.149814697265626,-0.8433299891959876,-0.3287380333691835,-2.371217090409994
1746477065796793600,10.159793701171875,-0.6486532202702016,-0.13447452141940594,-2.596509946873784
1746477065806772700,10.169772705078126,-0.5108743966083973,0.10309095664024352,-2.744984352073073
1746477065816752600,10.179752685546875,-0.49840968650653955,0.31345980021655556,-2.823185782128572
1746477065826731800,10.189731689453126,-0.7059966442793607,0.4094008851021528,-2.907328292670846
1746477065836710700,10.199710693359375,-0.9605891719203442,0.2498059509515762,-2.877651531809568
1746477065846690600,10.209690673828124,-1.1402905630975961,-0.16522972516715526,-2.863095767712593
1746477065856669700,10.219669677734375,-1.1267349159538744,-0.5826069959759712,-3.085119393247366
1746477065866648600,10.229648681640626,-1.0446445156358182,-0.8357160801261663,-3.3735487971037625
1746477065876628700,10.239628662109375,-1.0303361504286528,-0.8547317462414502,-3.4573335802495477
1746477065886607600,10.249607666015624,-1.0566928269565106,-0.7033978599578141,-3.382518285501003
1746477065896587800,10.259587890625,-1.120995495519042,-0.45289925056695934,-3.0836814693987367
1746477065906567000,10.26956689453125,-1.3377864810973406,-0.15828385155200958,-2.6705349680274724
1746477065916545500,10.279545654296875,-1.5740847157001494,0.045779754400253295,-2.180619699752331
1746477065926526000,10.28952587890625,-1.708261130955815,0.181362529322505,-1.6848323245733976
1746477065936504800,10.2995048828125,-1.7057172916918992,0.20996727703809737,-1.2732622787386179
1746477065946484000,10.30948388671875,-1.5868278774172067,0.17442250092625616,-0.949896001535654
1746477065956463900,10.3194638671875,-1.3213999944418668,0.16998188813030718,-0.7638473602235317
1746477065966442800,10.32944287109375,-1.0315466952621937,0.20110007997155188,-0.6223410404711961
1746477065976422000,10.339421875,-0.7810791385967284,0.17073182971477507,-0.4395885180950165
1746477065986401800,10.34940185546875,-0.6074228728026151,0.06853519156575202,-0.23502280783951282
1746477065996381000,10.359380859375,-0.6061767451990395,-0.09800912333130836,-0.034003976410627364
1746477066006359800,10.36935986328125,-0.5672644654154777,-0.32421851011812686,0.19183774610757826
1746477066016339700,10.379339599609375,-0.47857612813711164,-0.5441086307555437,0.3945657195419073
1746477066026318800,10.38931884765625,-0.43093233343064785,-0.7136281620711088,0.5060182618141174
1746477066036298800,10.399298828125,-0.4282148911654949,-0.8086439488053322,0.5396241788178682
1746477066046278000,10.40927783203125,-0.45937275743000205,-0.8225894720494746,0.5617290431201457
1746477066056256800,10.4192568359375,-0.4623631714176386,-0.7937871559351682,0.5782271734565496
1746477066066236700,10.429236572265625,-0.41486258457414804,-0.7067150216817856,0.6575234130114317
1746477066076215800,10.4392158203125,-0.29434184277057646,-0.5521329472571611,0.762164521703124
1746477066086194700,10.449194580078125,-0.23366028731465338,-0.3944213426351547,0.8729688291996717
1746477066096174600,10.459174560546876,-0.24582469929568468,-0.24659283412396907,0.9710101012349128
1746477066106153700,10.46915380859375,-0.2785725381653756,-0.11202362015843391,1.0314835668981075
1746477066116132900,10.4791328125,-0.39887065019421275,0.0019569792866706848,1.1008762520760298
1746477066126112800,10.48911279296875,-0.5438953533310443,0.06519347992241382,1.1950520808547735
1746477066136091600,10.499091552734376,-0.6201659614544361,0.11694412542581557,1.3482272110909224
1746477066146070800,10.50907080078125,-0.6764863990914076,0.10309680185914039,1.477785903418064
1746477066156051500,10.519051513671876,-0.7067015776783228,0.10267653062045573,1.5438322007775305
1746477066166030300,10.5290302734375,-0.7446200971841812,0.06508885050415993,1.5779361304312944
1746477066176010500,10.539010498046874,-0.7073784540265798,0.000043839141726493834,1.6409803233653306
1746477066185989400,10.5489892578125,-0.6331154593985527,0.0002922609448432922,1.7382073564082383
1746477066195968500,10.558968505859376,-0.5673959828406572,0.03739186528325081,1.8031933310598134
1746477066205948400,10.568948486328125,-0.530793806630373,0.05197334834337234,1.9010726905316113
1746477066215927300,10.57892724609375,-0.5342431433666497,0.058030748686194414,1.9457804317861793
1746477066225906400,10.588906494140625,-0.5099029942929745,0.10271160193383692,1.9149498247146606
1746477066235886300,10.59888623046875,-0.5161971990663557,0.20279051727652547,1.8893436742931604
1746477066245865500,10.608865478515625,-0.5751783803451807,0.3786667241424322,1.90372349730134
1746477066255844400,10.61884423828125,-0.6452893698602914,0.5689736074209213,1.8919675930559634
1746477066265824300,10.62882421875,-0.7027086355846375,0.7735632830739021,1.87474114844501
1746477066275803400,10.638803466796874,-0.75855392999053,0.9961451270133256,1.8376789535075424
1746477066285782300,10.6487822265625,-0.8183012733362615,1.2469751603156327,1.8024837214857339
1746477066295762200,10.65876220703125,-0.8644518338102847,1.4992144758939743,1.7982137890815735
1746477066305741300,10.6687412109375,-0.896599880155921,1.7118080097824333,1.8050801677197217
1746477066315721200,10.67872119140625,-0.945078299055621,1.8886410789817571,1.7847832296222448
1746477066325700400,10.688700439453125,-0.9625403790533542,2.047433464577794,1.764994825568795
1746477066335679200,10.69867919921875,-1.0259019673734904,2.150722574138641,1.835177199819684
1746477066345659100,10.7086591796875,-1.0539951123051345,2.206027697253227,1.9558909069120882
1746477066355638300,10.71863818359375,-1.0647299298744648,2.2582266710460184,2.080000101661682
1746477066365617200,10.7286171875,-0.991332758295536,2.3578759627997874,2.162006769219041
1746477066375597600,10.73859765625,-0.8377893792688846,2.4762276169359683,2.1934119613081218
1746477066385576400,10.748576416015625,-0.6382973190158605,2.5821540892630814,2.2506267174363135
1746477066395555300,10.758555419921874,-0.5200029480248689,2.473814710575342,2.358705983883142
1746477066405535500,10.768535400390626,-0.344617739546299,2.3070003465652467,2.3218834429204462
1746477066415514400,10.778514404296875,-0.05753799673318863,2.2079887681931254,2.1290181073307988
1746477066425494500,10.78849462890625,0.2105763488471508,2.182497184062004,1.8834405877292155
1746477066435473400,10.798473388671875,0.4851796180553734,2.3311621433973313,1.6340093153089283
1746477066445452500,10.80845263671875,0.7423650847990065,2.6551982826858755,1.3878981272220612
1746477066455432400,10.818432373046875,0.9203783036936074,3.1013153257668016,1.2541852378249168
1746477066465411300,10.828411376953126,0.8363812660366297,3.4543034187734123,1.1663017871886492
1746477066475390500,10.838390380859375,0.4834370121717453,3.6149621827632186,1.154572770950198
1746477066485370400,10.848370361328126,-0.054093336172029376,3.5386575262397524,1.3563321916133164
1746477066495349500,10.858349609375,-0.7024263115119188,3.1466800696253774,1.4550743053942918
1746477066505328400,10.868328369140626,-1.214756898277998,2.460198273155093,1.40272686304152
1746477066515308300,10.878308349609375,-1.4219482808619737,1.6081190872490405,1.3047615788519382
1746477066525287400,10.888287353515626,-1.1965490414142608,0.7990700647741555,1.1590642371505497
1746477066535266300,10.898266357421875,-0.7188222235828637,0.16138006400167942,0.9558575402885675
1746477066545246500,10.90824658203125,-0.0998854385972023,-0.26768647555708885,0.701104196062684
1746477066555225300,10.918225341796875,0.5144271937191486,-0.4650654891788959,0.5081143573105334
1746477066565205200,10.928205322265624,1.0077385341733693,-0.40418168914914127,0.451430347058177
1746477066575184400,10.938184326171875,1.3853840985745192,-0.22974749778509138,0.5018412683904171
1746477066585163300,10.948163330078126,1.5843366451233625,-0.04215104250907898,0.52132513653934
1746477066595143400,10.958143310546875,1.6160183160662651,0.1451192495524883,0.4840981064289808
1746477066605122300,10.968122314453124,1.4911135870248078,0.2680073780745268,0.38981823275387284
1746477066615101400,10.978101318359375,1.2784469879001379,0.3363040847092867,0.2564367672681808
1746477066625081300,10.988081298828124,1.0368382257990538,0.3237292652964592,0.06266776083707809
1746477066635060200,10.998060302734375,0.8011965554088354,0.2967489039123058,-0.025669863307476042
1746477066645039400,11.008039306640624,0.596098930233717,0.2710001301497221,-0.04019464774429798
1746477066655019300,11.018019287109375,0.4361445151209831,0.1599602603316307,-0.021417466560006142
1746477066664998400,11.027998291015624,0.2968215307570994,0.02713642872869968,0.025716040536761284
1746477066674977300,11.037977294921875,0.1970699476726353,-0.16001812799870968,0.12051672321557998
1746477066684957200,11.047957275390624,0.13675123417973517,-0.33313480702340603,0.23894085806608198
1746477066694936300,11.057936279296875,0.08643632056787609,-0.489944494369626,0.32240006251931186
1746477066704916500,11.06791650390625,0.02320800323858857,-0.6492050819993018,0.3980518080919981
1746477066714895400,11.077895263671875,-0.005485737934708595,-0.8231798391580581,0.3522720536917448
1746477066724874200,11.087874267578124,0.2276379582852125,-0.9615081133961677,0.24384791933000086
1746477066734854400,11.0978544921875,0.432391446197778,-1.049392148554325,0.21225860284566878
1746477066744833500,11.10783349609375,0.5488936730749905,-1.0961860484331845,0.24420740029215812
1746477066754812400,11.1178125,0.761235716420412,-1.0591209308862686,0.2546183196693659
1746477066764792300,11.127792236328125,0.8752319518260657,-0.9568775309860705,0.31386312032043934
1746477066774771500,11.137771484375,0.8640576468609273,-0.8525432962864636,0.42354514578878877
1746477066784750300,11.147750244140624,0.7431115923173726,-0.7063508645445108,0.38928631783425804
1746477066794730500,11.15773046875,0.5964947976835072,-0.6357920581966638,0.3102688952207565
1746477066804709400,11.16770947265625,0.41994799807965755,-0.6147095226794481,0.15706512341201304
1746477066814689300,11.177689208984376,0.2830838050447404,-0.6240729788303375,-0.00808101512491703
1746477066824668400,11.18766845703125,0.19380173965692518,-0.6127759242683649,-0.15852876622378825
1746477066834647300,11.197647216796875,0.10109846764877438,-0.6990642146676779,-0.29501228937804697
1746477066844627500,11.20762744140625,0.10285188718736171,-0.74831486004889,-0.41310207770764823
1746477066854606300,11.2176064453125,0.15099369454383849,-0.7580693613439798,-0.5255453845828771
1746477066864585500,11.22758544921875,0.16056392531320451,-0.8502677525699138,-0.5628589239329099
1746477066874565400,11.2375654296875,0.14878595536649225,-0.9896323841184377,-0.6348527315199375
1746477066884544300,11.247544189453125,0.16787527123987675,-1.1346581101685762,-0.8068693403482436
1746477066894523400,11.2575234375,0.2265579079635441,-1.3358727564305066,-0.9965238971978425
1746477066904503300,11.26750341796875,0.27642624685168266,-1.4706810398489236,-1.1785691480875014
1746477066914482400,11.277482421875,0.3250157979756593,-1.5587240649610756,-1.2795984960228204
1746477066924461300,11.28746142578125,0.4181723667092621,-1.6454671133905647,-1.3822580755084752
1746477066934441200,11.297441162109376,0.5265466705799102,-1.6763865677893162,-1.503320157647133
1746477066944420400,11.30742041015625,0.6223088917672633,-1.647171579220891,-1.6771464462459087
1746477066954400300,11.317400146484376,0.7767736234225332,-1.558350555473566,-1.890125764581561
1746477066964379400,11.32737939453125,0.8277667285569011,-1.2848071705818176,-2.0774749670982358
1746477066974358300,11.337358154296876,0.6655160192005336,-1.1171499260067939,-2.1355226669192313
1746477066984338200,11.347338134765625,0.5780499171935022,-0.9508066866397857,-2.295688094434142
1746477066994317300,11.3573173828125,0.5132166488856077,-0.81019585442245,-2.5563310812205073
1746477067004296200,11.367296142578125,0.4876695351749658,-0.7646522468656302,-2.7817846812039613
1746477067014276400,11.3772763671875,0.49393444078862664,-0.7735124296694994,-2.9748867481589314
1746477067024255200,11.387255126953125,0.44159342817664143,-0.8585445825278758,-3.08104644472003
1746477067034234400,11.397234375,0.3111199590921402,-0.9664221889227628,-3.0911826388090846
1746477067044214500,11.407214599609375,0.2901438065588474,-1.0150941576331853,-3.113082335928082
1746477067054193200,11.417193115234374,0.3680773794583976,-0.9096113374203443,-3.2838638500034807
1746477067064173600,11.427173583984375,0.36672611097991464,-0.7199965280592441,-3.5440681531116365
1746477067074152400,11.43715234375,0.1813970161139965,-0.5077279883414506,-3.68346113397181
1746477067084131600,11.447131591796875,-0.0035293431699275966,-0.34964638136327264,-3.6827293125659226
1746477067094111500,11.457111572265624,-0.1553852075010538,-0.27163667448759077,-3.613140228033066
1746477067104090400,11.46709033203125,-0.253425821949169,-0.25567630428969856,-3.5311832448363303
1746477067114069500,11.477069580078124,-0.28859263159409165,-0.19709259789586067,-3.529585454250872
1746477067124049400,11.48704931640625,-0.253985866984725,-0.015084756407141684,-3.621214813417196
1746477067134028500,11.497028564453124,-0.23819676170051096,0.21756313899457452,-3.707760293447971
1746477067144007400,11.50700732421875,-0.3251971458919346,0.4350689948439598,-3.7458337112545963
1746477067153987300,11.5169873046875,-0.4907978963285684,0.47211306960284705,-3.7480665848731993
1746477067163965400,11.52696533203125,-0.6690748807258904,0.29363106415271756,-3.75236428206712
1746477067173945300,11.5369453125,-0.7843278381943702,-0.07074293074309826,-3.7139328446030615
1746477067183924500,11.546924560546875,-0.8169495664663612,-0.5209656555771828,-3.6724949187994
1746477067193903400,11.5569033203125,-0.7744365587770938,-0.9196949245393276,-3.615520401167869
1746477067203883500,11.566883544921875,-0.7418453717738389,-1.1712526875942946,-3.5003204890608783
1746477067213862400,11.5768623046875,-0.6934480552863329,-1.2937503554940224,-3.361960650640726
1746477067223841500,11.586841552734375,-0.7078391303408891,-1.2490776855528354,-3.176232327324152
1746477067233821400,11.596821533203125,-0.7437567583531141,-1.0900637661606072,-2.8749802667737003
1746477067243800300,11.60680029296875,-0.7632149075388908,-0.8435656245827674,-2.4819535933673382
1746477067253779500,11.616779541015624,-0.7326449972301721,-0.5637713626027107,-2.065668209448457
1746477067263759400,11.62675927734375,-0.6569045504607259,-0.3002309008091688,-1.6501561479896305
1746477067273738500,11.636738525390625,-0.5191811102479696,-0.10899404320418835,-1.226470716947317
1746477067283717400,11.64671728515625,-0.371608037802577,0.12623451634049415,-0.9062760555177927
1746477067293697300,11.656697265625,-0.40687275486402213,0.28231238228082656,-0.6373275972008705
1746477067303676400,11.666676513671876,-0.17026655029058455,0.4378881439179182,-0.3155769385010004
1746477067313656300,11.67665625,0.09381386359855533,0.4970908589929342,-0.019594342786073683
1746477067323635500,11.686635498046876,0.21439780683144927,0.4332546388983726,0.19049334576129912
1746477067333614300,11.6966142578125,0.2453967562071979,0.4150748390853405,0.26732991720438004
1746477067343594200,11.70659423828125,-0.07847732438743114,0.2886363246053457,0.31739597062170505
1746477067353573400,11.716573486328125,-0.43976796631515025,0.2046276695758104,0.5073872120797633
1746477067363552300,11.72655224609375,-0.5657862095564603,0.02427694764435291,0.8412392274618148
1746477067373532400,11.736532470703125,-0.65795537468791,-0.06982113972306252,0.9718500591903925
1746477067383511300,11.74651123046875,-0.7848369567602872,-0.15138415516614914,1.0904939742714166
1746477067393490400,11.756490478515625,-0.7749281416863203,-0.16217852090299129,1.2591051585704087
1746477067403470600,11.766470703125,-0.7400923906266689,-0.1153787758052349,1.477206057703495
1746477067413449500,11.776449462890625,-0.598922097895667,-0.013725158491730689,1.6862509591996668
1746477067423429400,11.786429443359374,-0.43260874221026896,0.06943126362264156,1.806066256147623
1746477067433408500,11.796408447265625,-0.36437567539624865,0.1262584817379713,1.860074909710884
1746477067443387400,11.806387451171876,-0.36167533039636907,0.1399088214278221,1.871990388432145
1746477067453367600,11.816367431640625,-0.36248606225736435,0.131805594471097,1.9085604159384966
1746477067463346400,11.826346435546874,-0.4121581479210406,0.16847908235192297,1.9969716898411511
1746477067473325600,11.83632568359375,-0.44678632064461704,0.1762941400170326,2.1351509109973907
1746477067483305500,11.846305419921874,-0.4700362633287906,0.2082622266858816,2.208133145099878
1746477067493284400,11.856284423828125,-0.518320694026351,0.22205869684815405,2.25971603282094
1746477067503263500,11.866263427734374,-0.5542238551218063,0.27100948249995704,2.3678163420557974
1746477067513243400,11.876243408203125,-0.5634276271989569,0.3435755370169878,2.4599404990017413
1746477067523222500,11.886222412109374,-0.5878922063698991,0.4004080158293247,2.485290044313669
1746477067533201400,11.896201416015625,-0.6799626238346099,0.43362113412320613,2.47191618347764
1746477067543181300,11.906181396484374,-0.8330839780569076,0.5045329916924238,2.4765368290156125
1746477067553160400,11.916160400390625,-0.9914181715566664,0.538151183655858,2.421894553723931
1746477067563140400,11.926140380859374,-1.1057290258694439,0.49273675543665885,2.3688293184906244
1746477067573119500,11.936119384765625,-1.1690613150298594,0.3980518080919981,2.3218869500517845
1746477067583098400,11.946098388671874,-1.1654250043541192,0.2758317880898714,2.298528286296129
1746477067593078300,11.956078369140625,-1.095780390241742,0.13353285665512085,2.3086375923782585
1746477067603057400,11.966057373046874,-0.9084113139808178,0.1372334647387266,2.2797902680784463
1746477067613036300,11.976036376953125,-0.6988888581007718,0.3128980746805668,2.2262790426433083
1746477067623016400,11.986016357421875,-0.5575760150939226,0.6227630652755498,2.2029981202989815
1746477067632995300,11.995995361328125,-0.5032761965643614,0.9616425534307956,2.219168918377161
1746477067642974500,12.005974365234374,-0.5442196168493479,1.3231459613263605,2.1932325130879877
1746477067652954400,12.015954345703125,-0.5978582315238192,1.6722107434093951,2.151286053240299
1746477067662933200,12.025933349609375,-0.7038444346815347,1.92813663854599,2.0775638144254684
1746477067672913400,12.035913330078126,-0.8262398112505673,2.1837930690914393,2.0259359185189005
1746477067682892300,12.045892333984375,-0.8950637566298246,2.3047364932864904,2.0017863966464997
1746477067692871400,12.055871337890625,-0.9720265848010777,2.339530158770084,2.0294459724664686
1746477067702851300,12.065851318359375,-1.0869360625941307,2.2966718447744845,2.1232932999432084
1746477067712830200,12.075830322265626,-1.087390163037181,2.1993805143237113,2.217503615513444
1746477067722809300,12.085809326171875,-0.8957172521024942,2.1588293082267045,2.056556682232022
1746477067732789500,12.09578955078125,-0.44406880531422793,2.254652319690585,1.6112527090996502
1746477067742768600,12.1057685546875,0.06085866558849811,2.3433213677465914,1.1660808379143477
1746477067752747300,12.115747314453126,0.4061340653259307,2.30309632486403,1.0013765979260205
1746477067762727400,12.1257275390625,0.5530869600463658,2.1461188797354698,0.9376257180273533
1746477067772706600,12.13570654296875,0.5998929887544363,1.9632418541967869,0.8439467328548431
1746477067782686500,12.1456865234375,0.6292635332107543,1.9185843818247317,0.6275766030371189
1746477067792665600,12.15566552734375,0.557441355863586,1.974506175532937,0.40363457666039465
1746477067802644500,12.16564453125,0.4841542935956269,2.2268770085364578,0.20691256564259528
1746477067812624400,12.175624267578126,0.41360827366411684,2.6043156521886583,0.11532499979138373
1746477067822603500,12.185603515625,0.20724990783818065,2.8447078781068322,0.2736228798687458
1746477067832582400,12.19558251953125,-0.24140695591866967,2.797858448648453,0.558224249869585
1746477067842562600,12.2055625,-0.8102899624466896,2.41486626252234,0.8067243789196014
1746477067852541400,12.21554150390625,-1.3559499142974614,1.7565315331280231,0.890301656794548
1746477067862520600,12.2255205078125,-1.6534516824036836,1.0251128628224133,0.7857505644738674
1746477067872500500,12.23550048828125,-1.6075509319722652,0.510839982882142,0.5430360330879688
1746477067882479400,12.245479248046875,-1.2064141634769736,0.2673439457297325,0.29207565140426156
1746477067892458500,12.25545849609375,-0.5937954755969346,0.2204360640823841,0.08100479703843592
1746477067902438400,12.2654384765625,-0.0783615890532732,0.29046763168573375,0.026560674667358397
1746477067912417500,12.27541748046875,0.33248715676963325,0.33030104490220547,-0.029618893194198605
1746477067922397400,12.2853974609375,0.547086842848733,0.5428612610429525,-0.0014987141251564026
1746477067932376300,12.295376220703124,0.5437614247530699,0.4814771102756262,-0.16252338881790637
1746477067942355500,12.30535546875,0.4740846619367599,0.28971359844803807,-0.4607616545051336
1746477067952335400,12.31533544921875,0.30307869145572186,0.11730243734419345,-0.7458002468794583
1746477067962314200,12.325314208984375,0.060175432564690705,-0.10264905809164046,-0.849219120299816
1746477067972293400,12.33529345703125,-0.09050620035529136,-0.3739472944051027,-1.1020037948012351
1746477067982273300,12.345273193359375,-0.11348609392642975,-0.6325140594393015,-1.2758435274034738
1746477067992252400,12.35525244140625,-0.09505962587594985,-0.831039320486784,-1.325788000267744
1746477068002231300,12.365231201171875,-0.012632833210378884,-1.0985288121670485,-1.2985948729157446
1746477068012211200,12.375211181640625,0.07508775501437485,-1.3612661408841609,-1.2999328435212374
1746477068022190300,12.3851904296875,0.2438075873196125,-1.5317249988764523,-1.2051023502260445
1746477068032170200,12.395170166015625,0.4802958646018058,-1.8065356272250412,-1.0528203694373368
1746477068042149400,12.4051494140625,0.6987608478069305,-1.9557155503451824,-0.8755968396157026
1746477068052128300,12.415128173828125,0.909347133526206,-2.0331506722033024,-0.6241144798845052
1746477068062108400,12.4251083984375,1.1223602080009878,-1.9935247642576692,-0.4999088390231132
1746477068072087600,12.435087646484375,1.2393738915316759,-1.9142542436659336,-0.35666648925840855
1746477068082066200,12.445066162109375,1.3135691546857355,-1.8143799109846352,-0.24251345585584638
1746477068092046600,12.455046630859375,1.3321183723330496,-1.6711691254019736,-0.19610767851173877
1746477068102025500,12.465025390625,1.2306876039899886,-1.5462322476565837,-0.14530162038207053
1746477068112004600,12.475004638671875,1.057023666346073,-1.3932996940046547,-0.11450374653637409
1746477068121984500,12.484984619140626,0.8871833786435425,-1.2599427784383297,-0.12095745272040366
1746477068131963400,12.49496337890625,0.7300830377876758,-1.1462491792410612,-0.10802607495486735
