time,seconds_elapsed,z,y,x
1744475004426960000,0.1199599609375,2.084000569474697,0.3551258356876671,-0.8485555418245494
1744475004436957200,0.129957275390625,1.856900955849886,0.2803638785615563,-0.675003540122509
1744475004446954000,0.1399541015625,1.5243506707161665,0.27736659644171596,-0.5307912493471056
1744475004456951000,0.149950927734375,0.965136825287342,0.25057708145454527,-0.4106139872189611
1744475004466948900,0.159948974609375,0.22424247062802313,0.1666935141094029,-0.322792422837764
1744475004476946200,0.1699462890625,-0.4948042093604803,0.034122926615178586,-0.2281057584600523
1744475004486943000,0.17994287109375,-1.024630632263422,-0.0009359656758606434,-0.11372647855356335
1744475004496940000,0.18993994140625,-1.3519096989959478,-0.03941401876062155,0.0506053479257971
1744475004506937900,0.199937744140625,-1.5222189193844795,-0.1649275273501873,0.30937136185914277
1744475004516935200,0.20993505859375,-1.595984412819147,-0.37771526863649485,0.5457968030381948
1744475004526932000,0.219931884765625,-1.5379782140523195,-0.5869526239648462,0.7827167497359215
1744475004536930000,0.229929931640625,-1.3814689709573984,-0.7377376441940665,0.9920778775744139
1744475004546926800,0.2399267578125,-1.150246139922738,-0.8560577341482043,1.184765372379124
1744475004556924200,0.249924072265625,-1.0427817905038594,-1.0100471764419228,1.3471756562113761
1744475004566921000,0.2599208984375,-1.0554612393349407,-1.172363279184699,1.4497855513364075
1744475004576919000,0.2699189453125,-1.2852993380129336,-1.2720090638071297,1.4694184725672006
1744475004586916000,0.279916015625,-1.493789528235793,-1.3294848089590667,1.5877268720835447
1744475004596913200,0.2899130859375,-1.6051871254503727,-1.4112373556248843,1.8126394970580935
1744475004606911000,0.299910888671875,-1.7410253364384174,-1.4742952848233282,2.0896502657994627
1744475004616908000,0.309907958984375,-1.7226117278695106,-1.5169725431635974,2.340250289738178
1744475004626905000,0.319905029296875,-1.551809755527973,-1.6806965399429201,2.5268811148524284
1744475004636902100,0.329902099609375,-1.2864660437047482,-1.9360157013580201,2.584118082812428
1744475004646900000,0.33989990234375,-1.0463210705459118,-2.192721056434512,2.532605045457184
1744475004656897000,0.34989697265625,-0.8764847283661364,-2.445019847115129,2.3857493275009096
1744475004666894000,0.35989404296875,-0.8133768225461244,-2.6933774989545345,2.274330249106884
1744475004676891100,0.36989111328125,-0.9170154761970043,-2.897010896795988,2.1935876101359724
1744475004686889000,0.379888916015625,-1.1427426324248313,-2.9296026683211327,2.0796521650068462
1744475004696886000,0.389885986328125,-1.2851035231798886,-2.8628952767044304,2.0194199607536194
1744475004706883000,0.399883056640625,-1.210683365228772,-2.875495522819459,2.0729558822385967
1744475004716881200,0.409881103515625,-1.0451859290361403,-3.0274013637721535,2.2008159539543093
1744475004726878000,0.4198779296875,-0.9178653710246085,-3.2124335215181112,2.314110763092339
1744475004736875000,0.429875,-0.8833914390146732,-3.3245918739721176,2.4376408427797256
1744475004746872000,0.4398720703125,-1.0131710806161165,-3.3825510187268257,2.464310676909983
1744475004756870100,0.4498701171875,-1.162680089560151,-3.3980960861220955,2.461949500736594
1744475004766867000,0.459866943359375,-1.2877952464818954,-3.38476226503551,2.4817612856656313
1744475004776864000,0.469864013671875,-1.271758888438344,-3.3336507942184803,2.5783178721010684
1744475004786861000,0.479861083984375,-1.1243611725598572,-3.270718244965374,2.701917948284745
1744475004796859100,0.489859130859375,-0.9045493778556585,-3.220540840128064,2.8325103675737977
1744475004806856200,0.499856201171875,-0.7103618537515402,-3.1759216539397834,2.847369790792465
1744475004816853000,0.50985302734375,-0.6138643040269612,-3.1319995101049543,2.784585710099339
1744475004826851000,0.51985107421875,-0.5743564695030451,-3.1173098904952403,2.6672525853559375
1744475004836848000,0.52984814453125,-0.6841407863020896,-3.1749720981299876,2.640508663076162
1744475004846845200,0.53984521484375,-0.9893886384904385,-3.2802538428127765,2.7178549376070498
1744475004856842000,0.549842041015625,-1.3043150041282177,-3.2419130062416195,2.854924736216664
1744475004866840000,0.559840087890625,-1.4778075307279825,-3.092852617847919,2.948225535726547
1744475004876837000,0.569837158203125,-1.5068915863931178,-2.840096584919095,3.010303513976931
1744475004886834200,0.579834228515625,-1.5779092424243688,-2.4369480382099744,2.823825833597779
1744475004896832000,0.58983203125,-1.8283593364983797,-2.009381381820142,2.412716975533962
1744475004906829000,0.5998291015625,-2.274231464907527,-1.7503905461549758,2.065897780420631
1744475004916826000,0.609826171875,-3.043883712017536,-1.7320771830901502,1.8859822350360451
1744475004926823200,0.6198232421875,-4.254681059014797,-1.7552777336746452,1.7322494709171354
1744475004936821000,0.629821044921875,-5.6482356045633555,-1.3776941285938025,1.3788063276194036
1744475004946818000,0.639818115234375,-6.595528145602345,-0.727278282565251,0.9387089832194149
1744475004956815000,0.649815185546875,-6.905515885794163,-0.07815216581998392,0.6725622844502329
1744475004966812200,0.659812255859375,-6.665663173580169,0.3515742076206952,0.6448794738851488
1744475004976810000,0.66981005859375,-6.052191083741188,0.5236005341254174,0.7925144325856119
1744475004986807000,0.67980712890625,-5.238811923107504,0.40860472975578155,1.1566496502894907
1744475004996804000,0.68980419921875,-4.423654646885395,0.25617143086288124,1.4654370017156004
1744475005006802200,0.69980224609375,-3.640743105229735,0.35552232419196517,1.4314172432139516
1744475005016799000,0.709799072265625,-2.912760839113593,0.605808131082356,1.1030451205477119
1744475005026796000,0.719796142578125,-2.2254560358226296,0.7940316322155296,0.7897014940567314
1744475005036793000,0.72979296875,-1.5832617093682289,0.8160434114068746,0.6240848884638398
1744475005046791200,0.739791259765625,-1.0263251612216233,0.7594151499297469,0.5468704966843128
1744475005056788000,0.7497880859375,-0.5496259328722953,0.7708047781459987,0.45324693149346856
1744475005066785000,0.759784912109375,-0.24487726237773894,0.8726838747784494,0.41787911938372996
1744475005076782000,0.769781982421875,-0.24726152716577052,0.9970356461122631,0.3489174460342154
1744475005086780200,0.7797802734375,-0.45486499768197536,1.1032194542013107,0.23759408309962599
1744475005096777000,0.78977685546875,-0.6472288134902715,1.2255007028713822,0.09447583463862538
1744475005106774000,0.79977392578125,-0.6975391970574856,1.3365521169967949,0.0016364055627956986
1744475005116771800,0.809771728515625,-0.6366758552938699,1.3967565564602613,-0.07433799609299749
1744475005126769200,0.81976904296875,-0.5683809022247791,1.4239184118911623,-0.17750336967632174
1744475005136766000,0.829765869140625,-0.6282517258197069,1.4498532097451389,-0.37964196238275616
1744475005146763000,0.839762939453125,-0.7419605225861072,1.4736577175721526,-0.5984188245486468
1744475005156760800,0.8497607421875,-0.9363210651695728,1.4996619274005294,-0.8499737380594015
1744475005166758100,0.859758056640625,-1.166376605990529,1.4749197003319858,-0.9649213559057563
1744475005176755000,0.8697548828125,-1.3345143275588751,1.4803674443438648,-1.010305462051928
1744475005186752000,0.879751953125,-1.4692057065993547,1.505365692000091,-0.9896410058163105
1744475005196749800,0.889749755859375,-1.5540549041062592,1.6401397808879612,-0.9444113595794886
1744475005206747100,0.8997470703125,-1.549663391149044,1.8595532239243386,-0.8690827815465628
1744475005216744000,0.909743896484375,-1.4748755689293145,2.0628286021083593,-0.7776884001798927
1744475005226742000,0.919741943359375,-1.168269872391224,2.218781964886188,-0.6426264342613518
1744475005236738800,0.92973876953125,-0.6277817702203988,2.303752158424258,-0.48921037140879775
1744475005246736100,0.939736083984375,0.06991349418163299,2.3300869153812527,-0.37577980706188824
1744475005256733000,0.94973291015625,0.8097451880455017,2.3367308834403753,-0.33713330207504333
1744475005266731000,0.95973095703125,1.511930749604106,2.268203582920134,-0.40588483980521556
1744475005276728600,0.969728515625,2.1015999390512703,2.1340245373159648,-0.44232130405977366
1744475005286725600,0.9797255859375,2.5205957509726282,1.9371850373983381,-0.46860122555699196
1744475005296722700,0.98972265625,2.8316619340509175,1.8136890061110258,-0.509588850309886
1744475005306720500,0.999720458984375,3.0637334908694025,1.7615847248643635,-0.5749007689801976
1744475005316717600,1.009717529296875,3.217785988461971,1.8035721012443302,-0.6130350866612047
1744475005326714600,1.019714599609375,3.30881942756176,1.867689768628776,-0.6308912074778229
1744475005336712700,1.029712646484375,3.3733863000184297,1.9342808403894305,-0.6122960317969321
1744475005346709500,1.03970947265625,3.3827953488767144,1.9801731152534483,-0.537659746877104
1744475005356706600,1.04970654296875,3.3624177467584606,2.053241566334665,-0.5188912969885394
1744475005366703600,1.05970361328125,3.301559081169963,2.1577344987273217,-0.5195456692440436
1744475005376701700,1.06970166015625,3.2179081535369156,2.2524492566883563,-0.5267358730090782
1744475005386698500,1.079698486328125,3.1102339607596394,2.361557866182923,-0.5055833775281906
1744475005396695600,1.089695556640625,3.0077777948915956,2.4669927556008098,-0.4832285205202177
1744475005406692600,1.099692626953125,2.9264041645407675,2.5270669928133485,-0.5024161456689238
1744475005416690700,1.109690673828125,2.744137964376807,2.5469541810661553,-0.5379672784563153
1744475005426687500,1.1196875,2.625706230741739,2.5271996792823073,-0.5336817466242239
1744475005436684500,1.1296845703125,2.653855051383376,2.4347879375666377,-0.5168860946459696
1744475005446682400,1.139682373046875,2.6933950346112248,2.3554677326142786,-0.47536487447302783
1744475005456679700,1.1496796875,2.780961089861393,2.3199977753043175,-0.46342188669033346
1744475005466676500,1.159676513671875,2.8632132566124198,2.3716338545173405,-0.4367446729712188
1744475005476673500,1.169673583984375,2.8719623802572487,2.474012278974056,-0.4791059241648763
1744475005486671400,1.17967138671875,2.9465052878051994,2.5050568210572,-0.6430100267514586
1744475005496668700,1.189668701171875,3.0700153476178644,2.374368832439184,-0.7930049925815313
1744475005506665500,1.19966552734375,3.1763486471801996,2.1764812847733497,-0.9362744495488703
1744475005516662500,1.20966259765625,3.119956897872686,1.918671475586295,-1.0520211088184266
1744475005526660400,1.219660400390625,2.73311037440598,1.5698977854043243,-1.1274247979141772
1744475005536657700,1.22965771484375,2.0895441750764845,1.3225041562914848,-1.110878736782819
1744475005546654500,1.239654541015625,1.3835773414134978,1.2664315559357404,-0.9234993583235889
1744475005556652500,1.249652587890625,0.860329127857089,1.308109720236063,-1.2251028626602143
1744475005566649300,1.2596494140625,0.49208384448587894,1.6671356321021913,-1.766510636959225
1744475005576646700,1.269646728515625,0.29421324795484544,1.963948541161418,-2.285763351138681
1744475005586643500,1.2796435546875,0.3580325169146061,1.8994407054156064,-2.52381032910496
1744475005596641500,1.2896416015625,0.3677981241255998,1.5067717594057322,-2.6764690342515705
1744475005606638300,1.299638427734375,0.0775426738858223,1.1404147739991546,-2.8245968179702756
1744475005616635600,1.3096357421875,-0.48519817662537096,1.0324331227079033,-2.9568618466466665
1744475005626632400,1.319632568359375,-1.2898860812813042,1.0982888659313321,-3.082372140365839
1744475005636630500,1.329630615234375,-2.111153364816308,1.2243377965718507,-3.1000980589315295
1744475005646627300,1.33962744140625,-2.7354537226617333,1.2576990911647676,-2.803096641562879
1744475005656624600,1.349624755859375,-3.110982733300328,1.2294207989245654,-2.2516740345321593
1744475005666621400,1.359621337890625,-3.313576266700029,1.1616071996316313,-1.5654142102494835
1744475005676619500,1.36961962890625,-3.6074580907434224,1.057941365712881,-0.759645305423811
1744475005686616300,1.3796162109375,-3.9273751042753458,0.950479938903451,-0.01777759395400062
1744475005696613600,1.389613525390625,-3.993409126675129,1.0088567245483397,0.3865627015566453
1744475005706611700,1.39961181640625,-3.47676250334084,1.0707514551863073,0.35968422964438795
1744475005716608500,1.4096083984375,-2.249659333708882,0.8611690858125686,0.1280698420088738
1744475005726605600,1.41960546875,-0.9340735785037279,0.3387184523746371,-0.19339830995518714
1744475005736602600,1.4296025390625,0.172334004214406,-0.21904987042099236,-0.6684035573355853
1744475005746600700,1.4396005859375,0.8850123182147741,-0.6989028866261243,-1.187773906545341
1744475005756597500,1.449597412109375,1.0529822820007801,-1.0478247531071305,-1.6803313598923384
1744475005766594600,1.459594482421875,0.7431850959450006,-1.131461213823408,-2.0583697230033575
1744475005776591600,1.469591552734375,0.11278875931203365,-1.0557068846590816,-2.139343832642585
1744475005786589700,1.479589599609375,-0.749917034548521,-0.8780300581119954,-1.7944418693274258
1744475005796586500,1.48958642578125,-1.6063398026168345,-0.6109804191537201,-1.2269079393208027
1744475005806583600,1.49958349609375,-2.2314690125018357,-0.3680180504865944,-0.5923816632762551
1744475005816580600,1.50958056640625,-2.621355634316802,-0.2752775152079761,0.04880107498280704
1744475005826578700,1.51957861328125,-2.8330028272658585,-0.297348184979707,0.5450088309982791
1744475005836575500,1.529575439453125,-2.8746278000742196,-0.24110578101500868,0.8892302281707525
1744475005846572500,1.539572509765625,-2.733175256335735,-0.21084113726317882,1.0910222359292208
1744475005856570400,1.5495703125,-2.2947674724578855,-0.31759251610711214,1.12017621502541
1744475005866567700,1.559567626953125,-1.5250608648121355,-0.6023118133991956,1.064638525263965
1744475005876564500,1.569564453125,-0.7276748076021671,-0.9822611977633088,0.9458823819801211
1744475005886561500,1.5795615234375,0.010322072049975395,-1.3489866511560975,0.79963515131101
1744475005896559400,1.589559326171875,0.609386866351962,-1.6544621746204793,0.7016627797935158
1744475005906556700,1.599556640625,0.9602683424681424,-1.7950076865166424,0.6714845722161233
1744475005916553500,1.609553466796875,1.1009738672316074,-1.7851795354634523,0.6638226592861115
1744475005926550500,1.619550537109375,0.8876338988900184,-1.5915926076009868,0.6293195011816919
1744475005936548400,1.62954833984375,0.6748533179968595,-1.2704036744371057,0.7959082397423685
1744475005946545700,1.639545654296875,0.7715525277733802,-1.3044181722417474,1.1759968864466994
1744475005956542500,1.64954248046875,0.8992495178818702,-1.4435983871340752,1.3748035217188297
1744475005966540500,1.65954052734375,0.5473135642766952,-1.346620068155229,1.301559567940235
1744475005976537300,1.669537353515625,0.10763561433255672,-1.413791862413287,1.2467857752233742
1744475005986534700,1.67953466796875,-0.05232347695529461,-1.5803199568279087,1.2307201910853385
1744475005996531500,1.689531494140625,-0.05912848079502582,-1.700889140883088,1.2519685846887527
1744475006006529500,1.699529541015625,-0.1139104568183422,-1.8208144740767775,1.3695306958824396
1744475006016526300,1.7095263671875,-0.22732582359611986,-1.8845631620183585,1.480897459567338
1744475006026523600,1.719523681640625,-0.3155927205920219,-1.77692141020596,1.6405911779172717
1744475006036520400,1.7295205078125,-0.34783845515847206,-1.7057462255254388,1.8616868749521671
1744475006046518500,1.7395185546875,-0.25530279480218887,-1.709945723041892,2.0023326323524118
1744475006056515300,1.749515380859375,-0.10017360788881778,-1.7801386186867951,2.094711933103204
1744475006066512600,1.7595126953125,0.023987609308958054,-1.868611998040229,2.1225255304411053
1744475006076509400,1.769509521484375,-0.05199672921895981,-1.9260837976694105,2.0362471769139168
1744475006086507500,1.779507568359375,-0.13249182316958905,-1.9702469106532632,1.9379593827717005
1744475006096504600,1.789504638671875,-0.19555121367275713,-2.04376675876379,1.8316766443528234
1744475006106501600,1.799501708984375,-0.2596270877420902,-2.0166151324659585,1.7979826106742023
1744475006116498400,1.80949853515625,-0.2557411862194538,-1.9383898831434547,1.8714111272394656
1744475006126496500,1.81949658203125,-0.19223171386122703,-1.817532237535715,1.941324767551571
1744475006136493600,1.82949365234375,-0.16508242565095424,-1.7586624076768755,2.0048774945296346
1744475006146490600,1.83949072265625,-0.20924305441677568,-1.7854722347997127,2.0075620574384927
1744475006156488700,1.84948876953125,-0.3951625163912773,-1.8190975871562958,1.953167765558511
1744475006166485500,1.859485595703125,-0.7783598697006702,-1.8107351247414945,1.9398862591810524
1744475006176482600,1.869482666015625,-1.286935999304056,-1.6532921079277991,1.9917361272752283
1744475006186479600,1.879479736328125,-1.8422709574729204,-1.5137117878019808,2.1030593440793455
1744475006196477700,1.889477783203125,-2.3977345104575156,-1.3778651012465357,2.1617624390691517
1744475006206474500,1.899474609375,-2.804549470719695,-1.312502256106585,2.12946351301074
1744475006216471600,1.909471435546875,-2.8516128351897,-1.3722801407210528,1.9543848862633109
1744475006226468600,1.919468505859375,-2.34664379016757,-1.5244571998305618,1.7429101272717118
1744475006236466700,1.929466796875,-1.3800626112908123,-1.7881619122751056,1.6256488987207411
1744475006246463500,1.93946337890625,-0.4769862285971641,-2.064167303366214,1.4887956654712557
1744475006256460500,1.94946044921875,-0.1009784945309162,-2.1619518241614104,1.083107955673337
1744475006266457600,1.95945751953125,-0.7543933031797408,-2.1828449745863674,0.7903308780014514
1744475006276455200,1.969455078125,-2.218497302725911,-2.0609422038398684,0.7173175181083381
1744475006286452000,1.979451904296875,-3.8238697216153144,-1.7149428006768226,0.813705908370018
1744475006296449300,1.98944921875,-5.070492999753355,-1.26807830022946,0.9253808612212538
1744475006306447400,1.999447265625,-5.864285416385531,-0.6891117065824568,0.9801560421776025
1744475006316444200,2.009444091796875,-6.264269653844833,-0.15274682182148097,0.9752147133179009
1744475006326441000,2.01944091796875,-6.183821321645379,0.28581001513823867,0.8479244043141603
1744475006336438300,2.029438232421875,-5.448159022420644,0.5765712229430675,0.6664367142420262
1744475006346436400,2.039436279296875,-4.168904225268959,0.6935521732479334,0.42688762461710716
1744475006356433200,2.04943310546875,-2.669724236166477,0.6936325450077653,0.19537861531851813
1744475006366430200,2.05943017578125,-1.341849492752552,0.6258122237131,-0.001015298539365176
1744475006376427300,2.06942724609375,-0.32386955054998395,0.5114531463444233,-0.10449930733451619
1744475006386425300,2.07942529296875,0.35887481295764445,0.4845741995081305,-0.1072283852385357
1744475006396422100,2.089422119140625,0.7332213358134031,0.5168456530377269,0.02144265123361256
1744475006406419200,2.099419189453125,0.8211819433391093,0.6004033494293689,0.13842939652502537
1744475006416416300,2.109416259765625,0.6610697073161602,0.6718018214717507,0.319537074303627
1744475006426414300,2.119414306640625,0.3520779924243688,0.7748007159143686,0.5485756931670009
1744475006436411100,2.1294111328125,0.032224691778421403,0.9665659813076257,0.7303639736209064
1744475006446408200,2.139408203125,-0.2409276479691267,1.0918427585318684,0.8512372551891952
1744475006456406000,2.149406005859375,-0.4292378044724464,1.0698451539963483,0.8194982280358671
1744475006466403300,2.1594033203125,-0.6108885030865668,1.0989309632271527,0.5138076735813171
1744475006476400000,2.169400146484375,-0.9121469933778047,1.1237079693481324,0.25616956769935784
1744475006486397200,2.179397216796875,-1.0234838003158568,1.2005877954110502,0.2315337966799736
1744475006496395000,2.18939501953125,-0.7071727023214102,1.3423296774849294,0.22887780227847396
1744475006506392300,2.199392333984375,-0.46550972581505773,1.4302137126430867,0.33287038393355906
1744475006516389000,2.20938916015625,-0.2633171744316816,1.5932885978639124,0.3301368673164397
1744475006526386200,2.21938623046875,0.004785480710864067,1.9316712424129248,0.22654037230685353
1744475006536384000,2.229384033203125,0.5626841518878937,2.8003113947585225,-0.3315205036945641
1744475006546381300,2.23938134765625,1.361228731483221,3.7701568361282347,-0.9319264104072004
1744475006556378000,2.249378173828125,0.9796236158013343,2.786395682130754,0.2740180897314101
1744475006566376200,2.259376220703125,0.560268322917819,2.2268419372230768,0.9104215578246861
1744475006576373000,2.269373046875,0.267564895004034,2.1403560784250497,0.9874663651909679
1744475006586370300,2.279370361328125,0.06778057380616664,2.152338192641735,0.80428611892201
1744475006596367000,2.2893671875,0.10287994423806666,2.155410147432983,0.42116687235012645
1744475006606365200,2.299365234375,0.32591420812010763,2.109552651621401,0.09095087538287043
1744475006616362000,2.309362060546875,0.6350128905177116,2.04798174611032,-0.14268983044847844
1744475006626359300,2.319359375,0.797517574635148,2.003950881204009,-0.2719906755570322
1744475006636356000,2.329356201171875,0.8791606695771217,1.965239165493846,-0.2898009479379281
1744475006646354200,2.339354248046875,1.0242623834729194,1.981087892010808,-0.20079364437088368
1744475006656351000,2.34935107421875,1.2181132229685783,2.0567010591387747,-0.07618289330732077
1744475006666348300,2.359348388671875,1.4425883333086966,2.2082798600941893,0.0012680106418207287
1744475006676345000,2.369344970703125,1.6411241157501935,2.32959737829864,-0.030604470165446398
1744475006686343200,2.37934326171875,1.9432517900913953,2.3614883080780507,-0.09656792981335893
1744475006696340000,2.389340087890625,2.347708789050579,2.3668688320726154,-0.046861010298319156
1744475006706337300,2.399337158203125,2.7634230950832364,2.3463182114750145,0.019334851599670945
1744475006716334000,2.409333984375,3.090471275669336,2.378971942320466,0.010670775889791548
1744475006726332200,2.419332275390625,3.2543209446549413,2.379538928553462,-0.10960934382462874
1744475006736329000,2.429328857421875,3.2534938461810348,2.384537175232172,-0.3294376695385203
1744475006746326300,2.439326171875,3.0815204919725656,2.343078206640482,-0.5631188169781118
1744475006756323000,2.449322998046875,2.784277082541585,2.2659511278182265,-0.7409981072947383
1744475006766321200,2.459321044921875,2.432838557064533,2.212456268996,-0.8585463360935449
1744475006776318000,2.46931787109375,2.1162381207346916,2.1478671847075224,-0.8559873723257333
1744475006786315300,2.479315185546875,1.900485830554366,2.1295412544220684,-0.8430527796898036
1744475006796313000,2.48931298828125,1.8536393237054347,2.1050018564492463,-0.8026367442797869
1744475006806310100,2.49931005859375,2.0065011502087113,2.100005947858095,-0.7110823500458151
1744475006816307000,2.509306884765625,2.23431388053894,2.0434154611080886,-0.6054483578592539
1744475006826304300,2.51930419921875,2.385322772651911,1.8719126470208167,-0.47395025843475014
1744475006836302300,2.52930224609375,2.43875625667572,1.7231021417349577,-0.41339152564089743
1744475006846299100,2.539299072265625,2.2272551941990852,1.5331868881225585,-0.4503316285686567
1744475006856296000,2.5492958984375,1.98727564073503,1.3114110998690127,-0.7835317924458534
1744475006866293200,2.559293212890625,1.9629367337703705,1.1802975793153048,-1.6646119588434696
1744475006876291300,2.569291259765625,2.031108352720737,1.1639549318015574,-2.830691043192148
1744475006886288100,2.5792880859375,2.067290257692337,1.0545523077964782,-3.757746267366409
1744475006896285200,2.58928515625,1.8913848247319458,0.8871171815395354,-4.162923397293687
1744475006906282200,2.5992822265625,1.3493454014658928,0.6994716264247894,-4.098614591251313
1744475006916280300,2.6092802734375,0.6047568684637546,0.6919093744769692,-3.8080090123996135
1744475006926277000,2.619277099609375,-0.23240590333938596,0.9791682732492685,-3.405060372176766
1744475006936274200,2.629274169921875,-0.9560551086872816,1.4147858418866992,-2.8384505712777375
1744475006946271200,2.639271240234375,-1.562462666967511,1.7816785416051744,-2.222837523887306
1744475006956269300,2.649269287109375,-2.167120166710019,2.0519851365327835,-1.6588241692222654
1744475006966266000,2.65926611328125,-2.5308564482241867,2.205635775326192,-1.2953203812897205
1744475006976263200,2.66926318359375,-2.808051925882697,1.8795313053309917,-0.6036084290809929
1744475006986261200,2.67926123046875,-3.006637392684817,1.5040028792142868,-0.1681802090032026
1744475006996258300,2.68925830078125,-2.7737913443624973,1.2902610520735383,-0.22701003564521668
1744475007006255000,2.699255126953125,-2.3578081582605837,1.1749375135868787,-0.45710963480360806
1744475007016252200,2.709252197265625,-1.8854542656391857,1.0959817580327391,-0.9870662599574774
1744475007026250200,2.719250244140625,-1.3482681276232003,0.9510179913029074,-1.4348080546960233
1744475007036247300,2.729247314453125,-0.7870832743823528,0.7003983858808874,-1.486947553386539
1744475007046244000,2.739244140625,-0.21318039386570453,0.4041147613927722,-1.2996806223258375
1744475007056241200,2.7492412109375,0.40832361125946043,0.2698985986486077,-1.0314016607683152
1744475007066239200,2.7592392578125,0.8973053980767727,0.3514651212230325,-0.76742200383991
1744475007076236300,2.769236328125,0.9312479996889829,0.5152765040248632,-0.4893698362868279
1744475007086233000,2.779233154296875,0.40674890928864477,0.6901712986379861,-0.279533711347729
1744475007096230100,2.789230224609375,-0.5076309577077627,0.9654507135421037,-0.3184747788343578
1744475007106228200,2.799228271484375,-1.339980776271224,1.1378048837617039,-0.3567079903125763
1744475007116225300,2.809225341796875,-1.7645669555455445,1.0492558088235557,-0.2717813436552882
1744475007126222000,2.81922216796875,-1.7694295931458472,0.7667183856151998,-0.17742372856885194
1744475007136219100,2.82921923828125,-1.425765208801627,0.504377801130712,-0.1721725300423801
1744475007146217200,2.83921728515625,-0.8746639426797628,0.21310499054193496,-0.19196867901086806
1744475007156214300,2.84921435546875,-0.1837579000264406,-0.08021583861783146,-0.18936068846955895
1744475007166211000,2.859211181640625,0.4721662610948085,-0.33712402279004455,-0.09566665185838938
1744475007176209200,2.869209228515625,0.9485533547550439,-0.582451659283787,0.0944692587673664
1744475007186206200,2.879206298828125,1.1045300984084605,-0.7763578822284937,0.31700857873931526
1744475007196203300,2.889203369140625,1.0178016630262137,-0.8726052565842867,0.563290739478916
1744475007206200000,2.899199951171875,0.7655313677877187,-0.9819248784810304,0.7725994064778089
1744475007216198100,2.9091982421875,0.3488555232465267,-1.1177629433386027,0.9329643020875752
1744475007226195200,2.9191953125,-0.11022796891331672,-1.2238567350566387,1.061177278894186
1744475007236192300,2.929192138671875,-0.5063911867797375,-1.3045713169768451,1.1256615876339375
1744475007246189000,2.93918896484375,-0.785691527763009,-1.3973537917010486,1.2160311559975145
1744475007256187100,2.949187255859375,-0.92494977632761,-1.4959204027846456,1.3502761064447462
1744475007266184200,2.95918408203125,-0.936434462416172,-1.5959338516756891,1.544399040880054
1744475007276181000,2.969180908203125,-1.0414058259755372,-1.7147594069339334,1.775167698406428
1744475007286178000,2.979177978515625,-1.3269856856197118,-1.7933282089971005,2.002387869670987
1744475007296175900,2.98917578125,-1.5447271037906407,-1.8663871615976093,2.263752156469226
1744475007306173200,2.999173095703125,-1.6197434740692376,-1.9172826515763997,2.509370592603087
1744475007316170000,3.009169921875,-1.5584966859459877,-1.8596121145047246,2.64491420455873
1744475007326168000,3.01916796875,-1.3483347631186247,-1.8528280073225498,2.6545944715738297
1744475007336164900,3.029164794921875,-1.1671423296660184,-1.9103315172642468,2.587068749311566
1744475007346162200,3.039162109375,-1.268476213505864,-1.9807630439706145,2.5685060876607895
1744475007356159000,3.049158935546875,-1.542803442251682,-2.088759016048163,2.598102476762235
1744475007366157000,3.059156982421875,-1.749744649466872,-2.1610542907997963,2.607739196896553
1744475007376153900,3.06915380859375,-1.8221470378547906,-2.1422475912600754,2.5072648524954912
1744475007386151200,3.079151123046875,-1.7520996881604194,-2.094498290352523,2.359080077892542
1744475007396148000,3.08914794921875,-1.5089309832662343,-2.109219181883335,2.175294851467758
1744475007406146000,3.09914599609375,-1.1157143402457237,-2.172640975958109,2.034633311976492
1744475007416142800,3.109142822265625,-0.6495750843554735,-2.272199228427559,1.8264307065233587
1744475007426140200,3.11914013671875,-0.2462649173438549,-2.395496522272378,1.5744272455275057
1744475007436137000,3.129136962890625,-0.12009937458634376,-2.4749802472233773,1.3891770611166954
1744475007446135000,3.139135009765625,-0.2511830845236778,-2.4394769721657035,1.302951022298634
1744475007456131800,3.1491318359375,-0.540547723403573,-2.3709362276419994,1.1618938345532863
1744475007466129200,3.159129150390625,-0.8787392292946576,-2.242108772198856,0.9700561615109443
1744475007476126000,3.1691259765625,-1.2209230196923018,-2.061594091877341,0.8659091930117457
1744475007486124000,3.1791240234375,-1.5845190159529448,-1.8976333637326954,0.9519695929393172
1744475007496120800,3.189120849609375,-1.964826493039727,-1.6427208834223448,1.1488015671376137
1744475007506118100,3.1991181640625,-2.1819237680882213,-1.3534244874730705,1.3117603516981005
1744475007516115000,3.209114990234375,-2.094265358379483,-1.1485486883550882,1.3010159625828266
1744475007526113000,3.219113037109375,-1.7157669765412806,-1.072825923372805,1.1661324219711124
1744475007536109800,3.22910986328125,-1.3783429478913545,-1.149484654030949,1.0772837795644998
1744475007546107100,3.239107177734375,-1.3660463608980178,-1.358757665194571,0.9018690527305007
1744475007556104000,3.24910400390625,-1.829125060173869,-1.5433943938821553,0.6259272283948958
1744475007566102000,3.25910205078125,-2.6972522945612667,-1.5496195520073175,0.47761221500840034
1744475007576099000,3.26909912109375,-3.7905174871116873,-1.2895970352068542,0.5317259729139506
1744475007586096000,3.27909619140625,-4.862288640734553,-0.79749054049775,0.6933322468869387
1744475007596094200,3.28909423828125,-5.554368403342366,-0.24519378098100422,0.7670376076322049
1744475007606091000,3.299091064453125,-5.705259806555509,0.3289747647345066,0.8169740433204918
1744475007616088000,3.309088134765625,-5.250779424276947,0.8524139708183706,0.8347549800090491
1744475007626085000,3.319085205078125,-4.250297144842148,1.2352305081166326,0.7974760735809803
1744475007636083200,3.329083251953125,-2.9903806698888538,1.3707130375348031,0.7549564900204538
1744475007646080000,3.339080078125,-1.7995511751651763,1.2883616481930016,0.6665772186912596
1744475007656077000,3.3490771484375,-0.8523831372886895,1.1074041925400495,0.48936209137178954
1744475007666074000,3.35907421875,-0.2878513117074966,0.9050706252507865,0.24332334746662526
1744475007676072200,3.369072265625,-0.06223463011682033,0.7565216935105621,0.10433686504811047
1744475007686069000,3.379069091796875,-0.10620587379038333,0.711006435265392,0.034920031809620555
1744475007696066000,3.389066162109375,-0.23408581925034522,0.7618979797214269,-0.06931125397216528
1744475007706063000,3.39906298828125,-0.2995657148987055,0.8473509883403778,-0.11987360300645232
1744475007716061200,3.409061279296875,-0.32253859420716763,0.929023017115891,-0.08664568900223821
1744475007726058000,3.41905810546875,-0.3494435522675514,0.9863061623051762,-0.03214442961644381
1744475007736055000,3.429054931640625,-0.481001893979311,1.0536582815662026,0.09309055429268628
1744475007746052000,3.439052001953125,-0.7251081719845532,1.1651929491639137,0.20994130234662442
1744475007756050200,3.44905029296875,-1.0083201334536076,1.3262012572437525,0.2535072896875441
1744475007766047000,3.459046875,-1.2856371916651725,1.540159357483685,0.290503397118859
1744475007776044000,3.4690439453125,-1.4467349315941334,1.7337778495281935,0.29926790099591016
1744475007786041000,3.479041015625,-1.430523216983676,1.8844763605177401,0.21925726609397678
1744475007796039200,3.4890390625,-1.1452268504559993,2.0023571822717785,0.14187756421752273
1744475007806036000,3.499035888671875,-0.5853127478033304,2.040079010161757,0.13064946497222407
1744475007816033000,3.509032958984375,0.08634089736938476,2.035358995902538,0.11113024238212965
1744475007826030800,3.51903076171875,0.671971040558815,2.005761437757313,0.0072051227729534725
1744475007836028200,3.529028076171875,1.115892619422078,1.9654487165912984,-0.1557268605455756
1744475007846025000,3.53902490234375,1.439351835605502,1.9006831066921352,-0.3886464124955237
1744475007856022000,3.54902197265625,1.641277845007181,1.8537752250447868,-0.5804609969232231
1744475007866019800,3.559019775390625,1.7867331946462393,1.800195318287611,-0.6661003949597477
1744475007876017200,3.56901708984375,1.8469646682471035,1.7448466482922433,-0.69887366053164
1744475007886014000,3.579013916015625,1.8802543589085339,1.7394921355217694,-0.7419801040694117
1744475007896011000,3.589010986328125,1.9622019897550342,1.7616300253108144,-0.7831693158090114
1744475007906008800,3.5990087890625,2.042006178832054,1.7775103160098193,-0.8418157852407544
1744475007916006100,3.609006103515625,2.099785583105683,1.7816203816771505,-0.8687413476977497
1744475007926003000,3.6190029296875,2.1665508423894644,1.7749986254498362,-0.9113098849665373
1744475007936000000,3.629,2.2221125706136227,1.756831977379322,-0.9823995833206921
1744475007945998000,3.638998046875,2.264946919211745,1.7348311579734086,-1.1076258724667132
1744475007955995100,3.6489951171875,2.2463515243351457,1.704076538747549,-1.1824392675191164
1744475007965992000,3.658991943359375,2.1934400183588263,1.639174150726199,-1.1572072111070155
1744475007975989000,3.668989013671875,2.1633757194846868,1.5969795613363384,-1.0627058767009525
1744475007985987000,3.678987060546875,2.212839130833745,1.6147236000806093,-0.9670414898648857
1744475007995984100,3.688984130859375,2.301485967057943,1.6619444931998848,-0.8410331104304641
1744475008005981000,3.69898095703125,2.409761632859707,1.745809355844557,-0.7410366857394576
1744475008015978000,3.70897802734375,2.4921231052041053,1.8799527456134557,-0.6678484076708555
1744475008025976000,3.71897607421875,2.5153362230092284,2.015756177549064,-0.6062028660209849
1744475008035973000,3.72897314453125,2.4758424170106648,2.075531431815028,-0.6817674812994897
1744475008045970000,3.738969970703125,2.3998756141394377,2.0384408875659106,-0.9229283535026014
1744475008055968000,3.748968017578125,2.2634821073561904,1.9220234163627028,-1.1421090106964111
1744475008065965000,3.758965087890625,1.9793466013014316,1.8356342959374188,-1.224624504558742
1744475008075962000,3.768962158203125,1.5415046346127985,1.8063073714271187,-1.2504139025926588
1744475008085959000,3.778958984375,0.9663613986462354,1.7464920774117112,-1.2526657731726765
1744475008095956000,3.7889560546875,0.33834815775752064,1.7153636564373969,-1.211338029745221
1744475008105954000,3.7989541015625,-0.20379004970788955,1.7177660414040088,-1.1822623035170137
1744475008115951000,3.808951171875,-0.4287544048696756,1.759360911335051,-1.1774438703846186
1744475008125948000,3.818947998046875,-0.17998890288174152,1.808960516284406,-1.3246627956300974
1744475008135946000,3.828946044921875,0.3603185820251703,1.9586793685868382,-1.6612889519006013
1744475008145943000,3.838943115234375,0.8584913910359143,2.063257933436334,-2.1065410487152634
1744475008155940000,3.848940185546875,1.1381085428833961,1.8844664236456155,-2.451440966203809
1744475008165937000,3.85893701171875,0.9910802448391913,1.5127794753879307,-2.6803873767390844
1744475008175935000,3.86893505859375,0.39513036768734455,1.1030351836755872,-2.7490365500733254
1744475008185932000,3.87893212890625,-0.30613048024177547,0.8975593728378415,-2.6836434559255835
1744475008195929000,3.88892919921875,-1.0351514417558907,0.9393202469855546,-2.357564266502112
1744475008205926000,3.89892578125,-1.6428157220989466,1.143593696296215,-1.8603978580549358
1744475008215924000,3.908924072265625,-1.9904256291985511,1.5087100339919328,-1.3252373806476592
1744475008225921300,3.91892138671875,-2.084259512671828,1.842236178420484,-0.8401536972474306
1744475008235918000,3.92891796875,-1.987055275982618,1.9695012068524955,-0.4584592958468944
1744475008245915000,3.938914794921875,-1.7666531141698358,1.9195280924156306,-0.29099823143109677
1744475008255913000,3.948912841796875,-1.361594057664275,1.7197276968657969,-0.37461993296965956
1744475008265910300,3.95891015625,-0.8113257352352142,1.4012491917043923,-0.5805662108633667
1744475008275907300,3.9689072265625,-0.14970949995219707,1.0711749412953853,-0.7850936349350959
1744475008285904100,3.978904052734375,0.44621758084595203,0.7518991482764482,-0.8982067308306694
1744475008295902200,3.988902099609375,0.9151637108504772,0.5268310404792428,-0.9905150121718644
1744475008305899300,3.998899169921875,1.1725298679232596,0.4273696725130081,-1.0707185027647763
1744475008315896300,4.008896240234375,1.2082207745075224,0.48917847843319173,-1.1351537116657942
1744475008325893000,4.01889306640625,0.981412837305665,0.5802804527245462,-1.1751648926019669
1744475008335891200,4.02889111328125,0.49910570594668385,0.6739303579330443,-1.1281325077921152
1744475008345888300,4.03888818359375,-0.07430208452939986,0.7461679111480712,-0.9985225236691534
1744475008355885300,4.04888525390625,-0.6025719256401062,0.7858550477616488,-0.8255726525787264
1744475008365883100,4.058883056640625,-1.0339736301481723,0.8054914761237799,-0.6230554723508656
1744475008375880200,4.068880126953125,-1.2490402761518955,0.6569160947680472,-0.507622372542508
1744475008385877200,4.078877197265625,-1.155391686117649,0.3977905268073082,-0.5300141274947673
1744475008395874300,4.088874267578125,-0.8869663748919964,0.09079568482115864,-0.6040057943681255
1744475008405872000,4.0988720703125,-0.6371341204553842,-0.22369769622683525,-0.7348622348882258
1744475008415869200,4.108869140625,-0.4211602964788675,-0.4532572702243924,-0.878171658539772
1744475008425866200,4.1188662109375,-0.16258476361632346,-0.6016067338697612,-0.9661305124998092
1744475008435863300,4.12886328125,0.1832750849455595,-0.6930955155216157,-0.9365385073125362
1744475008445861000,4.138861083984375,0.5177560458809137,-0.7138511571720242,-0.7631222608193755
1744475008455858200,4.148858154296875,0.6439461385577917,-0.6852355958014726,-0.528688029990159
1744475008465855200,4.158855224609375,0.6010737960368394,-0.651654667108506,-0.28425511384643615
1744475008475852300,4.168852294921875,0.34102000731527804,-0.6926773631747811,-0.1197168780747801
1744475008485850000,4.17885009765625,-0.03840133458673954,-0.7819912119403482,-0.036134485633298755
1744475008495847200,4.18884716796875,-0.3743669811218977,-0.9331108709514141,0.01857150254435837
1744475008505844200,4.19884423828125,-0.5802753381580114,-1.1037968156978488,0.05882745202183723
1744475008515841300,4.20884130859375,-0.6075117201298474,-1.2802291951417921,0.19207944590896367
1744475008525839000,4.218839111328125,-0.5563286453813314,-1.4750013872660697,0.4518031989585608
1744475008535836200,4.228836181640625,-0.6262012230306864,-1.6794114685684443,0.7342805625427514
1744475008545833200,4.238833251953125,-0.7835662061721086,-1.83103498544842,0.9397921753462404
1744475008555830300,4.248830322265625,-0.9295423648148775,-1.9379870014309881,1.0065173218153416
1744475008565828400,4.258828369140625,-0.9177040429830551,-2.0351034137062727,1.0971261788275093
1744475008575825200,4.2688251953125,-0.8022136234968901,-2.1806674844168126,1.2760194684922694
1744475008585822200,4.278822265625,-0.733434101781249,-2.308559412575513,1.5214359523132444
1744475008595819300,4.2888193359375,-0.7533025853335857,-2.4013082772910592,1.806659545865655
1744475008605817300,4.2988173828125,-0.7755418896704912,-2.4969898344576356,2.030020703614503
1744475008615814100,4.308814208984375,-0.775350166490674,-2.578658648362756,2.079191561757773
1744475008625811200,4.318811279296875,-0.7363321613103151,-2.67902514847517,2.063787802529335
1744475008635808300,4.328808349609375,-0.7000836208432912,-2.8003394518092275,2.0558833130151033
1744475008645806300,4.338806396484375,-0.7726356468349694,-2.8524194753974674,2.0839013468839225
1744475008655803100,4.34880322265625,-0.8844868330359459,-2.8777982468038794,2.1273118879348036
1744475008665800200,4.35880029296875,-1.0678905127972365,-2.942480854594707,2.1639127489708363
1744475008675798300,4.36879833984375,-1.3074182308405637,-3.0044802146509286,2.2616057920902968
1744475008685795300,4.37879541015625,-1.6154115823447703,-2.978817073345184,2.3602403538435697
1744475008695792000,4.388792236328125,-2.056404706540704,-2.8507243619173765,2.4103818105846644
1744475008705789200,4.3987890625,-2.5754244887471196,-2.597964237335324,2.4725644182533024
1744475008715787300,4.408787353515625,-3.0909611050128936,-2.364951015752554,2.545595459933579
1744475008725784300,4.418784423828125,-3.3875469273179766,-2.207023722553253,2.613632346588373
1744475008735781000,4.428781005859375,-3.192019094520807,-2.120905528023839,2.586069801402092
1744475008745778400,4.4387783203125,-2.4769582692980765,-2.1036181470058857,2.5217671328395603
1744475008755776300,4.4487763671875,-1.758745117524266,-2.238823759178817,2.538148358798027
1744475008765773300,4.458773193359375,-1.4790882181882858,-2.438335400915146,2.521624509498477
1744475008775770000,4.46877001953125,-1.7810574870973825,-2.546826170772314,2.452318625821173
1744475008785767400,4.478767333984375,-2.7368074753582476,-2.4983088081017133,2.3571944102764126
1744475008795765200,4.48876513671875,-4.026600617659092,-2.103201236768067,2.3609561008974906
1744475008805762300,4.49876220703125,-5.269519196060299,-1.4723321680568158,2.5127596505194902
1744475008815759000,4.508759033203125,-6.247884920755029,-0.761555596024543,2.680511295379698
1744475008825756400,4.51875634765625,-6.7650231269985435,-0.08604227974899113,2.780594886897504
1744475008835754200,4.528754150390625,-6.64982730654478,0.4660211094032973,2.726514044880867
1744475008845751300,4.538751220703125,-5.89138677380085,0.7818734307795763,2.4805422652646896
1744475008855748000,4.548748046875,-4.62383468940258,0.7979566967047751,2.1879205242849884
1744475008865745400,4.558745361328125,-3.084244363978505,0.6679338939972221,1.846463732987642
1744475008875743200,4.5687431640625,-1.6641513555943965,0.6033111997000873,1.4471499421358107
1744475008885740300,4.578740234375,-0.531558361262083,0.5888945518128573,1.0852541739217936
1744475008895737000,4.588737060546875,0.33184418269097804,0.639737142560631,0.8438928107105195
1744475008905734400,4.598734375,0.944981926009059,0.7549876158110796,0.7096922839269042
1744475008915732200,4.608732177734375,1.302439857906103,0.9013568654246628,0.6529902996264397
1744475008925729300,4.618729248046875,1.4154402141422033,1.037963284306228,0.6646623249806464
1744475008935726000,4.62872607421875,1.2123171039104461,1.1987769465968012,0.7304767132803798
1744475008945723400,4.638723388671875,0.7587029830724,1.3560209337070583,0.7880490506745874
1744475008955721200,4.64872119140625,0.19104396538138388,1.5221207197070121,0.8683082169774919
1744475008965718300,4.65871826171875,-0.45065059485733505,1.717670472075045,1.0539240928955376
1744475008975715000,4.668715087890625,-1.0800327860116958,2.002449536730349,1.2118320968724787
1744475008985713200,4.678713134765625,-1.59029058509171,2.278597551162541,1.2967235260859131
1744475008995710200,4.688710205078125,-1.9355057060092686,2.507941728843748,1.3064026240572333
1744475009005707300,4.698707275390625,-2.0640677885144947,2.6932000965610143,1.2619959115758537
1744475009015704000,4.7087041015625,-1.9685621724367142,2.850100384800136,1.1941858194142578
1744475009025702100,4.7187021484375,-1.6251210754543541,2.987413052254915,1.0773588175620883
1744475009035699200,4.72869921875,-1.1062830795556307,3.060188657869398,0.9409563968200236
1744475009045696300,4.7386962890625,-0.6191553961724042,3.0850249929621816,0.8563427616346627
1744475009055693000,4.748693115234375,-0.26033961992561816,3.089153178808093,0.7923042969662696
1744475009065691100,4.758691162109375,0.08967150309681891,3.137762019154429,0.6908600846197456
1744475009075688200,4.768688232421875,0.46420156582593913,3.238642314007878,0.5514007605250925
1744475009085685200,4.778685302734375,0.8258961123794317,3.2923385406211017,0.4850925973590463
1744475009095682000,4.78868212890625,1.0959253516703844,3.329439898525178,0.49573579112216826
1744475009105680100,4.79868017578125,1.340650053834915,3.3415842175662513,0.5086199687451124
1744475009115677200,4.80867724609375,1.519418475010991,3.336211000095308,0.5177608681865036
1744475009125674200,4.81867431640625,1.6344909613460301,3.2869238220959898,0.4728823734749108
1744475009135671000,4.828671142578125,1.7162714189320802,3.193020672778785,0.4360643625568598
1744475009145669000,4.838669189453125,1.769970860415697,3.0504215893536806,0.4729490089703351
1744475009155666200,4.848666259765625,1.8057132049262523,2.898833436048031,0.5682073722887784
1744475009165663200,4.858663330078125,1.7808973280996083,2.775544910031557,0.6938165232725441
1744475009175660000,4.868659912109375,1.6584101815938947,2.7065947079241273,0.7816312195215374
1744475009185658000,4.878658203125,1.4719693260937927,2.6903651653960345,0.837464458163455
1744475009195655200,4.8886552734375,1.320390525138378,2.722587811347842,0.809169653179869
1744475009205652200,4.89865234375,1.2571955255568026,2.7600495269969105,0.8137917600225657
1744475009215650300,4.908650390625,1.264794894644618,2.815291814008355,0.7763595627289265
1744475009225647000,4.918647216796875,1.3795008857548237,2.8796950203359124,0.7056795411542057
1744475009235644200,4.92864404296875,1.6226567311674356,2.872704138535261,0.6105355249304324
1744475009245641200,4.93864111328125,1.9037024545133112,2.7564257835417982,0.5463500530067831
1744475009255639300,4.948639404296875,2.1290742214322087,2.5900486419051885,0.4536671661995351
1744475009265636000,4.958635986328125,2.2870260645508766,2.4071906133279204,0.31235797645449637
1744475009275633000,4.9686328125,2.4471739564090966,2.254337262392044,0.15942345004118977
1744475009285629700,4.978629638671875,2.476781743687391,2.0906179417878388,0.12698456752281637
1744475009295627800,4.988627685546875,2.182353391677141,1.9816703680738805,0.33261571505274623
1744475009305624800,4.998624755859375,1.8784838421046732,2.0717261943131686,0.4770013896336779
1744475009315622000,5.008621826171875,1.670756452947855,2.2408003199487925,0.4957384214706719
1744475009325618700,5.01861865234375,1.575329747325182,2.3492799838900567,0.42347880255430936
1744475009335616800,5.02861669921875,1.6093682105273008,2.4002909169420596,0.4079775377681479
1744475009345613800,5.03861376953125,1.6766466800302267,2.4752891670420762,0.33400450253002345
1744475009355611000,5.04861083984375,1.6560715095132588,2.6500533210128543,0.10926723412238061
1744475009365607700,5.058607666015625,1.4799427891910075,2.880546668729186,-0.23533275057151912
1744475009375605800,5.068605712890625,1.2646598700881004,3.0765257524251934,-0.4904022115418687
1744475009385602800,5.078602783203125,1.2416735467761755,3.144620214486122,-0.7826070788163692
1744475009395600000,5.088599853515625,1.4482792384266852,3.220311415286362,-1.1890502100914715
1744475009405596700,5.0985966796875,1.6215017159134149,3.3031104022651907,-1.6352157684892414
1744475009415594800,5.1085947265625,1.6324907274395226,3.1535178066909313,-2.1389083638347683
1744475009425591800,5.118591796875,1.4567495451301335,2.686455006214976,-2.62333599447906
1744475009435588900,5.1285888671875,0.9766577517330646,2.047504483987391,-2.9003450096547603
1744475009445586700,5.138586669921875,0.15841595349907875,1.2885460648491978,-2.938257099419832
1744475009455583700,5.148583740234375,-0.9707166712462901,0.6490595360487699,-2.578338914889097
1744475009465580800,5.158580810546875,-2.5449656375974414,0.2717036022439599,-2.0208935404375192
1744475009475577900,5.168577880859375,-4.462410786259174,0.08879793513268232,-1.3345929457530379
1744475009485575700,5.17857568359375,-6.055224167826771,0.04369593386352062,-0.6251138661853969
1744475009495572700,5.18857275390625,-6.809431008523703,0.04025426897704601,-0.2358781094945967
1744475009505569800,5.19856982421875,-6.527295151853561,-0.024010405662655828,-0.28612960248142477
1744475009515566800,5.20856689453125,-5.197067123311758,-0.3006771832719445,-0.6159400873877108
1744475009525564700,5.218564697265625,-3.2493221134543417,-0.7581582086712122,-0.962220791710168
1744475009535561700,5.228561767578125,-1.5031319415986537,-1.370708507490158,-1.2372031233638525
1744475009545558800,5.238558837890625,-0.28798984339535233,-1.9712778611361979,-1.4272580777078867
1744475009555555800,5.248555908203125,0.36306057420969007,-2.3819429209552703,-1.541334977134317
1744475009565554000,5.258553955078125,0.45970425440669055,-2.563674137459695,-1.553506476443261
1744475009575550700,5.26855078125,0.03321720994710922,-2.5245664081692696,-1.3443452550910413
1744475009585547800,5.2785478515625,-0.8387655308246612,-2.322360558912903,-0.9468993039377033
1744475009595544800,5.288544921875,-1.8076017951518295,-2.072928555840254,-0.3701940793514252
1744475009605543000,5.29854296875,-2.728438290941715,-1.8357333723977207,0.41198023407086726
1744475009615539700,5.308539794921875,-3.500754204303026,-1.5295264659188688,0.9549987315021454
1744475009625536800,5.318536865234375,-3.8558506677657363,-1.1542409086473286,1.2537860093742608
1744475009635533800,5.328533935546875,-3.64621715272665,-0.9017677843131124,1.4348194528728722
1744475009645532000,5.338531982421875,-2.9484704503983257,-0.7892104956693947,1.5147589587673544
1744475009655528700,5.34852880859375,-1.9326263511806725,-0.8747821622319519,1.6116547140292823
1744475009665525800,5.35852587890625,-0.9339923299610614,-1.0362108876809477,1.661318324125558
1744475009675522800,5.368522705078125,-0.21728490657508373,-1.149577593011409,1.560601549270749
1744475009685521000,5.37852099609375,0.17508008805215358,-1.1233253997713326,1.4429786478005349
1744475009695517700,5.388517578125,0.3065045742511749,-0.9435711824283003,1.3926879918470978
1744475009705514800,5.3985146484375,0.2784446009367704,-0.7218047465249896,1.3601343603752554
1744475009715511800,5.40851171875,0.25538755047619344,-0.4739708262987435,1.381194391799718
1744475009725510000,5.418510009765625,0.3669283555537462,-0.2563528883770108,1.415696234729886
1744475009735506700,5.428506591796875,0.5464671765804291,-0.07082227958962321,1.4176184349641203
1744475009745504000,5.43850390625,0.7561030297070741,0.00467485994324088,1.3738356995999812
1744475009755501800,5.448501708984375,0.8977636632382869,-0.022498101403564213,1.3873698655642568
1744475009765499000,5.458498779296875,0.921253259897232,-0.14972345541231333,1.4989210459053515
1744475009775495700,5.46849560546875,0.8453975161850452,-0.31581345067061484,1.7112687883391975
1744475009785493000,5.478492919921875,0.6649468410104513,-0.41139162052795286,1.8501111495792866
1744475009795490800,5.48849072265625,0.4705640865951776,-0.3977514369059354,1.9424594706699252
1744475009805487900,5.49848779296875,0.38415830729603767,-0.3762394969955086,2.04012927904427
1744475009815484700,5.508484619140625,0.38554654678404326,-0.4183253653138876,2.214315633127093
1744475009825482000,5.51848193359375,0.3698451197832823,-0.47322336893230676,2.4171038123160598
1744475009835479800,5.528479736328125,0.4121206654548645,-0.5246864296659827,2.6289173017427325
1744475009845476900,5.538476806640625,0.4701338784843683,-0.5749591846365482,2.820741896107793
1744475009855473700,5.5484736328125,0.4998275904804468,-0.5965547111772,2.9611078136533497
1744475009865471000,5.558470947265625,0.4742810612916946,-0.5883361872777343,3.1168399348959324
1744475009875468800,5.56846875,0.35482758339345455,-0.5606120217889548,3.2208617426455017
1744475009885465900,5.5784658203125,0.1905722562164068,-0.49883288035467266,3.3225606604054567
1744475009895462700,5.588462646484375,-0.032599954831600185,-0.4050531382214278,3.3772710324972866
1744475009905460000,5.5984599609375,-0.23960078327953815,-0.3700682610146701,3.4024425908938047
1744475009915457800,5.608457763671875,-0.44207098256051536,-0.38115159976072605,3.5451311061680313
1744475009925454800,5.618454833984375,-0.7135550968348979,-0.3249635563317686,3.8002357480496167
1744475009935451600,5.62845166015625,-1.01745387250185,-0.19751447656974194,4.072527671575546
1744475009945449000,5.638448974609375,-1.3181623276948928,0.03197137460447848,4.3258059748128055
1744475009955446800,5.64844677734375,-1.6922908238857983,0.3275176247287541,4.54940225649178
1744475009965443800,5.65844384765625,-2.1218010155588387,0.657740489828214,4.7664314347401255
1744475009975440600,5.668440673828125,-2.5737743834525344,1.0595153370313346,4.921030168038606
1744475009985438000,5.67843798828125,-3.030401714631915,1.4695812619134783,5.094622647881508
1744475009995435800,5.688435791015625,-3.481620464766025,1.8336968981340527,5.222804206636548
1744475010005432800,5.698432861328125,-3.946598275661468,2.1419044769108293,5.331619386142492
1744475010015429600,5.7084296875,-4.430884013617039,2.399156652215123,5.342858573037385
1744475010025427700,5.718427734375,-4.778304535624384,2.675606572203338,5.212885454690456
1744475010035424800,5.7284248046875,-4.818948680701851,2.847027260965109,5.194636681294441
1744475010045421800,5.738421875,-4.5809652694910765,2.9777532435059544,5.23743946571052
1744475010055418600,5.748418701171875,-4.15182098852098,3.160373663935065,5.281967758744955
1744475010065416700,5.758416748046875,-3.650255029940605,3.311708427001536,5.2464533777713775
1744475010075413800,5.768413818359375,-3.0842770972043274,3.3898128264233467,5.128982013601064
1744475010085410800,5.778410888671875,-2.534173025426268,3.444194112691283,4.937443542701006
1744475010095407600,5.78840771484375,-2.0366244857937095,3.451034772366285,4.690394489242136
1744475010105405700,5.79840576171875,-1.7285493012249469,3.4281714909121392,4.438085323297977
1744475010115402800,5.80840283203125,-1.836836657464504,3.4494428269997237,4.133908899733424
1744475010125399800,5.81839990234375,-2.407086860692501,3.4946278303772207,3.8515725520551203
1744475010135396600,5.828396728515625,-3.2018191885232925,3.539353691810369,3.6661882198706266
1744475010145394700,5.838394775390625,-3.9904742422670125,3.506319437214732,3.6572087946012615
1744475010155391700,5.848391845703125,-4.62752711417973,3.556327622964978,3.7374896612793207
1744475010165388800,5.858388916015625,-5.003799052140116,3.7562569055914876,3.776687406940758
1744475010175385600,5.868385498046875,-5.04114883184731,3.945078811009228,3.670493515849113
1744475010185383700,5.8783837890625,-4.843440147879719,4.029706766980886,3.28186946131587
1744475010195380700,5.888380615234375,-4.5270752738714215,3.9888606695905326,2.7420126427859066
1744475010205377800,5.898377685546875,-4.175965834218263,3.81740549403727,2.282984826336056
1744475010215374600,5.90837451171875,-3.9122611217737195,3.610411095330119,1.792154196781665
1744475010225372700,5.91837255859375,-3.7953923996716736,3.470552835045755,1.3358353470295667
1744475010235369700,5.92836962890625,-3.667026716521382,3.436845503494143,0.9323964390717446
1744475010245366800,5.93836669921875,-3.3955221439808607,3.4778289635285735,0.6717936381652951
1744475010255363600,5.948363525390625,-3.0518519144177434,3.5084389135867355,0.5450711191121489
1744475010265361700,5.958361572265625,-2.6652549817979336,3.5472529206275936,0.44757958991415797
1744475010275358700,5.968358642578125,-2.3025153101056812,3.554578148949146,0.3464766652859747
1744475010285356500,5.9783564453125,-2.0356711305916306,3.5782866490557788,0.2127496742982417
1744475010295353600,5.988353515625,-1.8298592196673154,3.5893712299108502,0.07027575162276625
1744475010305351400,5.998351318359375,-1.6511200245857238,3.5651086030527948,-0.0985339509230107
1744475010315348700,6.0083486328125,-1.3972732738107443,3.5058202555209395,-0.3429230644576251
1744475010325345500,6.018345458984375,-1.0433803409188984,3.4186002372294664,-0.5791389545392245
1744475010335343600,6.028343505859375,-0.6638093614131212,3.27967838101238,-0.7275587800070643
1744475010345340400,6.03834033203125,-0.32329028935730453,3.087112320630252,-0.7744855124853551
1744475010355337700,6.048337646484375,0.03234919494092464,2.914148786340654,-0.794651444614306
1744475010365334500,6.05833447265625,0.34197394703924655,2.729340792739391,-0.801846251489222
1744475010375332600,6.06833251953125,0.5297971968084574,2.5471377209395167,-0.869011762136966
1744475010385329400,6.078329345703125,0.5564625008940697,2.3681667629286647,-0.9713764503292739
1744475010395326700,6.08832666015625,0.5391705898314714,2.189412370277941,-0.99671503585577
1744475010405323500,6.098323486328125,0.5301870729088783,2.011168265236914,-0.9959911054953933
1744475010415321600,6.108321533203125,0.5294733716815709,1.827269495435059,-0.9411464394994079
1744475010425318400,6.118318359375,0.3962123177051544,1.6610437449678779,-0.8068763546109199
1744475010435315700,6.128315673828125,0.17137246570587159,1.5573574527829885,-0.6928409562386572
1744475010445312500,6.1383125,-0.04187281008958816,1.5320979238420724,-0.6964165497031063
1744475010455310600,6.148310546875,-0.17633505654931067,1.5923638842344283,-0.6836327637147158
1744475010465307400,6.158307373046875,-0.17940438099205494,1.686435375855863,-0.6349553151115774
1744475010475304700,6.1683046875,-0.024960838255286215,1.8118951084315775,-0.5797506201641633
1744475010485301500,6.178301513671875,0.24006781626939772,1.937951930117607,-0.5333747630342841
1744475010495299600,6.188299560546875,0.5948901389658451,2.052397516725957,-0.43619478400349615
1744475010505296400,6.19829638671875,0.9745710085868835,2.1736574595242737,-0.36594296124558895
1744475010515293700,6.208293701171875,1.3343886553525923,2.2620830542132255,-0.35824268906656653
1744475010525290500,6.21829052734375,1.6171826836705208,2.321027118352055,-0.37263043965287507
1744475010535288600,6.22828857421875,1.913817021292448,2.3701219886496663,-0.40786680740267034
1744475010545285400,6.238285400390625,2.202483156514168,2.433450551483035,-0.4712748652130365
1744475010555282700,6.24828271484375,2.4884675053060055,2.4612869451746344,-0.5330410375678911
1744475010565279500,6.258279541015625,2.7127099759340285,2.5030720769807693,-0.5522342156745493
1744475010575277600,6.268277587890625,2.8172067077189684,2.5925828365579244,-0.5208092229064554
1744475010585274600,6.278274658203125,2.845915500330925,2.623968447163701,-0.4863182301638648
1744475010595271700,6.288271728515625,2.873027379140258,2.610462192119658,-0.6144622699201107
1744475010605268500,6.2982685546875,2.9052438876122233,2.6003768514350054,-0.8070097717322409
1744475010615266600,6.3082666015625,2.910830163311958,2.547579911749065,-0.9777300571396946
1744475010625263600,6.318263671875,2.8185376640617847,2.3936209376588464,-1.040553154668957
1744475010635260700,6.3282607421875,2.5953660375356673,2.2449787746772167,-0.9317750923030078
1744475010645257500,6.338257568359375,2.1869997561782597,2.241450600551069,-0.8628056009732187
1744475010655255600,6.348255615234375,1.5955787546277045,2.3336226882919666,-0.9291690014578402
1744475010665252600,6.358252685546875,1.2036994976907969,2.4659210347160694,-1.0102575312569737
1744475010675249700,6.368249755859375,1.1156114643931387,2.552482296837866,-1.0520584451541304
1744475010685246500,6.37824658203125,1.0703799915254115,2.485135730534792,-1.0648329518575221
1744475010695244500,6.38824462890625,0.8969161064982414,2.3910803132653236,-0.9480981583334505
1744475010705241600,6.39824169921875,0.5769383026897907,2.423094284902513,-0.728889517154172
1744475010715238700,6.40823876953125,0.28759879825115203,2.5559631246909498,-0.6710309832297265
1744475010725235500,6.4182353515625,0.19689678306281566,2.6263635256066915,-0.7984588010080158
1744475010735233500,6.428233642578125,0.31472645915150643,2.5769430766165256,-0.9139465901456773
1744475010745230600,6.438230712890625,0.6324748964726925,2.484569036562741,-1.0794706951495259
1744475010755227600,6.4482275390625,1.0709072302699087,2.3546862268477677,-1.4040638107337058
1744475010765224700,6.458224609375,1.5797376268953085,2.176354151262343,-1.835376521784067
1744475010775222500,6.468222412109375,2.1000509560436007,1.89790458188951,-2.1665932202264666
1744475010785219600,6.478219482421875,2.2851608552008864,1.5163593797013162,-2.2246362438723444
1744475010795216600,6.488216552734375,1.9277087685227392,1.2373334717452524,-2.1067603905543684
1744475010805213700,6.498213623046875,1.3069599656790494,1.1107687005370854,-2.081631356125325
1744475010815211500,6.50821142578125,0.7589069812119007,1.1124094534814357,-2.1465264376230535
1744475010825208600,6.51820849609375,0.3619564123600721,1.1253414157688617,-2.2629313416056336
1744475010835205600,6.52820556640625,-0.0035199908196926113,0.9603671266674995,-2.3293819819822907
1744475010845202700,6.53820263671875,-0.26314298690855503,0.7292837041035294,-2.409259090165049
1744475010855200500,6.548200439453125,-0.57020694860816,0.46330052533298727,-2.4712977593183516
1744475010865197600,6.558197509765625,-1.0625801314294339,0.20382775136977432,-2.350930089184642
1744475010875194600,6.568194580078125,-1.6899807933777569,0.06069646076411008,-2.0117527871266008
1744475010885192700,6.578192626953125,-2.3238281472474336,-0.0960205798625946,-1.42257985676378
1744475010895189500,6.588189453125,-2.952780130290985,-0.22001184732094406,-0.6826843038834631
1744475010905186600,6.5981865234375,-3.4104631080031393,-0.21309753788784144,-0.1750356643885374
1744475010915183600,6.60818359375,-3.5777626251816748,0.0033548633858561513,-0.023884148934483526
1744475010925181700,6.618181640625,-3.5181355472147464,0.21704861360117791,-0.06073810794875025
1744475010935178500,6.628178466796875,-3.294366539317369,0.3109697369664907,-0.06514898319356142
1744475010945175600,6.638175537109375,-2.9199276620030403,0.19925079884305597,-0.046217634360864755
1744475010955172600,6.648172607421875,-2.420175474846363,-0.20024112505465744,-0.011868716970086096
1744475010965170700,6.658170654296875,-1.9461668007552622,-0.7850117288053036,-0.010695143146067856
1744475010975167500,6.66816748046875,-1.627454486837983,-1.3414157775104045,-0.16594138056784868
1744475010985164500,6.67816455078125,-1.4859697943955659,-1.679390279649943,-0.37540523812845344
1744475010995161600,6.68816162109375,-1.4713842196822167,-1.87568310547024,-0.5470492142520844
1744475011005159700,6.69815966796875,-1.4799199928373097,-1.9701623011097311,-0.7065503326393664
1744475011015156500,6.708156494140625,-1.4528712423920631,-2.0095818728283046,-0.7102424651555717
1744475011025153500,6.718153564453125,-1.3780933570444582,-2.053873726758361,-0.6453573205299675
1744475011035150600,6.728150634765625,-1.1869593752920626,-2.09795939059183,-0.5248457118809223
1744475011045148700,6.738148681640625,-0.9560574467748403,-2.169738824775815,-0.40231633366867897
1744475011055145500,6.7481455078125,-0.639986002755165,-2.2523186160460114,-0.3178992439687252
1744475011065142500,6.758142578125,-0.326297654479742,-2.388465892983228,-0.2763115344308317
1744475011075139600,6.7681396484375,-0.08142682184278964,-2.5858804163098332,-0.2934752890691161
1744475011085137700,6.7781376953125,0.10365911191701889,-2.731094358408451,-0.19963906750828025
1744475011095134500,6.788134521484375,0.11726385889947413,-2.859438414248824,0.132664403257519
1744475011105131500,6.798131591796875,-0.11682429843842983,-2.8709271919906136,0.6272922331377864
1744475011115128600,6.808128662109375,-0.4591840299248695,-2.6948788434281945,1.0622051606371998
1744475011125126700,6.818126708984375,-0.7034159801363945,-2.459407707299292,1.36818264227435
1744475011135123500,6.82812353515625,-0.714772655931115,-2.3568463274911045,1.6074664685592055
1744475011145120500,6.83812060546875,-0.658923342937231,-2.4211932735867796,1.7862983103603123
1744475011155117600,6.84811767578125,-0.4808703765541315,-2.5212632749706505,1.9058423891514538
1744475011165115600,6.85811572265625,-0.18052198684513568,-2.5192004972219464,2.0299831480830908
1744475011175112400,6.868112548828125,0.17076339389681816,-2.5331673555150624,2.1189292595148084
1744475011185109500,6.878109619140625,0.44493806242942807,-2.6627216639280316,2.1161068955704567
1744475011195106600,6.8881064453125,0.668899378028512,-2.8254867525473237,1.9215446929350495
1744475011205104600,6.898104736328125,0.8123416342794895,-3.015810002438724,1.6371774239510297
1744475011215101400,6.908101318359375,0.9216063111186027,-3.2016435396954415,1.3568544619217515
1744475011225098500,6.918098388671875,1.001429789417982,-3.281854848268628,1.2101999656260012
1744475011235095600,6.928095458984375,0.864085265520215,-3.3690669755145906,1.3769512012720106
1744475011245093600,6.93809375,0.4642863214999437,-3.3627263743162152,1.7417548197567463
1744475011255090400,6.94809033203125,0.023850831186771393,-3.092116704788804,1.9747090046286582
1744475011265087500,6.95808740234375,-0.1990565914452076,-2.6845298833712934,2.111580065795779
1744475011275084500,6.96808447265625,-0.2782885335922241,-2.404704933992028,2.2385382202357054
1744475011285082600,6.97808251953125,-0.27584698565900323,-2.3143587465040385,2.378214986473322
1744475011295079400,6.988079345703125,-0.29310791706144806,-2.3456769909620285,2.510273386661708
1744475011305076500,6.998076416015625,-0.33533377837240697,-2.40325137418285,2.536913556306064
1744475011315073500,7.008073486328125,-0.4044885631412267,-2.408917729381472,2.4676231624588367
1744475011325071600,7.018071533203125,-0.49183074650764463,-2.3633871274366975,2.383947684906423
1744475011335068400,7.028068359375,-0.5451256988435983,-2.297707909823954,2.309459722416103
1744475011345065500,7.0380654296875,-0.5773614965379238,-2.205578784441948,2.2569579662844537
1744475011355062500,7.0480625,-0.5407493834555149,-2.1354791200384495,2.1884645680338144
1744475011365060600,7.058060546875,-0.545027499166131,-2.07232912864238,2.104182064498961
1744475011375057400,7.068057373046875,-0.5633692115426063,-2.0594018425300717,1.9702865120112896
1744475011385054500,7.078054443359375,-0.6622586248397827,-2.064694688241184,1.8035490126296876
1744475011395051500,7.088051513671875,-0.9685632926046848,-2.03859593199715,1.6359014126658438
1744475011405049600,7.098049560546875,-1.4569617265760897,-1.8959193994216619,1.3930392895027994
1744475011415046400,7.10804638671875,-1.9824223554849623,-1.6531985844254493,1.0957426885798573
1744475011425043500,7.11804345703125,-2.4808880099624395,-1.4127160498753188,0.8357895837537944
1744475011435040500,7.12804052734375,-2.9323271248489617,-1.2217246914640068,0.6515466766893864
1744475011445038600,7.13803857421875,-3.2473645496457815,-1.1063804755154996,0.4892890992008149
1744475011455035400,7.148035400390625,-3.376149334990978,-1.0499752091392873,0.2784954543411732
1744475011465032700,7.15803271484375,-3.363907693055272,-1.0871913525294512,0.03592603051438927
1744475011475029500,7.168029541015625,-3.4243367350548506,-1.2079813397284596,-0.16343480457440018
1744475011485027600,7.178027587890625,-3.7209997142493725,-1.385753516408801,-0.26034166575223205
1744475011495024400,7.1880244140625,-4.346520553800463,-1.4004744079396128,-0.24389497334212062
1744475011505021700,7.198021728515625,-5.1755771760374305,-1.1478451431956143,-0.303334858173877
1744475011515018500,7.2080185546875,-5.795175055280327,-0.6802098765939474,-0.38251170913279053
1744475011525016600,7.2180166015625,-5.914230473771691,-0.05435315615199506,-0.47566389395222064
1744475011535013400,7.228013427734375,-5.5075616439819335,0.43130664663575585,-0.531082852704823
1744475011545010700,7.2380107421875,-4.6370992446452375,0.6602669395659119,-0.501456214595586
1744475011555007500,7.248007568359375,-3.4361493379235264,0.6256523569762706,-0.3692984456859529
1744475011565005600,7.258005615234375,-2.1182558902978896,0.4796852584227919,-0.3144419431217015
1744475011575002400,7.26800244140625,-0.9362678736776113,0.2889969746112823,-0.412600850187242
1744475011584999700,7.277999755859375,0.027083237236738205,0.16199205842018127,-0.5007568341545761
1744475011594996500,7.28799658203125,0.7603378907978534,0.09063888682425021,-0.5017815010271967
1744475011604994600,7.29799462890625,1.2392635630249977,0.08851312684193254,-0.43705534635558724
1744475011614991400,7.307991455078125,1.5519114623367785,0.18646306733191012,-0.3102450759537518
1744475011624988700,7.31798876953125,1.6344710876017807,0.2516743751719594,-0.07688976293504238
1744475011634985500,7.3279853515625,1.3360972128361464,0.28120675912648435,0.18757322053089737
1744475011644983600,7.337983642578125,0.7663333318203687,0.42544644936546683,0.4266185618847608
1744475011654980400,7.34798046875,0.044571547654271126,0.7059653723582625,0.6221139537170529
1744475011664977700,7.357977783203125,-0.7901660428285598,0.9624664370343089,0.76219082518816
1744475011674974500,7.367974365234375,-1.6383417915552854,1.1111638373345136,0.8222051489070057
1744475011684972500,7.37797265625,-2.4165859259217974,1.2124492058575154,0.7946290135867893
1744475011694969600,7.387969482421875,-2.9807237837493417,1.3108105036273598,0.641010085105896
1744475011704966700,7.397966552734375,-3.298783771237731,1.4191267937004566,0.4184272182531655
1744475011714963500,7.40796337890625,-3.4250621267199515,1.5499848781883716,0.18010989891290663
1744475011724961500,7.41796142578125,-3.400118239599466,1.6596189728617667,-0.100989162055403
1744475011734958600,7.42795849609375,-3.3329835624814033,1.742038897395134,-0.4425955909565091
1744475011744955600,7.43795556640625,-3.1833202397584914,1.8219944776415824,-0.725116063030064
1744475011754952400,7.447952392578125,-2.879239093261957,1.9038100065410135,-0.8443271104745567
1744475011764950500,7.457950439453125,-2.3451228642106057,2.067111686255038,-0.7987519387356936
1744475011774947600,7.467947509765625,-1.6151245820969342,2.239465856474638,-0.658714668622613
1744475011784944600,7.477944580078125,-0.838642781227827,2.4447864767506715,-0.48966786938533186
1744475011794941400,7.48794140625,-0.10334697722792625,2.609494516131282,-0.3974735698126256
1744475011804939500,7.497939453125,0.5232096351116895,2.7228233736693856,-0.39184345497116446
1744475011814936600,7.5079365234375,1.058704166778922,2.794537487532198,-0.39310587612241504
1744475011824933600,7.51793359375,1.5055162063866854,2.7613991880401967,-0.41776773143112655
1744475011834930400,7.527930419921875,1.811515753725171,2.663211201010644,-0.48606370741352434
1744475011844928500,7.537928466796875,2.0104250456541775,2.5769372313976286,-0.6021832916487008
1744475011854925600,7.547925537109375,2.1337767000347374,2.5066040504992007,-0.7562032752111554
1744475011864922600,7.557922607421875,2.21551507204473,2.4417110148280856,-0.834057645394653
1744475011874919700,7.567919677734375,2.252203172972798,2.378943300747871,-0.8233262618914247
1744475011884917500,7.57791748046875,2.268075280365348,2.375679330515861,-0.7364053726769983
1744475011894914600,7.58791455078125,2.269999526426196,2.4230150821864602,-0.6204064922120421
1744475011904911600,7.59791162109375,2.2730817103505134,2.520465987113118,-0.5098833397444338
1744475011914908700,7.60790869140625,2.37217570630908,2.6500550745785234,-0.4128917228925973
1744475011924906500,7.617906494140625,2.5127105506807563,2.7623732937693593,-0.3511511599030345
1744475011934903600,7.627903564453125,2.640544318911433,2.7784394624292847,-0.3280958630081266
1744475011944900600,7.637900634765625,2.6716817999750373,2.7564608548551797,-0.3271002760995179
1744475011954897700,7.647897705078125,2.6941075667947527,2.7173300369501114,-0.349930349403806
1744475011964895500,7.6578955078125,2.7273165934354067,2.6397300799190995,-0.37941593507453797
1744475011974892500,7.667892578125,2.8336481394320723,2.5931027687788006,-0.4288643680501729
1744475011984889600,7.6778896484375,2.970267856186628,2.5552602371186017,-0.4460205969691276
1744475011994886700,7.68788671875,3.200911426028609,2.530337977308035,-0.49669506460838014
1744475012004884500,7.697884521484375,3.4733173313230274,2.502860187795758,-0.5795443570023402
1744475012014881500,7.707881591796875,3.710931324699521,2.4132038822680713,-0.6435138115551322
1744475012024878600,7.717878662109375,3.8202953702598808,2.3226661177307366,-0.722525388949737
1744475012034875600,7.727875732421875,3.7860137459516525,2.2225094609767195,-0.8186626539945602
1744475012044873500,7.73787353515625,3.617038989037275,2.092041837111115,-0.8335752687051892
1744475012054870500,7.74787060546875,3.3281185867935417,2.0233155068874358,-0.7437199334740638
1744475012064867600,7.75786767578125,2.978233135977387,2.031937789282203,-0.6850858120672404
1744475012074864600,7.76786474609375,2.567728673547506,2.0566326700776814,-0.6494293192092329
1744475012084862500,7.777862548828125,1.9984873551011084,2.0586562848597763,-0.7217609804484992
1744475012094859500,7.787859619140625,1.2378724009275435,2.0530963126450774,-0.9146390293892472
1744475012104856600,7.797856689453125,0.40190380734503267,1.9982190595537423,-1.0455731747880577
1744475012114853600,7.807853515625,-0.3418628878802061,2.014398625460267,-1.2283417715162037
1744475012124851500,7.8178515625,-0.5981254676252603,2.1948832029044625,-1.5559139759764073
1744475012134848500,7.8278486328125,-0.41698388757705684,2.255420381453633,-1.8191748901762068
1744475012144845600,7.837845458984375,-0.14633037890791892,2.083871974658966,-2.000780142213404
1744475012154842600,7.847842529296875,-0.03553308567404747,1.834556145311892,-2.207540439903736
1744475012164839400,7.85783935546875,-0.1356347973704338,1.6107763237595558,-2.44319453138411
1744475012174837500,7.86783740234375,-0.5194651878863573,1.4265218723878264,-2.604333480106294
1744475012184834600,7.87783447265625,-1.0965274092167616,1.293193306133151,-2.658972832788527
1744475012194831600,7.88783154296875,-1.6862521282434462,1.237269466598332,-2.5457865985915062
1744475012204828400,7.897828369140625,-2.2637878123044968,1.2601689884096383,-2.24269797026366
1744475012214826500,7.907826416015625,-2.8491870693475008,1.3066653666466475,-1.7656616189144552
1744475012224823600,7.917823486328125,-3.3698259771883485,1.2692442752689121,-1.3287576637282967
1744475012234820600,7.927820556640625,-3.8764942273437977,1.174918224364519,-1.00187892142497
1744475012244817400,7.9378173828125,-4.302443511664867,0.9840987153887748,-0.7722212208151817
1744475012254815500,7.9478154296875,-4.316424690744281,0.7454252760872244,-0.6596379209473728
1744475012264812500,7.9578125,-3.618999475455284,0.5506809948831797,-0.7073619412831962
1744475012274809600,7.9678095703125,-2.2537451417177916,0.36006723761260506,-0.8100249548349528
1744475012284806000,7.977805908203125,-0.7652817769408226,0.17481442285329102,-0.9774710408773273
1744475012294804000,7.987803955078125,0.3594599193692207,-0.06672127401158214,-1.2229194542065263
1744475012304801000,7.997801025390625,1.0079045383900402,-0.26361396542117,-1.5024033350631594
1744475012314797800,8.0077978515625,1.149507888776064,-0.3773069800965488,-1.774070843080431
1744475012324795000,8.017794921875,0.7527829453736543,-0.4066296668231487,-1.9467402167290448
1744475012334793000,8.02779296875,-0.012892799320816993,-0.3041448593825102,-1.896865594230592
1744475012344790000,8.0377900390625,-0.8465864337086677,-0.12148702955245971,-1.5456049095384776
1744475012354786800,8.047786865234375,-1.5387199723303318,0.056501054900884626,-1.1551003750208764
1744475012364784000,8.0577841796875,-2.036415226957202,0.2176195453569293,-0.8605549725022167
1744475012374782000,8.067781982421875,-2.2838445119053126,0.4379832748554647,-0.652817427277565
1744475012384779000,8.077779052734375,-2.1807623230934143,0.5488628395453096,-0.4903106242682784
1744475012394775800,8.08777587890625,-1.7483739456355571,0.3526527235724032,-0.391085695406422
1744475012404773000,8.097773193359375,-1.0599977137207985,-0.029602526581287383,-0.3678619831420481
1744475012414771000,8.10777099609375,-0.3515010693192482,-0.4340305917069316,-0.42122430162578817
1744475012424768000,8.11776806640625,0.23941665888428687,-0.7157230885237454,-0.4090661001898348
1744475012434764800,8.127764892578124,0.6446651004821061,-0.8939468814291059,-0.29155016622543334
1744475012444762000,8.13776220703125,0.8666665141850709,-0.9882719094201922,-0.09712510703839361
1744475012454760000,8.147760009765625,0.9588409400135278,-0.9452193880267441,0.11769348248839377
1744475012464757000,8.157757080078126,0.9604331776410341,-0.9000647797875105,0.39512802959978577
1744475012474753800,8.16775390625,0.8786094654351473,-0.9297459245629608,0.6915725437380373
1744475012484751000,8.177751220703126,0.698228348365426,-1.0309952719245106,0.9944077818267046
1744475012494749000,8.1877490234375,0.4309422703027725,-1.1549444538068026,1.3342059922620653
1744475012504746000,8.19774609375,0.12341828987598419,-1.291436525593698,1.6232760321095585
1744475012514742800,8.20774267578125,-0.03801262753009796,-1.47281396022439,1.8215283214345572
1744475012524740000,8.217739990234374,-0.0014969605594873428,-1.7113959218502044,1.904213911166787
1744475012534738000,8.227738037109376,0.09851181215643882,-2.0188629113927483,1.9055512972503899
1744475012544735000,8.23773486328125,0.2182271558612585,-2.3480527801826594,1.888378044131398
1744475012554731800,8.247731689453126,0.2677262230455875,-2.682574365389347,1.8962997770413754
1744475012564729000,8.25772900390625,0.2224871513932943,-2.970257334792614,1.968557642392069
1744475012574727000,8.267726806640624,0.18314941273927687,-3.1851030315220354,2.017939220676571
1744475012584724000,8.277723876953125,0.1187993979036808,-3.317364553067088,2.0449086222752926
1744475012594720800,8.287720703125,0.08074526931941509,-3.3094127172797916,2.094475932390243
1744475012604718000,8.297718017578125,0.026831308302283287,-3.279946384298801,2.1466896653607486
1744475012614716000,8.3077158203125,-0.049420741251111025,-3.2684888784781094,2.229263903672993
1744475012624713000,8.317712890625,-0.2029553524494171,-3.259405700573325,2.3260274108573795
1744475012634709800,8.327709716796875,-0.424451154717803,-3.2198183710724115,2.4695690358296036
1744475012644707000,8.33770703125,-0.7113023494720458,-3.1391160641118883,2.6558962018221615
1744475012654705000,8.347704833984375,-1.0582003089100123,-3.004576368501782,2.8141233547508713
1744475012664702000,8.357701904296874,-1.364130882665515,-2.861484240862727,2.889507681559026
1744475012674698800,8.36769873046875,-1.5455483570456503,-2.751223538723588,2.902916029186547
1744475012684696000,8.377696044921874,-1.5771920340657233,-2.6354934652626514,2.8484491104617713
1744475012694694000,8.38769384765625,-1.5776415313988923,-2.520104168063402,2.7507912847861644
1744475012704691000,8.39769091796875,-1.5786965934097765,-2.4000413260951636,2.6155975091814994
1744475012714687700,8.407687744140626,-1.6184674627840518,-2.215668216779828,2.4035651163071394
1744475012724685000,8.41768505859375,-1.8265321210712193,-1.9601340974397956,2.095839183567464
1744475012734683000,8.427682861328124,-2.383371638584137,-1.7919041675433516,1.7920976442888379
1744475012744680000,8.437679931640625,-3.012905805429816,-1.5912508084259926,1.5461528988100588
1744475012754676700,8.4476767578125,-3.463139636179805,-1.3223514499478042,1.4141642028570174
1744475012764674000,8.457674072265625,-3.6791748349547384,-1.0889371002182364,1.3975016757391392
1744475012774670800,8.4676708984375,-3.5417438018172978,-0.8786291930489242,1.4083837197594344
1744475012784669000,8.4776689453125,-3.0386621779769656,-0.7201249767445027,1.339868548068404
1744475012794665700,8.487665771484375,-2.477747958371043,-0.6762545630969107,1.1696958135411142
1744475012804663000,8.4976630859375,-2.2291046214580534,-0.7214632396109402,0.9698651689834892
1744475012814659800,8.507659912109375,-2.5749247225314376,-0.7274386607587338,0.7588990901663899
1744475012824658000,8.517657958984374,-3.301170374113321,-0.6751793350808322,0.4833323827534914
1744475012834654700,8.52765478515625,-3.921068697607517,-0.5243262180514633,0.32639965354949235
1744475012844652000,8.537652099609375,-4.251141194450855,-0.25789178838208315,0.30920981462188063
1744475012854648800,8.54764892578125,-4.320678841057419,0.02168400854170322,0.351373132090643
1744475012864647000,8.55764697265625,-4.23041287919879,0.2717994638338685,0.37816732325293123
1744475012874643700,8.567643798828126,-4.019419766244292,0.5186690690726041,0.41969899175465103
1744475012884641000,8.57764111328125,-3.7284623052150008,0.6912528102643788,0.5092718567825854
1744475012894637800,8.587637939453124,-3.280793356516957,0.8207286466136574,0.612298735210672
1744475012904636000,8.597635986328125,-2.745947059625387,0.9187007989354431,0.7040565430622547
1744475012914632700,8.6076328125,-2.0876509086757897,1.072361812992394,0.6674006639033555
1744475012924630000,8.617630126953125,-1.2971680549830198,1.3537144103303551,0.41478864255510267
1744475012934626800,8.627626708984375,-0.5229881013154983,1.547738560566306,0.09829239725209772
1744475012944625000,8.637625,0.08107786227464675,1.639469042019546,-0.09182995977234094
1744475012954622000,8.6476220703125,0.44547523804605005,1.721756572344899,-0.28046748506650326
1744475012964619000,8.657618896484376,0.5059831905007363,1.7432915278047323,-0.42743225288782266
1744475012974615800,8.66761572265625,0.2651438053369522,1.7399042234539985,-0.47541064984351394
1744475012984614000,8.67761376953125,-0.19910101510882378,1.7988710839465258,-0.4590415892468765
1744475012994611000,8.68761083984375,-0.7288596334725618,1.9632196423649786,-0.41323176850192245
1744475013004608000,8.69760791015625,-1.1861357839494944,2.125642493417859,-0.43144963530302044
1744475013014604800,8.707604736328125,-1.5302321299701929,2.334268000458181,-0.4792248743694275
1744475013024603000,8.717602783203125,-1.7529963447391985,2.5045307513564823,-0.5585558929767459
1744475013034600000,8.727599853515626,-1.889379914650321,2.6445158528909087,-0.6477350094467401
1744475013044597000,8.737596923828125,-1.8634066844820976,2.783992128120363,-0.6921984205514192
1744475013054593800,8.74759375,-1.6529817268043756,2.880019137723744,-0.7296987146452069
1744475013064592000,8.757591796875,-1.2816887463003397,2.9824282495796677,-0.735008219230175
1744475013074589000,8.7675888671875,-0.7234674190402031,3.0372438356116414,-0.7309345400504768
1744475013084586000,8.7775859375,-0.07035831533968448,3.06526786082983,-0.7361488406326622
1744475013094582800,8.787582763671875,0.6247656372696161,3.0562121554538604,-0.7644003909964114
1744475013104580900,8.797580810546876,1.2834855665892362,3.0090935536652803,-0.8581598940592259
1744475013114578000,8.807577880859375,1.8483119912028312,2.9486037213891745,-0.9743116269983351
1744475013124575000,8.817574951171874,2.263324870967865,2.8800390114679932,-1.0276927232477813
1744475013134572000,8.827572021484375,2.5504186423063278,2.848137852555513,-1.0090143993280827
1744475013144568800,8.83756884765625,2.769621949723363,2.8088772707909344,-0.921622677731514
1744475013154567000,8.84756689453125,2.9543752905279397,2.8018741140305994,-0.8284332296416163
1744475013164564000,8.85756396484375,3.063603142488003,2.8199311642467975,-0.7726622425809502
1744475013174561000,8.86756103515625,3.0777532483935355,2.776436890435219,-0.7592791755251586
1744475013184557800,8.877557861328125,3.0950381451934574,2.6984242609500884,-0.7998008632667363
1744475013194556000,8.887555908203124,3.0905262207269666,2.570783384943008,-0.9347272201068699
1744475013204553000,8.897552978515625,3.066456193831563,2.389582183662057,-1.0779905395943672
1744475013214550000,8.907550048828124,2.965476530256867,2.165838894727826,-1.0615867364779115
1744475013224546800,8.917546875,2.815919590517878,1.9320207865029573,-0.982141005449742
1744475013234545000,8.927544921875,2.661615748512745,1.8055688280194997,-0.8870406091719866
1744475013244542000,8.9375419921875,2.5502023692071436,1.744562278392911,-0.8726165816958993
1744475013254539000,8.9475390625,2.4853601869404316,1.6803472881138324,-0.910754223845154
1744475013264535800,8.957535888671876,2.509037415125966,1.6136866582483052,-1.0057589046634734
1744475013274534000,8.967533935546875,2.59767372995615,1.5167361040592193,-1.1126550988055766
1744475013284531200,8.97753125,2.7481694118499753,1.3587678943276404,-1.2125417064465582
1744475013294528300,8.9875283203125,2.8690894551694393,1.1691361338317394,-1.2731947664603591
1744475013304525000,8.997525146484374,2.9388030428647993,0.9561164834856987,-1.2586439707994461
1744475013314523100,9.007523193359376,2.8022616520434616,0.7931804222136736,-1.1967869418233632
1744475013324520200,9.017520263671875,2.4460399839431046,0.7755728693306445,-1.0972316119633614
1744475013334517200,9.027517333984376,2.124629516983032,0.9045213208049535,-1.0404050514351575
1744475013344514000,9.03751416015625,1.808638152462244,1.011359062758088,-1.0001768667474389
1744475013354512100,9.04751220703125,1.5260720876812934,1.0657014783203602,-1.0145150425709784
1744475013364509200,9.05750927734375,1.2701613901138304,1.0105176434978842,-1.072756949789822
1744475013374506200,9.06750634765625,0.9362479999333619,0.9450622977688908,-1.1058438113555311
1744475013384503000,9.0775029296875,0.5218465300649404,0.9149027218267322,-1.0630755867961794
1744475013394501000,9.087501220703125,0.057469023150205606,0.9966372944444417,-0.8805774045072495
1744475013404498200,9.097498291015626,-0.23228958348333834,1.1458180943474172,-0.7367845812529326
1744475013414495200,9.1074951171875,-0.30716391494274137,1.2700295804277062,-0.6930183586321771
1744475013424492000,9.117491943359376,-0.14833821159899233,1.4095038098305464,-0.71650510574691
1744475013434490000,9.127489990234375,0.13424538883864878,1.4658999430522321,-0.735416507770121
1744475013444487200,9.137487060546874,0.4985205995351076,1.4174404480487108,-0.9064680709585546
1744475013454484200,9.147484130859375,0.9989192679017782,1.4368337153047321,-1.2919525122918187
1744475013464481000,9.15748095703125,1.3283850310236214,1.4432713471367955,-1.7398684214882552
1744475013474479000,9.16747900390625,1.1537445034325122,1.3115721356496215,-2.108474793256819
1744475013484476200,9.17747607421875,0.3653425476670265,1.2110901924639939,-2.2966448106370865
1744475013494473200,9.18747314453125,-0.8342185350447893,1.221201836633682,-2.352674448633939
1744475013504470000,9.197469970703125,-1.9619512298643589,1.3104708964094518,-2.267107458246499
1744475013514468000,9.207468017578124,-2.7131723327487705,1.448693956707418,-2.121335297743231
1744475013524465400,9.21746533203125,-3.0421389141768214,1.5152169316679238,-1.8406939174145458
1744475013534462200,9.227462158203124,-3.1634727989941833,1.4830591676458715,-1.32725471181944
1744475013544459000,9.237458984375,-3.181231743046641,1.3460297010466455,-0.7279488022379577
1744475013554456300,9.247456298828125,-3.0601825203895565,1.127623681487143,-0.11622373872939497
1744475013564454400,9.257454345703126,-2.776501772364974,0.9543117721512913,0.404808881136775
1744475013574451200,9.267451171875,-2.2396277690380813,0.9340516589328646,0.6953491396673023
1744475013584448000,9.277447998046876,-1.5277274536728858,0.9646101710647345,0.797871429574117
1744475013594445300,9.2874453125,-0.7756926963180303,0.9690070908494293,0.758833989040926
1744475013604443400,9.297443359375,-0.0764706607401371,0.9454946978367864,0.581639977574721
1744475013614440200,9.307440185546875,0.29965806935727596,0.9028833443395793,0.18098609722554682
1744475013624437000,9.31743701171875,0.19726094020009038,0.7998708597630262,-0.38066834628842766
1744475013634434300,9.327434326171876,-0.29326924510300156,0.6299655440002679,-0.8162753204666078
1744475013644432400,9.337432373046875,-0.8343348549008369,0.4582267292000353,-1.146203732664138
1744475013654429200,9.34742919921875,-1.2348416549295187,0.4248780018277466,-1.2924462871581315
1744475013664426000,9.357426025390625,-1.5182354027062654,0.4888755499638617,-1.3477851664118468
1744475013674423300,9.36742333984375,-1.544890769919753,0.4479145940221846,-1.2649370795942843
1744475013684421400,9.37742138671875,-1.226506372782588,0.24473902295082806,-1.09704324978441
1744475013694418200,9.387418212890625,-0.6849637931227683,-0.05306085131913423,-0.9101603496052324
1744475013704415200,9.397415283203125,-0.18288988502025602,-0.28796017890945075,-0.6632407677449286
1744475013714412300,9.407412353515625,0.10721125144064426,-0.45588250416144727,-0.29794936574324965
1744475013724410400,9.417410400390626,0.21717384741604326,-0.6291682561427354,0.08500204998105763
1744475013734407200,9.4274072265625,0.20752689814865588,-0.721847855014354,0.33518852468281984
1744475013744404200,9.437404296875,0.13175298750102518,-0.7282434012703597,0.6028830374158919
1744475013754401300,9.4474013671875,0.060819502621889114,-0.7248679334878921,0.9057856416523457
1744475013764399400,9.4573994140625,0.04942015672922134,-0.714211880243197,1.1772295700468123
1744475013774396200,9.467396240234375,0.002118307328224182,-0.7882099403247237,1.4196182304792104
1744475013784393200,9.477393310546875,-0.06723346131742,-0.9044939213413745,1.604419940470159
1744475013794390300,9.487390380859376,-0.2079401551246643,-1.0232267568148672,1.6951996970698235
1744475013804388400,9.497388427734375,-0.3478314408957958,-1.1785635951295494,1.7765552072420716
1744475013814385200,9.50738525390625,-0.5219850617527961,-1.3724005522303282,1.8638176033705471
1744475013824382200,9.51738232421875,-0.7341098090857267,-1.5577677871495483,2.0137198494158683
1744475013834379300,9.527379150390624,-0.8872942916721105,-1.6846341716527937,2.224739119724929
1744475013844376000,9.5373759765625,-0.95969492649436,-1.7777471935056148,2.4444990381114184
1744475013854374100,9.5473740234375,-0.9814806418448686,-1.820641309466958,2.593398829115927
1744475013864371200,9.55737109375,-1.0200134938567875,-1.8298241483539341,2.6374551207244394
1744475013874368300,9.5673681640625,-0.9803460848569869,-1.8491341212406753,2.633857973015308
1744475013884365300,9.577365234375,-0.9359440485507249,-1.9140506839178502,2.584644737035036
1744475013894363100,9.587363037109375,-0.9759487266808747,-2.0573545546114445,2.525594582173228
1744475013904360200,9.597360107421874,-1.1631956378668546,-2.158499930141866,2.5520024043664336
1744475013914357200,9.607357177734375,-1.3399018658161161,-2.182118121616542,2.6308421323254705
1744475013924354300,9.617354248046874,-1.4265928917974233,-2.171085709340125,2.647123112779856
1744475013934352100,9.62735205078125,-1.4110557154476642,-2.165863152386248,2.560868140128255
1744475013944349200,9.63734912109375,-1.276259122467041,-2.1978470211461185,2.455091889926791
1744475013954346200,9.64734619140625,-1.0729296760082245,-2.2845595283068714,2.2637049563266336
1744475013964343300,9.65734326171875,-0.9080296211868524,-2.4061649235419926,2.0620041339829562
1744475013974341000,9.667341064453124,-0.9160632900387048,-2.571796361377835,1.8797043238103388
1744475013984338200,9.677338134765625,-1.0498533363252878,-2.6513512518689035,1.7390471682332456
1744475013994335200,9.687335205078124,-1.1870341940939426,-2.649815420603752,1.6303765117645264
1744475014004332300,9.697332275390625,-1.321910866573453,-2.5596263233736156,1.6086631309978663
1744475014014330000,9.707330078125,-1.4075970994263887,-2.4553750907823444,1.5882696006581187
1744475014024327200,9.7173271484375,-1.4863281063139437,-2.3557623316466807,1.6157644874356687
1744475014034324200,9.72732421875,-1.5835551393568514,-2.150541956874728,1.64656265354231
1744475014044321300,9.7373212890625,-1.7788643609672783,-1.9527458868846297,1.5838381940819322
1744475014054319000,9.747319091796875,-2.048269330880046,-1.7044804433733225,1.4069228534266351
1744475014064316200,9.757316162109374,-2.334796700507402,-1.447068255201727,1.203054623916
1744475014074313200,9.767313232421875,-2.621810392346978,-1.258178837505728,1.0350004889778792
1744475014084310300,9.777310302734374,-2.8352812935918568,-1.1224549736123532,0.8945363717548549
1744475014094307000,9.78730712890625,-2.9140391884863375,-0.9907419527955352,0.8387341127730905
1744475014104305200,9.79730517578125,-2.869520247802138,-0.7921102356988936,0.7616955159518868
1744475014114302200,9.80730224609375,-2.5293793614089486,-0.5624231628641486,0.6606179449606686
1744475014124299300,9.81729931640625,-1.8431798890113829,-0.3680205347046256,0.5783516766190528
1744475014134296000,9.827296142578126,-1.1568079826563595,-0.2302295822136104,0.514382989251241
1744475014144294100,9.837294189453125,-0.8670049523591995,-0.1691239561267197,0.40683585691973567
1744475014154291200,9.847291259765624,-1.1306436138302087,-0.08399623393937945,0.031082755201682445
1744475014164288300,9.857288330078125,-1.8273931218147277,-0.0024975159041583537,-0.4650673888750374
1744475014174285000,9.86728515625,-2.4333166959702965,0.15734335583150386,-0.7692925469521432
1744475014184283100,9.877283203125,-2.864511479729414,0.3971832085639238,-0.9922672626666724
1744475014194280200,9.8872802734375,-3.2722470619678496,0.6059821724750101,-1.0723835133675486
1744475014204277200,9.89727734375,-3.6014223177105187,0.8325636074446141,-0.9593812574353069
1744475014214274000,9.907274169921875,-3.760308226808905,1.1260327590338886,-0.7577589802205562
1744475014224272100,9.917272216796874,-3.5766496955037117,1.4404767479822038,-0.5833618329312652
1744475014234269200,9.927269287109375,-3.1656676786899567,1.702887767354399,-0.47097610146217045
1744475014244266200,9.937266357421874,-2.46553788061738,1.9050987311773,-0.489016712000221
1744475014254263000,9.947262939453125,-1.5111001439988612,1.970400786040723,-0.5992906754797325
1744475014264261000,9.95726123046875,-0.47028877678513525,1.8709449710324406,-0.70712411393933
1744475014274258200,9.967258056640626,0.4115630315721035,1.7115768313750623,-0.7730728692084551
1744475014284254700,9.977254638671875,0.9198024765670298,1.5180913180604576,-0.7660741694275289
1744475014294251800,9.987251708984376,1.0508318259686231,1.366441205434501,-0.6508479538355022
1744475014304248800,9.997248779296875,0.9304700010538101,1.396533269098401,-0.5550223850883543
1744475014314247000,10.007246826171874,0.6659469579637051,1.547885860082507,-0.5146677975419909
1744475014324243700,10.01724365234375,0.4142342966079712,1.7371546324849128,-0.4755338012991473
1744475014334240800,10.02724072265625,0.23718086265623567,1.8996040792837738,-0.46846426477171477
1744475014344237800,10.03723779296875,0.1501654270261526,1.9556635278970003,-0.4952904585074633
1744475014354236000,10.04723583984375,0.026478257080912587,1.8764269095748662,-0.565040578820929
1744475014364232700,10.057232666015626,-0.18128011173605918,1.8186928057476877,-0.6122962144600227
1744475014374229800,10.067229736328125,-0.41033144395053384,1.8025410046309231,-0.6852217864718287
1744475014384226800,10.077226806640626,-0.5478256054520607,1.811924042265117,-0.728592141642794
1744475014394225000,10.087224853515625,-0.49048693068325516,1.9339079154238104,-0.778053799426183
1744475014404221700,10.0972216796875,-0.21761282335519788,2.1015096304193137,-0.8152441507879644
1744475014414219000,10.107218994140625,0.18688333857059478,2.2139494301632046,-0.8346167405821383
1744475014424215800,10.1172158203125,0.5881950252413749,2.269193763001263,-0.8614115893315524
1744475014434214000,10.1272138671875,0.9226531898230313,2.2175132601246235,-0.8898908840365707
1744475014444210700,10.137210693359375,1.2573112608909607,2.1482862869024277,-0.8849104652754962
1744475014454208000,10.1472080078125,1.5511153435230254,2.0589412392809985,-0.8849431985013186
1744475014464204800,10.157204833984375,1.8291998789757489,1.9860887690380213,-0.894033536799252
1744475014474203000,10.167202880859374,2.0615543443888424,1.9673457823842764,-0.9033776306625455
1744475014484199700,10.17719970703125,2.34203775767684,1.9983187205359338,-0.9047215195521712
1744475014494197000,10.187197021484375,2.6148037284553047,2.0008222277894614,-0.8763559143546968
1744475014504193800,10.19719384765625,2.898054852890968,2.001080294203758,-0.8178988300152122
1744475014514190600,10.207190673828125,3.1549265044450756,1.9896601977840065,-0.7953443953145295
1744475014524188700,10.217188720703126,3.3770962604522703,1.9950538735210894,-0.8133924585066735
1744475014534186000,10.22718603515625,3.545792200425267,1.97432351244241,-0.9272655059240758
1744475014544182800,10.237182861328124,3.631783553704619,1.9076444701373576,-1.1016647721052168
1744475014554179800,10.247179931640625,3.6154116800963876,1.7859078497380017,-1.2447750199228524
1744475014564177700,10.257177734375,3.506886423447728,1.6692355269908905,-1.2796505184710025
1744475014574175000,10.267175048828125,3.269956320682168,1.5241697611913083,-1.194025002829358
1744475014584171800,10.277171875,2.9721254667520522,1.466308523853123,-1.1091891762606798
1744475014594168800,10.2871689453125,2.6863123828738926,1.5360530912086368,-1.0429235370621084
1744475014604166700,10.297166748046875,2.506715109658241,1.6832240125939248,-0.9953153981909155
1744475014614164000,10.3071640625,2.4225071326643226,1.787143821273744,-0.9708937813788652
1744475014624160800,10.317160888671875,2.413162965735793,1.7914663606479764,-0.9809882552180439
1744475014634157800,10.32715771484375,2.3808003267914057,1.6883979081004856,-1.0114781590931117
1744475014644155600,10.33715576171875,2.236950074261427,1.5322867244124412,-0.9823549404613673
1744475014654153000,10.347153076171875,2.0185580832272767,1.4242518816292284,-0.8772261943832039
1744475014664149800,10.357149658203125,1.7748112861841916,1.371126440641284,-0.8245431634005158
1744475014674146800,10.367146728515625,1.5392419503778219,1.321567459963262,-0.8223155504789202
1744475014684144600,10.37714453125,1.3109376371383665,1.2392431047588586,-0.8644202696282416
1744475014694142000,10.387141845703125,1.1671475903630255,1.1911483514145016,-0.913247794226557
1744475014704138800,10.397138671875,1.113719951558113,1.1563248753145337,-0.9204157861597836
1744475014714135800,10.4071357421875,0.9758622174412012,1.1494205027535558,-0.915254457873851
1744475014724132900,10.4171328125,0.7189683540552854,1.08449181124717,-0.8194098921652883
1744475014734131000,10.427130859375,0.36164544671475884,1.072009054031968,-0.6930695042975247
1744475014744127700,10.437127685546875,-0.020516133806109428,1.0397574742466211,-0.6202518131069839
1744475014754124800,10.447124755859376,-0.32804829753935333,0.9433090243607759,-0.629235330029577
1744475014764121900,10.457121826171875,-0.5013561152219772,0.8449152856260538,-0.6760694157883524
1744475014774120000,10.467119873046874,-0.5530734429776668,0.6995531672284007,-0.6350380980242043
1744475014784116700,10.47711669921875,-0.48025779761373993,0.5271124877691269,-0.5920898772554472
1744475014794113800,10.48711376953125,-0.16725450899302957,0.43119449149817224,-0.7906451315823942
1744475014804110800,10.49711083984375,0.30203648892641066,0.454306194755435,-1.2432134696945547
1744475014814109000,10.50710888671875,0.5623585731953382,0.4696376194000244,-1.6706915710180996
1744475014824105700,10.517105712890626,0.3778437173217535,0.4241898734331131,-1.8344259430609642
1744475014834102800,10.527102783203125,-0.40986616452634334,0.3039370618507266,-1.8445991081595419
1744475014844099800,10.537099853515626,-1.754314441600442,0.3057141545258462,-1.7984405835747719
1744475014854098000,10.547097900390625,-3.096653763696551,0.5064626445807516,-1.5761800805442034
1744475014864094700,10.5570947265625,-4.046034216925501,0.8005829535551369,-1.282360508082062
1744475014874091800,10.567091796875,-4.7200703733205795,0.9693893681652843,-0.9647869158711284
1744475014884088800,10.5770888671875,-5.103261296889186,1.017506479471922,-0.7179233750469982
1744475014894086000,10.5870859375,-5.227215593338013,0.8964619329899549,-0.5763409943837672
1744475014904083700,10.597083740234375,-5.182636446899175,0.5279368097640573,-0.44635940046943723
1744475014914080800,10.607080810546876,-4.928789696124196,0.0538221180152148,-0.22290661891438066
1744475014924077800,10.617077880859375,-4.564093629667163,-0.3253951526820659,-0.10470708659999071
1744475014934075000,10.627074951171876,-4.185909720605611,-0.6246303204521536,-0.007070522908121347
1744475014944072700,10.63707275390625,-3.6530391077011823,-0.8070599675495177,0.17144575013779104
1744475014954069800,10.64706982421875,-2.817790645086765,-0.8900210132222622,0.3302070830084383
1744475014964066800,10.65706689453125,-1.5692729315042495,-0.7328426386941224,0.28237989455908535
1744475014974063900,10.66706396484375,-0.2064753432691097,-0.5581891785562038,0.03916640067510307
1744475014984061700,10.677061767578126,0.972844915446639,-0.46852498198300596,-0.23955752865970134
1744475014994058800,10.687058837890625,1.7872008121579885,-0.42264191333875056,-0.5288386539746076
1744475015004055800,10.697055908203126,2.2410294525295495,-0.4692327649261802,-0.8122074865058064
1744475015014052900,10.707052978515625,2.4015502693533897,-0.4978361244022846,-0.9595845249224454
1744475015024050700,10.71705078125,2.170639573007822,-0.44979646224603054,-1.0261823186848311
1744475015034047700,10.7270478515625,1.4058254135787487,-0.27621976449415087,-1.0511638344019651
1744475015044044800,10.737044921875,0.4231161067217588,-0.044990576783940195,-1.0503116014868021
1744475015054041900,10.747041748046875,-0.3545551961928606,0.13425159938372672,-0.9763381643898784
1744475015064038700,10.75703857421875,-0.7965881848305464,0.3275748348087072,-0.8404366789072751
1744475015074036700,10.76703662109375,-1.0597656585305928,0.42393845595531165,-0.69388929624781
1744475015084033800,10.77703369140625,-1.2078297293633222,0.3606704642027616,-0.45158626827225085
1744475015094030800,10.78703076171875,-1.1662374897807837,0.2769430372674018,-0.108015553560853
1744475015104027600,10.797027587890625,-0.7847492784768343,0.1919838035147637,0.19015593050047755
1744475015114025700,10.807025634765624,-0.24072423435151574,0.15203494722507893,0.3259915111400187
1744475015124022800,10.817022705078125,0.16227204440534113,0.07961268509291113,0.37046076746359463
1744475015134019800,10.827019775390625,0.1684475181698799,-0.050493850375339384,0.5099637845695019
1744475015144016600,10.8370166015625,-0.08466098145842552,-0.18400157258920372,0.6280794379927218
1744475015154014700,10.8470146484375,-0.2703881357312202,-0.24044388304017483,0.5761078432150185
1744475015164011800,10.85701171875,-0.10217208822965622,-0.24261435894705355,0.572024373293668
1744475015174008800,10.8670087890625,0.2668944483965635,-0.31744952743984756,0.6461085772886872
1744475015184005600,10.877005615234374,0.610520838817954,-0.4799596183847636,0.7455158769801259
1744475015194003700,10.887003662109375,0.8672627265125512,-0.6695217477105557,0.8052728649370372
1744475015204000800,10.897000732421875,0.9510662143588066,-0.8861678449254482,0.8285888585947454
1744475015213997800,10.906997802734375,0.8787322150319814,-1.0843822864580899,0.8870822563566267
1744475015223994600,10.91699462890625,0.7345657361596822,-1.2568703852556644,0.9196715436637402
1744475015233992000,10.926991943359376,0.6127385148674249,-1.385855077087134,0.9239379689365624
1744475015243989800,10.93698974609375,0.5488350747555494,-1.4912562103658913,1.0063678303420542
1744475015253986800,10.94698681640625,0.490726000136137,-1.588008027112484,1.1090171806946396
1744475015263983600,10.956983642578125,0.45258127065896986,-1.6759012684904038,1.2329743997529148
1744475015273981000,10.96698095703125,0.3386848423659801,-1.800108662917465,1.2783002729058266
1744475015283979800,10.976979736328126,0.22805296882688997,-1.926790923025459,1.3115334110744297
1744475015293976800,10.986976806640625,0.17648060249984263,-2.043968126554787,1.3247421444766223
1744475015303973600,10.9969736328125,0.21018062752783298,-2.113097630751878,1.3537525503836572
1744475015313970700,11.006970703125,0.24168168120682237,-2.1965777318626643,1.3791158319599925
1744475015323968800,11.01696875,0.228552735042572,-2.261227898688614,1.3999262725375592
1744475015333965800,11.0269658203125,0.23577976368665693,-2.293739298453927,1.4127527286238968
1744475015343962600,11.036962646484374,0.28110592910051346,-2.335578498534858,1.411647251600027
1744475015353959700,11.046959716796875,0.288995805567503,-2.3852535068079828,1.332414724931121
1744475015363957800,11.056957763671875,0.1419090553343296,-2.427346097128093,1.219610329658538
1744475015373954800,11.066954833984376,0.03777472712099552,-2.389130640502274,1.1540037388905882
1744475015383951600,11.07695166015625,0.029434184277057646,-2.4223002119153736,1.1204587582938372
1744475015393948700,11.08694873046875,0.053309565383195874,-2.3985708151511846,1.035630165183544
1744475015403945700,11.09694580078125,-0.1429495042979717,-2.356759525990486,0.957185427891463
1744475015413943800,11.10694384765625,-0.6662444796055554,-2.3213696481794117,0.9335540846742689
1744475015423940600,11.116940673828125,-1.2106523855686186,-2.0882041586443782,0.838550572899729
1744475015433937700,11.126937744140625,-1.6107120263516903,-1.8279804201833902,0.7450948750890791
1744475015443934700,11.136934814453125,-1.8092624218404292,-1.625215621870011,0.7114431461822242
1744475015453932800,11.146932861328125,-1.9391683201700447,-1.4684835298046468,0.6826498170919716
1744475015463929600,11.1569296875,-2.1043752489835024,-1.3444856864750385,0.6540340365257113
1744475015473926700,11.1669267578125,-2.2809780165582896,-1.2813862562224267,0.5641697873357683
1744475015483923700,11.176923828125,-2.321451481243968,-1.1734192179784178,0.37279439804293213
1744475015493921800,11.186921875,-2.1592320438086987,-1.1194368679001927,0.17133805197961627
1744475015503918600,11.196918701171874,-1.8837246653676032,-1.1034959330551326,0.029783216910436748
1744475015513916000,11.206916015625,-1.549544148683548,-1.0015767966732383,-0.0927335940811783
1744475015523912700,11.21691259765625,-1.1962333995938301,-0.9656922672130167,-0.221952971451357
1744475015533910800,11.226910888671876,-0.8523696932852268,-0.8938771771937608,-0.41159393816702067
1744475015543907600,11.236907470703125,-0.7633680522739886,-0.9498565463081001,-0.48611112675182516
1744475015553905000,11.24690478515625,-1.089092290779948,-1.0909861417025326,-0.580749312345311
1744475015563901700,11.256901611328125,-1.8114754217147826,-1.0982137548685074,-0.8578198484499007
1744475015573898800,11.266898681640624,-2.729327348735928,-0.911985226944834,-1.178305236454308
1744475015583896600,11.276896484375,-3.587420680364966,-0.6471249147243797,-1.3326479491651058
1744475015593894000,11.286893798828125,-4.438633604830503,-0.4608148459970951,-1.3238976564764975
1744475015603890700,11.296890625,-5.32360325294733,-0.286826644834876,-1.2829919378533958
1744475015613887700,11.3068876953125,-6.007264146777987,0.004012450511753559,-1.299633276052773
1744475015623885600,11.316885498046876,-6.292034443604946,0.41269904986470934,-1.280944796065241
1744475015633883000,11.3268828125,-6.022581542897224,0.8084593860186636,-1.1687566329948604
1744475015643879700,11.336879638671874,-5.211689522904157,1.061344013763219,-1.0011419854525476
1744475015653876700,11.346876708984375,-4.002654509404302,1.170553453283757,-0.7936551270533353
1744475015663874600,11.35687451171875,-2.600812027981877,1.3288900579363108,-0.6993605672657489
1744475015673872000,11.366871826171876,-1.2890472923696041,1.5537798865571617,-0.773634302483499
1744475015683868700,11.37686865234375,-0.2502005032271147,1.82171916783154,-0.9823160697557032
1744475015693865700,11.38686572265625,0.6013520284563303,2.1407649514868856,-1.2559756283730268
1744475015703862800,11.39686279296875,1.2392512880653141,2.3883456276044246,-1.4104524888575076
1744475015713860900,11.40686083984375,1.718907028132677,2.5447195538818836,-1.4586137315668164
1744475015723857700,11.416857666015625,1.9713883357733486,2.607345813664794,-1.4427560910910366
1744475015733854700,11.426854736328124,1.9705437016427516,2.588672677376866,-1.3568660062290727
1744475015743851800,11.436851806640625,1.7609172008663414,2.511937520481646,-1.228674510601908
1744475015753849900,11.446849853515625,1.382049401193857,2.4490000027924776,-1.072505313116312
1744475015763846700,11.4568466796875,0.8863269079446792,2.4247791692495344,-0.8923461682341992
1744475015773843700,11.46684375,0.46814767310321326,2.499907767730951,-0.7663209107302129
1744475015783840800,11.4768408203125,0.1830488749742508,2.6348642274484035,-0.7781503916684538
1744475015793838800,11.4868388671875,0.024601941815018652,2.71870278660804,-0.8482926531046628
1744475015803835600,11.496835693359374,-0.15588672728240488,2.698606047257781,-0.9641890230432152
1744475015813832700,11.506832763671875,-0.2949994298964739,2.651663094297051,-1.091334589814022
1744475015823829800,11.516829833984374,-0.3356792308092117,2.640479436981678,-1.172493262239918
1744475015833826800,11.526826904296875,-0.31564532756209374,2.650501357041299,-1.2244210178758947
1744475015843824600,11.53682470703125,-0.27352409566938873,2.644892869509756,-1.2138129684913903
1744475015853821700,11.54682177734375,-0.23878712880909442,2.6880352611437437,-1.1641421980019657
1744475015863818800,11.55681884765625,-0.210327927044034,2.763073258732259,-1.0868243458479643
1744475015873815800,11.56681591796875,-0.14783727633953095,2.8045433332398533,-1.0417500363033265
1744475015883813600,11.576813720703125,-0.0239724117398262,2.780165847830474,-0.9980456999376416
1744475015893810700,11.586810791015624,0.14472235918939114,2.742954892072081,-0.9680549777563661
1744475015903807700,11.596807861328125,0.31439269715249535,2.7631869482398033,-0.9782629949726164
1744475015913804800,11.6068046875,0.4745253914415836,2.7779157308161255,-1.0725395807120948
1744475015923802600,11.616802734375,0.6021019700407981,2.768037895402312,-1.1551191527865827
1744475015933799700,11.626799560546875,0.6899661314547062,2.710287717223167,-1.2798524707838892
1744475015943796700,11.636796630859376,0.837066910213232,2.614016961991787,-1.3674924680531024
1744475015953793800,11.646793701171875,1.0593056398034095,2.4985253734618422,-1.3662963901363312
1744475015963790600,11.65679052734375,1.3273632867604492,2.37260416085422,-1.3632929705366492
1744475015973788700,11.66678857421875,1.6137679067909716,2.237151149791479,-1.3353133689820766
1744475015983785700,11.67678564453125,1.9084423425167798,2.1510107434302568,-1.2830674873076378
1744475015993782800,11.68678271484375,2.2004922749578952,2.0780705949038265,-1.220099282219261
1744475016003779600,11.696779541015625,2.3886171380221843,1.9773399376541374,-1.1749205624520778
1744475016013777700,11.706777587890626,2.3985621934533117,1.8787386936485766,-1.172288825709
1744475016023774700,11.716774658203125,2.2717419861793515,1.7718372388094663,-1.137027908039838
1744475016033771800,11.726771728515626,2.0596780291229484,1.7007558698922394,-1.1087260887935757
1744475016043768600,11.7367685546875,1.8859990400403737,1.7060639131724833,-1.0933622231841087
1744475016053766700,11.7467666015625,1.7156161698937415,1.7138690339654683,-1.1868868945777415
1744475016063763700,11.756763671875,1.5901847866296768,1.6658949843913315,-1.235702363412082
1744475016073760800,11.7667607421875,1.5137199711084366,1.6434774008780717,-1.2786197141185403
1744475016083757600,11.776757568359375,1.4690256738573313,1.651039360564947,-1.3203611529134214
1744475016093755000,11.7867548828125,1.4102490752398966,1.607954252076149,-1.3861382779426872
1744475016103752700,11.796752685546876,1.3058505431324243,1.536048707294464,-1.4751381653882563
1744475016113749800,11.806749755859375,1.1181705012261867,1.4390695115327834,-1.5715391228705644
1744475016123746600,11.81674658203125,0.8723129956394433,1.3662562042564153,-1.7065660174757242
1744475016133743900,11.826743896484375,0.47665363564193247,1.3439134395450354,-1.7874828439697623
1744475016143741700,11.83674169921875,-0.023224223721027372,1.3051140455514192,-1.840549102116376
1744475016153738800,11.84673876953125,-0.4765209491729736,1.2879717720925807,-1.885642920079082
1744475016163735600,11.856735595703125,-0.8159656699955463,1.3272142336785793,-1.8577287849761543
1744475016173732900,11.86673291015625,-1.0058061048060656,1.41154846740067,-1.7383451574437319
1744475016183730700,11.876730712890625,-1.0163292523860932,1.5078084089770911,-1.6197161476708948
1744475016193727700,11.886727783203124,-0.9041665160179138,1.615839160107076,-1.5949536084666847
1744475016203724500,11.896724609375,-0.7480009717941284,1.6744184825867414,-1.6141130669668315
1744475016213721900,11.906721923828124,-0.636256168577075,1.7027730549335478,-1.6457798326015471
1744475016223718700,11.91671875,-0.7108259641319513,1.7390455607980488,-1.585048008263111
1744475016233716700,11.926716796875,-0.8731143751502036,1.7953937632247805,-1.4557707632258534
1744475016243713500,11.936713623046876,-0.9919038361817598,1.9094076804175972,-1.2749397104315459
1744475016253710800,11.9467109375,-1.0103589458048343,2.098239522707462,-1.0880326987244189
1744475016263707600,11.956707763671876,-0.9248772956132888,2.3204133703678846,-0.9672596626602112
1744475016273705700,11.966705810546875,-0.7298106505870818,2.5260803198635577,-0.8810541551735251
1744475016283702000,11.976701904296876,-0.4676157581835985,2.6547768424034115,-0.798190286264941
1744475016293699000,11.986698974609375,-0.2841881130248308,2.719410350355506,-0.8255605968147516
1744475016303696000,11.99669580078125,-0.21061258920431136,2.7489526711821552,-1.0472142199933527
1744475016313694000,12.00669384765625,-0.2886024223357439,2.8150258565485475,-1.2281694836892187
1744475016323691000,12.01669091796875,-0.47590778571069237,2.9144270187601444,-1.447181944709271
1744475016333688000,12.02668798828125,-0.8460229546070098,2.9540453279212113,-1.716963785110414
1744475016343684900,12.036684814453125,-1.4941086771875618,3.015125235044956,-1.9592804032199083
1744475016353682000,12.046681884765626,-2.4400047954320905,3.1427415611326692,-2.0280182777509093
1744475016363680000,12.056679931640625,-3.5410073042362926,3.4073666032925245,-1.9944668674133716
1744475016373677000,12.066677001953124,-4.523437794151902,3.799037478175759,-1.8775373550347982
1744475016383673900,12.076673828125,-5.329745408964157,4.115773523584008,-1.647972520340234
1744475016393671000,12.0866708984375,-5.993074293383955,4.282677027182281,-1.3417068694114684
1744475016403669000,12.0966689453125,-6.319816184499859,4.432496417249739,-1.105643758738786
1744475016413666000,12.106666015625,-6.244243933904171,4.579262849487364,-0.8878879467163234
1744475016423662800,12.116662841796876,-5.788985552990436,4.757523613402247,-0.6620655134204775
1744475016433660000,12.126659912109375,-4.947438867014646,4.810243396198749,-0.38941111325770617
1744475016443658000,12.136657958984374,-3.949640712097287,4.696019635647535,0.0060969286356121295
1744475016453655000,12.146655029296875,-2.9395880557626484,4.464231864206493,0.37305794434994455
1744475016463651800,12.15665185546875,-2.0679618733435867,4.236736529262363,0.6384777901493013
1744475016473649200,12.166649169921875,-1.2720575791239739,4.1007790758088225,0.797509975850582
1744475016483646000,12.17664599609375,-0.5288754057884216,4.040983071015775,0.9125459295675158
1744475016493644000,12.18664404296875,0.19463526787161825,4.011525213602185,0.9119753631379455
1744475016503640800,12.196640869140625,0.7877835316061973,3.906422624878585,0.886664396270737
1744475016513638100,12.20663818359375,1.28062491646111,3.7343642227351665,0.8851404746390878
1744475016523635000,12.216635009765625,1.6161650310605764,3.5646687503308057,0.8155221640117466
1744475016533633000,12.226633056640624,1.5848790814369915,3.419630457060039,0.6999667895305901
1744475016543629800,12.2366298828125,1.1403864246875046,3.267550136323273,0.6132971716634928
1744475016553627100,12.246627197265624,0.3813753985792398,3.170536161509156,0.45222076678350565
1744475016563624000,12.2566240234375,-0.6097416711390018,3.1127231472268697,0.39548904493190346
1744475016573622000,12.2666220703125,-1.6255337479084728,3.120333914491534,0.5875562889464199
1744475016583618800,12.276618896484376,-2.630268424090743,3.2180013847783204,0.9208869108028709
1744475016593616100,12.2866162109375,-3.483790794542432,3.2515953190833327,1.2565614654369652
1744475016603613000,12.296613037109376,-3.9787966639548538,3.1596792519301173,1.4705257031567394
1744475016613610000,12.30660986328125,-3.874005333137512,2.936317655789852,1.6294634885728358
1744475016623607800,12.31660791015625,-3.0997827093720436,2.5418270473107696,1.7753158747054636
1744475016633605000,12.326605224609375,-1.8487685027986764,2.110494608646631,1.7919184883296488
1744475016643602000,12.336601806640624,-0.5339443796157837,1.7699952642045913,1.7067165318623183
1744475016653599000,12.346598876953125,0.4316945499747991,1.4095757060229777,1.580661463741958
1744475016663596800,12.3565966796875,0.9356073639422654,1.009019367764145,1.446908826856315
1744475016673594000,12.366593994140626,1.0236480509668588,0.7304226450055837,1.3181772330030799
1744475016683591000,12.3765908203125,0.7239870590001344,0.5066827170722187,1.3145524666346609
1744475016693588000,12.386587890625,0.165545366987586,0.4691496897526085,1.3319680040769277
1744475016703585000,12.3965849609375,-0.38381811555624007,0.6233170458965003,1.3233705638624726
1744475016713583000,12.4065830078125,-0.7767536035478114,0.7676825544722378,1.3500845293954014
1744475016723580000,12.416579833984375,-0.910121040508151,0.7475406608060002,1.3321135500274597
1744475016733577000,12.426576904296875,-0.8675269304066896,0.5645378169305623,1.3270572895511985
1744475016743574000,12.436573974609376,-0.7790630495339631,0.2902887679874897,1.3253668522462247
1744475016753572000,12.446572021484375,-0.7726444146633148,0.014033639919012785,1.2669663934648037
1744475016763569000,12.45656884765625,-0.8332663488864899,-0.18933438498452304,1.172767768332362
1744475016773566000,12.46656591796875,-0.8590805891007185,-0.2685441152997315,1.1660654942147433
1744475016783563000,12.47656298828125,-0.7627695018589497,-0.3053691404804587,1.222611995692551
1744475016793561000,12.48656103515625,-0.5693500395178794,-0.3237462164312601,1.2968556280329824
1744475016803558000,12.496557861328125,-0.3984031057476997,-0.337813174097985,1.3358838623464107
1744475016813555000,12.506554931640625,-0.32616087635755536,-0.36980464164242144,1.3865366296105086
1744475016823552000,12.516552001953125,-0.36451661823689935,-0.403949049437046,1.386065797228366
1744475016833549000,12.526549072265626,-0.5247574490755796,-0.40204087772816416,1.4049712809674442
1744475016843547000,12.536546875,-0.6979308267235755,-0.37109760406240816,1.4520353760898113
1744475016853544000,12.5465439453125,-0.753439947977662,-0.32948899786695834,1.5147040137097239
1744475016863541000,12.556541015625,-0.6778197665870189,-0.29714740171059967,1.558248994795233
1744475016873538000,12.5665380859375,-0.5772504373788834,-0.3150342099264264,1.5532234217181802
1744475016883536000,12.576535888671875,-0.4625041142582893,-0.3950491191446781,1.5063222620725631
1744475016893533000,12.586532958984375,-0.3454132738381624,-0.5173647084757685,1.5116243140034378
1744475016903530000,12.596530029296876,-0.2580184835016727,-0.59974386260733,1.5763986917309463
1744475016913527000,12.606527099609375,-0.22209669077098368,-0.6695617874599993,1.7126916607491671
1744475016923523800,12.61652392578125,-0.20095862567424774,-0.6552734421275556,1.8717161015354096
1744475016933522000,12.62652197265625,-0.15190671773552894,-0.6014426293492316,2.0292868363820014
1744475016943519000,12.63651904296875,-0.02401508183777332,-0.6185166598774492,2.13534818713516
1744475016953516000,12.64651611328125,0.10693944876193999,-0.6824116244219243,2.2383269155725833
1744475016963512800,12.656512939453124,0.19149580080211162,-0.7795046558216213,2.3313674567110834
1744475016973511000,12.666510986328126,0.2151250981926918,-0.8828589395731687,2.371620118252933
1744475016983508000,12.676508056640625,0.19169629181027412,-0.9675989045519381,2.3786400800175964
1744475016993505000,12.686505126953126,0.18190905728936194,-1.0578393666431307,2.3734390042431652
1744475017003501800,12.696501708984375,0.16885492992699144,-1.2240933933567255,2.351268088967353
