time,seconds_elapsed,z,y,x
1746476049907453400,0.067453369140625,0.21914836235940455,-0.8954504178598522,0.9400954691417515
1746476049917449700,0.07744970703125,-0.38271804535984993,-0.5126376799538731,0.6366457524165511
1746476049927445800,0.08744580078125,-0.9674480248391628,-0.22101751723214982,0.44496557149086147
1746476049937442600,0.097442626953125,-1.4769967988669872,-0.04738981994539499,0.32180567682273686
1746476049947438600,0.1074384765625,-1.89025786652863,0.12287351547479629,0.21666407126300036
1746476049957434600,0.1174345703125,-2.1310551661163566,0.35659634663164613,0.14967486703023314
1746476049967431400,0.127431396484375,-2.0818290706545115,0.6382515801779926,0.029751141271740198
1746476049977427700,0.137427734375,-1.8199229320645331,0.8889660242766141,-0.16425415813326835
1746476049987423700,0.147423828125,-1.4298679679453372,1.1225085304304956,-0.3666941084064543
1746476049997420500,0.157420654296875,-1.065417985203862,1.3440040404379368,-0.548660960297659
1746476050007416800,0.167416748046875,-0.8325883034944533,1.4537921566292642,-0.6844802473895252
1746476050017412600,0.17741259765625,-0.6808873374640941,1.451218068357557,-0.8606568254414946
1746476050027409700,0.18740966796875,-0.476503413516283,1.4108777285322547,-1.0781433190032839
1746476050037405700,0.19740576171875,-0.14347440495491026,1.3440727217599748,-1.1638485488176344
1746476050047401700,0.207401611328125,0.3539361875116825,1.2816020909301935,-1.2196445241890848
1746476050057398500,0.2173984375,0.9094605307728052,1.2161758251652122,-1.2739705731384456
1746476050067394800,0.227394775390625,1.3488275150716305,1.191300619366765,-1.2901394715204835
1746476050077390600,0.237390625,1.5580354981750248,1.1616092454582452,-1.3687848459511995
1746476050087387600,0.2473876953125,1.4082418270707129,1.086755664525926,-1.3808211745731531
1746476050097383700,0.2573837890625,1.0560679730564355,1.0693240527316927,-1.2894422830365597
1746476050107379700,0.267379638671875,0.6540057602792978,1.1211042165905236,-1.0913531483840198
1746476050117376500,0.27737646484375,0.20283610998392104,1.1835513204142452,-0.8183320338007062
1746476050127372800,0.287372802734375,-0.36858138345777985,1.321084352621436,-0.5181355832504109
1746476050137368600,0.29736865234375,-0.8660895910799503,1.3464806596845387,-0.3590076820896938
1746476050147365600,0.30736572265625,-1.2548328880786894,1.2394818819507956,-0.17511002653269095
1746476050157361700,0.317361572265625,-1.4060399331122635,1.0285185796126723,0.025316044901125132
1746476050167357700,0.327357666015625,-1.4475696288526056,0.8694953078702091,0.2811549193413928
1746476050177354500,0.3373544921875,-1.3770406331211327,0.7351055421248078,0.5210143900897354
1746476050187350800,0.347350830078125,-1.081608072504401,0.5792094624921679,0.6497577474460006
1746476050197346600,0.3573466796875,-0.7968605720311402,0.27537089257985353,0.6803912245102226
1746476050207343600,0.367343505859375,-0.5511176327347755,0.03257803526073694,0.8906130608312786
1746476050217339600,0.377339599609375,-0.6583809066236018,-0.12659925799965857,0.9676816143993288
1746476050227335700,0.387335693359375,-0.7275690091401338,-0.36727789964377877,0.699311394361779
1746476050237332500,0.39733251953125,-0.6209621533334255,-0.5616866652831435,0.2604137994066812
1746476050247328800,0.407328857421875,-0.3052513593196869,-0.7568664152950048,0.08579477126132697
1746476050257324800,0.41732470703125,0.25245734224319455,-0.27728403272479774,0.768906031852588
1746476050267321600,0.427321533203125,0.8236451185822486,0.06169920806586742,1.0657008937984704
1746476050277318000,0.43731787109375,1.163696573126316,0.532808069062233,1.3711679416954516
1746476050287313700,0.447313720703125,1.4334130932062863,0.8773971670359373,1.3891568951115012
1746476050297310500,0.457310546875,1.339618957221508,0.755101743710041,1.7778312185272573
1746476050307306800,0.467306640625,1.6755431027024983,0.553035741315782,1.9063319262340663
1746476050317302800,0.477302734375,1.920646575051546,0.29275486584007737,1.677588490924984
1746476050327299600,0.487299560546875,1.9482085357159376,-0.03181464967280626,1.2262896612919867
1746476050337296000,0.4972958984375,1.782826250335574,-0.3650859425574541,0.5641473563082516
1746476050347291600,0.507291748046875,1.6146137099653481,-0.6327861543789506,-0.06436082849055529
1746476050357288700,0.517288818359375,1.5168717131376266,-0.7419122995302081,-0.3979179525792598
1746476050367284500,0.527284423828125,1.520339681509137,-0.6998661787003279,-0.44541444776952266
1746476050377280800,0.53728076171875,1.4235463637083767,-0.6275672506868839,-0.2994986410118639
1746476050387277600,0.547277587890625,1.3383031984478235,-0.6348793272659182,-0.11664002791270613
1746476050397273600,0.557273681640625,1.2936235142439603,-0.7699331098780036,0.04762560146264731
1746476050407269600,0.56726953125,1.2568056494563817,-1.0038234065562486,0.24913660032264887
1746476050417266700,0.5772666015625,1.2470336125046013,-1.2458803508162497,0.4203095979336649
1746476050427262500,0.587262451171875,1.0545832874566317,-1.425963069461286,0.5259765425417572
1746476050437258800,0.5972587890625,0.7876946842789649,-1.5303464039996266,0.5870636100586504
1746476050447255600,0.607255615234375,0.5126905791848898,-1.5683298054352401,0.5993916151035577
1746476050457251600,0.61725146484375,0.2802384986162185,-1.5475000756353139,0.6020329964578152
1746476050467247600,0.62724755859375,0.17654431538581847,-1.5336492449373005,0.6507417169820517
1746476050477244700,0.63724462890625,0.19212123922407626,-1.4660206468224524,0.7620535356093198
1746476050487240400,0.647240478515625,0.22002280710637567,-1.407016376928985,0.8445074354775249
1746476050497236700,0.65723681640625,0.23361761721670626,-1.435677531006932,0.9444267032790928
1746476050507233500,0.667233642578125,0.18549802169203758,-1.5761606451913714,1.039050056629628
1746476050517229600,0.6772294921875,0.0573211391121149,-1.7154545495912432,1.1127587053105235
1746476050527225900,0.687225830078125,0.044607203489542,-1.7088126273587345,1.1744853859052062
1746476050537222700,0.69722265625,0.10329787738919258,-1.5147069363191723,1.1832231113731861
1746476050547218700,0.70721875,0.12090952192544936,-1.2512757801190018,1.0025643464058638
1746476050557214700,0.717214599609375,-0.0007446808874607086,-0.9637409870147704,0.7580183618091046
1746476050567211500,0.72721142578125,-0.293565013179183,-0.8630193898543715,0.36863844740726054
1746476050577207600,0.73720751953125,-0.728984136635065,-1.3133774315059183,-0.29827006733128797
1746476050587203800,0.747203857421875,-0.780036863002181,-1.8129729667961596,-0.7165619505006819
1746476050597200600,0.75720068359375,-0.5833937624394894,-1.7400778264552355,-0.4437051596336066
1746476050607196700,0.76719677734375,-0.47796004206538195,-0.9572855272650718,0.22371353311678394
1746476050617192700,0.777192626953125,-0.8595680803567171,0.11153232951015234,0.6538870292704552
1746476050627189800,0.787189697265625,-1.984358876505494,0.9182119925051927,0.495127815291658
1746476050637185500,0.797185546875,-3.4896640704900026,1.3523781932905317,-0.01772192509387387
1746476050647181800,0.807181884765625,-4.86803975160718,1.7768483449697494,-0.6252748289007694
1746476050657178600,0.8171787109375,-5.837988945612311,2.191058968441188,-0.7876150431714951
1746476050667174700,0.827174560546875,-6.349851841801405,2.379922228782624,-0.454690554430522
1746476050677170700,0.837170654296875,-6.368647727686167,2.3119972780697045,-0.11489420715868473
1746476050687168000,0.84716796875,-5.974195405390859,2.2266079823367297,0.11626761440373956
1746476050697163800,0.857163818359375,-5.108709040901065,2.0656378143101928,0.3332307416785508
1746476050707159800,0.867159912109375,-3.96063849145174,1.8332466701485215,0.403712683397904
1746476050717156900,0.877156982421875,-2.7097236535996196,1.7077639950886367,0.370891340900585
1746476050727153000,0.88715283203125,-1.4219669855624437,1.7248381717473267,0.2154391325779259
1746476050737148700,0.897148681640625,-0.2289712527155876,1.6708429621875285,-0.07817424978762864
1746476050747146000,0.90714599609375,0.7710223664194346,1.60576989377439,-0.3940572585631162
1746476050757141800,0.917141845703125,1.525218685722351,1.5635186057612298,-0.5536762311764061
1746476050767137800,0.9271376953125,1.9280179806023836,1.4156529801100493,-0.6415535443328321
1746476050777134800,0.937134765625,2.0792665266901253,1.2749839879646896,-0.7422171276956796
1746476050787131000,0.947130859375,2.06152102664113,1.114881688813865,-0.8630101836346089
1746476050797126700,0.957126708984375,1.9527204601824282,1.0579109705746172,-0.9439274485200643
1746476050807124000,0.9671240234375,1.7645710471987723,1.0820774435818195,-1.072371603734046
1746476050817119700,0.97711962890625,1.4895201803535223,1.103701246368885,-1.1189828405223785
1746476050827115800,0.98711572265625,1.1504834558099508,1.127062248212099,-1.1223829312894493
1746476050837112800,0.99711279296875,0.8059855432510376,1.1628534003004432,-1.0668507944859564
1746476050847108900,1.00710888671875,0.5118576354920864,1.178603634878993,-0.9802100373871624
1746476050857106000,1.01710595703125,0.28867490305006505,1.1430240797147153,-0.9364582816831767
1746476050867102000,1.02710205078125,0.14122867185473442,1.0979679634138941,-0.9477087206244468
1746476050877097700,1.03709765625,0.04022679644823074,1.090202297848463,-1.0394353296201675
1746476050887093800,1.04709375,0.043316579157114024,1.0603925582572817,-1.1803169416029005
1746476050897090800,1.0570908203125,0.17058920637369154,1.027252505199611,-1.339197516939044
1746476050907086800,1.0670869140625,0.40849195356369017,1.0011822443976999,-1.5658283440083265
1746476050917084000,1.077083984375,0.6457242541462183,0.9113181413382291,-1.7768109355688093
1746476050927080000,1.087079833984375,0.9000643413960934,0.7343263744458556,-1.955843706769496
1746476050937076000,1.097075927734375,1.0705921729713679,0.522052574031055,-2.0767712027430534
1746476050947071700,1.10707177734375,1.1322113015383481,0.35302374884188176,-2.1229824804283677
1746476050957068800,1.11706884765625,1.1388725129932165,0.2542871880188584,-2.091219707073271
1746476050967064800,1.12706494140625,1.0852858842343092,0.21340426574945448,-2.0731217403247952
1746476050977060900,1.137060791015625,1.0379045398563147,0.1771671234592795,-2.0223849480390546
1746476050987058000,1.147057861328125,1.0144640430361032,0.2058420138016343,-1.9279840783327817
1746476050997054000,1.157053955078125,0.9719196172952651,0.2668222599431872,-1.8185232943996785
1746476051007049700,1.1670498046875,0.9104407739818096,0.29833909571319817,-1.6990584183245896
1746476051017047000,1.177047119140625,0.8984498919367789,0.23872867662012576,-1.5442311369672417
1746476051027042800,1.187042724609375,0.8312941720306872,0.15548720657080412,-1.3090569379583001
1746476051037038800,1.197038818359375,0.7306944476842879,0.12641747169196604,-1.014699605357647
1746476051047036000,1.207035888671875,0.6427841090410947,0.15599515609294176,-0.7411718564264476
1746476051057032000,1.217031982421875,0.5205576592981815,0.21735066528767347,-0.4945603176020085
1746476051067028700,1.22702880859375,0.2484603815615177,0.24688363376408815,-0.3702794926125556
1746476051077025000,1.23702490234375,-0.013472645035386085,0.22899054193794727,-0.33349509170316155
1746476051087020800,1.247020751953125,-0.08755904098749161,0.22352438548654316,-0.22919914318732915
1746476051097016800,1.257016845703125,-0.009559270983934403,0.1315133335262537,-0.07499583894722163
1746476051107014000,1.267013916015625,0.07491583251357078,-0.0447772993594408,0.059477001971751445
1746476051117010000,1.277010009765625,0.19515315426588056,-0.2549938749834895,0.22878581314608454
1746476051127005700,1.287005615234375,0.31472645915150643,-0.4210536212339997,0.34530163015723225
1746476051137003000,1.2970029296875,0.4809042788237333,-0.4869084876745939,0.44851972030848264
1746476051146998800,1.306998779296875,0.6472679764568805,-0.5485051121488214,0.5170106343410908
1746476051156994800,1.316994873046875,0.7627461209833621,-0.6071411332517862,0.3861326761089265
1746476051166992000,1.326991943359375,0.8526338971793651,-0.6519020659983158,0.1497799348399043
1746476051176988000,1.33698779296875,0.9263450300782918,-0.7268713822647929,-0.1551334246970713
1746476051186984000,1.34698388671875,0.9402367773085832,-0.8146782605335116,-0.3646158408276737
1746476051196981000,1.35698095703125,0.9281751681149005,-0.8808455539241432,-0.393737305893749
1746476051206976800,1.366976806640625,0.8678887494564056,-0.9229647399902343,-0.35113106696307655
1746476051216972800,1.376972900390625,0.7303560095101594,-0.9434349888280034,-0.27975509901344775
1746476051226969900,1.386969970703125,0.5987029752522707,-0.9569166939526795,-0.23666823695898054
1746476051236966000,1.3969658203125,0.5177051924765109,-0.9369745606422424,-0.2685704187847674
1746476051246962000,1.4069619140625,0.4618424354791641,-0.9665534140869975,-0.37411008375138044
1746476051256959000,1.416958984375,0.4474865778684616,-1.0067895628854633,-0.4843965048536658
1746476051266955000,1.426955078125,0.5392594371587037,-1.03535836250484,-0.5739625017493963
1746476051276950800,1.43695068359375,0.6913046865820884,-1.0886126905694604,-0.6694415220811962
1746476051286947800,1.44694775390625,0.7417050865203142,-1.1744848013833165,-0.7258034607723355
1746476051296943900,1.45694384765625,0.6155494806349278,-1.2562649667084216,-0.8127163128107786
1746476051306940000,1.46693994140625,0.47687458491623397,-1.264373162101209,-0.8421664253093302
1746476051316937000,1.47693701171875,0.35791210540533064,-1.245626668316126,-0.8188936862714589
1746476051326933000,1.48693310546875,0.20684476110339164,-1.2958745080411433,-0.8184513493314385
1746476051336928800,1.4969287109375,0.06325929698944091,-1.5740692258700728,-0.7073575573690235
1746476051346926000,1.506926025390625,0.08772153807282447,-2.507191494998336,-0.6980538685813545
1746476051356921900,1.516921875,0.280730081525445,-3.3565973700419067,-0.8285369822770356
1746476051366918000,1.52691796875,0.517138206243515,-3.114045043480396,-0.9393823524363338
1746476051376915000,1.5369150390625,0.3422369818896055,-1.5935063322678207,-0.8876710160300135
1746476051386911000,1.546910888671875,-0.7941589118570089,0.29549159732758995,-0.885113148240745
1746476051396906800,1.55690673828125,-3.0864795756846664,1.5032102675318717,-1.2664157738447188
1746476051406903800,1.56690380859375,-5.46705953772366,2.076986014537513,-1.9813222852885721
1746476051416899800,1.57689990234375,-7.1849120883673425,2.1800793092653152,-2.941870029219985
1746476051426896000,1.586895751953125,-7.996564571338891,2.321059851577878,-3.719625503286719
1746476051436892700,1.596892578125,-7.509974648094177,2.3828397236645222,-3.817846515803039
1746476051446889000,1.606888916015625,-6.453959866529702,2.134514074398577,-3.3648405899912115
1746476051456884700,1.616884765625,-5.106994638198614,1.9186539399296043,-2.8797517189592123
1746476051466881800,1.6268818359375,-3.7750714961767193,1.635675787216425,-2.5565011770904063
1746476051476877800,1.6368779296875,-2.385594575330615,1.5303849824443458,-2.4609768563121555
1746476051486873900,1.646873779296875,-1.1752356197506189,1.5190946498841047,-2.5527508846461773
1746476051496870700,1.65687060546875,-0.2568944479078054,1.5167469177141786,-2.9200498270779844
1746476051506867000,1.666866943359375,0.31672552401423454,1.6861328857779503,-3.4177959351092575
1746476051516863000,1.676863037109375,0.7098796231925487,1.882868925321102,-3.8256542669445275
1746476051526859800,1.68685986328125,0.8841086473733186,2.0388468380182982,-4.223404461741447
1746476051536856000,1.69685595703125,0.8480413086920976,2.2010537082329393,-4.558330828356743
1746476051546851800,1.706851806640625,0.6563263121813535,2.4462308303400873,-4.8732723915636535
1746476051556848600,1.7168486328125,0.3618412615478039,2.8247145991310476,-5.008187057965993
1746476051566845000,1.726844970703125,0.05354045152962208,3.1834356828317043,-5.050633284029364
1746476051576841000,1.736841064453125,-0.24528759674429892,3.5032188408508893,-4.909028180077672
1746476051586837800,1.746837646484375,-0.5130062210053206,3.8166719190657137,-4.5046769795805215
1746476051596834000,1.756833984375,-0.7057178273379803,4.100442391200364,-4.282264939250052
1746476051606829800,1.766829833984375,-0.9539525834500789,4.346695033584535,-4.242307315132022
1746476051616827000,1.776826904296875,-1.1832856552153825,4.528907165473699,-4.175855359581113
1746476051626823000,1.786822998046875,-1.020769865182042,4.76574199117124,-4.3242683899819845
1746476051636819000,1.79681884765625,-0.43457273575961586,4.822351474882662,-4.233080052581429
1746476051646815700,1.806815673828125,0.10040858568847179,5.401328297662735,-3.317004487583041
1746476051656812000,1.81681201171875,0.074775547260046,6.037163025957345,-1.9890937960729003
1746476051666807800,1.826807861328125,-0.5934381865918636,4.857003686068952,-0.5009988992821425
1746476051676805400,1.836805419921875,-0.556786326020956,4.169315436418354,0.2675845495525747
1746476051686801400,1.846801513671875,-0.2376899812221527,3.9711458569407463,1.3255666126020251
1746476051696797400,1.85679736328125,-0.10366495713591575,3.690416067676246,1.9279937229439614
1746476051706794500,1.86679443359375,0.1297737963825464,3.3583971129402514,1.9597651179969309
1746476051716790500,1.87679052734375,0.35770401561260223,3.1924186152324077,1.839261254262924
1746476051726786300,1.886786376953125,0.4486597133010626,3.193414056010544,1.529439226026833
1746476051736783600,1.89678369140625,0.10310790777504443,3.247383838868141,1.1094355522371828
1746476051746779400,1.906779296875,-0.5460176792472601,3.2454291976690293,0.7532775970228016
1746476051756775400,1.916775390625,-0.9894745632082224,3.0727567552804946,0.4469939720459282
1746476051766772500,1.9267724609375,-0.9638321724295615,2.6618191621303557,0.2696722425468266
1746476051776768500,1.9367685546875,-0.4544400502681732,2.1631381113365293,0.1777078062072396
1746476051786764300,1.946764404296875,0.21807985634505747,1.6648901912629603,0.22571137413680553
1746476051796761600,1.95676171875,0.8529296652555465,1.1667506999999284,0.21151319130584598
1746476051806757400,1.96675732421875,1.4110638987541197,0.6884718012437224,0.02944718988910317
1746476051816753400,1.97675341796875,1.8801409616619347,0.30091040750592946,-0.20768661875501274
1746476051826750500,1.98675048828125,2.0757745929211375,-0.003225684048235416,-0.5189515392757952
1746476051836746500,1.99674658203125,2.005508047518134,-0.2191135833069682,-0.8898065667539834
1746476051846742300,2.0067421875,1.7973492812067269,-0.2927893526315689,-1.2029684069372713
1746476051856739600,2.016739501953125,1.4726082085192203,-0.2607312495917082,-1.461716081496328
1746476051866735400,2.0267353515625,1.0854776074141264,-0.17649346198141574,-1.6764662088967859
1746476051876731400,2.0367314453125,0.42006431793570514,-0.06950549790263176,-1.8236733706392347
1746476051886728400,2.046728515625,-0.654510787191987,0.004153320287168026,-2.156173094629496
1746476051896724500,2.056724365234375,-1.1630705501824616,-0.05260521650612354,-2.7008509035751223
1746476051906720500,2.066720458984375,-2.1161755768924952,0.050209553541243075,-2.73499428845644
1746476051916717600,2.076717529296875,-3.072313687688112,0.23527342159971593,-2.5488565075561405
1746476051926713300,2.08671337890625,-3.9284330888956784,0.37732758449316023,-2.307927252151817
1746476051936709400,2.09670947265625,-4.523407399013638,0.5046154092788696,-2.079489229530096
1746476051946705700,2.10670556640625,-4.728213932287693,0.6051772858329117,-1.958856770980358
1746476051956702500,2.116702392578125,-4.58998444224894,0.6626363721109926,-1.8680835902519524
1746476051966698500,2.126698486328125,-4.098197534883022,0.7023159099400043,-1.6833343411006032
1746476051976694500,2.136694580078125,-3.3684938518017526,0.6236828104689717,-1.360671828252822
1746476051986691600,2.146691650390625,-2.5505606811255217,0.5341299653157592,-0.9650675594434142
1746476051996687400,2.156687255859375,-1.595061452755332,0.493128092841804,-0.5662127644054591
1746476052006683600,2.16668359375,-0.8379612287044524,0.5292119442664086,0.03825812672376633
1746476052016680400,2.176680419921875,0.0018763152658939361,0.4037579107791185,0.18097148417830466
1746476052026676500,2.186676513671875,0.6727396868437528,0.0910080123975873,0.146587568539381
1746476052036672500,2.196672607421875,0.7896294517338276,0.11960106967538595,-0.2156592050693929
1746476052046669600,2.206669677734375,0.5638175398319959,-0.011361644230782985,-0.3007804975159466
1746476052056665300,2.216665283203125,0.6025362698048353,0.024905016414821145,-0.37397462080344557
1746476052066661600,2.22666162109375,0.9447422720342874,0.3001262713909149,-0.5706462168082594
1746476052076658400,2.236658447265625,1.1852999176472425,0.49812458595484493,-0.6397840504422784
1746476052086654500,2.246654541015625,1.4908008678138256,0.5165750194028019,-0.4663445692040026
1746476052096650500,2.256650390625,1.7319442043602467,0.38523821148723364,-0.1933338298842311
1746476052106647600,2.2666474609375,1.8231717047274112,0.1426671802252531,-0.03856047067120671
1746476052116643300,2.276643310546875,1.6578572238862515,0.10465046104192734,0.20787614997774362
1746476052126639600,2.2866396484375,1.4258634084790944,0.2093383314847946,0.23672508171275256
1746476052136636400,2.296636474609375,1.1408546267211437,0.3000149199709296,0.02409837620705366
1746476052146632400,2.306632568359375,0.9212707955539226,0.3614174831777811,-0.23862419333234428
1746476052156628500,2.31662841796875,0.8199374962359667,0.3654936465755105,-0.5248188238739967
1746476052166625500,2.32662548828125,0.7673568296492099,0.2261202471986413,-0.760760207863152
1746476052176621300,2.336621337890625,0.687006697127223,-0.02219166580289602,-0.7468164381846785
1746476052186617300,2.346617431640625,0.5991758534610271,-0.3548544714003801,-0.5686905526958406
1746476052196614400,2.356614501953125,0.565885578277707,-0.6300409473240375,-0.38532881238013506
1746476052206610400,2.3666103515625,0.6442448292434215,-0.759165632148087,-0.3300916399352252
1746476052216606500,2.3766064453125,0.7848807959020138,-0.8565130767002701,-0.4567077029392123
1746476052226603500,2.386603515625,0.8798229328781366,-1.063312829618156,-0.6583800298407674
1746476052236599600,2.396599609375,0.7972884420543909,-1.3554215065091848,-0.8219004668720066
1746476052246595300,2.40659521484375,0.6286328340917825,-1.5983876745685934,-0.9240962282381951
1746476052256592600,2.416592529296875,0.4192395575493574,-1.7431363372430204,-0.9878472542673349
1746476052266588400,2.42658837890625,0.1877098525226116,-1.876582392397523,-1.1204885689102113
1746476052276584400,2.43658447265625,0.028844401690363883,-1.9758067367374896,-1.3731009555846452
1746476052286581500,2.44658154296875,-0.0007639701098203659,-2.013272544039786,-1.6428005245298147
1746476052296577500,2.45657763671875,0.06225041220784187,-2.013544054457545,-1.8168933551102875
1746476052306573300,2.4665732421875,0.24094226101636884,-1.916147802327573,-1.8276336525723338
1746476052316570600,2.476570556640625,0.44086452938020226,-1.7505942520335316,-1.6871490770831703
1746476052326566400,2.48656640625,0.5812772086769342,-1.5760188986331223,-1.3297965052567422
1746476052336562400,2.4965625,0.697081516417861,-1.4145935341849922,-0.9104638625964522
1746476052346559500,2.5065595703125,0.6235381413012743,-1.2612152825921774,-0.6212041453957557
1746476052356555500,2.516555419921875,0.33531682723760603,-1.0559601287677884,-0.5201005631804466
1746476052366551300,2.52655126953125,-0.09284721052348613,-0.8373436813279986,-0.5752287222929299
1746476052376548600,2.536548583984375,-0.4893997199684381,-0.636211452652514,-0.6786117937475442
1746476052386544400,2.54654443359375,-0.7914981682151555,-0.4862982468217611,-0.6810095025390386
1746476052396540400,2.55654052734375,-1.0544862568229436,-0.36414077066183087,-0.620615385722369
1746476052406537500,2.566537353515625,-1.2480272997170685,-0.29577187557369466,-0.426777697969228
1746476052416533500,2.576533447265625,-1.21501408790946,-0.3797013278871774,-0.11949980125799775
1746476052426529300,2.586529296875,-0.9582377134233713,-0.6231944424301386,0.17470263304188846
1746476052436525600,2.596525634765625,-0.5197352369993925,-0.9755313780516386,0.3434856667764485
1746476052446522400,2.6065224609375,0.15312719944119452,-1.2063330610647798,0.37311785784363743
1746476052456518400,2.616518310546875,0.8715273982197046,-1.2660752898439764,0.3770673261217773
1746476052466514700,2.6265146484375,1.0154255815446376,-1.1764344741463661,0.5551014416739344
1746476052476511500,2.636511474609375,0.14141045816242695,-0.7845218994617462,0.8844047077104449
1746476052486507500,2.646507568359375,-1.6664987955033779,-0.00817424636632204,1.0751729248903692
1746476052496503600,2.656503662109375,-3.6985669331669806,0.9121858640834689,0.9341577496558428
1746476052506500600,2.66650048828125,-5.253968575707078,1.6143753711648285,0.7051143084868788
1746476052516496400,2.676496337890625,-5.707625366643071,1.9040609125621615,0.4421059077434242
1746476052526492700,2.68649267578125,-5.077134337463975,1.8702279088042675,0.2447149114228785
1746476052536489500,2.696489501953125,-3.8741035328149795,1.6391390794128178,0.1802345482058823
1746476052546485500,2.706485595703125,-2.605322198882699,1.38461779037714,0.2794016094006598
1746476052556481500,2.7164814453125,-1.3953706550598144,1.209471359090507,0.4843023968294263
1746476052566478600,2.726478515625,-0.36491818477511406,1.1192793392509222,0.6205158708706497
1746476052576474400,2.736474365234375,0.24415888497531413,1.0561427918583155,0.6225026607736944
1746476052586470700,2.746470703125,0.6588011778622865,1.0491416809245944,0.5081565890170634
1746476052596467500,2.756467529296875,0.9835627088159322,1.0808405952632427,0.27007424747645853
1746476052606463500,2.76646337890625,1.1145119787186384,1.0704024956181646,0.08519903385788202
1746476052616459300,2.776459228515625,1.1379822861552238,1.0960217977821827,0.08704480785503983
1746476052626456600,2.78645654296875,1.255728960135579,1.180929155217111,0.3559979423470795
1746476052636452400,2.796452392578125,1.133274546855688,1.2980819549575446,0.769694478816539
1746476052646448400,2.806448486328125,0.7070745026439428,1.478132817159593,1.0624595737896858
1746476052656445400,2.816445556640625,0.6007324352532625,1.4071578312262891,1.0016586297377943
1746476052666441500,2.82644140625,0.8253092524021863,1.1584244779422879,0.6876181070238352
1746476052676437500,2.8364375,0.6161953773230314,1.0418339882597327,0.5329977464154363
1746476052686434600,2.8464345703125,0.6089923140764236,1.0552914357259868,0.46783685358837246
1746476052696430600,2.8564306640625,0.7037485730916261,1.1671017053946853,0.2864046200305223
1746476052706426600,2.866426513671875,0.5515361504077911,1.1927268527776003,-0.16461480813920498
1746476052716423400,2.87642333984375,0.33101533065140243,1.0979732241109013,-0.4183538607560098
1746476052726419700,2.886419677734375,0.34156945789158344,1.0398813928872346,-0.3145832512885332
1746476052736415700,2.896415771484375,0.4871235917299986,1.0438000276356936,0.04583981402441859
1746476052746412500,2.90641259765625,0.5278448936969041,1.1162538539499043,0.4517078488253057
1746476052756408600,2.91640869140625,0.5296668484270572,0.983833634711802,0.5667540316753089
1746476052766404600,2.926404541015625,0.6378478216826915,0.6945473217651248,0.3182356363162398
1746476052776401400,2.9364013671875,0.6969996833533049,0.4271604136765003,-0.1010547746375203
1746476052786397700,2.946397705078125,0.7820254064708948,0.2591539172723889,-0.41976401981487865
1746476052796393700,2.956393798828125,0.832730926835537,0.1485223359942436,-0.5281387620769441
1746476052806390500,2.966390625,0.7579325832217931,-0.0023640987828373906,-0.4356850809156894
1746476052816386800,2.97638671875,0.5176543390721082,-0.1269409110441804,-0.23246990848630666
1746476052826382600,2.986382568359375,0.24877017816305158,-0.1380894970461726,-0.045643560799956316
1746476052836379600,2.996379638671875,0.01106558389365673,-0.08473726156502961,0.021218144595623014
1746476052846375700,3.006375732421875,-0.05015665431022644,-0.06295768369436264,0.06922317382991314
1746476052856371700,3.016371826171875,0.013169862696528435,-0.06913344971984624,0.13250833591297267
1746476052866368500,3.026368408203125,0.17412673285007477,-0.05680471402257681,0.2055275410249829
1746476052876364800,3.03636474609375,0.23163199635744094,-0.06198299344331026,0.12347849563062191
1746476052886360600,3.046360595703125,0.1853881315767765,-0.036546646630764006,-0.05980886427462101
1746476052896356600,3.056356689453125,0.1697287901520729,-0.015203414350748061,-0.18165712835490702
1746476052906353700,3.066353759765625,0.21481647063493728,-0.03144435505568981,-0.20680705944150685
1746476052916349700,3.076349609375,0.2778121482521295,-0.06925882966518401,-0.1477405379667878
1746476052926345500,3.086345458984375,0.3420797455012798,-0.13142740880846976,0.015059768096357583
1746476052936342800,3.0963427734375,0.4250847764462232,-0.1650350793778896,0.23119652754962444
1746476052946338600,3.106338623046875,0.5241723426640034,-0.1683496107533574,0.40077582622840996
1746476052956334600,3.11633447265625,0.6330646790593862,-0.16922259419560431,0.4650910620115697
1746476052966331600,3.12633154296875,0.75937459872365,-0.2097556801140308,0.46169630500674247
1746476052976327700,3.13632763671875,0.876069717824459,-0.29074469506144524,0.4034159654736519
1746476052986323700,3.14632373046875,0.915648864018917,-0.4273831165164709,0.36393282699957485
1746476052996320800,3.15632080078125,0.964303297072649,-0.535120437657833,0.32351445350199937
1746476053006316500,3.166316650390625,1.0629144779503346,-0.6756491445496678,0.3770499365955591
1746476053016312600,3.1763125,1.1873872453153134,-0.8520172265857457,0.39947950280755756
1746476053026309600,3.1863095703125,1.2435440168231724,-1.0391539553955196,0.37360140357688065
1746476053036305700,3.1963056640625,1.1717799263387918,-1.1812956504419445,0.2264389577589929
1746476053046301700,3.2063017578125,0.919903014332056,-1.0937824944227934,0.0036553076371550557
1746476053056298500,3.216298583984375,0.7402583948433399,-1.03908819668293,-0.07556348276734352
1746476053066294800,3.226294677734375,0.6980407168388366,-1.2221136907815933,-0.008425152387470006
1746476053076290600,3.23629052734375,0.6806108586102724,-1.3194760406419634,0.23222309411838649
1746476053086287600,3.24628759765625,0.235389887586236,-1.2185785023927689,0.45262437914833425
1746476053096283600,3.25628369140625,-0.28831834469735623,-1.1886492280751466,0.7445816648699343
1746476053106279700,3.26627978515625,-0.2564747611910105,-1.1758458606034516,1.0211296384051443
1746476053116276500,3.2762763671875,0.14516659582555294,-1.17938309481889,1.0792749533817172
1746476053126272800,3.286272705078125,0.5160685311853885,-1.1665268281161785,0.9805134042479098
1746476053136268500,3.2962685546875,0.4715402381509542,-0.8472209322199225,1.1775304526895285
1746476053146265600,3.306265625,0.09019757279753685,-0.11005641173869371,1.5496489242322742
1746476053156261600,3.31626171875,-0.304169409301877,-0.6774696379750966,1.6103854247458278
1746476053166257700,3.326257568359375,-0.20351064824461937,-1.7936667933017014,1.0778304536618293
1746476053176254500,3.33625439453125,0.05445815089643001,-2.6509619602903722,0.02326134086102247
1746476053186250800,3.346250732421875,0.21631576928198337,-2.5984204566702247,-0.4376404527671635
1746476053196246500,3.35624658203125,0.23066519715189931,-1.9155530513048171,-0.38232831538990136
1746476053206243600,3.36624365234375,-0.4188683861494064,-1.086749819307029,-0.5002800104230642
1746476053216239600,3.376239501953125,-1.3479302739709615,-0.2397118424385786,-0.4237286856621504
1746476053226235600,3.386235595703125,-2.5122984627485274,0.5889356144756078,-0.24498276857882736
1746476053236232400,3.396232421875,-3.634027533239126,1.2099287474691867,0.05320946600958704
1746476053246228700,3.406228759765625,-4.371673115235567,1.6211261605992913,0.22020137854367494
1746476053256224500,3.416224609375,-4.556286170786619,1.7874027644708752,0.0973214333280921
1746476053266220500,3.426220458984375,-4.284728991276025,1.7929431552022694,-0.3421443351700902
1746476053276217600,3.436217529296875,-3.794233877286315,1.6813596800267696,-0.9087693336382507
1746476053286213600,3.446213623046875,-2.9938118133813143,1.5023875529721378,-1.394160987009108
1746476053296209700,3.456209716796875,-1.8871628231227398,1.3589502651572227,-1.6194506286025045
1746476053306206700,3.466206787109375,-0.7629466119915247,1.2601260260507463,-1.5937110610596834
1746476053316202800,3.47620263671875,0.19371347685158252,1.2185355400338769,-1.4067694164305924
1746476053326198500,3.486198486328125,0.8799573729127645,1.1346014115452765,-1.2674408791087568
1746476053336195600,3.496195556640625,1.4334405657351017,1.0713532204717398,-1.2739223500825465
1746476053346191600,3.506191650390625,1.8572148441046474,1.1350976706296205,-1.400668907598406
1746476053356187600,3.516187744140625,2.1095313165724274,1.1607008984416722,-1.5708800744399427
1746476053366184700,3.526184814453125,2.1903788772225377,1.1564145994246005,-1.7292957356780767
1746476053376180700,3.5361806640625,2.196188440284133,1.1580433696702122,-1.7868688037246465
1746476053386176500,3.546176513671875,2.005185391435027,1.1996011224612593,-1.7014418063297867
1746476053396173800,3.556173828125,1.6771452772021294,1.3219380468413233,-1.4688698987737296
1746476053406169600,3.566169677734375,1.3130290564596652,1.4516113054588435,-1.12635417300798
1746476053416165600,3.57616552734375,1.001513960570097,1.544256855930388,-0.7869101097725332
1746476053426162700,3.58616259765625,0.7690186253815889,1.5372703580439089,-0.5530241970084607
1746476053436158700,3.59615869140625,0.6366548125058412,1.4781322326377033,-0.4358571495469659
1746476053446154500,3.606154541015625,0.7032353628724813,1.365288820528984,-0.4517397052682936
1746476053456151800,3.61615185546875,0.8555857327222823,1.2595359512031077,-0.5982858458187431
1746476053466147600,3.626147705078125,0.9610112697899341,0.9746770993098616,-0.7252116323590279
1746476053476143600,3.6361435546875,0.8833604593545198,0.6620242315620184,-0.7108963259544223
1746476053486140700,3.646140625,0.7600333548933267,0.5002010999679565,-0.5923763295140118
1746476053496136700,3.65613671875,0.7071575047522782,0.45989188593327995,-0.4347201814062893
1746476053506132500,3.666132568359375,0.6608019962906837,0.4309294108211994,-0.2563113873228431
1746476053516129500,3.676129638671875,0.5498340226650238,0.26507804662436246,-0.046417906173318625
1746476053526125600,3.68612548828125,0.35317163287997244,0.05135170931369066,0.16096505346000192
1746476053536121600,3.69612158203125,0.21103870566189287,-0.06153641871958971,0.3031980800516903
1746476053546118400,3.706118408203125,0.22783552668392656,-0.08978314677774905,0.38436201317459345
1746476053556114700,3.71611474609375,0.3769797939687967,-0.11408113721013069,0.49409255395978685
1746476053566110700,3.72611083984375,0.5876508353620767,-0.216612998662889,0.6418915441155433
1746476053576107500,3.736107421875,0.7915800012797117,-0.3558481586128473,0.6978926866702735
1746476053586103600,3.746103515625,0.9004255759239196,-0.5074000715613365,0.6838929490208625
1746476053596099600,3.756099609375,0.9877338570207357,-0.7106731116577982,0.6820783008143305
1746476053606096400,3.766096435546875,1.0039584311127663,-0.9239791777297854,0.7468180456198752
1746476053616092700,3.7760927734375,0.9506757537364959,-1.0611702646315098,0.839827022576332
1746476053626088700,3.786088623046875,0.8644961844086646,-1.116823470531404,0.8370248246371745
1746476053636084500,3.79608447265625,0.7402765150219202,-1.1585407977983355,0.7844950114548206
1746476053646081800,3.806081787109375,0.5598088887125253,-1.2376008905097842,0.7828858226925134
1746476053656077600,3.81607763671875,0.33719840320050715,-1.3566457876071334,0.8433765317514538
1746476053666073600,3.826073486328125,0.06913608006834983,-1.4442162267714738,0.8944432866439223
1746476053676070700,3.836070556640625,-0.13496493528485298,-1.4855729040324688,0.9047622899539768
1746476053686066200,3.846066162109375,-0.31105975333750246,-1.5575383623078465,0.8752342899136245
1746476053696062200,3.856062255859375,-0.4439700941801071,-1.5958227925166486,0.7912892016395926
1746476053706059300,3.866059326171875,-0.5642056623667479,-1.549954483050108,0.7334232881262898
1746476053716055000,3.876054931640625,-0.6912023952513933,-1.450390823753178,0.7287438981384039
1746476053726051000,3.886051025390625,-0.8601853354722261,-1.362412972831726,0.7480867503814399
1746476053736048000,3.896048095703125,-1.1384493191450833,-1.3048667927920818,0.7576512820623814
1746476053746044200,3.906044189453125,-1.4408108022421597,-1.2270721899718045,0.6962073639318347
1746476053756040200,3.916040283203125,-1.608636389121413,-1.15854167458117,0.6422114237196743
1746476053766037200,3.926037353515625,-1.4720558353334665,-1.0337807379245758,0.5960884088397026
1746476053776033300,3.936033203125,-1.188396714618802,-0.9254360985398292,0.5571577896818518
1746476053786029000,3.946029052734375,-0.8437012336611748,-0.8563485337883233,0.5550513189218939
1746476053796026000,3.956026123046875,-0.4502250629216432,-0.7787003537014127,0.5400036796547473
1746476053806022100,3.966022216796875,-0.1876134064108133,-0.6891995309963822,0.4934204999171197
1746476053816018200,3.97601806640625,-0.14378010990321635,-0.5737199251651763,0.45996202856004237
1746476053826015000,3.986014892578125,-0.32261458205282684,-0.4068199286982417,0.45188992739394307
1746476053836011300,3.99601123046875,-0.6260165141135454,-0.273003286665678,0.47322336893230676
1746476053846007000,4.006007080078125,-0.8736252472817897,-0.1905748865649104,0.5036331202432512
1746476053856004000,4.016004150390625,-1.0763766015917062,-0.11130641179978847,0.46691418578550214
1746476053866000100,4.026000244140625,-1.1457616879850625,-0.058604749181866644,0.42392245466858147
1746476053875996200,4.03599609375,-1.1127806248813867,-0.2002192054837942,0.41470965903475876
1746476053885993000,4.045992919921875,-0.8365981236577034,-0.5935165125250816,0.37634763354510065
1746476053895989200,4.0559892578125,-0.26434417939186095,-1.0277274292349814,0.3271162773862481
1746476053905985000,4.065985107421875,0.4711351644814014,-1.2333300813227892,0.3654870707042515
1746476053915982000,4.075982177734375,1.0441624312072992,-1.0615569258615374,0.48029403797090053
1746476053925978000,4.08597802734375,1.2048819854736328,-0.5730424642950296,0.6163641580186784
1746476053935974100,4.09597412109375,0.7226788990110159,-0.09365765012353658,0.7483107683956622
1746476053945971000,4.105970947265625,-0.3046060471534729,0.2034656400591135,0.7849765113614499
1746476053955967200,4.11596728515625,-1.5359341410040854,0.5294076129689812,0.7014068322710693
1746476053965963000,4.125962890625,-2.7218402078509327,0.9618328153058886,0.5149608622044325
1746476053975959000,4.135958984375,-3.584795592558384,1.4242904600739479,0.254841899292171
1746476053985956000,4.1459560546875,-3.890764744758606,1.8227531870543956,-0.03481134727075696
1746476053995952000,4.1559521484375,-3.6504783173024653,2.0904878856673834,-0.22496640098839996
1746476054005948200,4.1659482421875,-2.996146978330612,2.203267584890127,-0.25489962082877754
1746476054015945200,4.1759453125,-2.1235376300930975,2.154052010822296,-0.17338336713686583
1746476054025941200,4.185941162109375,-1.1858669038802385,1.9898449067011474,0.06046864335760474
1746476054035937000,4.19593701171875,-0.28922961432337757,1.7933476443499325,0.26359935237392784
1746476054045934000,4.20593408203125,0.505927660921216,1.5453928742229937,0.2628423965267837
1746476054055930000,4.21593017578125,1.2509335425525903,1.3522706412628291,0.09674144148305058
1746476054065926100,4.225926025390625,1.9321826990664004,1.1862848370313643,-0.12776888630092142
1746476054075923200,4.235923095703125,2.413686697348952,1.0602718544870615,-0.33927374816983935
1746476054085919200,4.245919189453125,2.638737561750412,0.9742878077313304,-0.3726914491251111
1746476054095915000,4.2559150390625,2.579336693754792,0.9112617349758744,-0.3322166692651808
1746476054105912300,4.265912353515625,2.2441396935045717,0.9029375587448477,-0.17855448616445063
1746476054115908000,4.275908203125,1.7503823628485202,1.0076412112787365,0.033699002114683387
1746476054125904100,4.285904052734375,1.2385925318956374,1.1566890324518084,0.23447993313446638
1746476054135901200,4.295901123046875,0.8604951320737599,1.2866162658303975,0.3004854600921273
1746476054145897200,4.305897216796875,0.5907283431112766,1.3048989414960146,0.3161028620712459
1746476054155893000,4.31589306640625,0.3237456319093704,1.183555412067473,0.3207784526668489
1746476054165890300,4.325890380859375,-0.06165303083658218,1.0099036032527684,0.18651815852001308
1746476054175886000,4.335885986328125,-0.3392962522625923,0.8476400344148278,-0.030861732862144706
1746476054185882000,4.345882080078125,-0.34647359654605386,0.6807195796817541,-0.27880788129121065
1746476054195879200,4.355879150390625,-0.07322305712103844,0.5106076354309916,-0.44321854516044257
1746476054205875200,4.365875244140625,0.3872586113989353,0.34882805071771145,-0.49885772253498434
1746476054215871000,4.37587109375,0.8162304584115743,0.1906768856346607,-0.47444735776931046
1746476054225868300,4.385868408203125,1.0630898345172404,0.041156770774722094,-0.3641005847819149
1746476054235864000,4.395864013671875,1.0615735847353935,-0.09966916549801826,-0.1701912930972874
1746476054245860000,4.405860107421875,0.9734382051646708,-0.16225246292203663,-0.03089037443473935
1746476054255857200,4.415857177734375,0.8917389961212873,-0.17638970934599638,0.014274024546146392
1746476054265853200,4.425853271484375,0.8317711418926715,-0.2025821352228522,0.006450929705053568
1746476054275849200,4.43584912109375,0.7261871993929148,-0.22417115895748138,-0.012597615766525268
1746476054285846000,4.445845947265625,0.6027355917692184,-0.21697598675638435,0.017074322789162398
1746476054295842000,4.455842041015625,0.4028881422072649,-0.22314824565052985,0.051308746954798694
1746476054305838000,4.465838134765625,0.1895873368322849,-0.2295814935684204,0.08154942530915141
1746476054315834000,4.475834228515625,0.02680851194858551,-0.19556816480755804,0.13558248266130685
1746476054325831200,4.4858310546875,-0.02525602180957794,-0.16246318306326865,0.22593159275874494
1746476054335827200,4.4958271484375,-0.0123696522295475,-0.1169368189021945,0.30982714280262585
1746476054345823000,4.505822998046875,0.04693535417616367,-0.07357260121107101,0.29769772906973957
1746476054355820300,4.5158203125,0.09483633851408958,-0.05693447788208723,0.2162058791667223
1746476054365816000,4.525816162109375,0.16215046385228632,-0.028023440696299074,0.09778130592480301
1746476054375812000,4.53581201171875,0.2535012983381748,-0.03698123865574598,-0.052542526533454655
1746476054385809200,4.54580908203125,0.32285949672460557,-0.08157295231521129,-0.11707140506729483
1746476054395805200,4.55580517578125,0.34896950501501556,-0.14758885453641413,-0.13563728158846497
1746476054405801000,4.565801025390625,0.30202421396672724,-0.3468237251579761,-0.022080168252438307
1746476054415798300,4.57579833984375,0.17809680552482604,-0.595007920126617,0.23608093859031795
1746476054425794000,4.5857939453125,0.1523912863820791,-0.7373796245366334,0.5523819535821676
1746476054435790000,4.5957900390625,0.18944763610064982,-0.8258253852307796,0.7917787387222052
1746476054445787100,4.605787109375,0.3207330060899257,-0.9052902593508362,0.8621358850181102
1746476054455783200,4.615783203125,0.4153390429794788,-1.0163684153527022,0.8510407827690243
1746476054465779000,4.625779052734375,0.4820148704141378,-1.1445341920167207,0.8144635948695242
1746476054475776300,4.6357763671875,0.5432254181802273,-1.1915218609020113,0.8164588603399694
1746476054485772000,4.64577197265625,0.34445348889529703,-1.168634906311333,0.916601926960051
1746476054495768000,4.65576806640625,-0.06639291884005069,-1.095333230996132,1.037747741859406
1746476054505765000,4.66576513671875,-0.5474322222203016,-0.985209891501069,1.1850788222424686
1746476054515761200,4.67576123046875,-0.9931669879853725,-0.8648623873725533,1.278642218211293
1746476054525757200,4.685757080078125,-1.3782792350053787,-0.722076256942749,1.2925567617952822
1746476054535754200,4.695754150390625,-1.6284212860435245,-0.5602531253486871,1.242820232593268
1746476054545750000,4.70575,-1.7308663459956646,-0.42891748647689815,1.088670777432248
1746476054555746000,4.71574609375,-1.6591174530804156,-0.361244172437489,0.8585062232788652
1746476054565743000,4.7257431640625,-1.4205448438048363,-0.356356108134985,0.6150132548663765
1746476054575739100,4.7357392578125,-1.006586441528797,-0.5185954193145036,0.42299964073523877
1746476054585735200,4.745735107421875,-0.4508224442929029,-0.8584741476401686,0.24932364732734857
1746476054595731000,4.75573095703125,0.1704606115579605,-1.1201415090382099,0.06664828184060752
1746476054605728300,4.765728271484375,0.5968097088515758,-1.10219960963428,-0.1545244259532541
1746476054615724000,4.77572412109375,0.6602671587616205,-0.9400055989012122,-0.37627515283077956
1746476054625720000,4.785719970703125,0.4875403558373451,-0.7776409077763557,-0.4994839646745473
1746476054635717000,4.795717041015625,0.14220833054184912,-0.5720017230704426,-0.513348823897913
1746476054645713200,4.805713134765625,-0.3663105159163475,-0.3158738756209612,-0.467611082008481
1746476054655709000,4.815708984375,-0.9112275404453277,-0.013305179513990878,-0.39610754215642807
1746476054665706200,4.825706298828125,-1.4846382535308598,0.44294513504654165,-0.20410079615749419
1746476054675702000,4.835701904296875,-2.063817613145709,0.9419088021740317,0.06953655062802136
1746476054685698300,4.8456982421875,-2.5267408295989036,1.3032386070683597,0.3038101475354284
1746476054695695000,4.855695068359375,-2.759438993883133,1.499319689834118,0.41015521060079335
1746476054705691400,4.86569140625,-2.6655723771840334,1.6514038099631667,0.38213783431909976
1746476054715687200,4.875687255859375,-2.205197676169872,1.8380469100371002,0.27346125956624745
1746476054725684200,4.885684326171875,-1.3092115439981222,1.928757400792837,0.10564034886211156
1746476054735680300,4.89568017578125,-0.24802783536314962,1.8885691827893256,-0.11984276947677135
1746476054745676300,4.90567626953125,0.7634639138638972,1.7135630367562174,-0.375859776962921
1746476054755673000,4.915673095703125,1.7500082688391208,1.5298729412689804,-0.621412527449429
1746476054765669400,4.92566943359375,2.670699803200364,1.3634233189180494,-0.857527076048404
1746476054775665400,4.93566552734375,3.4326264244943854,1.1157403514698148,-0.9962491719096899
1746476054785662200,4.945662109375,3.9004894354373216,0.8489335813567042,-1.0788890228040515
1746476054795658200,4.955658203125,3.9583284609436986,0.6286085764333605,-1.143231146594137
1746476054805654300,4.965654296875,3.4950820038855075,0.5004194188937544,-1.2016072015866637
1746476054815651000,4.975651123046875,2.673010418230295,0.5414060937985777,-1.2654983667388557
1746476054825647400,4.9856474609375,1.7844775246739386,0.6600652064487338,-1.262143941744417
1746476054835643400,4.995643310546875,0.9901385800749063,0.8342851705402136,-1.237297962040454
1746476054845640200,5.00564013671875,0.1909820060610771,0.9345905881151556,-1.0962852710239588
1746476054855636200,5.01563623046875,-0.5611801770657301,0.9806529588490724,-0.725006538240984
1746476054865632300,5.02563232421875,-1.2261620893895626,0.9792246796116232,-0.22488186451010406
1746476054875629300,5.03562939453125,-1.6662480356127023,0.9946016969636082,0.16470811244584618
1746476054885625000,5.045625,-1.774414980342984,0.9670879593551158,0.34921821907907724
1746476054895621400,5.055621337890625,-1.5189052647918462,0.8998495296016334,0.3977507793188095
1746476054905617200,5.0656171875,-0.9590414310216903,0.7885515933692455,0.4076100561626255
1746476054915614200,5.0756142578125,-0.3167664405465126,0.5600272076383233,0.34806744160875674
1746476054925610200,5.0856103515625,0.15137947899103163,0.28231910428255796,0.2879361404467374
1746476054935606300,5.095606201171875,0.36960254319906233,0.05583703803420066,0.24310119261592625
1746476054945603000,5.10560302734375,0.4233300417333841,-0.0776838359221816,0.21639869832508266
1746476054955599400,5.115599365234375,0.3463812420874834,-0.13810411009341478,0.1506629282195121
1746476054965595100,5.12559521484375,0.21932722605764865,-0.16466273893415928,0.07267901337221265
1746476054975592200,5.13559228515625,0.14924889670312405,-0.18077713064998388,0.017442717710137366
1746476054985588200,5.145588134765625,0.09911562326848507,-0.18093378251641987,-0.0771679953545332
1746476054995584300,5.155584228515625,0.1125508589029312,-0.2011298905879259,-0.22689232754968106
1746476055005581000,5.1655810546875,0.22004092728495597,-0.2350207620128989,-0.3277024797763675
1746476055015577300,5.175577392578125,0.39468028583228587,-0.28441373847424983,-0.4174709404416382
1746476055025573400,5.185573486328125,0.5214905562341213,-0.37778000443577764,-0.46849371006190776
1746476055035570200,5.195570068359375,0.5757312649875879,-0.4875660748004913,-0.41913470893539484
1746476055045566200,5.205566162109375,0.5875374381154775,-0.5670204275265336,-0.4180317891947925
1746476055055562200,5.215562255859375,0.5697866773694753,-0.6212266494885087,-0.42998964575305576
1746476055065559000,5.22555908203125,0.5485907446056604,-0.6419698700487614,-0.4036153605032712
1746476055075555300,5.235555419921875,0.5413455957829952,-0.6246826351612806,-0.3941371919315308
1746476055085551400,5.24555126953125,0.5820365026116371,-0.5566039551913738,-0.3759990393031388
1746476055095548200,5.255548095703125,0.570149080941081,-0.5560866533190012,-0.3757620156768709
1746476055105544400,5.26554443359375,0.4808785598605871,-0.6208443721726536,-0.3335363004963845
1746476055115540200,5.275540283203125,0.41355157504081724,-0.6877794350653886,-0.19905359577052295
1746476055125537300,5.285537353515625,0.45214287924170493,-0.7547127443924546,-0.09991159595176577
1746476055135533300,5.295533203125,0.564044918847084,-0.7784431640699505,-0.04188106646127999
1746476055145529300,5.305529296875,0.6814379570841789,-0.82046268915385,0.008657207577675581
1746476055155526100,5.315526123046875,0.7434849556744099,-0.8508262632355094,0.047965574006736275
1746476055165522400,5.3255224609375,0.7414432207137346,-0.8768325188905001,0.1018668947380036
1746476055175518200,5.335518310546875,0.6825035404890776,-0.8374164543032646,0.10561740637794137
1746476055185514200,5.34551416015625,0.5167927538067102,-0.758719934207201,0.03245024416260421
1746476055195511300,5.35551123046875,0.1937444565117359,-0.7242027475774288,-0.05136318055577576
1746476055205507300,5.36550732421875,-0.19455869550406932,-0.698422409632802,-0.04211319471672177
1746476055215503000,5.375503173828125,-0.5273468810468912,-0.6260124224603176,-0.03958659884855151
1746476055225500400,5.38550048828125,-0.6675888799518347,-0.5216445777520538,-0.13640680465623736
1746476055235496200,5.39549609375,-0.7401426595091819,-0.4191735065758228,-0.24439291292689738
1746476055245492200,5.4054921875,-0.8221680317670106,-0.397966175635159,-0.3533989388298243
1746476055255489300,5.4154892578125,-1.0069272177904844,-0.4261737407267093,-0.39690987151525914
1746476055265485300,5.4254853515625,-1.175117546328902,-0.5078899009048938,-0.3548725185137242
1746476055275481300,5.4354814453125,-1.3531512234896421,-0.5860051139816641,-0.21345665352381765
1746476055285478400,5.445478515625,-1.5382166989833115,-0.6934168564304709,-0.02043751561194658
1746476055295474200,5.45547412109375,-1.5157476775437593,-0.945145884399116,0.05309994122050702
1746476055305470200,5.46547021484375,-1.180589840260148,-1.3022379055932163,0.02033171714991331
1746476055315467000,5.475467041015625,-0.6845172183990478,-1.3368041920617222,0.0660479778598994
1746476055325463300,5.48546337890625,-0.3691641517817974,-0.9627017070949077,0.20532544258162377
1746476055335459300,5.495459228515625,-0.3486638000667095,-0.5307736406251787,0.3958909767962992
1746476055345456000,5.5054560546875,-0.6558434971004724,-0.29439649556726216,0.5650020734414458
1746476055355452400,5.515452392578125,-1.2524199817180632,-0.23777415237426758,0.6118574942491948
1746476055365448200,5.5254482421875,-1.9062445402115582,-0.22512860581278799,0.6823002730019391
1746476055375445200,5.5354453125,-2.331832005482912,-0.10202741906195878,0.7140310437835753
1746476055385441300,5.545441162109375,-2.3834745144367218,0.2317141216829419,0.5791140392936766
1746476055395437300,5.555437255859375,-2.1927537896603346,0.6513970390856265,0.3350852104388177
1746476055405434000,5.56543408203125,-1.9748545505791901,0.9428674180731177,0.15970146326497195
1746476055415430400,5.575430419921875,-1.9658447301715611,1.1008382581532001,0.14114786170348526
1746476055425426200,5.58542626953125,-2.1715946817755696,1.1946502220556139,0.2532812258467078
1746476055435422200,5.595422119140625,-2.102005012720823,1.3171245090797543,0.26466011347323654
1746476055445419300,5.605419189453125,-1.526546719455719,1.5042060005709528,0.13586334542930126
1746476055455415300,5.615415283203125,-0.6194511642485857,1.552443961778283,-0.04685425176396966
1746476055465411000,5.6254111328125,0.3255354379355907,1.4257155244410038,-0.2890384756654501
1746476055475408400,5.635408447265625,1.2091361357867716,1.2472244589015842,-0.44433103644698857
1746476055485404200,5.645404052734375,1.8650790016084908,1.116894489941001,-0.43894503255970774
1746476055495400200,5.655400146484375,2.149279974114895,1.0775456453710794,-0.3461551051814109
1746476055505397200,5.665397216796875,2.0005518864154817,1.1266168425321579,-0.21049568482637404
1746476055515393300,5.675393310546875,1.4688643458157777,1.259684419763088,-0.07925605367496609
1746476055525389300,5.685389404296875,0.7342857501745224,1.4202216031998396,0.003733633570373058
1746476055535386400,5.695386474609375,0.15826806946098804,1.5614856386289,0.07535714654028415
1746476055545382100,5.705382080078125,-0.1955132197499275,1.7043644157782196,0.1870813453607261
1746476055555378200,5.715378173828125,-0.3409726610422134,1.8104124686583876,0.24883009165674447
1746476055565375200,5.725375244140625,-0.2690852364391088,1.8404720913574097,0.15545798047631978
1746476055575371300,5.735371337890625,-0.07871113314330577,1.7252300936743616,0.04415025350227952
1746476055585367300,5.7453671875,0.12058745036423206,1.5196201350629328,-0.05223506801947951
1746476055595364400,5.7553642578125,0.30197160699665543,1.358098909024894,-0.18948226902261375
1746476055605360400,5.7653603515625,0.4619289447188377,1.2179685538008809,-0.36400472319200633
1746476055615356200,5.775356201171875,0.6474813269466161,1.1011933552011848,-0.5197980731025338
1746476055625353200,5.785353271484375,0.8554033618927002,0.9670739308297633,-0.6401895625032484
1746476055635349200,5.795349365234375,0.9422802658349275,0.6949760685712099,-0.6194175542399287
1746476055645345300,5.80534521484375,0.8820137209206819,0.4430392430707812,-0.5544086371041834
1746476055655342300,5.81534228515625,0.7621732895314693,0.28731998130977154,-0.4986091546013951
1746476055665338400,5.82533837890625,0.5669125832378864,0.1984334911108017,-0.6018174540109932
1746476055675334100,5.835334228515625,0.15044599753320217,0.08112491628676652,-0.9822224001228809
1746476055685329700,5.84532958984375,-0.1837894642084837,0.028906068749725816,-1.0172568886250257
1746476055695326700,5.85532666015625,-0.2653770295709371,0.10266776279211044,-0.7972006176404655
1746476055705322800,5.86532275390625,-0.12473521769344806,0.17911416587382553,-0.5002618902444839
1746476055715318800,5.87531884765625,0.11578092686533928,0.18379677073210476,-0.20116043185666202
1746476055725315800,5.88531591796875,0.4031447473168373,0.13118278639763592,0.05377338350266218
1746476055735312000,5.895311767578125,0.6884153948813676,0.01885696842223406,0.18886939782127737
1746476055745307600,5.9053076171875,0.9100000444769859,-0.056680503121018404,0.18514555499255655
1746476055755304700,5.9153046875,1.029942182675004,-0.09081015173792839,0.1514326704829931
1746476055765300700,5.92530078125,0.951214682918787,-0.11388970629125833,0.10155892476737499
1746476055775296800,5.935296875,0.6854957080423831,-0.13579729445576666,0.07919277918040751
1746476055785293800,5.9452939453125,0.4539513899683952,-0.11469459293335675,0.013722966534644365
1746476055795289900,5.955289794921875,0.29878713174164295,-0.15892741015255452,-0.04078545324429869
1746476055805285600,5.96528564453125,0.346389425393939,-0.24563801761716603,-0.009168664231151341
1746476055815283000,5.975282958984375,0.50452130125463,-0.2509200496733188,0.07992123958542943
1746476055825278700,5.98527880859375,0.6484902117282152,-0.24961773490309713,0.05138298123478889
1746476055835274800,5.995274658203125,0.6773059718459844,-0.21218027691245078,-0.0974335154004395
1746476055845271800,6.005271728515625,0.6597393354952334,-0.17821984738260507,-0.24153745043054223
1746476055855267800,6.015267822265625,0.568681346476078,-0.24356851786673067,-0.30689401196017857
1746476055865263600,6.025263671875,0.4103466415196657,-0.32125235378891226,-0.23467954735979438
1746476055875261000,6.035260986328125,0.30912498588263987,-0.40754269001483917,-0.06482800761088729
1746476055885256700,6.045256591796875,0.2526508189886808,-0.5170584190055728,0.0548638090878725
1746476055895252700,6.055252685546875,0.2889899603486061,-0.6317544732436537,0.11918459782898426
1746476055905249800,6.065249755859375,0.3934989670932293,-0.698066143541038,0.11309607169553637
1746476055915245800,6.075245849609375,0.4939496383577585,-0.7076499644443393,0.03136632138341665
1746476055925241600,6.08524169921875,0.49825639564096924,-0.7174982815027237,-0.018303718453645704
1746476055935237600,6.095237548828125,0.3468067740231752,-0.7250561495363712,-0.03932224882394075
1746476055945234700,6.105234619140625,0.13249240769147871,-0.72802376717031,-0.02887713491618633
1746476055955230700,6.115230712890625,-0.14556757784187793,-0.7021165879756212,0.06258125159740448
1746476055965226800,6.125226806640625,-0.45056817727088927,-0.6298389950111508,0.2588594643704593
1746476055975223800,6.135223876953125,-0.8242582820445299,-0.5417568069323897,0.49230961606577034
1746476055985219800,6.1452197265625,-1.1357710398465395,-0.4971744456231594,0.749293203561753
1746476055995215600,6.155215576171875,-1.4070938260793686,-0.5066872471168637,0.9893534210465847
1746476056005212700,6.165212646484375,-1.59903737064898,-0.5548515585660934,1.1686446970529853
1746476056015208700,6.175208740234375,-1.645964541518688,-0.645931759417057,1.263754445680976
1746476056025204700,6.185204833984375,-1.52786890797019,-0.7365726920679211,1.2855837079122663
1746476056035201800,6.195201904296875,-1.2349047832936049,-0.8760060049384832,1.232240824781358
1746476056045197800,6.20519775390625,-0.863771961787343,-1.1207725004181266,1.1685792306013405
1746476056055193600,6.215193603515625,-0.5232534742534161,-1.484874692635238,1.1068947817131876
1746476056065191000,6.22519091796875,-0.09026537733674049,-1.700284745249152,0.964676222038269
1746476056075186700,6.235186767578125,0.35317397096753117,-1.6074866345643997,0.7748328646183014
1746476056085182700,6.2451826171875,0.528630491116643,-1.2588316023260355,0.6327221492320299
1746476056095179800,6.2551796875,0.173301972463727,-0.8939642709553242,0.5998387012839317
1746476056105175800,6.26517578125,-0.5502127928495407,-0.6769122963532805,0.6141425364464521
1746476056115171600,6.275171630859375,-1.3385112882405519,-0.44930444094538685,0.5606799724586308
1746476056125169000,6.2851689453125,-1.9645593665361403,-0.15558189911693335,0.510007185319811
1746476056135164700,6.29516455078125,-2.194263609701395,0.2670306419968605,0.4188796381957829
1746476056145160700,6.30516064453125,-2.0855986523211003,0.7702227404743432,0.24551877515166998
1746476056155156700,6.31515673828125,-1.7952292203128337,1.1895172430813312,0.05560059892982244
1746476056165153800,6.32515380859375,-1.546682914033532,1.5230968712627886,-0.14189678037464618
1746476056175149600,6.335149658203125,-1.35904846483469,1.797319178329408,-0.26625059753507374
1746476056185145900,6.345145751953125,-1.1548597711980342,2.0159289037674664,-0.35952611647322774
1746476056195142700,6.355142578125,-0.7209113048166036,2.1436834692820907,-0.4928906308241188
1746476056205138700,6.365138671875,-0.07886836953163147,2.1771941092178224,-0.5083072495341301
1746476056215134700,6.375134765625,0.5854202998310327,2.097048267096281,-0.5390636223256587
1746476056225131800,6.3851318359375,1.2061819621562957,1.8575173341825604,-0.6797406516470015
1746476056235127800,6.3951279296875,1.8050486035376787,1.5527788928210735,-0.9644102645784616
1746476056245123600,6.40512353515625,2.403403203743696,1.2975439025580882,-1.2890944925121963
1746476056255120600,6.41512060546875,2.972341739851236,1.0469096840888261,-1.5523463466227054
1746476056265116700,6.42511669921875,3.431542136389017,0.7857213383793831,-1.7439591979332267
1746476056275112700,6.43511279296875,3.6068607093721625,0.5136822205707431,-1.7644528276465832
1746476056285109800,6.44510986328125,3.414193526703119,0.3271270910412073,-1.6825839611247182
1746476056295105800,6.455105712890625,2.8444378289937973,0.29673312182128425,-1.581063176410645
1746476056305101600,6.4651015625,2.0857062043488024,0.39217853214442727,-1.5281985783159733
1746476056315099000,6.475098876953125,1.377303083449602,0.531034337387979,-1.5726936997331677
1746476056325094700,6.4850947265625,0.6582002893596888,0.6707929366901516,-1.5869786840647457
1746476056335090700,6.495090576171875,-0.039486207213997836,0.7841676791965961,-1.5011073039032519
1746476056345086700,6.505086669921875,-0.7202817747414112,0.7818181934610009,-1.2030625149615108
1746476056355083800,6.515083740234375,-1.4098001624286174,0.7580141240254044,-0.7342612733203917
1746476056365079600,6.52507958984375,-1.8724463155061006,0.7632590389415621,0.0068261927582323545
1746476056375075800,6.535075927734375,-2.1345470998853444,0.6216182791545987,0.5630875450570136
1746476056385072600,6.54507275390625,-2.0679805780440565,0.3536041790783405,0.7280952249713242
1746476056395068700,6.555068603515625,-1.554624228426814,0.11934534134864806,0.7433027309753
1746476056405064700,6.565064697265625,-0.8267506833821535,-0.1346829034730792,0.7253688687473535
1746476056415061800,6.575061767578125,-0.19173720834255217,-0.3550719135433435,0.7034038513071834
1746476056425057500,6.5850576171875,0.2545645436555147,-0.5228291113615036,0.6010448622033
1746476056435053800,6.5950537109375,0.4262801237106323,-0.6171668527036905,0.47082025331333277
1746476056445050600,6.605050537109375,0.4021633350640535,-0.6564268499463797,0.3565190436117351
1746476056455046700,6.615046630859375,0.3335322819083929,-0.6604945377767085,0.24984452939629553
1746476056465043000,6.62504296875,0.3424193527191877,-0.688623776935041,0.1761474250227213
1746476056475039700,6.635039794921875,0.3976858973890543,-0.6581725245699286,0.09398805112168192
1746476056485035800,6.645035888671875,0.49402387263774866,-0.6338470616087317,-0.02332943766117096
1746476056495031800,6.65503173828125,0.5993734218597412,-0.6367991894125938,-0.23468700001388787
1746476056505028600,6.665028564453125,0.773749745556712,-0.6682835842177272,-0.4551185340516269
1746476056515024600,6.675024658203125,0.9376157811552286,-0.744625942403078,-0.6573059708684682
1746476056525021000,6.68502099609375,1.023321303230524,-0.8504916244536638,-0.807920602966845
1746476056535017700,6.695017822265625,1.0043079752027988,-0.9209571995601058,-0.8442579907611012
1746476056545013800,6.705013671875,0.8502198217749595,-0.9196171831279992,-0.8558851540602743
1746476056555009800,6.715009765625,0.5981406651943921,-0.8994149375766515,-0.8057016117431223
1746476056565005800,6.725005859375,0.3128238404005766,-0.8681985460579394,-0.712928489369154
1746476056575002600,6.735002685546875,0.003461538630723953,-0.8752309289127588,-0.6454866459980607
1746476056584999000,6.7449990234375,-0.2033954974323511,-0.8936837004482746,-0.5695822408385575
1746476056594994700,6.75499462890625,-0.2291723282456398,-0.8194286699309945,-0.4769597789816558
1746476056604991700,6.76499169921875,-0.17954583528935908,-0.7134940142974258,-0.3813549403131008
1746476056614987800,6.77498779296875,-0.1438923381060362,-0.6185600606277585,-0.23480142017379402
1746476056624983800,6.78498388671875,-0.14720599269866944,-0.5662859757721423,-0.10080240731164812
1746476056634980600,6.794980712890625,-0.25754326720535753,-0.5831590769007802,-0.042550124829262494
1746476056644977000,6.804976806640625,-0.37011633794009685,-0.7234066287636757,-0.07233940615430474
1746476056654972700,6.81497265625,-0.33850656318962574,-0.892659033575654,-0.1853477995663881
1746476056664969700,6.8249697265625,-0.11335574554502964,-0.9790221427768468,-0.3459934118136763
1746476056674965500,6.834965576171875,0.17709025883078575,-0.9604363925114273,-0.4617142790548503
1746476056684961800,6.8449619140625,0.29203707295954223,-0.9026344841450452,-0.5727217079080641
1746476056694958800,6.854958740234375,0.21958850734233856,-0.8242223339483141,-0.6292383987694978
1746476056704955000,6.864954833984375,-0.029654549029469488,-0.8351376957163215,-0.6123861942984163
1746476056714951000,6.874950927734375,-0.25258418349325656,-1.0828101417705416,-0.6226487912461162
1746476056724948000,6.884947998046875,-0.4325894529879093,-1.358121705378592,-0.6891109759300946
1746476056734943700,6.89494384765625,-0.5733090062767267,-1.4055778685584663,-0.7996196614809333
1746476056744939800,6.904939697265625,-0.5806915177434683,-0.9329556803897022,-0.9784905201181768
1746476056754936800,6.914936767578125,-0.771211751511693,-0.16540917338728903,-1.117603661123663
1746476056764932900,6.924932861328125,-1.5239730695754288,0.4595350353196263,-1.104062042505294
1746476056774929000,6.934928955078125,-2.896792285609245,0.9145248284250497,-1.021542018598318
1746476056784925000,6.944925048828125,-4.547995312303304,1.2825633371777831,-0.8976873831316828
1746476056794922000,6.954921875,-5.862831710445881,1.5073254477657376,-0.6953120225273073
1746476056804917800,6.964917724609375,-6.403569403463601,1.5730235162094235,-0.3952900882937014
1746476056814914000,6.9749140625,-6.036527650663256,1.4077769860379397,0.011239917547255753
1746476056824910800,6.984910888671875,-5.003133281707763,1.1995983459822832,0.3531597963117063
1746476056834907000,6.994906982421875,-3.747235394746065,1.0367793352186678,0.41872824702635403
1746476056844903000,7.00490283203125,-2.741727980625629,0.9000587884381412,0.34673721591830253
1746476056854900000,7.01489990234375,-1.8905629869550464,0.7741638793155551,0.3136313573911786
1746476056864895700,7.024895751953125,-0.9365198026120662,0.6750111389070749,0.3660061261422932
1746476056874892000,7.03489208984375,0.14649170694947242,0.6168734227150678,0.5676693929545581
1746476056884888800,7.044888916015625,1.2078969493806362,0.5681175751134753,0.749919811027497
1746476056894884900,7.054884765625,2.09585642696321,0.552623653383553,0.8020373901471495
1746476056904881000,7.064880859375,2.630661222800612,0.47013300170153377,0.7412032744780183
1746476056914878000,7.0748779296875,3.009129209500551,0.5296686019927263,0.7836046384863555
1746476056924873700,7.084873779296875,3.1070711128145456,0.8173664767041802,0.7303538175530732
1746476056934870000,7.0948701171875,2.74038358027935,1.0848585987329482,0.6895669030040502
1746476056944866800,7.10486669921875,1.9756839871406553,1.3075716678366065,0.5395617811061442
1746476056954862800,7.11486279296875,1.1627823808908462,1.4839529016152024,0.277188463395834
1746476056964859100,7.124859130859375,0.5149959335178137,1.5827531753242015,-0.04939969846308231
1746476056974855000,7.13485498046875,0.12954115667045116,1.5470795121356844,-0.2746639133542776
1746476056984851700,7.144851806640625,-0.03129354840815067,1.505900821790099,-0.4677181956447661
1746476056994848000,7.154847900390625,-0.11693886472880839,1.4584095872968434,-0.7574516678370535
1746476057004844000,7.164843994140625,-0.21173428671061992,1.3337933198079466,-1.0433392782561481
1746476057014840800,7.1748408203125,-0.2083797155857086,1.2057248660385609,-1.200988631296903
1746476057024837000,7.184837158203125,-0.09089490741193294,1.0000263523608446,-1.2664096363648771
1746476057034833000,7.1948330078125,0.06808160257935524,0.6835892898991703,-1.1606040139384568
1746476057044830000,7.204829833984375,0.15287819311618803,0.4399710876718163,-0.9956716642826795
1746476057054826000,7.214825927734375,0.2717746216535568,0.3454579897627234,-0.8214261273585259
1746476057064822000,7.224822021484375,0.4883031569033861,0.28526304877996445,-0.7518149771243333
1746476057074818800,7.23481884765625,0.695686262667179,0.24040070148557424,-0.7265469726160169
1746476057084814800,7.24481494140625,0.8237263671249151,0.20859335833638906,-0.6752303346157074
1746476057094811000,7.254810791015625,0.9241554110795259,0.1917117816403508,-0.6776904411189257
1746476057104808000,7.264807861328125,1.051432714471221,0.17832710714936256,-0.7001132853291928
1746476057114803700,7.2748037109375,1.2004629999876022,0.0776966954037547,-0.6882308320946992
1746476057124800000,7.284800048828125,1.304001115873456,-0.021797990310192108,-0.6534111553870141
1746476057134796800,7.294796875,1.3402706991285085,-0.03321925577372312,-0.6845939368970692
1746476057144792800,7.304792724609375,1.2705705554366111,-0.0545633648365736,-0.7392860426798462
1746476057154788900,7.314788818359375,1.1959364624738693,-0.1027194929793477,-0.8614782978922129
1746476057164785000,7.324784912109375,1.2015963879317044,-0.2115580533608794,-0.8995938012748956
1746476057174781700,7.33478173828125,1.1521341456264256,-0.29883798514604565,-0.8149091466799377
1746476057184778000,7.344778076171875,0.9131745828598737,-0.3417410150662064,-0.5619171130381524
1746476057194774000,7.35477392578125,0.5632230810701847,-0.36253508903086185,-0.2597605048634112
1746476057204770800,7.364770751953125,0.18116905257701874,-0.3667749185577035,-0.0069132865197956556
1746476057214767000,7.37476708984375,-0.15983108099400997,-0.3371791139781475,0.1746568942040205
1746476057224763000,7.384762939453125,-0.3676946637511253,-0.2875809703335166,0.3068954732649028
1746476057234759700,7.394759765625,-0.393872476580739,-0.28938860427737234,0.3827817582458257
1746476057244756000,7.404755859375,-0.17872224394679068,-0.39548838734477754,0.32720103306025267
1746476057254752000,7.414751953125,0.1311035836815834,-0.6150868315592408,0.3209108468748629
1746476057264748800,7.424748779296875,0.2759165437638759,-0.8488315822869539,0.38621933147907256
1746476057274745000,7.4347451171875,0.09027472968697547,-0.7733397034510969,0.5030323778711259
1746476057284740900,7.444740966796875,-0.0025537761360406876,-0.5714727307602763,0.44205140107721086
1746476057294738000,7.454738037109375,-0.017287234887480733,-0.6334034094944596,0.29408392248675225
1746476057304734000,7.46473388671875,0.07487783859074115,-0.8543038762181997,0.30911548740193245
1746476057314730000,7.47472998046875,0.23076573491692542,-0.9355071184381842,0.5546610044300556
1746476057324725800,7.484725830078125,0.3046136459380388,-0.8351265898004174,0.8431680035673081
1746476057334723000,7.49472314453125,0.21268588834702967,-0.7771008095502853,1.0075247452922165
1746476057344718800,7.50471875,0.0722568424373865,-0.7333002462685108,1.0793664310574531
1746476057354715000,7.51471484375,-0.011494038438796997,-0.6373667601674795,1.0776913374520838
1746476057364712000,7.5247119140625,0.020783260309696197,-0.5034264917552471,1.059153664112091
1746476057374708000,7.5347080078125,0.07464812148809433,-0.4147454610005021,1.1237645218409598
1746476057384704000,7.5447041015625,0.10741057340502738,-0.4828995442941785,1.2350884692974389
1746476057394701000,7.554701171875,0.1501654270261526,-0.8123936567276716,1.2939663363322615
1746476057404696800,7.56469677734375,0.3654372402131557,-1.278527067399025,1.1322630317255853
1746476057414692900,7.57469287109375,0.9148901546061038,-1.4750141006171702,0.6080659930117428
1746476057424690000,7.58468994140625,1.4417776014477013,-1.3074088784903286,-0.11961480593979358
1746476057434686000,7.59468603515625,1.5353729999899863,-0.9003262072026729,-0.694376202981919
1746476057444682000,7.604681884765625,0.9004226533144712,-0.5502516635552048,-0.9701282038338482
1746476057454679000,7.614678955078125,-0.48188218394517895,-0.3942740431189537,-1.02978626146093
1746476057464675000,7.624675048828125,-2.065408097207546,-0.18272271175980567,-0.9415512209080159
1746476057474670800,7.6346708984375,-3.4473394249796865,0.24769728823453185,-0.8268779630236327
1746476057484668000,7.64466796875,-4.341925042703748,0.7837322103887796,-0.7177198152989148
1746476057494664000,7.654663818359375,-4.717704813233017,1.2040054949000476,-0.6331226928569376
1746476057504660000,7.664659912109375,-4.585394776371121,1.452390473137796,-0.48722003784179685
1746476057514655700,7.67465576171875,-4.080392998123169,1.5254028101176023,-0.21862068522348999
1746476057524653000,7.684653076171875,-3.3046178842186924,1.5032593673706054,-0.10165288666114211
1746476057534648800,7.69464892578125,-2.39923673171401,1.5038292762130498,-0.2722863705679774
1746476057544644900,7.704644775390625,-1.492368555521965,1.5335186042949556,-0.6455122188307345
1746476057554642000,7.714641845703125,-0.6863672301799059,1.586115052972734,-1.0445672126159071
1746476057564638000,7.724637939453125,0.017654899156093598,1.6293483377605675,-1.4747954894304274
1746476057574633700,7.7346337890625,0.7258505147844553,1.5992451681807636,-1.9140588672243057
1746476057584631000,7.744631103515625,1.442147603803873,1.5373279334500431,-2.2561272145487368
1746476057594626800,7.754626708984375,2.151944809409976,1.4171540323227643,-2.517607090550661
1746476057604622800,7.764622802734375,2.8121768968582153,1.260132163530588,-2.7211343976691365
1746476057614620000,7.774619873046875,3.277829830536246,1.0547577672407031,-2.8387007466465235
1746476057624616000,7.784615966796875,3.477488479527831,0.8735232482120394,-2.87736920773685
1746476057634612000,7.794612060546875,3.305637290394306,0.7534796954661608,-2.7550135786563157
1746476057644609000,7.804609130859375,2.7885452613800763,0.730424106310308,-2.4671125825881957
1746476057654604800,7.814604736328125,1.9934259800583123,0.8033087252572179,-2.072181098473817
1746476057664600800,7.824600830078125,1.063310783791542,0.9542395836979151,-1.6760419921353458
1746476057674596900,7.834596923828125,0.11504442928433417,1.139718023906648,-1.2856480053201318
1746476057684593700,7.84459375,-0.781857064166665,1.212919453717768,-0.8597187408737837
1746476057694589700,7.854589599609375,-1.5457961943268774,1.1497343910083173,-0.46465910033509134
1746476057704585500,7.86458544921875,-2.0987199997007844,1.003973628681898,-0.057100335968285794
1746476057714582800,7.874582763671875,-2.3410195205450055,0.8714581323757767,0.31656215014606714
1746476057724578600,7.88457861328125,-2.206402375784516,0.792802821072936,0.5682582987584174
1746476057734574600,7.89457470703125,-1.7778835332363843,0.6726952631801366,0.7046735789820552
1746476057744571600,7.904571533203125,-1.1935983749151229,0.5335752540424465,0.7207078911989927
1746476057754567700,7.914567626953125,-0.6153109957039355,0.4261342854991555,0.6998143023826181
1746476057764563500,7.9245634765625,-0.16603753441870212,0.3058835197433829,0.6342201327048241
1746476057774560800,7.934560791015625,0.15091303052306174,0.19262071317881344,0.561544772594422
1746476057784556500,7.944556640625,0.43570963083505626,0.08851619558185339,0.4063515805341303
1746476057794552600,7.954552490234375,0.6401514224499464,-0.02362257538884878,0.27096535109728576
1746476057804549600,7.964549560546875,0.7523281873434782,-0.15184183580577373,0.20871201627999542
1746476057814545700,7.974545654296875,0.7566396208018064,-0.20070581995695827,0.15096782945021986
1746476057824541700,7.984541748046875,0.712273824852705,-0.21894874813407658,0.11656740106791257
1746476057834537500,7.994537353515625,0.6902800197094678,-0.19971739344149828,0.08443214113861322
1746476057844534500,8.004534423828124,0.7156780803382397,-0.1756748390749097,0.0006650397799909115
1746476057854530600,8.014530517578125,0.7755079874008893,-0.1610579924404621,-0.12412336940541863
1746476057864526600,8.024526611328126,0.7592489265173673,-0.16078706654459238,-0.22580621281340718
1746476057874523600,8.034523681640625,0.6668669954180717,-0.15513123273998497,-0.2679744987182319
1746476057884519700,8.044519775390626,0.5494517453491687,-0.13364479259699583,-0.28226182113736864
1746476057894515500,8.054515380859375,0.4294347883492708,-0.1401815008893609,-0.2174507646612823
1746476057904512800,8.0645126953125,0.34463235259354114,-0.19471008667349815,-0.08359539805352688
1746476057914508500,8.074508544921875,0.22952187233567237,-0.20596447113752364,0.03730915543586016
1746476057924504600,8.084504638671875,0.093576693841815,-0.19389263281077146,0.11253303098529577
1746476057934501600,8.094501708984374,-0.08200491399168967,-0.1551698111847043,0.14791370257660746
1746476057944497700,8.10449755859375,-0.26375030515193937,-0.14057868351340294,0.18641382136270404
1746476057954493400,8.114493408203124,-0.4364104725807905,-0.17375877632051706,0.20950535861477254
1746476057964490800,8.12449072265625,-0.5411988807886838,-0.25159663376063107,0.11661503960192203
1746476057974486500,8.134486572265626,-0.591531476187706,-0.36309769134968517,-0.10579597781524061
1746476057984482600,8.144482666015625,-0.5494856476187706,-0.482148725926876,-0.35793840889036654
1746476057994478600,8.154478515625,-0.4398369398981333,-0.5933583993539214,-0.5811345853358507
1746476058004475600,8.1644755859375,-0.3577536999732256,-0.6288081906586885,-0.7564600264512003
1746476058014471400,8.174471435546875,-0.38051147522628304,-0.6521987108573317,-0.8742490782685577
1746476058024467700,8.1844677734375,-0.4981394912630319,-0.6734007811009883,-0.9358929028853773
1746476058034464500,8.194464599609375,-0.6760580176115035,-0.6217068342208862,-0.9888847806215285
1746476058044460500,8.20446044921875,-0.8378677052021026,-0.5838745316937566,-0.9811027484431862
1746476058054456800,8.214456787109375,-1.0288777683138848,-0.6020043548852205,-0.9092312520615756
1746476058064453600,8.22445361328125,-1.300910748642683,-0.6643932987809181,-0.7675485528290271
1746476058074449700,8.23444970703125,-1.5451625725984572,-0.8139721580907702,-0.6013660569816828
1746476058084445700,8.24444580078125,-1.5017600687235593,-1.1798103803202509,-0.5256169885143638
1746476058094442500,8.2544423828125,-1.002172132217884,-1.5518202769219875,-0.5532051065333188
1746476058104438500,8.2644384765625,-0.30640695909559723,-1.5320722048789261,-0.4949345577418804
1746476058114434800,8.274434814453125,0.13826689943969248,-1.2082125912010668,-0.2889779776498675
1746476058124431600,8.284431640625,0.01442483119368553,-0.8493819096460938,-0.03406257473006844
1746476058134427600,8.294427734375,-0.7592647086083889,-0.5987114508196711,0.11737126479670405
1746476058144423700,8.304423583984375,-1.816603432253003,-0.4088979040160775,0.21125234841257332
1746476058154419700,8.314419677734374,-2.7051316496342417,-0.18638854079097508,0.3506087966546416
1746476058164416500,8.32441650390625,-3.2797003005832432,0.045053485952317715,0.48374257098957896
1746476058174412800,8.334412841796874,-3.4360412013739348,0.3028741087943315,0.5490091161482036
1746476058184408600,8.34440869140625,-3.227624076387286,0.5213870958596468,0.44160482635349035
1746476058194405600,8.354405517578124,-2.660681098011136,0.717710170687735,0.20819339923337102
1746476058204401400,8.3644013671875,-1.8975106141358613,0.8816220912545919,-0.10083514053747057
1746476058214397700,8.374397705078126,-1.1522247465193272,1.0433391321256755,-0.4587586441196501
1746476058224394500,8.38439453125,-0.5391740969628095,1.1526581695005298,-0.6801392955757677
1746476058234390500,8.394390625,-0.1466185481995344,1.2778212572172283,-0.7459732653588056
1746476058244386600,8.404386474609375,0.1479348914951086,1.4226424006059766,-0.7277455347508192
1746476058254383600,8.414383544921876,0.41751697154045103,1.5866487214580178,-0.7256677055634557
1746476058264379400,8.42437939453125,0.6859229935437441,1.7195140541151166,-0.7659364414572716
1746476058274375700,8.434375732421875,1.0227928954422474,1.7592913532301782,-0.8872505986608564
1746476058284371700,8.444371826171874,1.41151105799973,1.704337527771294,-1.0530408803202211
1746476058294368500,8.454368408203125,1.8144260882139205,1.5954609734669327,-1.2512580983318389
1746476058304364800,8.46436474609375,2.1705559863775967,1.4419509121879934,-1.3876482441142202
1746476058314360600,8.474360595703125,2.429276480668783,1.3094362926647067,-1.4892714662894606
1746476058324357600,8.484357666015624,2.5823721159279347,1.2501762944445014,-1.5442781909793615
1746476058334353700,8.494353759765625,2.469540686517954,1.3151143383011221,-1.4913254762098191
1746476058344349700,8.504349609375,2.0119670143991706,1.5007234191522,-1.325409522344172
1746476058354346500,8.514346435546875,1.3145137420594692,1.7015800457566976,-1.1299299126029014
1746476058364342800,8.5243427734375,0.4917506670087576,1.838903234605491,-0.9970274628058076
1746476058374338600,8.534338623046875,-0.32133389459252354,1.925230980232358,-0.8944492779932915
1746476058384335600,8.544335693359375,-1.0286100572884083,2.0145394952356814,-0.8503744278147816
1746476058394331600,8.55433154296875,-1.436785784509778,1.9926362909853457,-0.9162981217078864
1746476058404327700,8.56432763671875,-1.616917310732603,1.832601796373725,-0.9731238785184919
1746476058414324500,8.574324462890624,-1.6500369055241346,1.5403879055425524,-0.9281292831465602
1746476058424320800,8.58432080078125,-1.5807535259395837,1.2524553452923892,-0.8273125550486147
1746476058434316500,8.594316650390626,-1.3803455198854206,1.0038111315965652,-0.7442886732727289
1746476058444312600,8.6043125,-1.1148644454181194,0.8436395666018128,-0.7211424832239747
1746476058454309600,8.6143095703125,-0.7811006928414106,0.7193456629350781,-0.7461101896114647
1746476058464305700,8.6243056640625,-0.4223486294806003,0.6017980186581612,-0.8085439955621957
1746476058474301700,8.6343017578125,-0.0898725786268711,0.48521658906489606,-0.9021822103329002
1746476058484298800,8.644298828125,0.16493395709097383,0.34871465347111225,-1.019451183798909
1746476058494294500,8.65429443359375,0.31250235336124893,0.21342384723275898,-1.0862992990605533
1746476058504290600,8.66429052734375,0.3883727101206779,0.07429536252766847,-1.1443300477467477
1746476058514287600,8.67428759765625,0.4579729005694389,0.015386077441275119,-1.2611232203945517
1746476058524283600,8.68428369140625,0.5529214672863483,0.017802198672294614,-1.3652724539160728
1746476058534279700,8.69427978515625,0.6081757369965315,0.08688742533624172,-1.4470860831193626
1746476058544276700,8.70427685546875,0.6128162562787532,0.20306378125995397,-1.4770311395280062
1746476058554272800,8.714272705078125,0.4546569078892469,0.29022242475301024,-1.4361800737015902
1746476058564268500,8.7242685546875,0.13211714463829993,0.34262539668530223,-1.3335136260837315
1746476058574265600,8.734265625,-0.17004793910384178,0.4427943283990025,-1.2759418732114136
1746476058584261600,8.74426171875,-0.3383709541112184,0.5982543547019362,-1.3064162141911684
1746476058594257700,8.754257568359375,-0.3827753285050392,0.6871268163755536,-1.361983933764696
1746476058604253400,8.76425341796875,-0.3585889817535877,0.699069475364685,-1.3668816426783799
1746476058614250800,8.774250732421875,-0.3722387369215488,0.7223705637142062,-1.3237236150838434
1746476058624246500,8.78424658203125,-0.4994879832625389,0.7506073549002409,-1.314854372190684
1746476058634242600,8.79424267578125,-0.7729618100494146,0.7858709759831428,-1.2755033356636762
1746476058644239600,8.804239501953125,-1.1030962662130595,0.8847937070280313,-1.170698706973344
1746476058654235600,8.814235595703124,-1.3750100040763615,1.0194818711981177,-1.0835476622648537
1746476058664231400,8.8242314453125,-1.4988275224030017,1.057972929894924,-0.9731250475622713
1746476058674228700,8.834228759765624,-1.449338976612687,1.0483107830584049,-0.930844971846044
1746476058684224500,8.844224609375,-1.2751765879273413,1.0410051362201571,-0.9566491290576755
1746476058694220500,8.854220458984376,-1.027092053940892,1.045266885317862,-1.0549017057560384
1746476058704217600,8.864217529296875,-0.8708394159555435,1.0743275601074098,-1.1822237250722945
1746476058714213600,8.874213623046876,-0.8768442093282938,1.1179209103792904,-1.3480606223523617
1746476058724209700,8.884209716796875,-1.0496242037445307,1.1780398635163902,-1.5447203817889092
1746476058734206700,8.894206787109376,-1.356172617137432,1.2703051824986933,-1.644887706067413
1746476058744202500,8.904202392578124,-1.699753414851427,1.3733315494701266,-1.5560104220882056
1746476058754198500,8.914198486328125,-1.9769833793014286,1.508288009187579,-1.3421857389695941
1746476058764194800,8.92419482421875,-2.1993723310172557,1.6396768395513295,-1.0949813488185405
1746476058774191600,8.934191650390625,-2.310591649055481,1.7624568315237759,-1.0040957937568427
1746476058784187600,8.944187744140624,-2.257259871840477,1.7574965787678956,-1.0149154400654137
1746476058794183400,8.954183349609375,-1.9777181233167647,1.5934458342522382,-1.1027632348664105
1746476058804180700,8.9641806640625,-1.4640449628353118,1.4604463538214563,-1.2148169579021633
1746476058814176500,8.974176513671875,-0.7844459116160869,1.447915958072245,-1.3269253337346016
1746476058824172500,8.984172607421876,-0.15440437977015972,1.567218629322946,-1.3365377962104976
1746476058834169600,8.994169677734375,0.17266016742885112,1.83258279941231,-1.2202131178572773
1746476058844165600,9.00416552734375,-0.11908815171718597,2.1487653025910256,-1.0493076851412653
1746476058854161400,9.014161376953124,-1.119274078553915,2.359576044715941,-0.9307464799076318
1746476058864158700,9.02415869140625,-2.435294718044996,2.4087208916351197,-0.899088628231734
1746476058874154500,9.034154541015624,-3.4264667328208684,2.525135732489824,-0.9453701946742832
1746476058884150500,9.044150634765625,-3.692645141902566,2.694361249294877,-1.0891267775714397
1746476058894147600,9.054147705078124,-3.1429987507641313,2.7882655676558614,-1.219643939667195
1746476058904143600,9.0641435546875,-1.9524825597733257,2.7485569498628375,-1.2736664756253362
1746476058914139400,9.074139404296876,-0.7051146007478237,2.4952628645345567,-1.190274783450365
1746476058924135700,9.0841357421875,0.272581846383214,2.238132562044263,-0.9814427940525114
1746476058934132500,9.094132568359376,0.8654957168400287,2.059478122636676,-0.7423639888204634
1746476058944128500,9.10412841796875,1.036747186514735,1.8987205744475124,-0.4735479247115552
1746476058954124800,9.114124755859375,0.9303834918141365,1.833886575487256,-0.29897359422445297
1746476058964121600,9.12412158203125,0.712989864167571,1.9171438276275992,-0.27571269175484775
1746476058974117600,9.13411767578125,0.44620647493004795,2.020401373006403,-0.4164624940514564
1746476058984113700,9.14411376953125,0.2437193245142698,2.119815979221463,-0.6419407900847495
1746476058994110500,9.1541103515625,0.11728957786262034,2.137393721488118,-0.8106737010672688
1746476059004106500,9.1641064453125,0.1385404556840658,2.1349667866021393,-0.9322918096534907
1746476059014102800,9.174102783203125,0.26509645906388757,2.173298855344951,-0.9769580498538911
1746476059024099600,9.184099609375,0.3730424545198679,2.2467884544476866,-0.9973227924905717
1746476059034095600,9.194095703125,0.4029331503927707,2.2593588899463413,-1.0678956273637712
1746476059044091600,9.204091552734376,0.3896504749715328,2.184085622297227,-1.165800267407298
1746476059054087700,9.214087646484375,0.30215923852324483,2.0629829158872366,-1.2619777913972734
1746476059064084500,9.22408447265625,0.19305238259434698,1.9068875142902135,-1.294042762569338
1746476059074080800,9.234080810546875,0.004229015871882439,1.731525394426286,-1.2297874402798712
1746476059084076500,9.24407666015625,-0.2746522229164839,1.535809930102527,-1.1542770028740168
1746476059094073600,9.254073486328124,-0.5335848986536265,1.356288060210645,-1.0900631816387176
1746476059104069600,9.264069580078125,-0.7325000358015299,1.197850479401648,-1.0280326957918704
1746476059114065700,9.274065673828124,-0.9413824402123689,1.0610285180732608,-0.9625872869350015
1746476059124062500,9.2840625,-1.2260317410081625,0.9780994749739765,-0.880969910956174
1746476059134058800,9.294058837890624,-1.5556541559964419,0.9213599351420998,-0.7557168068684638
1746476059144054500,9.304054443359375,-1.9032886130154132,0.8956240208610892,-0.4811195290096104
1746476059154051600,9.314051513671876,-2.1097388218432664,0.8584759012058377,-0.1560671253506094
1746476059164047600,9.324047607421875,-2.1126427265912295,0.8391311492666602,0.22018077414706347
1746476059174043600,9.334043701171876,-1.857033057796955,0.8613868202164768,0.5307083933692425
1746476059184040400,9.34404052734375,-1.4030927737444638,0.8187211061835289,0.744781571356207
1746476059194036700,9.35403662109375,-0.9106938719600438,0.6695879448145627,0.8460694971624761
1746476059204032800,9.36403271484375,-0.5196078112274408,0.48353141245692965,0.8058538796953857
1746476059214029600,9.374029541015625,-0.19348785140216349,0.35455052001774306,0.6304477745592594
1746476059224025600,9.384025634765624,0.08572656486332415,0.2413368132919073,0.5471002137869596
1746476059234021600,9.394021728515625,0.22083178540170192,0.18202654618918895,0.5395414689704775
1746476059244017700,9.404017578125,0.25824118634164334,0.18211247090697288,0.5716502792842686
1746476059254014700,9.4140146484375,0.1628361080288887,0.21983897497206925,0.5939635987054557
1746476059264010800,9.4240107421875,0.06752572226226329,0.21263561946451662,0.5484815120775253
1746476059274006500,9.434006591796875,0.02292377946972847,0.09807108265161514,0.42872751686275
1746476059284003600,9.444003662109376,0.10330664521753788,-0.021122283005714414,0.1901433632798493
1746476059293999600,9.45399951171875,0.2182610581308603,-0.10436083044558762,-0.07526961438730359
1746476059303995600,9.46399560546875,0.2991296615689993,-0.16291735657155512,-0.32795309353657065
1746476059313992400,9.473992431640625,0.42310792341530323,-0.1343839205265045,-0.47889016252234573
1746476059323988700,9.48398876953125,0.4398796099960804,-0.01972381438463926,-0.5259704050619155
1746476059333984500,9.493984619140624,0.2861573672711849,0.122943073579669,-0.49396688175350423
1746476059343981600,9.503981689453125,-0.1009656350493431,0.26473990071117875,-0.3713785398956388
1746476059353977600,9.5139775390625,-0.6181435887813568,0.45422816108316183,-0.09326017523854971
1746476059363973600,9.5239736328125,-1.1298007332652806,0.68951137342453,0.17275069525651632
1746476059373970400,9.533970458984374,-1.5211375538885592,0.9273191358074545,0.33827852658741175
1746476059383966700,9.543966796875,-1.667089747133851,1.079771504727006,0.40911834183372553
1746476059393962500,9.55396240234375,-1.5222434693038462,1.1421902592390776,0.371283993479982
1746476059403958500,9.56395849609375,-1.0389344674259424,1.1401362493187188,0.32215997015312314
1746476059413955600,9.57395556640625,-0.38579964476227757,1.094422545892,0.24983736900314688
1746476059423951600,9.58395166015625,0.2466349197000265,1.0295476303994655,0.1803513795185834
1746476059433947600,9.59394775390625,0.7309791098445654,0.9231725375220179,0.1593459278255701
1746476059443944700,9.60394482421875,0.9918284328579902,0.8376011632204056,0.1418935655042529
1746476059453940700,9.613940673828125,1.1058359203100203,0.7727171876385808,0.12742657566927373
1746476059463936500,9.6239365234375,1.18032505184412,0.6704717419117688,0.07223704175837338
1746476059473933800,9.633933837890625,1.2657266225367785,0.5687663944110274,-0.05032075883075594
1746476059483929600,9.6439296875,1.3311509886056183,0.46213411190211773,-0.06126556588895619
1746476059493925600,9.653925537109375,1.3486702786833047,0.31925767284035683,-0.026244375259801743
1746476059503922700,9.663922607421876,1.419894270941615,0.1968964908018708,0.026713892467692492
1746476059513918700,9.673918701171875,1.449156605783105,0.10850392159968614,0.09914726051576435
1746476059523914500,9.68391455078125,1.4374369418948887,0.0329652810126543,0.1459590613774955
1746476059533910500,9.69391064453125,1.3344079445749522,-0.041137773813307285,0.2772084832705557
1746476059543907600,9.703907470703125,1.1282318765133619,-0.17365823855549095,0.5516900257952511
1746476059553903600,9.713903564453124,0.903117883747816,-0.3165376002267003,0.7943241123560816
1746476059563899400,9.7238994140625,0.6928449017614126,-0.48459933394938703,0.9478373154401779
1746476059573896700,9.733896728515624,0.5574602797597646,-0.6072814185053109,1.025993298918754
1746476059583892500,9.743892578125,0.4624912547767162,-0.7200090952798723,1.0254418755810708
1746476059593888500,9.753888427734376,0.3590560147434473,-0.8274030098110436,1.0232760027840733
1746476059603885600,9.763885498046875,0.21275077027678488,-0.9699760820120572,1.0793405659638344
1746476059613881600,9.773881591796876,-0.06346271060705184,-1.0890107499763368,1.2032377984631806
1746476059623877600,9.783877685546875,-0.3354278863966465,-1.1523445735067128,1.3740931814923882
1746476059633874700,9.793874755859376,-0.6188549519211054,-1.1850324988827108,1.5319912485972047
1746476059643870700,9.80387060546875,-0.8306038516789674,-1.2055251056827605,1.640382941994071
1746476059653866500,9.813866455078125,-0.9220996475934982,-1.2315765156537293,1.6491057621538638
1746476059663863600,9.823863525390625,-0.8852782756745815,-1.2804521902427077,1.574406202739477
1746476059673859600,9.833859619140625,-0.7638526209205388,-1.3175094167441128,1.456992998497188
1746476059683861200,9.843861328125,-0.5351029020011425,-1.345917618974298,1.3004863857507705
1746476059693858300,9.8538583984375,-0.3291618117392063,-1.379941907520592,1.1105198403425514
1746476059703854300,9.863854248046875,-0.10577098950445651,-1.4236793424382805,0.9234916134085506
1746476059713850400,9.873850341796874,0.08381400924026966,-1.5006854252293704,0.7682086241729557
1746476059723846100,9.88384619140625,0.21905250076949595,-1.5484646828837692,0.6351178852621465
1746476059733843200,9.89384326171875,0.26436171504855155,-1.5912933323934673,0.4949231595650315
1746476059743839200,9.903839111328125,0.26964579293131824,-1.5812230431474745,0.3230078922193497
1746476059753835300,9.913835205078126,0.2393669745236635,-1.5164884129084646,0.11735014894343912
1746476059763832300,9.923832275390625,0.17549919024705884,-1.453585820402205,-0.06764606070630252
1746476059773828400,9.933828369140626,0.06786240687072277,-1.3977891143783927,-0.18481624997295437
1746476059783824100,9.94382421875,-0.05764145710766315,-1.3352790283210574,-0.30576420421265066
1746476059793821400,9.953821533203126,-0.1358440562069416,-1.2594412586569785,-0.4417093096412718
1746476059803817200,9.963817138671875,-0.18180325882732867,-1.2042533321812747,-0.5763853449821472
1746476059813813200,9.973813232421875,-0.18138240306675432,-1.1911769929870963,-0.7308614748142659
1746476059823810300,9.983810302734375,-0.21280629985630511,-1.1790849886551498,-0.8322500114507972
1746476059833806300,9.993806396484375,-0.2569575762718916,-1.17168990996778,-0.8368034369714558
1746476059843802000,10.003802001953124,-0.3575760053187608,-1.1278607051134109,-0.7680484651751815
1746476059853799400,10.01379931640625,-0.4445329887598753,-1.0713985209181904,-0.700007632997632
1746476059863795200,10.023795166015624,-0.4805518121242523,-0.9977394104674457,-0.6376596056342124
1746476059873791200,10.033791259765625,-0.5255249263167381,-0.9560518938168883,-0.549269520650059
1746476059883787500,10.04378759765625,-0.5699111805319785,-1.0203981092602015,-0.5102276962026954
1746476059893784300,10.053784423828125,-0.6197796655505895,-1.3061375433802604,-0.5752344213813543
1746476059903780000,10.063780029296876,-0.4665092582464218,-1.5820461960986256,-0.6936763841494917
1746476059913776000,10.073776123046875,-0.14525719671845436,-1.6028770949423312,-0.774556531894952
1746476059923773200,10.083773193359375,0.19618249731361864,-1.3357263336971401,-0.737133394690603
1746476059933769200,10.093769287109374,0.22696400454640386,-1.0150696077138186,-0.6041537880040705
1746476059943765200,10.10376513671875,-0.11331307544708251,-0.7451476281896233,-0.5334608338825404
1746476059953762300,10.11376220703125,-0.7235071665287017,-0.4687295646443963,-0.46570013382062314
1746476059963758300,10.12375830078125,-1.5667992348670958,-0.0754337189078331,-0.28421047098711133
1746476059973754000,10.133754150390626,-2.4667232910096644,0.3581932604342699,-0.021803104876726865
1746476059983751400,10.14375146484375,-3.2714936132520434,0.8223752447769045,0.150292414406687
1746476059993747200,10.153747314453126,-3.8519431389331817,1.2298282106816767,0.16786197336688638
1746476060003743200,10.1637431640625,-4.019816656607389,1.44093150601238,0.08659136499911546
1746476060013740300,10.173740234375,-3.605217618340254,1.5280933643758297,-0.07450564427748323
1746476060023736300,10.183736328125,-2.6037077494233847,1.3784209815636277,-0.26077581938579675
1746476060033732000,10.193732177734375,-1.418555131292343,1.16541419069916,-0.28843700264096256
1746476060043728400,10.203728271484374,-0.34597207676470276,1.0114069935530423,-0.20493629713356493
1746476060053725200,10.21372509765625,0.5147743997216224,0.8500766139119863,-0.09643865914419293
1746476060063721200,10.22372119140625,1.1819032609462736,0.7241951487928628,-0.065485010214895
1746476060073717200,10.23371728515625,1.6961913384556768,0.6898267229840159,-0.11471695089563727
1746476060083714300,10.24371435546875,2.158828723704815,0.7243211132600903,-0.19077230883315205
1746476060093710000,10.2537099609375,2.5554239032477137,0.7943859986111521,-0.250283797596395
1746476060103706400,10.263706298828126,2.725010654580593,0.8619277952253818,-0.2218186044819653
1746476060113703200,10.273703125,2.5538527084082365,0.910182707567513,-0.08518500533252954
1746476060123699200,10.28369921875,2.047862503644824,0.9941565835446119,0.19678689294755458
1746476060133695500,10.293695556640625,1.3372411221742628,1.134170034390688,0.5344572975739836
1746476060143692300,10.3036923828125,0.7718862897723913,1.2862298968613146,0.8334034192696214
1746476060153688300,10.313688232421875,0.49714814213812347,1.3899790251493453,1.0032562741927802
1746476060163684400,10.323684326171875,0.4239841217279434,1.432290811178088,1.0727712705761194
1746476060173681200,10.33368115234375,0.37676878156661986,1.3528326590597628,1.1096711145587266
1746476060183677200,10.34367724609375,0.25482407137453555,1.2035431380853057,1.1137687591359018
1746476060193673500,10.353673583984374,0.08563888657987118,1.0304185680150986,1.0367736361302435
1746476060203669200,10.363669189453125,-0.04018178826272487,0.8543006613478064,0.9176089120455085
1746476060213666300,10.373666259765624,-0.07460662043392657,0.6703732499733567,0.7869725074842572
1746476060223662300,10.383662353515625,0.05147241308391094,0.4553516121551394,0.6710185621395707
1746476060233658400,10.393658447265626,0.3482920441448688,0.2536711019471288,0.5624312000401318
1746476060243655200,10.4036552734375,0.6469435668081045,0.09215864373743533,0.5018668412230909
1746476060253651500,10.4136513671875,0.8784265100836753,-0.009521277061104774,0.4738528990074992
1746476060263647200,10.423647216796875,0.9634130702346563,-0.056933308838307856,0.47845878536775704
1746476060273644300,10.433644287109376,0.9654881229430436,-0.06404781701862812,0.421933326677978
1746476060283640300,10.443640380859375,1.0096183565706014,-0.09659019644409418,0.32369974694103
1746476060293636400,10.45363623046875,1.0399100344598293,-0.14290332706868647,0.2077930017389357
1746476060303633200,10.463633056640624,1.0440373435229062,-0.18362784390598536,0.12511179592087865
1746476060313629400,10.47362939453125,1.0390846895515917,-0.2134764542028308,0.09955796020850538
1746476060323625200,10.483625244140624,1.0804834523886442,-0.24127894562482832,0.09439487835690379
1746476060333622300,10.493622314453125,1.0631091237396002,-0.2730801512941718,0.12538929768800736
1746476060343618300,10.503618408203126,1.0385124426215886,-0.3362894716620445,0.09032733665704727
1746476060353614300,10.5136142578125,0.9895745164513587,-0.380166607311368,-0.002477057638019323
1746476060363610400,10.5236103515625,0.9814859025418757,-0.4235948301494121,-0.11800137939378619
1746476060373607400,10.533607421875,0.9526081831037998,-0.45121290491521354,-0.22156141485050318
1746476060383603500,10.543603515625,0.8291390398234129,-0.5294733716815709,-0.15070318716466427
1746476060393599200,10.55359912109375,0.6441776092261076,-0.553209344317019,-0.05718874490410089
1746476060403596300,10.56359619140625,0.47414720577895636,-0.5133709626644849,-0.010345160664618014
1746476060413592300,10.57359228515625,0.34580314993858335,-0.44081981345564125,0.019231354692578313
1746476060423588400,10.58358837890625,0.22576748823821544,-0.4572840415224433,0.08885755636543034
1746476060433585200,10.593585205078124,0.07345218970179557,-0.5200502942979336,0.19162907179296015
1746476060443581400,10.60358154296875,-0.12096212889552116,-0.5995709902584553,0.2383765021815896
1746476060453577200,10.6135771484375,-0.2697609437435865,-0.6645733315229415,0.24025983171015977
1746476060463574300,10.62357421875,-0.3686526951283216,-0.7178793897747993,0.2844141768656671
1746476060473570300,10.6335703125,-0.4180062163621187,-0.7862152593761682,0.3238357944108546
1746476060483566300,10.64356640625,-0.34851065533161163,-0.8671776785776019,0.26655834830999375
1746476060493563100,10.653563232421876,-0.2594616680473089,-0.8987149726137519,0.2118165581665933
1746476060503559400,10.663559326171875,-0.12597849575281142,-0.9186489226177335,0.2671731192074716
1746476060513555200,10.67355517578125,0.028546880048513412,-0.9136012838393449,0.37409605522602796
1746476060523552300,10.68355224609375,0.20972879210710524,-0.9097329179733991,0.40018516685888167
1746476060533548300,10.69354833984375,0.398969507458806,-0.9432371281683445,0.38610914910286664
1746476060543544300,10.70354443359375,0.5812731170237064,-0.9805264098599552,0.3306283771604299
1746476060553540400,10.713540283203125,0.6898346140295266,-1.0002613301604986,0.33523996260911226
1746476060563537400,10.723537353515624,0.636051001393795,-0.9753855398401617,0.388841642806679
1746476060573533200,10.733533203125,0.41668870402276514,-0.8809887617871165,0.38342853171676394
1746476060583529200,10.743529296875,0.13214111003577708,-0.751718531012535,0.4327579414226114
1746476060593526300,10.7535263671875,-0.17907061899304388,-0.63917468637228,0.5005670106709004
1746476060603522300,10.763522216796876,-0.47919513681828974,-0.6121607149794698,0.6214649882890284
1746476060613518300,10.773518310546875,-0.765128047683835,-0.6668377693235874,0.7338489661924541
1746476060623515400,10.783515380859376,-1.0220119741976261,-0.7718707999423146,0.7725560057274997
1746476060633511400,10.793511474609375,-1.100579314956069,-1.035223922470212,0.821445562711358
1746476060643507200,10.803507080078125,-0.8986077128469944,-1.5519222759917377,0.9806117500558494
1746476060653504300,10.813504150390624,-0.4763116903364658,-1.9842858112692832,1.0867596100486814
1746476060663500300,10.823500244140625,-0.03172375651896,-2.16488086335063,1.1311173688217997
1746476060673496300,10.833496337890624,0.18938158512711523,-2.1067139210641384,1.0252508099883795
1746476060683488300,10.84348828125,-0.1697545091152191,-1.861997694467008,0.7349360307767987
1746476060693484300,10.853484375,-1.135356029304862,-1.4205129873618483,0.4811049159623682
1746476060703480300,10.863480224609376,-2.427220717182755,-0.9178671245902776,0.2332113745033741
1746476060713476000,10.87347607421875,-3.6449388033539054,-0.4823375264972448,0.002043196265399456
1746476060723473400,10.883473388671876,-4.455494138738513,-0.004498188202083111,-0.09536620760709047
1746476060733469200,10.89346923828125,-4.914344406664371,0.45482788054198026,-0.05691241218075156
1746476060743465200,10.90346533203125,-5.0328568043202155,0.7543664151728153,0.0981970471188426
1746476060753462300,10.913462158203124,-4.755340424144268,0.9801786193355917,0.24698650961667298
1746476060763458300,10.923458251953125,-4.031241136941314,1.1778870110422373,0.3990041403807699
1746476060773454000,10.9334541015625,-3.0148744751542806,1.4446139939174054,0.46292233967036006
1746476060783451400,10.943451416015625,-1.9244833767354488,1.7807304471001029,0.40830359138473865
1746476060793447200,10.953447265625,-0.9405734619170427,2.0424547993823885,0.2504531628139317
1746476060803443200,10.963443115234375,-0.0067740241795778275,2.2256784464016555,0.05499737233966589
1746476060813440300,10.973440185546876,0.9180079943656921,2.360030218224227,-0.17438932930901646
1746476060823436300,10.983436279296875,1.8445137679636476,2.3664964916288853,-0.44057270682677624
1746476060833432300,10.993432373046875,2.7280811480671168,2.2668770104914904,-0.747291069959104
1746476060843429400,11.003429443359375,3.505487078043818,2.080411605072021,-1.031922542837262
1746476060853425200,11.013425048828125,4.190830225872993,1.811590572527051,-1.2339051047317684
1746476060863421200,11.023421142578124,4.7097225823074576,1.562586001086235,-1.352803286834806
1746476060873417200,11.033417236328125,4.902267599901557,1.3759239040508866,-1.3525021119311451
1746476060883414300,11.043414306640624,4.644897351175547,1.3522101432472466,-1.2786907335281372
1746476060893410300,11.053410400390625,4.001066363430023,1.5092647452652455,-1.1626058552801608
1746476060903406000,11.063406005859376,3.2363176704525944,1.6344123431518673,-1.0951415078163147
1746476060913403400,11.0734033203125,2.5292080964952706,1.6413102859720587,-0.9918060748957097
1746476060923399200,11.083399169921876,1.933285691872239,1.613284214927256,-0.7031598134182393
1746476060933395200,11.093395263671875,1.4746300697356463,1.574432213963568,-0.3074921239838004
1746476060943392300,11.103392333984376,1.1956336801350116,1.4257415356650949,0.06153788002431392
1746476060953388300,11.11338818359375,1.101578847387433,1.1750722458824514,0.3634880058415234
1746476060963384000,11.123384033203125,1.155542492765188,0.9050751552954316,0.5677062178336083
1746476060973381400,11.13338134765625,1.319038526007533,0.6482578642770648,0.6426971614100039
1746476060983377200,11.143377197265625,1.4517618198454378,0.4208718349263072,0.6765003545515239
1746476060993373200,11.153373291015624,1.4464005850732327,0.2367670211583376,0.8187276820547879
1746476061003370200,11.163370361328125,1.2743646870225667,0.04045505224615335,0.9781843767784535
1746476061013366300,11.1733662109375,0.909210939925909,-0.09322072001099586,1.0206608518496154
1746476061023362000,11.183362060546875,0.4614934759110212,-0.10319383249282836,0.908695245488733
1746476061033358300,11.1933583984375,-0.022424597775936125,-0.07116875493973493,0.5939022969722747
1746476061043355100,11.203355224609375,-0.5012292739719152,-0.08653671220242977,0.32255496082007884
1746476061053351200,11.21335107421875,-0.9162672881782055,-0.16951836227178574,0.16366028389334678
1746476061063347500,11.223347412109375,-1.2298796486079693,-0.28198417323976754,0.08661372296139597
1746476061073344300,11.23334423828125,-1.3725392300486563,-0.37286271403878923,0.1502370309576392
1746476061083340300,11.24334033203125,-1.3818255293101072,-0.4208841098859906,0.2081919379286468
1746476061093336300,11.25333642578125,-1.2715011142849921,-0.505894050912559,0.23059607743844387
1746476061103333000,11.2633330078125,-1.0530033247888089,-0.6416419532686471,0.20776289886161683
1746476061113329200,11.2733291015625,-0.872498289078474,-0.7877496293365955,0.05659399388134479
1746476061123325400,11.283325439453124,-0.7470967164307832,-0.9243038796395063,-0.18059286012426018
1746476061133322200,11.293322265625,-0.6415963605612516,-1.0502867593064904,-0.38955300594642756
1746476061143318300,11.303318359375,-0.5140624520599841,-1.1621367764636874,-0.5121418592609465
1746476061153314300,11.313314208984375,-0.39624388188719745,-1.1965551788941025,-0.5005661338880658
1746476061163311400,11.323311279296876,-0.25871932524740693,-1.1684008052945136,-0.4467378053277731
1746476061173307100,11.33330712890625,-0.13316519238650798,-1.106765602375567,-0.3661700845323503
1746476061183303200,11.34330322265625,-0.08468611589968204,-1.0313175626814364,-0.20105331822037695
1746476061193299200,11.35329931640625,-0.1480862826645374,-0.89670421731323,-0.06594444442018867
1746476061203296300,11.363296142578125,-0.29935704058408735,-0.805277687242627,0.004776859012991189
1746476061213292000,11.3732919921875,-0.42169513400793074,-0.7803481209084391,0.024817338131368157
1746476061223288300,11.383288330078125,-0.3948305079579353,-0.7677966823711991,-0.025239509066194293
1746476061233285000,11.39328515625,-0.21252631387114523,-0.7313134563654661,-0.12337766560465097
1746476061243281200,11.40328125,-0.01412204885482788,-0.719084673911333,-0.24790786224529146
1746476061253277200,11.413277099609376,0.17949381284117696,-0.7418667068228125,-0.3549257830709219
1746476061263274200,11.423274169921875,0.3307996420741081,-0.7439543267518282,-0.459534596928209
1746476061273270000,11.43327001953125,0.3373135540127754,-0.7829775926291942,-0.5496661187522113
1746476061283266300,11.443266357421875,0.19265432318747042,-0.8224629230603575,-0.5032539116673171
1746476061293263000,11.45326318359375,-0.025372926187515257,-0.8814388436421752,-0.38602161694988607
1746476061303259100,11.463259033203125,-0.19682371782660482,-0.8666653451412916,-0.3597863748446107
1746476061313255400,11.47325537109375,-0.29399814389944073,-0.8426903030529618,-0.41005949514135714
1746476061323251200,11.483251220703124,-0.29450433985590935,-0.8270549270257354,-0.46019978283867236
1746476061333248300,11.493248291015625,-0.27798692029714583,-0.8118640798956155,-0.521334488889575
1746476061343244300,11.503244384765624,-0.3293389218717813,-0.7921312054216861,-0.49545872774645683
1746476061353240300,11.513240234375,-0.46008711624443527,-0.8021914116650819,-0.35391879798546433
1746476061363237000,11.523237060546874,-0.5726829833328724,-0.8082920666277408,-0.17508125709593295
1746476061373233400,11.5332333984375,-0.6233019944578408,-0.8595639887034893,0.07705182162895798
1746476061383229200,11.543229248046876,-0.5200105468094348,-1.0329545162335037,0.3223646989449859
1746476061393226200,11.553226318359375,-0.23205869733691215,-1.400005913645029,0.40157837478294967
1746476061403222300,11.56322216796875,0.21542729600965976,-1.7129846523463725,0.2835252652019262
1746476061413218300,11.57321826171875,0.6539712734878063,-1.6766919804766773,0.2323163253597915
1746476061423215000,11.583215087890625,0.8747966291487217,-1.2783882434502243,0.27478943943008777
1746476061433211400,11.59321142578125,0.48597442169487476,-0.7271680271238088,0.33136092921867966
1746476061443207200,11.603207275390625,-0.6528852318167686,-0.36905659975409505,0.3600083470322192
1746476061453204200,11.613204345703124,-2.0174603511184452,-0.15852876622378825,0.3887188932098448
1746476061463200300,11.6232001953125,-3.2354297817021607,0.12368220150917768,0.29849092527404425
1746476061473196300,11.6331962890625,-3.9703035608977078,0.6108171914160251,-0.009232669378072022
1746476061483192300,11.6431923828125,-4.111241725373268,1.105763731856644,-0.23525457076877354
1746476061493189400,11.653189453125,-4.05702147488594,1.3846663056939839,-0.15490633794292807
1746476061503185200,11.66318505859375,-3.797313138601184,1.6144661181882023,-0.050279842298477886
1746476061513181200,11.67318115234375,-3.160107706475258,1.9384598796397448,-0.06823913122862577
1746476061523178200,11.68317822265625,-2.2483295464098454,2.115217253254354,-0.20212401619181036
1746476061533174300,11.69317431640625,-1.242567865267396,2.0014272079452873,-0.3033437721326947
1746476061543170300,11.70317041015625,-0.21220774944126605,1.7026602422088384,-0.2936883472979069
1746476061553167400,11.71316748046875,0.8270616490274667,1.4488465169206262,-0.3411629229173064
1746476061563163400,11.723163330078124,1.770931229880452,1.295408936356008,-0.3623291911952197
1746476061573159200,11.7331591796875,2.482526424819231,1.185709375230968,-0.30072204532697794
1746476061583156200,11.74315625,2.858184614795446,1.0788821546718477,-0.16289909026250243
1746476061593152300,11.75315234375,2.7998563444674014,1.0155223199173808,0.07856149553954601
1746476061603148300,11.763148193359376,2.1918927889168263,1.0700456450045108,0.3068132018089294
1746476061613144000,11.77314404296875,1.2137491825401783,1.2481143934786318,0.3586391045056283
1746476061623141400,11.783141357421876,0.35499651021957396,1.4639412101998925,0.2549048815257847
1746476061633137200,11.79313720703125,-0.23740005836486816,1.6174609160900115,0.19524974650815127
1746476061643133200,11.80313330078125,-0.590007627621293,1.639246923701465,0.15730390060395003
1746476061653130200,11.813130126953125,-0.696152711135149,1.569214479315281,0.11057006034925579
1746476061663126300,11.823126220703125,-0.4752841008543968,1.456862650115788,0.017532441820204258
1746476061673122000,11.8331220703125,0.002869417956471443,1.3169587971240282,-0.10538666636198758
1746476061683119400,11.843119384765625,0.5398457126140594,1.1231637794688343,-0.23587445623278616
1746476061693115000,11.853114990234374,1.032210127606988,0.8887523815259337,-0.3377608593888581
1746476061703111200,11.863111083984375,1.356974581170082,0.6467945137262344,-0.4077604244187474
1746476061713108000,11.87310791015625,1.5363514896333217,0.38622868382930753,-0.44467415079623457
1746476061723104000,11.88310400390625,1.6403747586876154,0.2026610456779599,-0.42627544753551483
1746476061733100300,11.893100341796876,1.6992676771610975,0.09744330614209175,-0.3697131639666855
1746476061743097000,11.90309716796875,1.780692745438218,0.007552607336640357,-0.27593597911670803
1746476061753093000,11.913093017578126,1.8095277947783468,-0.05334931287169456,-0.16722718259468675
1746476061763089200,11.923089111328125,1.781362607523799,-0.11120382820814848,-0.13925108817145226
1746476061773085200,11.933085205078125,1.749601441603899,-0.16558131508380175,-0.17195362659469246
1746476061783082000,11.94308203125,1.7307137857824564,-0.20481442431956529,-0.16331044754236937
1746476061793078300,11.953078369140625,1.6888497435212135,-0.22399492560774087,-0.1703364006564021
1746476061803074000,11.963073974609374,1.5577899989813566,-0.2181853625461459,-0.202788617580384
1746476061813071000,11.973071044921875,1.3110679855197667,-0.24630086544007063,-0.214779645755887
1746476061823067100,11.983067138671874,1.1120867973983286,-0.3278597892299294,-0.23191958112716674
1746476061833063200,11.993063232421875,0.9591805472314358,-0.39555648414492606,-0.26298165886700153
1746476061843060000,12.00306005859375,0.8349842587202787,-0.4668956272155046,-0.29639000747203825
1746476061853056300,12.01305615234375,0.6821516583114862,-0.5017857388108968,-0.33587110011950133
1746476061863052000,12.023052001953126,0.4137713552713394,-0.5345505288153887,-0.42866292719393967
1746476061873049000,12.033049072265625,-0.020729484295845032,-0.5673942292749882,-0.37207156366109845
1746476061883045000,12.043045166015625,-0.5116553909182548,-0.6133978555589914,-0.2339142620757222
1746476061893041200,12.053041259765624,-0.9287532602638006,-0.6486290356770158,-0.08985475070923567
1746476061903038000,12.063037841796875,-1.157894608849287,-0.6912143779501319,-0.024522446838021277
1746476061913034200,12.0730341796875,-1.1810048508018254,-0.7467828281760215,-0.01397021929398179
1746476061923030000,12.083030029296875,-1.0732950021892786,-0.8515931559547781,0.015090455495566129
1746476061933026000,12.093026123046876,-0.8538602241039276,-1.0302331284455954,0.0008756137907505035
1746476061943023000,12.103023193359375,-0.6200783562362193,-1.2031189213238656,-0.0019574176780879494
1746476061953019100,12.11301904296875,-0.5145218862652778,-1.342737819894403,0.07668094248995184
1746476061963015200,12.12301513671875,-0.5460001435905695,-1.438645879293233,0.3167304924502969
1746476061973012200,12.13301220703125,-0.6610854894071817,-1.4095663536727427,0.6243925661735237
1746476061983008300,12.14300830078125,-0.7361947986662387,-1.2531925735257565,0.8764213077411055
1746476061993004000,12.153004150390625,-0.699058369448781,-1.0819674073360859,0.9945692559987306
1746476062003001000,12.1630009765625,-0.49996144599318504,-0.9191378751784562,0.9041400664024054
1746476062012997000,12.1729970703125,-0.2697393164336681,-0.820778038713336,0.762063691677153
1746476062022993200,12.1829931640625,-0.04555763608217239,-0.8086477481976151,0.5815567562706768
1746476062032990200,12.192990234375,0.03753858027756214,-0.8040121973514557,0.36235768663734197
1746476062042986200,12.202986328125,0.003909866920113563,-0.7749410011678933,0.11786299383640289
1746476062052982000,12.21298193359375,-0.14431611647605896,-0.7731453499227762,-0.13345555363520978
1746476062062978000,12.22297802734375,-0.39903672747611996,-0.7287336690053343,-0.30530192046314475
1746476062072975000,12.23297509765625,-0.6483493419528007,-0.6405442211598158,-0.41310602323040363
1746476062082971100,12.24297119140625,-0.914473975020647,-0.688457480457425,-0.5154381243273616
1746476062092967000,12.252966796875,-1.0033838460952043,-1.066339776223898,-0.45402167872563004
1746476062102964200,12.262964111328126,-0.607156330820918,-1.6398644710779189,-0.3175301183953881
1746476062112960000,12.2729599609375,0.06717442460656166,-1.865339698371291,-0.3163851861439645
1746476062122956000,12.2829560546875,0.7232944005608558,-1.616846583583951,-0.38989436673000455
1746476062132953000,12.292953125,0.8717062619179486,-1.096821131466329,-0.4412888922721147
1746476062142949000,12.30294921875,0.020714286726713178,-0.6073299338221549,-0.2854362133897841
1746476062152945200,12.312945068359374,-1.414987209677696,-0.12138123109042644,-0.009153612792491913
1746476062162942200,12.322942138671875,-3.091176209068298,0.39659561793431636,0.2615678465463221
1746476062172938000,12.33293798828125,-4.666584282326698,0.8593576524764299,0.619252719067037
1746476062182934000,12.34293408203125,-5.550927907499671,1.3834740271694956,0.895499225437641
1746476062192931000,12.35293115234375,-5.5511529484272,1.868312576702237,1.1241907844290138
1746476062202927000,12.362927001953125,-4.546961293080449,2.1363956503614783,1.1118111953273415
1746476062212923100,12.372923095703126,-2.960091330087185,2.1041317956164476,0.8499148474790156
1746476062222919200,12.382919189453125,-1.2349047832936049,1.7879080836445091,0.44789267445132136
1746476062232916200,12.392916259765625,0.19538579397797584,1.5526523438319564,0.022616467086225747
1746476062242912000,12.402912109375,1.4526502931177616,1.474441853687167,-0.3961193787246942
1746476062252908300,12.412908203125,2.5926415810078383,1.3260004739746452,-0.8027896698191761
1746476062262905000,12.422905029296874,3.6234114466786385,1.0777166180238127,-1.1839575631275772
1746476062272901000,12.432901123046875,4.413545340803266,0.7768938888013363,-1.4577663209572433
1746476062282897000,12.44289697265625,4.8447909779667855,0.49159752227365966,-1.641751599998772
1746476062292894200,12.452894287109375,4.835836687138676,0.36507922055572267,-1.7358201690107582
1746476062302890000,12.462889892578126,4.143876751518249,0.37200405138283965,-1.5755264389410615
1746476062312886000,12.472885986328125,2.860982721081376,0.5131909299224615,-1.290666418004036
1746476062322883000,12.482883056640626,1.6123866815656422,0.8126847486287355,-1.170161823617667
1746476062332879000,12.492879150390625,0.6008972704261542,1.137094105143845,-1.02285763124153
1746476062342875000,12.502875,-0.40536008527874945,1.271339201721549,-0.9637963704638183
1746476062352872200,12.5128720703125,-1.1183879433691502,1.1979150690704583,-0.7384092598453164
1746476062362868000,12.522867919921875,-1.4207774835169316,1.0445052532956003,-0.4591508583076298
1746476062372864000,12.532864013671874,-1.326972241616249,0.7910071698278188,-0.19599135865569114
1746476062382860300,12.5428603515625,-0.8948755405813456,0.5319836009368301,0.024314795436710116
