time,seconds_elapsed,z,y,x
1746476111119573800,0.06657373046875,1.3103320724606513,-0.813345842885971,-1.284993486934155
1746476111129571000,0.076571044921875,1.302872404104471,-0.8156029741629958,-1.0000544094115495
1746476111139566800,0.08656689453125,1.2385235583126544,-0.7979127114325761,-0.7232537762895226
1746476111149564000,0.09656396484375,1.2235890240311622,-0.7190484335541725,-0.4451780451977625
1746476111159560000,0.106559814453125,1.2025941667973994,-0.6870899914965033,-0.24103472507279364
1746476111169556000,0.116555908203125,1.1756003614097832,-0.6952300433322787,-0.13618220212012527
1746476111179553000,0.126552978515625,1.136549623003602,-0.6922950127936899,-0.08651548675131052
1746476111189549000,0.136549072265625,1.0110586185067891,-0.6929295113049447,-0.03727941788472235
1746476111199545900,0.1465458984375,0.8123720294177532,-0.7332230893790721,0.034608974832762034
1746476111209542100,0.156542236328125,0.5955997485399246,-0.790649588561803,0.07840796721195802
1746476111219538000,0.166537841796875,0.34640345391929145,-0.805610718589276,0.1076375140286982
1746476111229535000,0.176534912109375,0.21153379570245742,-0.845405407230556,0.13366698616249487
1746476111239531000,0.186531005859375,0.14800328055620193,-0.9457279220707714,0.14495335493367165
1746476111249527000,0.196527099609375,0.12217968799173831,-1.0695758355356753,0.1551077057339251
1746476111259523800,0.20652392578125,0.21153554926812648,-1.1754217899724841,0.16151141703007743
1746476111269520100,0.21652001953125,0.3396393666118383,-1.2140890820190309,0.1652243366059847
1746476111279517000,0.226516845703125,0.4598194052189588,-1.2359651060014962,0.2261719225869514
1746476111289513000,0.236512939453125,0.521893876338005,-1.2814853326827287,0.21991470708940178
1746476111299509000,0.246509033203125,0.5312719455361365,-1.2903190658710897,0.2363708249149844
1746476111309506000,0.256506103515625,0.4362497290611267,-1.256163552160561,0.31748781362362205
1746476111319501800,0.266501708984375,0.11767594683170318,-1.2513514757037163,0.31814284346625205
1746476111329497900,0.276497802734375,-0.2633604290515184,-1.1687775296524165,0.30876689315997063
1746476111339495000,0.286494873046875,-0.5678238528639078,-1.0519405178628862,0.24041768915299325
1746476111349491000,0.296490966796875,-0.6065057579576969,-0.9120331577397882,0.1333715468798764
1746476111359488000,0.306488037109375,-0.6105068102926016,-0.8225527933008968,0.05824871141896583
1746476111369484000,0.316484130859375,-0.5846937391221523,-0.8287196453675627,0.032986771325254814
1746476111379479800,0.326479736328125,-0.5069295314401387,-0.9246469939887523,0.024344350324757395
1746476111389477000,0.33647705078125,-0.40647418400049207,-1.093955659032613,0.00056903205960989
1746476111399473000,0.346472900390625,-0.2385609188377857,-1.2897317675024271,0.01596579529168084
1746476111409470000,0.356469970703125,-0.12317980494499206,-1.493088394229114,0.14794464570414273
1746476111419466000,0.366466064453125,-0.10013093779087066,-1.588614176312089,0.2913386058339849
1746476111429462000,0.3764619140625,-0.03992459863126278,-1.6222081106171011,0.2891791993103921
1746476111439458800,0.386458740234375,0.014729951620101928,-1.6875652566686272,0.09296612419541925
1746476111449455000,0.396455078125,0.0021586393386125564,-1.7460878805249929,-0.1515041648166254
1746476111459451000,0.406450927734375,-0.008034253373742103,-1.6167890081778167,-0.04789630816280842
1746476111469448000,0.416447998046875,-0.1598603070884943,-1.5438675643518567,0.14426142714675516
1746476111479444000,0.42644384765625,-0.38275954641401766,-1.632149074395001,0.3192953379696235
1746476111489441000,0.43644091796875,-0.6299895093977451,-1.6562267000749706,0.5004204418070614
1746476111499436800,0.446436767578125,-0.8744593600183724,-1.6067425381988285,0.5674937806593254
1746476111509433000,0.45643310546875,-1.074916465911269,-1.4905015926063059,0.5195277317285537
1746476111519430000,0.466429931640625,-1.1615618991851806,-1.3137991640493274,0.49092141311038284
1746476111529426000,0.476426025390625,-1.1859972522616387,-1.2109978380054234,0.4382463827710599
1746476111539423000,0.486423095703125,-1.062469656792283,-1.58024762224406,0.3749429909115657
1746476111549419000,0.4964189453125,-0.5948708497434854,-1.9687442510053514,0.4901536801408976
1746476111559414800,0.506414794921875,-0.05717968481481075,-1.7154264925405383,0.6629176002051681
1746476111569412000,0.516412109375,0.3370920202165842,-1.021124377708137,0.5569058607473969
1746476111579408000,0.526407958984375,0.2915203556090593,-0.37542145861089227,0.1870124448429793
1746476111589404000,0.53640380859375,-0.5007096340119839,-0.015293138460814952,-0.10625526589006185
1746476111599401000,0.54640087890625,-1.7598317437171935,0.23081863414794204,-0.1749336653187871
1746476111609397000,0.55639697265625,-2.9760727430731055,0.6122650521367788,-0.22280352386608718
1746476111619393800,0.566393798828125,-3.8303146599709987,1.102201655460894,-0.33417657116129995
1746476111629390000,0.57639013671875,-4.259890902617573,1.5299626653790472,-0.5132549350693821
1746476111639385900,0.5863857421875,-4.197426555398106,1.8658312812805176,-0.7064144313000142
1746476111649383000,0.5963828125,-3.6992590070843696,2.0451213882431385,-0.7491723536610603
1746476111659379000,0.60637890625,-2.8255209470778704,2.0932199409797785,-0.6622893853042274
1746476111669376000,0.6163759765625,-1.840109980046749,2.0285440551906824,-0.5000715918367729
1746476111679371800,0.626371826171875,-0.8797311629414558,1.7911857901409267,-0.33870537369735537
1746476111689368000,0.6363681640625,-0.018418869265913962,1.5346970004245637,-0.13513817295990885
1746476111699364900,0.64636474609375,0.8045236540049314,1.3873901776999233,0.011499518331512809
1746476111709361000,0.65636083984375,1.534463483929634,1.328953186300397,0.09838723592869937
1746476111719357000,0.66635693359375,2.1106389855533836,1.2942659038007258,0.13615626396127045
1746476111729354000,0.67635400390625,2.4840865137428043,1.2267922039866446,0.23973712301030753
1746476111739348200,0.68634814453125,2.6522482007086277,1.1828133615285157,0.39939175145886835
1746476111749345000,0.696344970703125,2.6411107206225393,1.1395543577775358,0.5832257854614407
1746476111759341000,0.706341064453125,2.4445687423467635,1.1672186097726225,0.8043340497169643
1746476111769336800,0.7163369140625,1.902205493953824,1.2719164170876145,0.9985139750365167
1746476111779334100,0.726334228515625,1.211066227066517,1.4350278349265455,0.9664321988601237
1746476111789330000,0.736329833984375,0.6017167701154947,1.5837454012319445,0.650006753771007
1746476111799327200,0.7463271484375,0.12185878547430037,1.7239181342929601,0.21376513495109975
1746476111809323000,0.756322998046875,-0.07567337288260459,1.7503616123214363,-0.23747115083970127
1746476111819319000,0.766319091796875,-0.03862696003615856,1.695269839696586,-0.6338986456654966
1746476111829316000,0.776316162109375,0.1341489427268505,1.5333081764146685,-0.8482180534984916
1746476111839312100,0.78631201171875,0.20506606099307537,1.317606155116856,-0.9287344094328581
1746476111849308000,0.796307861328125,0.16487375133633614,1.1535726539969444,-0.8755131799202411
1746476111859305200,0.80630517578125,-0.04548749345541,1.075050905945897,-0.6899884894169867
1746476111869301000,0.816301025390625,-0.2405664134413004,1.060272439008951,-0.5209824605815112
1746476111879298000,0.826298095703125,-0.3360673533439636,1.0469196209609508,-0.38707192972041665
1746476111889294000,0.836294189453125,-0.31245500708818436,1.0294999918654562,-0.2803116369176656
1746476111899290000,0.8462900390625,-0.20461013391911984,0.9790522456541657,-0.1655999467190355
1746476111909287000,0.856286865234375,-0.06204582954645157,0.8310878358036279,-0.08206227020211518
1746476111919283200,0.866283203125,0.01040858128964901,0.6507011657759547,0.10894881582297385
1746476111929279000,0.876279052734375,-0.06698737760186195,0.5034992647305131,0.3261528391815722
1746476111939276000,0.886276123046875,-0.20970774931907651,0.4859612699523568,0.4975125915363431
1746476111949272000,0.89627197265625,-0.25119828209280964,0.5139256739377975,0.5290935055185109
1746476111959269000,0.90626904296875,-0.2886538602620363,0.4643693236082792,0.526620758729428
1746476111969265000,0.916264892578125,-0.28480069196522234,0.3352773720100522,0.540741127083823
1746476111979261200,0.92626123046875,-0.20595278069972991,0.2100356660991907,0.562979189311713
1746476111989258000,0.936258056640625,-0.022186697366833687,0.12891016529053448,0.5663653976839036
1746476111999254000,0.94625390625,0.21081717186570167,0.05124386502504349,0.5390740706544369
1746476112009250000,0.95625,0.3875082022458315,-0.010883213064074516,0.4319759972646832
1746476112019247000,0.9662470703125,0.5155447995722293,-0.03811638016551733,0.2767350936051458
1746476112029243000,0.976242919921875,0.7150918048828839,-0.16581892323195932,0.14949804915860293
1746476112039240200,0.986240234375,1.0245470456331969,-0.36157998026311394,0.10541092402040958
1746476112049236000,0.996236083984375,1.3509089975208044,-0.4960901575177908,0.11104827232025563
1746476112059232000,1.00623193359375,1.7234587000876664,-0.5649617414310574,0.14147643607072533
1746476112069229000,1.01622900390625,2.056058669582009,-0.6221195066750049,0.19894670132994652
1746476112079225000,1.02622509765625,2.242161086907983,-0.6342869143307208,0.3243888251837343
1746476112089221000,1.03622119140625,2.1758622760921718,-0.6818301712721586,0.4808865239713341
1746476112099218200,1.04621826171875,1.7117057184517384,-0.6613619682610035,0.6241515239592641
1746476112109214000,1.0562138671875,0.9648194299012423,-0.5958969779208302,0.7392298555132001
1746476112119211000,1.0662109375,0.3723240771174431,-0.5817074167877435,0.693283804635331
1746476112129207000,1.07620703125,0.03161971162259578,-0.590608223862946,0.5854194230481982
1746476112139203000,1.086203125,-0.040789106506109236,-0.582333147470653,0.4905532008524984
1746476112149200000,1.096199951171875,-0.020743512821197508,-0.6371832202941179,0.5049846079174429
1746476112159196200,1.106196044921875,0.11443594199717044,-0.692752839563787,0.48020453305654226
1746476112169192200,1.116192138671875,0.4109557133287191,-0.7559668361067772,0.48015660226158796
1746476112179189000,1.12618896484375,0.8081693170309067,-0.7978931299492716,0.4733107549548149
1746476112189185000,1.13618505859375,1.1351017622828483,-0.8017667565122246,0.4992405113074928
1746476112199182000,1.14618212890625,1.1366793868631124,-0.6583034574732184,0.5834457848876714
1746476112209177900,1.156177734375,0.9471540093511343,-0.7573433851569891,0.3584933393593877
1746476112219174100,1.166174072265625,0.5313572857320308,-0.8149512322559952,0.19996479233130812
1746476112229171000,1.1761708984375,0.18369009548723697,-0.7095400159746408,0.1660036321491003
1746476112239167000,1.1861669921875,-0.03110357879400253,-0.6914829657584428,0.07813705958239733
1746476112249163300,1.196163330078125,-0.11400807197391986,-0.733339116974175,0.02988302402310073
1746476112259160000,1.20616015625,-0.027644378250837324,-0.7943380678161979,0.10554843279495835
1746476112269156000,1.216156005859375,0.1096668278992176,-0.8922071981549262,0.24479433333463965
1746476112279152000,1.226152099609375,0.2242126600116491,-1.0270546445399522,0.3843064835950732
1746476112289149000,1.23614892578125,0.25058161149919034,-1.1726233914256095,0.5496546475101262
1746476112299145000,1.24614501953125,0.19383038122951984,-1.3070154952585697,0.6957905998244881
1746476112309142000,1.25614208984375,0.08590952021479606,-1.4383753917887807,0.8882509348098188
1746476112319138000,1.266137939453125,-0.12111059745550155,-1.5327183938279747,1.1216168422877788
1746476112329134000,1.276134033203125,-0.36864275825619697,-1.6247320761367678,1.2352075656324624
1746476112339131100,1.286131103515625,-0.5978250233739614,-1.7104346756026148,1.2600116058908402
1746476112349127200,1.296127197265625,-0.6455202560067177,-1.7205311222031712,1.2456062100499867
1746476112359123000,1.306123046875,-0.5139619142949581,-1.7550895176261663,1.2351603654898702
1746476112369120000,1.3161201171875,-0.3476052309244871,-1.79920864533782,1.2481406969636677
1746476112379116000,1.326115966796875,-0.2228805346250534,-1.880142130705714,1.273743047992885
1746476112389112800,1.33611279296875,-0.08996084143221378,-1.9598250314906238,1.3065452473983168
1746476112399109000,1.346109130859375,-0.037188451665639874,-2.123372794920206,1.3685215188398956
1746476112409105200,1.356105224609375,-0.015450667110085487,-2.590396140168607,1.4540297647774219
1746476112419102000,1.36610205078125,0.37777591278254985,-3.209520264419913,1.634854095569998
1746476112429098200,1.37609814453125,1.0017688121140003,-3.0260753758653998,1.5398272029198705
1746476112439094000,1.386093994140625,1.3039461708158253,-2.209093806825578,0.9176042358703911
1746476112449091000,1.396091064453125,0.9493839603602886,-1.4567884158357978,0.1081621224246919
1746476112459087000,1.406087158203125,-0.3615782266974449,-0.725129214772582,-0.32139592697806657
1746476112469083100,1.416083251953125,-2.2997096050351855,-0.023337913228571414,-0.24560148499906062
1746476112479080000,1.426079833984375,-4.340712744304538,0.4621028399810195,0.030654665982723234
1746476112489076200,1.436076171875,-5.732661023700237,0.8611306534983217,0.2741483285149559
1746476112499073000,1.446072998046875,-6.093427934014797,1.2915841173708438,0.4018729372827336
1746476112509069000,1.456069091796875,-5.995573124462366,1.8765430833004413,0.14201609590537845
1746476112519065000,1.466065185546875,-5.1479450727462766,2.2705070375569165,-0.008717997854202986
1746476112529062100,1.476062255859375,-4.057397322461009,2.249292984614521,-0.20335249854084103
1746476112539058000,1.486057861328125,-3.045772886765003,2.138463250415772,-0.42218394043818114
1746476112549054200,1.49605419921875,-1.8391899425923823,2.181215912079811,-0.45427039278969167
1746476112559051000,1.506051025390625,-0.5566846192121505,2.194830595934391,-0.629111265258491
1746476112569047000,1.516047119140625,0.7123164949506521,2.1219842631712553,-0.955283101401478
1746476112579043000,1.52604296875,1.8959470180809497,2.0078958194375036,-1.2572051701679825
1746476112589040000,1.5360400390625,2.924458291170001,1.8747946321979163,-1.4907028142668306
1746476112599036000,1.546035888671875,3.7212031278669833,1.6692422489926217,-1.6390487707808612
1746476112609033200,1.556033203125,4.423583335214853,1.4011571295067666,-1.7190873531356452
1746476112619029000,1.566029052734375,4.8984582707464694,1.0838090896800159,-1.7589418091401456
1746476112629025000,1.57602490234375,5.0772687774986025,0.8599819218546152,-1.6363988407939671
1746476112639022000,1.58602197265625,4.8551504594177,0.7761337180837988,-1.3972393715411424
1746476112649018000,1.59601806640625,3.9964720213770866,0.8251277583554386,-1.183576308725029
1746476112659014000,1.606013916015625,2.660537305626273,1.0243982848122715,-1.1250572650652377
1746476112669011200,1.61601123046875,1.3139175297319887,1.37672849843204,-0.9957086352922022
1746476112679007000,1.626007080078125,0.10627893902659416,1.686734066541493,-0.7630620550647378
1746476112689003000,1.6360029296875,-0.9901017551958561,1.7681310777679085,-0.329954679149948
1746476112699000000,1.646,-1.8194038766264915,1.638501073770225,0.1312277215179056
1746476112708996000,1.65599609375,-2.1890262935698033,1.3979448894619941,0.6063121350817382
1746476112718993000,1.665992919921875,-1.9775830987602472,1.081151268647611,0.9458030331335961
1746476112728989200,1.6759892578125,-1.3373206171512604,0.6597013415724039,1.06571536071524
1746476112738984700,1.685984619140625,-0.5170388375222683,0.1670548947677016,1.0801492519982159
1746476112748981800,1.695981689453125,0.18771628226339815,-0.3044207537144422,1.1613158885348587
1746476112758977500,1.7059775390625,0.6881751563847065,-0.7033689261242747,1.2579159487858413
1746476112768973600,1.7159736328125,0.992429321360588,-0.924794878026843,1.2233468858383596
1746476112778970400,1.725970458984375,1.1099965471208095,-1.0044406616717576,1.0761937923707068
1746476112788966700,1.735966552734375,1.0607102459043263,-0.9939341729655862,0.8337639231450855
1746476112798962700,1.745962646484375,0.8461603172510862,-0.981873440554738,0.5965780189875513
1746476112808959500,1.75595947265625,0.6453951683223247,-0.9345268752291798,0.5028538064338266
1746476112818955800,1.765955810546875,0.5702075331300497,-0.8842845884621143,0.4154805703420192
1746476112828951600,1.77595166015625,0.5790864206343889,-0.7944736768946051,0.28776933251246806
1746476112838948600,1.785948486328125,0.7296580903738736,-0.7250503043174743,0.0829596209006384
1746476112848944600,1.795944580078125,0.8929635694801807,-0.6296642229661346,-0.12200268745701759
1746476112858941400,1.80594140625,1.0730296292513608,-0.5657543531134724,-0.20925401420220732
1746476112868937500,1.8159375,1.2428899368286133,-0.5051297885417938,-0.21594569386057555
1746476112878933800,1.825933837890625,1.3684265340328217,-0.49157706400752066,-0.1978245288996026
1746476112888930600,1.8359306640625,1.3965508047550916,-0.508797955660522,-0.19569796519968657
1746476112898926600,1.845926513671875,1.3257295480787754,-0.502784978981316,-0.29425244745407253
1746476112908922600,1.855922607421875,1.1848656178832053,-0.5386728694424033,-0.4699744136063382
1746476112918919700,1.865919677734375,1.0719903493314982,-0.6442474595919251,-0.6460958639375866
1746476112928915500,1.87591552734375,1.0101502714902162,-0.8213666522562504,-0.746337276365608
1746476112938911700,1.885911865234375,0.931143370270729,-1.032941072230041,-0.7862509152114391
1746476112948908500,1.895908447265625,0.8143255015730857,-1.2025102879062295,-0.6868602743938564
1746476112958904600,1.905904541015625,0.6332096404880285,-1.2743383835375308,-0.48210696914438156
1746476112968901600,1.915901611328125,0.4582604853391647,-1.322233230395615,-0.2758061787245795
1746476112978897700,1.925897705078125,0.2678407893359661,-1.4585992646500467,-0.08914631017893553
1746476112988893400,1.9358935546875,-0.007788169658184051,-1.6507015069127082,-0.037268056240491565
1746476112998890800,1.945890869140625,-0.3375543770313263,-1.8496318416297435,-0.05511588415279984
1746476113008886500,1.955886474609375,-0.6410106696277856,-2.0430986502438784,-0.02589673086591065
1746476113018882600,1.965882568359375,-1.0376473502248524,-2.0672665845558047,0.012600209582410753
1746476113028879600,1.975879638671875,-1.3899959762841463,-1.8055939624607562,0.049014790798723694
1746476113038875600,1.985875732421875,-1.6758195815563202,-1.3612860146284103,-0.008606244575418531
1746476113048871400,1.995871337890625,-2.097809314596653,-1.0482613909587264,-0.24949451038222759
1746476113058868700,2.00586865234375,-2.5264538293510674,-0.8984060527950525,-0.6392580538067967
1746476113068864500,2.015864501953125,-2.849825951772928,-0.815632492518425,-0.8110201764173806
1746476113078860500,2.025860595703125,-3.0152322025507687,-0.831613613243401,-0.7349079737260937
1746476113088857600,2.035857666015625,-3.0826556334823367,-0.9774603002876042,-0.4905878703070804
1746476113098853600,2.045853515625,-3.0483868686556814,-1.3920070238456128,-0.2589821774346754
1746476113108850700,2.0558505859375,-2.659160756576061,-1.6647963754996657,0.05976447714362293
1746476113118846700,2.0658466796875,-1.919917676255107,-1.4420236851632595,0.34706469430699943
1746476113128842500,2.075842529296875,-1.1650392199069262,-0.8281246020838617,0.40253571204040195
1746476113138839600,2.085839599609375,-0.8533113580495119,-0.20429098496735096,0.26714436803702263
1746476113148835600,2.095835693359375,-1.2538327711254358,0.0940033948212862,0.26862214897200465
1746476113158831600,2.10583154296875,-2.238103920471668,0.2280687509179115,0.4071554442629218
1746476113168828400,2.115828369140625,-3.126926736885309,0.5602011029005051,0.5709262027934193
1746476113178824700,2.12582470703125,-3.4843174487650392,1.0284642190769313,0.5147149246193469
1746476113188820500,2.135820556640625,-3.3172663533896207,1.4464622521325945,0.3546653055038303
1746476113198817500,2.145817626953125,-2.879390484431386,1.742168953515589,0.30676870508007703
1746476113208813600,2.1558134765625,-2.352866610205173,1.9251707744777202,0.3777737938906997
1746476113218809600,2.1658095703125,-1.8071154729396104,2.013160023576021,0.5796376247763634
1746476113228806400,2.175806396484375,-1.157109595951438,2.0713158599466084,0.7476854030389338
1746476113238802700,2.185802734375,-0.4125596413940191,2.0850907027989627,0.810910140171647
1746476113248799500,2.195799560546875,0.3721440443754196,2.0273761804550885,0.6744205526027828
1746476113258795500,2.20579541015625,1.1615081231713293,1.9291107442751525,0.497035694739595
1746476113268791600,2.21579150390625,1.8441174621224403,1.8289248614266513,0.3564334842201322
1746476113278788600,2.22578857421875,2.245674063464999,1.78763598870486,0.202775100511685
1746476113288784400,2.235784423828125,2.38157540281713,1.7623612621948122,0.08957936783395708
1746476113298780700,2.24578076171875,2.3015566942065955,1.6968699683696031,-0.028252792472764847
1746476113308777500,2.255777587890625,2.1488678861826656,1.6617206213161348,-0.1682894049987197
1746476113318773500,2.2657734375,2.0151526586979625,1.5896984644174574,-0.336194340724498
1746476113328769800,2.275769775390625,1.890942341661453,1.5155723209768532,-0.5588721193190663
1746476113338766600,2.2857666015625,1.7605325854629277,1.4431354457974432,-0.7718598401568829
1746476113348762600,2.2957626953125,1.623873705741763,1.3773337708488107,-0.9934905208513141
1746476113358759700,2.305759765625,1.403075822609663,1.3110641861274839,-1.1996456191901117
1746476113368755500,2.31575537109375,1.116353222671151,1.1985638883680105,-1.335882254911214
1746476113378751500,2.32575146484375,0.8158382442235946,1.0307345020964742,-1.342311849567294
1746476113388748500,2.33574853515625,0.6174596981704235,0.8848384229525923,-1.2437689116202295
1746476113398744600,2.34574462890625,0.5920224745750426,0.7079398873016238,-1.0489029767978937
1746476113408740600,2.35574072265625,0.702474899893999,0.5051508313298225,-0.7595502475515008
1746476113418737700,2.365737548828125,0.7833218760222196,0.2735372474119067,-0.4198782207790762
1746476113428733700,2.375733642578125,0.7902730103343725,0.11136427946686744,-0.15764759947508572
1746476113438729500,2.3857294921875,0.7188613865494727,0.004228431349992752,-0.026077275064587593
1746476113448726500,2.3957265625,0.6300397782802581,-0.09844488440006971,0.023107319343090058
1746476113458722600,2.40572265625,0.5136790057003497,-0.13567512938082218,0.04633841119632125
1746476113468718600,2.415718505859375,0.2877519429862499,-0.1439060743704438,0.03240808552131057
1746476113478715600,2.425715576171875,-0.0005173018723726272,-0.1389332543939352,-0.11627893951535224
1746476113488711700,2.435711669921875,-0.12224456992149352,-0.0845069599404931,-0.2232215300824493
1746476113498708500,2.44570849609375,-0.055901919963955875,-0.015554419745504856,-0.24734884012304245
1746476113508704800,2.455704833984375,0.1582481957167387,0.040676293781399725,-0.2423252398073673
1746476113518700500,2.465700439453125,0.3843564602166414,0.054257075366377826,-0.281275586578995
1746476113528697600,2.475697509765625,0.6332224999696016,0.08071049026697874,-0.32808965246304866
1746476113538693600,2.485693603515625,0.8404021921157836,0.09959463895708322,-0.39066827371194957
1746476113548689700,2.495689697265625,0.9886164850741624,0.0661681701734662,-0.3712961953744292
1746476113558686500,2.5056865234375,1.0181202274560928,-0.03351443932801485,-0.36035723353512583
1746476113568682800,2.515682861328125,0.9400257649064063,-0.25790245590656996,-0.34267478878498076
1746476113578678500,2.525678466796875,0.8129132966876029,-0.4310483610257506,-0.25123773732036353
1746476113588675600,2.535675537109375,0.7440823370456695,-0.5327043164268136,-0.14730813789889216
1746476113598671600,2.545671630859375,0.6789414640933275,-0.6076569738194346,-0.012175371766462922
1746476113608668700,2.555668701171875,0.5734457843989134,-0.6244362591847777,0.043558790415152905
1746476113618664400,2.56566455078125,0.3680740184575319,-0.6341641647338867,0.08654153450801969
1746476113628660700,2.57566064453125,0.15109949300587178,-0.649374593347311,0.22850012807250022
1746476113638657500,2.585657470703125,-0.007448562440276145,-0.7042743505313992,0.35462314686253665
1746476113648653600,2.595653564453125,-0.10649170499444008,-0.8285328906238079,0.49275984405130147
1746476113658649600,2.605649658203125,-0.3058861500918865,-0.9214514128178357,0.7360799401149153
1746476113668646700,2.615646728515625,-0.5427952100694179,-1.0489891207113862,0.8140170201458037
1746476113678642400,2.625642333984375,-0.7598334484070539,-1.066792780688405,0.8729234556879848
1746476113688638700,2.635638671875,-0.9351952760100364,-0.9563640285059809,1.0578265802267939
1746476113698635500,2.645635498046875,-1.0078513468980788,-0.8666612534880638,1.227744390144944
1746476113708631600,2.655631591796875,-1.1746791549116373,-0.8406848084494472,1.3637784159660338
1746476113718627600,2.665627685546875,-1.3793009792685509,-0.8609846691563725,1.4382856676787137
1746476113728624600,2.675624755859375,-1.4803922865241765,-0.8750269307732581,1.4234955103039741
1746476113738620200,2.6856201171875,-1.4456629184484482,-0.9030912880018352,1.3119623040109871
1746476113748617000,2.695616943359375,-1.3111954112917183,-1.1218939056634902,1.112115658166632
1746476113758613000,2.705613037109375,-0.9259270969271659,-1.7152847459822893,0.978401818921417
1746476113768609000,2.715609130859375,-0.27789982653558254,-2.1723408239677546,0.8150714976347982
1746476113778605800,2.725605712890625,0.4555243383735418,-2.1786314485445617,0.46728469959832725
1746476113788601900,2.735601806640625,1.0973065768957138,-1.7411074617639184,-0.03133051941767335
1746476113798598000,2.745597900390625,1.1036690976649521,-1.169306814223528,-0.5838272584859281
1746476113808595000,2.755594970703125,0.07873100688755512,-0.8059624546363949,-1.027572019477561
1746476113818591000,2.765591064453125,-1.4417916299730538,-0.4392755066230893,-1.1970059183362871
1746476113828586800,2.775586669921875,-3.090805037668347,0.3287903480783105,-1.0011598133701831
1746476113838584000,2.785583984375,-4.469084272673726,1.241915246577561,-0.7159588700409978
1746476113848579800,2.795579833984375,-5.139224006152153,1.9168185411959886,-0.6422603774279355
1746476113858576000,2.805575927734375,-4.863547116363049,2.2064251721382138,-0.7297534405071288
1746476113868573000,2.815572998046875,-3.9361090303510426,2.1847996157854794,-0.7446102333772927
1746476113878569000,2.82556884765625,-2.632592483124137,2.00014447465837,-0.5752422393616289
1746476113888566000,2.83556591796875,-1.1261848808556794,1.8028271280959247,-0.4900780576214194
1746476113898562000,2.84556201171875,0.20475626439154146,1.5706155782848596,-0.5509442489292472
1746476113908557800,2.855557861328125,1.1583768394082783,1.2827572523146866,-0.6495148055355996
1746476113918555100,2.86555517578125,1.9501947410970926,1.076296814353764,-0.7763633621212095
1746476113928551000,2.875551025390625,2.6370395256608723,0.8978004881173371,-0.87937358167544
1746476113938547000,2.885546875,3.1339719792217013,0.7274591190248727,-0.9411863331183791
1746476113948544000,2.8955439453125,3.3151176509231326,0.5918845274090767,-0.988838822587952
1746476113958540000,2.9055400390625,3.0492887859314677,0.5804714452520012,-1.0152802547898143
1746476113968535800,2.915535888671875,2.319058448627591,0.6462666904598474,-0.902433408614993
1746476113978533000,2.925533203125,1.671912637245655,0.6846867297470569,-0.6208794434860349
1746476113988529000,2.93552880859375,1.2889584450423717,0.7313590490728616,-0.4691065812632441
1746476113998526000,2.94552587890625,0.8116215033113956,1.0492316972956062,-0.4753386075206101
1746476114008522000,2.95552197265625,0.10210019203722476,1.2183031925827263,-0.37311055132001636
1746476114018518000,2.96551806640625,-0.7143003622442483,1.1238847872197628,-0.23539105663001536
1746476114028514800,2.975514892578125,-1.3033511275321243,0.9533505259037017,-0.2016320679564029
1746476114038511000,2.985510986328125,-1.5240841287344693,0.786111214479804,-0.2755348509699106
1746476114048507000,2.9955068359375,-1.2840969764858483,0.731326608107984,-0.44905799190364776
1746476114058504000,3.00550390625,-0.6755652656584977,0.6837474030703306,-0.6991075423527509
1746476114068500000,3.0155,0.02254500928521156,0.6100669575706124,-0.7280536508519202
1746476114078496000,3.02549609375,0.4742909981638193,0.5266115525096654,-0.49217725839037446
1746476114088492800,3.035492919921875,0.5658031606912612,0.33905572150498625,-0.19362210877370087
1746476114098489000,3.045489013671875,0.43995209071040153,0.12118161686509847,0.11508808576297014
1746476114108484900,3.05548486328125,0.3095253833770752,0.00883037218749523,0.3028306349787861
1746476114118482000,3.06548193359375,0.28542729943096634,-0.007486848624050617,0.3671603742113337
1746476114128478000,3.07547802734375,0.33701427880525586,-0.06145283208936452,0.38344073361121117
1746476114138475000,3.08547509765625,0.38415363112092016,-0.11006430278420448,0.4080890718512237
1746476114148470800,3.095470703125,0.43648704494833945,-0.09504179795831441,0.45013585026822983
1746476114158466800,3.105466796875,0.4273427845060825,-0.09030717065185308,0.23041874811016022
1746476114168464000,3.1154638671875,0.32562253169715405,-0.002918517795205116,-0.05783844098448753
1746476114178460000,3.1254599609375,0.2673445302516222,0.11592033533602952,-0.29934505788534876
1746476114188456000,3.1354560546875,0.33090251792669295,0.11200082380473612,-0.45257772699501364
1746476114198453000,3.145452880859375,0.5300538019180298,0.02486263857781887,-0.5288684645909816
1746476114208448800,3.15544873046875,0.8469652038931846,-0.09711100544780492,-0.5335395616745576
1746476114218444800,3.16544482421875,1.1898445753395557,-0.3074216890960932,-0.4418546363960951
1746476114228441900,3.17544189453125,1.450506266826391,-0.4752829318106174,-0.3188093445509672
1746476114238438000,3.18543798828125,1.5778385152757166,-0.5813488126084209,-0.11040493291541933
1746476114248435000,3.19543505859375,1.5191887579083443,-0.6845470290154219,0.030723785696178674
1746476114258431000,3.205430908203125,1.1462988636016844,-0.8031146639898419,0.021479645076021552
1746476114268427000,3.215427001953125,0.7033446684658528,-0.8743094301536679,-0.01871982497386634
1746476114278424000,3.225424072265625,0.23286358397901058,-0.9662494627043604,-0.028815321726351973
1746476114288419800,3.235419921875,-0.02583820561170578,-0.9931377618908882,-0.05728796749487519
1746476114298415900,3.245415771484375,-0.06726385645568371,-0.9302502208232879,-0.14819142353944478
1746476114308413000,3.255412841796875,0.044072950482368464,-0.9200088127940893,-0.3145912884645164
1746476114318409000,3.265408935546875,0.22107319294214248,-0.9356152549877762,-0.46604865499734877
1746476114328405000,3.275405029296875,0.37055239126980305,-0.9333017173483967,-0.48025136787295336
1746476114338402000,3.285402099609375,0.41557343625724313,-0.8439303662419319,-0.35720797572396695
1746476114348398000,3.295398193359375,0.4233721273094415,-0.8100330650761723,-0.23684834276624023
1746476114358395000,3.305394775390625,0.3658317924886942,-0.8200637529641389,-0.20832535504996774
1746476114368391000,3.315390869140625,0.18988602751791475,-0.821352331469953,-0.17090565191172064
1746476114378387000,3.325386962890625,-0.19473112946152685,-0.7498103593036533,-0.1143000406578183
1746476114388383700,3.3353837890625,-0.7477098798930645,-0.6186585525661706,-0.08047850814200937
1746476114398380000,3.345380126953125,-1.3332225341826676,-0.5246797076642513,0.024465309823304412
1746476114408376000,3.3553759765625,-1.9048457793295381,-0.47521775761991736,0.08642594530433416
1746476114418372900,3.365372802734375,-2.2150679127991197,-0.7369289581596851,0.09011734716817736
1746476114428369200,3.375369140625,-1.9568115288883448,-1.1936091885700821,0.17439868165925143
1746476114438366000,3.385365966796875,-1.1152467227339744,-1.1347902121156452,0.3165869923263788
1746476114448362000,3.395362060546875,-0.18362404451370237,-0.7195794716909527,0.25371435656696556
1746476114458358000,3.40535791015625,0.4602601347237825,-0.36227468452900646,0.07682970331087707
1746476114468354800,3.415354736328125,0.40453707845807074,-0.11289455777406691,0.008460369831323623
1746476114478350800,3.425350830078125,-0.451001307991147,0.11932049916833638,-0.09588000234812498
1746476114488347000,3.435346923828125,-1.5319003554433583,0.9047232731178403,0.26451982821971176
1746476114498344000,3.445343994140625,-2.3681179553508755,1.5023627107918263,0.5700605258747935
1746476114508340000,3.455340087890625,-3.0161405495673415,1.776481849744916,0.11202142820134758
1746476114518335700,3.465335693359375,-3.3411855736374854,2.2746990824192763,-0.16795505847781897
1746476114528333000,3.4753330078125,-3.489232693335414,2.704393398487568,0.06494812685921787
1746476114538328800,3.485328857421875,-3.0032442431151867,2.565918701516092,0.2990142184957862
1746476114548326000,3.495325927734375,-2.233706562295556,2.01569801762104,0.569926231970638
1746476114558322000,3.505322021484375,-0.7932125709176063,0.9675862642660736,0.3671963588401675
1746476114568318000,3.51531787109375,0.33229660263359545,0.8109168621733784,-0.2782917484626174
1746476114578315000,3.52531494140625,0.7060825689971446,0.8855354653060435,-0.755892601826787
1746476114588311000,3.53531103515625,0.6316676717430353,0.6249582372322678,-0.6869954450808465
1746476114598306800,3.545306884765625,0.308512991464138,0.24781799200475216,-0.11299246519058942
1746476114608304000,3.55530419921875,-0.0788280375212431,0.2562175715595484,0.6412094070702791
1746476114618300000,3.5652998046875,-0.11148586001992225,0.5180746103107929,0.893751066596061
1746476114628297000,3.575296875,-0.02884849334359169,0.7518804435759783,0.7585000078462064
1746476114638293000,3.58529296875,0.04734101236760616,0.8900427135974168,0.5988168108902872
1746476114648289000,3.5952890625,0.024305589216947553,1.0866349607557058,0.5442017158664763
1746476114658285800,3.605285888671875,-0.08209493036270141,1.2719260616987942,0.46981166079267855
1746476114668282000,3.6152822265625,-0.3322457492291927,1.2943892379194497,0.28232933341562744
1746476114678278000,3.62527783203125,-0.4476724558293819,1.2878113208338617,-0.04308467009738087
1746476114688275000,3.63527490234375,-0.42581659785211085,1.3138263443171978,-0.4391588945060968
1746476114698271000,3.64527099609375,-0.2718886034220457,1.1782272027820349,-0.734519558930397
1746476114708268000,3.65526806640625,-0.03955401175320148,1.039863564969599,-0.8595581434845924
1746476114718263800,3.665263916015625,0.1743383297741413,0.9155468649491667,-0.891830035405606
1746476114728260000,3.675260009765625,0.43612931755185125,0.7793658318728208,-0.8733489145584404
1746476114738257200,3.685257080078125,0.679399144732952,0.636565672917664,-0.7858385350182652
1746476114748253200,3.695253173828125,0.8774433442652225,0.5228521999761462,-0.6544644638322293
1746476114758249200,3.705249267578125,1.0747855330079794,0.43668490560799833,-0.5836863887105137
1746476114768246300,3.715246337890625,1.245654140844941,0.3644824237063527,-0.5387699731413275
1746476114778242000,3.725241943359375,1.3620645977854728,0.3055295917391777,-0.5150196797195822
1746476114788238300,3.73523828125,1.3573480906575917,0.2292190899968147,-0.4997359666742384
1746476114798235100,3.745235107421875,1.263690732795,0.1931260323524475,-0.46913105811737477
1746476114808231200,3.755231201171875,1.1861293542087077,0.268062907654047,-0.3907639891713857
1746476114818228200,3.765228271484375,1.1240396855205297,0.2810819637030363,-0.21287892670109868
1746476114828224300,3.775224365234375,1.1028250480562447,0.240119546456635,-0.08884615818858146
1746476114838220000,3.785219970703125,1.0903946055501699,0.22107027033269405,-0.11334653932526707
1746476114848217300,3.79521728515625,0.9651654668599366,0.23437632662951946,-0.14145532021746038
1746476114858213000,3.805213134765625,0.8584662565946578,0.23416180709600448,-0.13437354526296258
1746476114868209200,3.815209228515625,0.6766250038444995,0.2319409161761403,-0.25381007202640177
1746476114878206200,3.825206298828125,0.3338970235675573,0.30282237860709427,-0.42519773530140514
1746476114888202200,3.8352021484375,0.3154144414156675,-0.0064963762819767,-0.5611988817662
1746476114898199000,3.845198974609375,0.5944441487640142,-0.022826456575095654,-0.36507498277202244
1746476114908195300,3.8551953125,0.5776350527822971,0.09343407050073146,-0.326648367613554
1746476114918191000,3.865191162109375,0.2693862652122974,-0.06764350342303514,-0.3638131461426615
1746476114928188200,3.875188232421875,0.06009411095678806,-0.2614484579503536,-0.1976519853442907
1746476114938184200,3.88518408203125,0.15598434243798254,-0.35898265724629164,-0.11643223038092256
1746476114948180200,3.89518017578125,0.4175222322374582,-0.48999330194741486,-0.163879041210562
1746476114958177000,3.905177001953125,0.5729501098364591,-0.7114768292561173,-0.18270020766705272
1746476114968173300,3.91517333984375,0.5773235026150941,-0.9022858168378471,-0.1655088343694806
1746476114978170000,3.925170166015625,0.6599187837153673,-1.0132882772549987,-0.2683316415928304
1746476114988166100,3.935166259765625,0.6683037502229213,-1.1236395802870391,-0.3192825150206685
1746476114998162200,3.945162109375,0.42217385743558405,-1.217177695684135,-0.12195990776121615
1746476115008159200,3.9551591796875,0.1352642104923725,-1.2291305838063358,0.010875029757618903
1746476115018155000,3.965155029296875,-0.11713175695240496,-1.075731873947382,0.1285024612724781
1746476115028151300,3.9751513671875,-0.2765291227042675,-0.889372851511836,0.29389146865457294
1746476115038148000,3.985148193359375,-0.3469938210278749,-0.7143351412966847,0.5368398087963462
1746476115048144100,3.99514404296875,-0.3885001358926296,-0.575856060411036,0.7549978449441492
1746476115058140200,4.00514013671875,-0.6556441751360893,-0.4853679802343249,0.8469833240717649
1746476115068137200,4.01513720703125,-1.0919845050901174,-0.44716772117763753,0.7188925123400985
1746476115078133000,4.025133056640625,-1.4524094700992107,-0.5839189553573727,0.4449145354233682
1746476115088130300,4.03513037109375,-1.4371499416470528,-1.2309461087957023,0.41614933644905683
1746476115098126000,4.0451259765625,-0.7865817546010017,-1.8706912885323166,0.6401840095452964
1746476115108122000,4.0551220703125,0.06915303120315075,-1.77341544791162,0.4173480447143316
1746476115118119200,4.065119140625,0.6692746410816908,-1.1623735078290105,-0.1729692333780229
1746476115128115200,4.075115234375,0.6114262632250785,-0.6535358046799897,-0.3832055366158485
1746476115138111200,4.085111328125,-0.33436522560119625,-0.29116759664863345,-0.0463894107311964
1746476115148108300,4.0951083984375,-1.7245768904626368,0.07118716737926006,0.45611777422204614
1746476115158104000,4.10510400390625,-3.0552146688491106,0.5290878794953227,0.7289478962779045
1746476115168101000,4.11510107421875,-3.8321839609742163,1.011036406674981,0.5859658048845827
1746476115178097200,4.12509716796875,-3.841104934054613,1.2793863145768642,0.14056655468419194
1746476115188093200,4.13509326171875,-3.3970144283652304,1.4633534734398126,-0.23536489927545187
1746476115198090000,4.145090087890625,-2.7612609486132857,1.7075982831329106,-0.4359061763204634
1746476115208086300,4.155086181640625,-1.9643541993528604,1.9946412010669707,-0.4415099876768887
1746476115218082300,4.165082275390625,-1.0643898111999035,2.110647753381729,-0.3228966138646006
1746476115228079000,4.1750791015625,-0.16178455314934254,1.986125009395182,-0.40034021129012104
1746476115238075100,4.1850751953125,0.6114946522861718,1.768702740176022,-0.8188967550113797
1746476115248071200,4.1950712890625,1.1821756481468677,1.5343635306864976,-1.3123720538556576
1746476115258068000,4.20506787109375,1.7289935378611088,1.2343015567034483,-1.6493690892651676
1746476115268064300,4.215064208984375,2.2821248485058545,0.9894380305901169,-1.8353686307385564
1746476115278061000,4.22506103515625,2.596873519489169,0.8261281675696373,-1.8854563114657996
1746476115288057000,4.23505712890625,2.7985201274275777,0.6819912070527673,-1.7004504572048782
1746476115298053400,4.245053466796875,2.970607463404536,0.5748509750217199,-1.2463830396413802
1746476115308050200,4.25505029296875,2.9248931754559275,0.33870588515400885,-0.5089361950874328
1746476115318046200,4.265046142578125,2.6655495808303353,0.5734624432727694,0.30620325321704145
1746476115328042200,4.275042236328125,1.891751904478669,1.0423241098642348,0.4459609757363796
1746476115338039000,4.2850390625,0.6748369513839483,1.0992352068707347,-0.1305108784854412
1746476115348035000,4.29503515625,-0.704216775125265,1.3074173540577292,-0.5208627797245979
1746476115358031400,4.30503125,-2.0232827736616135,1.5697344115361571,-0.3423530094847083
1746476115368028200,4.315028076171875,-2.6939047376990315,1.5827406081035733,0.1292544486835599
1746476115378024200,4.325024169921875,-2.5781846011102196,1.4394801381602882,0.5238701448470354
1746476115388021200,4.335021240234375,-1.976563108062744,1.121226673926413,0.6512658139213919
1746476115398017300,4.345017333984375,-1.1911164949715136,0.6998693935707211,0.517401241093874
1746476115408013000,4.355012939453125,-0.46167409317493435,0.3641004386514425,0.3404654421724379
1746476115418010000,4.365010009765625,0.27031740858256814,0.1643713547721505,0.19412936417609453
1746476115428006100,4.375006103515625,0.7946183460623025,-0.023035423150658606,-0.07325155256316065
1746476115438002200,4.385002197265625,1.0540145476579665,-0.06702040308862924,-0.4379178084038198
1746476115447999200,4.394999267578125,1.127666643846035,-0.23562486538589,-0.7635441394932567
1746476115457995300,4.404995361328125,1.1324889494359494,-0.5294838930755853,-0.7155810497045516
1746476115467991000,4.414990966796875,1.1811357837051153,-0.6070218907862901,-0.47037601667717094
1746476115477988400,4.42498828125,1.2159832252025604,-0.6294833134412765,-0.22814210841506719
1746476115487984000,4.434984130859375,1.0414292068511246,-0.6155103176683188,-0.22507132266759872
1746476115497981200,4.444981201171875,0.6071463939487933,-0.58993865403831,-0.3437165529228747
1746476115507977200,4.454977294921875,0.09604337621629237,-0.4785983399689197,-0.3539242048129439
1746476115517973200,4.46497314453125,-0.1535369492858648,-0.33431232637017966,-0.31300182731598614
1746476115527970000,4.474969970703125,-0.25492519366145133,-0.1273097443565726,-0.3084405107498169
1746476115537966300,4.48496630859375,-0.36218203780949115,-0.011802958257496356,-0.22152254414483905
1746476115547962000,4.494962158203125,-0.37688217881321906,0.09999737453907728,-0.04050283691063523
1746476115557959200,4.504959228515625,-0.27762510124742984,0.0830453629553318,0.14744637732580304
1746476115567955200,4.514955078125,-0.1716366696000099,0.018733634303510188,0.3708804541803896
1746476115577951200,4.524951171875,-0.003448679149150848,-0.0973167571529746,0.5947079142667353
1746476115587948000,4.534947998046875,0.10561199955046176,-0.2854039185553789,0.7592996337912976
1746476115597944300,4.5449443359375,0.2199485728263855,-0.44890755058228965,0.7370492235384881
1746476115607940000,4.554940185546875,0.617415859028697,-0.5658636587068439,0.6446395276494323
1746476115617937200,4.564937255859375,0.9680541740387678,-0.6510431110814213,0.44399011405482885
1746476115627933200,4.57493310546875,1.0851637191593646,-0.7677984359368681,0.13089797810688614
1746476115637930200,4.58493017578125,0.9981745870143175,-0.8732903162389993,-0.10786883856654167
1746476115647926000,4.594926025390625,0.8542050920188426,-0.919082345598936,-0.25510084248930215
1746476115657922300,4.60492236328125,0.7599082672089338,-0.9469111405059695,-0.3478424006812274
1746476115667919000,4.614919189453125,0.5958896713972092,-1.034121806447208,-0.4170451162450015
1746476115677915100,4.6249150390625,0.35791093636155125,-1.1046940567985177,-0.5078384629786015
1746476115687911200,4.6349111328125,0.09452712643444537,-1.0871467096701264,-0.6360491016976535
1746476115697908200,4.644908203125,-0.01243979485630989,-0.956996188929677,-0.8662119022853672
1746476115707904000,4.654904052734375,0.09454875374436378,-0.8526298055261373,-1.1695001448385416
1746476115717900300,4.664900390625,0.16257307317852973,-0.7969502961412072,-1.3815769613765179
1746476115727897000,4.67489697265625,0.03198562232553959,-0.827001443272829,-1.383389856017381
1746476115737893600,4.6848935546875,-0.367215940323472,-0.9604089199826121,-1.2158606217361987
1746476115747889400,4.694889404296875,-0.8840583784908056,-1.0734192130908369,-1.0272574736356734
1746476115757886700,4.70488671875,-1.2741536746203899,-1.0476438435822724,-0.9336512614384292
1746476115767882500,4.714882568359375,-1.4494886142164467,-0.9349690660387278,-0.8936347467400133
1746476115777879600,4.724879638671875,-1.5145236887067555,-0.8242965682283043,-0.8966355359911918
1746476115787875600,4.73487548828125,-1.4877426492869854,-0.9242942350283264,-0.9267702697530388
1746476115797871600,4.74487158203125,-1.1567635589927434,-1.2499068298533558,-0.8998793402180075
1746476115807868400,4.754868408203125,-0.3626771278500557,-1.2482231145501137,-0.8267059674575924
1746476115817864700,4.76486474609375,0.48145957461893557,-0.8268395307093859,-0.935963483903557
1746476115827860500,4.774860595703125,0.9267477656602859,-0.44309477265030145,-1.0733682135559617
1746476115837857500,4.784857421875,0.9243389509528874,-0.3010875176385045,-0.9249507992409169
1746476115847853600,4.794853515625,0.5084983881920576,-0.2704772753193974,-0.36028584879934783
1746476115857849600,4.804849609375,-0.13825930065512657,-0.14341770633161066,0.2717535788655281
1746476115867846400,4.814846435546875,-0.8633470143735408,0.07383505153954029,0.7041290968418121
1746476115877842700,4.8248427734375,-1.4502180975347756,0.34601240877509115,0.7367860425576567
1746476115887838700,4.834838623046875,-1.8314128788501023,0.6167161863267422,0.3549268059842288
1746476115897835500,4.84483544921875,-2.225062068068981,0.9090744540646671,-0.28677330721244215
1746476115907831600,4.85483154296875,-2.703331906735897,1.2645143241375685,-1.0019197648920117
1746476115917828600,4.86482861328125,-3.364293477502465,1.5876035379648208,-1.5520428336314855
1746476115927824400,4.874824462890625,-3.8863767389327286,1.8612994830697773,-1.8310102893985807
1746476115937820700,4.884820556640625,-3.918264161580801,2.0633900353834034,-1.7353326777547597
1746476115947817500,4.8948173828125,-3.4091976181119676,2.105849120928347,-1.427698368821293
1746476115957813500,4.9048134765625,-2.4757068079322577,2.0813506394878027,-1.0560419618323444
1746476115967809500,4.9148095703125,-1.185022854271531,2.0345301438629626,-0.8169007588885724
1746476115977806600,4.924806640625,0.13340192375183105,1.9098995555877685,-0.6902659911841154
1746476115987802600,4.934802734375,1.178594282528758,1.740917784410715,-0.5958667289130389
1746476115997798400,4.94479833984375,1.8581623540878294,1.5081918553367257,-0.5416909020893276
1746476116007795500,4.95479541015625,2.1392934176295992,1.244293081624806,-0.5276723136089742
1746476116017791500,4.96479150390625,2.038738701468706,1.115515895064175,-0.6258714065544306
1746476116027787500,4.97478759765625,1.6192618280321358,1.2312830856651067,-0.8192863388508558
1746476116037784600,4.98478466796875,1.0835556994408369,1.5023039663419127,-0.9148474845081567
1746476116047780600,4.994780517578125,0.4841314241766929,1.8011811144545673,-0.8781351259216665
1746476116057776400,5.0047763671875,-0.18814765941798686,2.000083976642787,-0.86067677225098
1746476116067773700,5.014773681640625,-0.8166472225189209,2.0840952620208264,-0.8068507817782461
1746476116077769500,5.02476953125,-1.1973790624976157,2.103135185794532,-0.7299009592190384
1746476116087766500,5.0347666015625,-1.3071318151146172,1.999916803382337,-0.681536449022591
1746476116097762600,5.044762451171875,-1.1761842987775801,1.7575877641826867,-0.6754230807088315
1746476116107758600,5.054758544921875,-0.8887047429919243,1.4055425049841404,-0.8003427150584757
1746476116117755600,5.064755615234375,-0.4569201766461134,1.0782377192884682,-0.9943113357149064
1746476116127751700,5.074751708984375,-0.058058221215009684,0.7828636108607053,-1.189502922295034
1746476116137747500,5.08474755859375,0.20647066709399223,0.5437473962277174,-1.3551359675660728
1746476116147744800,5.094744873046875,0.3006634470075369,0.30623072574585675,-1.5624812255375087
1746476116157740500,5.104740478515625,0.12994096964299678,0.12199351776987313,-1.7892158052422105
1746476116167736600,5.114736572265625,-0.12430910123586654,0.09505407291799783,-1.898344726872444
1746476116177733600,5.124733642578125,-0.26297406008243557,0.1628618269920349,-1.88910168223083
1746476116187729700,5.134729736328125,-0.4539005365639925,0.20588146902918814,-1.6500452349610626
1746476116197725400,5.144725341796875,-0.6268015270113945,0.32988515757769343,-1.2537830867648123
1746476116207722800,5.15472265625,-0.37720132776498794,0.7337836458712815,-1.244605362444371
1746476116217718500,5.164718505859375,-0.10181260726749897,0.8756815952897071,-1.3795016164071856
1746476116227715600,5.174715576171875,0.005299275451898574,0.93044223626405,-1.4169175932183862
1746476116237711600,5.184711669921875,0.0463894107311964,0.9707853525683283,-1.4187114908978342
1746476116247707600,5.194707763671875,0.09329612333476543,1.058965448063612,-1.4026261791460215
1746476116257704400,5.204704345703125,0.1404325530409813,1.1609469821572302,-1.4386477789893746
1746476116267700700,5.21470068359375,0.15051146398484705,1.2413058825075625,-1.4879489855140446
1746476116277696500,5.224696533203125,-0.10895604928135871,1.3326657770827413,-1.7276744180865584
1746476116287693600,5.234693603515625,-0.38616555546522136,1.3527215999007225,-1.9961046977482735
1746476116297689300,5.244689453125,-0.11737316449284553,1.4123545230865477,-1.4333593171924353
1746476116307685600,5.254685546875,-0.11752806279361247,1.4881503533050418,-1.323423024702072
1746476116317682400,5.264682373046875,-0.1982493667155504,1.514588278375566,-1.3276356739610433
1746476116327678500,5.274678466796875,-0.17491116122603415,1.5169401021987199,-1.193375233683735
1746476116337674500,5.284674560546875,-0.07328209383189678,1.4850024106681345,-1.1221823672160505
1746476116347671600,5.294671630859375,0.029583237358927726,1.4084437793835998,-1.0846496321573853
1746476116357667300,5.304667236328125,0.10157704494595526,1.3783221973642705,-1.1295395981110632
1746476116367663600,5.31466357421875,0.16821078680455684,1.3613406674250959,-1.1569342393845319
1746476116377660400,5.324660400390625,0.12368716994524001,1.3374576875343918,-1.1991336510799824
1746476116387656400,5.334656494140625,0.008783025914430618,1.3056900918737053,-1.1976846213154495
1746476116397653500,5.344653564453125,-0.2181488299280405,1.3047495961531996,-1.196525222147256
1746476116407649500,5.3546494140625,-0.47748190315961836,1.35631611726135,-1.1987431904576717
1746476116417645600,5.3646455078125,-0.7583879257738589,1.4511705759540199,-1.2246161751218139
1746476116427642600,5.374642578125,-0.9951444255381822,1.5492293836459516,-1.2132346571467816
1746476116437638400,5.384638427734375,-1.2243138311743735,1.579139368741214,-1.159181433789432
1746476116447634400,5.394634521484375,-1.4978911183357237,1.5147341165870427,-1.091958347735554
1746476116457631500,5.404631591796875,-1.8330980554580687,1.4365744798466562,-1.0163466419123113
1746476116467627500,5.41462744140625,-2.1752210555791853,1.4243264081701636,-0.8406903614073992
1746476116477623600,5.42462353515625,-2.274479302188754,1.5552645721569656,-0.6794267633922397
1746476116487620600,5.43462060546875,-2.143521848979592,1.7405948360666632,-0.4668120405852794
1746476116497616600,5.44461669921875,-1.9318056824475525,1.8026888886690138,-0.18310060516148804
1746476116507612400,5.4546123046875,-1.7000094354391098,1.6522712404474615,0.17955343407392502
1746476116517609500,5.464609375,-1.4291636190682648,1.5015131082251667,0.5797638815045356
1746476116527605500,5.47460546875,-1.1229062975764275,1.4270280683442949,1.012923097204417
1746476116537601500,5.4846015625,-0.8419172728538513,1.4110495779678225,1.3562846992097795
1746476116547598600,5.4945986328125,-0.5617471632987261,1.4751967637076973,1.427249163749069
1746476116557594600,5.5045947265625,-0.3735129946410656,1.53437755921185,1.2175259245999157
1746476116567591700,5.514591796875,-0.28985972892045975,1.5823893104478717,0.6755844087503851
1746476116577587700,5.524587646484375,-0.3905962313890457,1.6546905765488742,-0.08256079430878162
1746476116587583500,5.53458349609375,-0.5097866744369268,1.731118859452009,-0.7613315780103206
1746476116597580500,5.54458056640625,-0.5541244133353233,1.7631231864780186,-1.1973907529354095
1746476116607576600,5.55457666015625,-0.5367097526758909,1.7491101509556173,-1.2738697431124746
1746476116617572600,5.564572509765625,-0.5201350499719382,1.7158078930735587,-1.0393746124088763
1746476116627569700,5.574569580078125,-0.4934381817042827,1.7222063619390129,-0.7202103169403969
1746476116637565700,5.584565673828125,-0.49230362471640104,1.6923494222052395,-0.4362804164603352
1746476116647561500,5.5945615234375,-0.5872036761164665,1.6297082571141421,-0.2033516582906246
1746476116657558500,5.60455859375,-0.7224801615685225,1.5440148638680575,-0.10965499133095144
1746476116667554600,5.614554443359375,-0.7543138082027435,1.4740693671129643,-0.17905132977068422
1746476116677550600,5.624550537109375,-0.6138479374140501,1.4246988947443664,-0.31417730083614587
1746476116687547400,5.63454736328125,-0.3144827135235071,1.3389423731341956,-0.4730449436254799
1746476116697543700,5.644543701171875,0.052204234489798544,1.2303018195427953,-0.5766767291441559
1746476116707540500,5.65454052734375,0.44995442928671836,1.0915319390170275,-0.6027719782568514
1746476116717536500,5.66453662109375,0.8341729423373937,1.0338654935985803,-0.5803204924739896
1746476116727532500,5.674532470703125,1.2199667418807745,1.015999289779365,-0.6528828937292098
1746476116737530000,5.684530029296875,1.4285942947477102,0.9848606396719812,-0.7156218201063573
1746476116747526000,5.69452587890625,1.3502987566679716,0.9616470834754407,-0.7578599563769995
1746476116757522000,5.70452197265625,1.0890390992879866,1.008319987323135,-0.7583046314045786
1746476116767519000,5.71451904296875,0.7259177348017692,1.1017262930341065,-0.7069013380341231
1746476116777515000,5.724514892578125,0.42351007447540756,1.220456278963387,-0.5652659850746393
1746476116787510800,5.7345107421875,0.22447218773066996,1.2010035366050897,-0.26988734660223124
1746476116797508000,5.744508056640625,0.007299509358406066,1.0297104197457432,0.08549348675981164
1746476116807504000,5.75450390625,-0.35480361799597737,0.8487877431452274,0.46018502366095776
1746476116817500000,5.7645,-0.7568991485208273,0.8274614620000124,0.796748197697848
1746476116827497000,5.7744970703125,-1.0449737475901841,0.8892081624694168,1.0793972645871341
1746476116837493000,5.784492919921875,-1.2111878076195717,0.8868040239371359,1.1993804654479026
1746476116847490000,5.794489990234375,-1.3653063561856746,0.7259300097614526,1.1738025182075797
1746476116857486000,5.804486083984375,-1.5386813938856123,0.5134760304741561,1.0475447671219706
1746476116867481900,5.81448193359375,-1.6833546532362698,0.4088641478769481,0.9003859745658933
1746476116877479200,5.824479248046875,-1.6921014387935398,0.4075666554123163,0.7587875926159322
1746476116887475000,5.834474853515625,-1.358860248786211,0.4605900973305106,0.7040026939831674
1746476116897471000,5.844470947265625,-0.707999216273427,0.4165563098147511,0.7481414031781256
1746476116907468000,5.854468017578125,0.13214695525467396,0.23657383667379617,0.8192445455357432
1746476116917464000,5.864464111328125,0.9023416386783123,-0.06237345406562089,0.8699170404136181
1746476116927459800,5.8744599609375,1.4626871184855699,-0.3346159854918718,0.7692517034851014
1746476116937457200,5.88445703125,1.643271649172902,-0.5161369202464818,0.578948181207478
1746476116947453000,5.894452880859375,1.4827835655748842,-0.6130522569917142,0.2989379383891821
1746476116957449000,5.904448974609375,1.1338801115334034,-0.5616222217448056,0.01874897800311446
1746476116967446000,5.914446044921875,0.7082803713023662,-0.36927111928761003,-0.32350816989168524
1746476116977442000,5.924442138671875,0.36587153997719285,-0.1929842857941985,-0.6117778531417251
1746476116987438800,5.93443896484375,-0.04352291538417339,-0.14828005167096853,-0.9134704970665275
1746476116997435000,5.944434814453125,-0.6051110887289047,-0.046337242152541876,-1.0275237233564256
1746476117007431000,5.954430908203125,-1.17430096924901,0.0378299644395709,-1.0664720243014394
1746476117017428000,5.964427978515625,-1.5809966870456933,0.07102291672825813,-1.0515469885006545
1746476117027423700,5.974423828125,-1.7811895890444516,-0.0011111761122941971,-1.0025624467097223
1746476117037420000,5.984419921875,-1.651216470697522,-0.2044957137592137,-0.9262339709192514
1746476117047416800,5.994416748046875,-1.1632482448369263,-0.49757542763948437,-0.872716608004272
1746476117057412900,6.004412841796875,-0.5492816494792699,-0.7823354953333735,-0.8289249586813151
1746476117067409200,6.0144091796875,-0.13546119436919687,-1.031396034745127,-0.828485105959326
1746476117077406000,6.024406005859375,-0.09702654203474521,-1.1844082295045255,-1.0161603255599736
1746476117087402000,6.034402099609375,-0.30239830797612666,-1.1623438433431088,-1.31961281876415
1746476117097398000,6.04439794921875,-0.5777747535139321,-1.054120053859055,-1.5854403685815632
1746476117107394800,6.054394775390625,-0.7982809602230787,-0.8917138616800308,-1.8250341375984251
1746476117117390800,6.064390869140625,-0.9352887995123863,-0.7311667413711548,-2.0425885087646543
1746476117127387100,6.07438720703125,-0.8821364705175161,-0.6482374060109257,-2.298375726082921
1746476117137384000,6.084384033203125,-0.6209048701882361,-0.5690910963207483,-2.486110713046789
1746476117147380000,6.0943798828125,-0.15421557919979095,-0.5057813843183219,-2.552646839749813
1746476117157377000,6.104376953125,0.37177111940979957,-0.50892757338956,-2.4649501438573003
1746476117167373000,6.114373046875,0.8638514567643404,-0.5223281761020422,-2.2214967768028377
1746476117177368800,6.124368896484375,1.1367805091500283,-0.5152836644180119,-1.9517676895022391
1746476117187366000,6.134365966796875,1.1263152292370795,-0.4754351997628808,-1.8069463999830184
1746476117197362000,6.14436181640625,0.9248001387238503,-0.33866876801401374,-1.7834179326184092
1746476117207358000,6.15435791015625,0.672287851423025,-0.1390542504251003,-1.9105844691120086
1746476117217355000,6.16435498046875,0.4715162727534771,0.05389949410036206,-2.120792276907712
1746476117227351000,6.17435107421875,0.39539398705959317,0.18638707948625086,-2.2038334020793435
1746476117237346800,6.184346923828125,0.4367915808528661,0.2426478958904743,-2.177477456203848
1746476117247344000,6.19434423828125,0.4863736501455307,0.2388626782633364,-2.0281448267400264
1746476117257340000,6.20433984375,0.49148646311461924,0.1763805031262338,-1.8585979690261185
1746476117267336000,6.2143359375,0.4529974502444267,0.08367343172580004,-1.7343498041972516
1746476117277333000,6.2243330078125,0.45536067224442955,-0.003999006508290767,-1.7279124646261332
1746476117287329000,6.2343291015625,0.5166372709840535,-0.15682620008960366,-1.7947320844456554
1746476117297326000,6.244326171875,0.6130453888595104,-0.3748112177580595,-1.788077887253463
1746476117307322000,6.254322021484375,0.6920978827863932,-0.523901562898606,-1.647923712762445
1746476117317318000,6.26431787109375,0.6241308464974165,-0.6172270584583283,-1.5137674635119736
1746476117327315200,6.274315185546875,0.28995325242280956,-0.6630350160397589,-1.416800396579504
1746476117337311000,6.28431103515625,-0.25450784503221513,-0.6447903342969715,-1.3247466745212673
1746476117347307000,6.29430712890625,-0.8316735267370938,-0.5900527819372713,-1.215706892479211
1746476117357303800,6.3043037109375,-1.2912205447554588,-0.5742943640522659,-1.1106252004131674
1746476117367300000,6.314300048828125,-1.5694915426909923,-0.5292069758303463,-1.0167144523113965
1746476117377296000,6.3242958984375,-1.5095195968091486,-0.5148002648152411,-0.9742533209398389
1746476117387293000,6.33429296875,-1.1041817233622073,-0.5648761089742184,-0.971832231272757
1746476117397289000,6.3442890625,-0.505465304106474,-0.6620470279157161,-0.9754118433251976
1746476117407285000,6.354284912109375,0.06110591834783554,-0.6712871499478816,-1.0043146972045303
1746476117417281800,6.36428173828125,0.4286608813673258,-0.48246816713958973,-0.9954764339715242
1746476117427278000,6.374278076171875,0.3806681270927191,-0.17635200768411158,-0.8520268711969256
1746476117437275000,6.38427490234375,-0.15908289297521114,0.14484350135102866,-0.524224218981713
1746476117447271000,6.39427099609375,-0.9129571407169103,0.394321973913908,-0.16089491083323954
1746476117457267000,6.404266845703125,-1.5972317825317381,0.4885879651941359,0.21135390909090637
1746476117467264000,6.414263916015625,-2.107322408351302,0.5103305720552802,0.6386399949736893
1746476117477259800,6.424259765625,-2.2239923930108545,0.5972045533880591,1.0188923808723687
1746476117487256000,6.434256103515625,-1.841571869292855,0.7008122273787856,1.261394730812311
1746476117497252900,6.4442529296875,-1.1391460692375899,0.712823129298538,1.364458799445629
1746476117507249000,6.454248779296875,-0.38413258833289143,0.5399798603877425,1.4084842575244605
1746476117517245000,6.464244873046875,0.3563841651856899,0.2743542628832161,1.4278066515013574
1746476117527242000,6.474241943359375,0.9731260704755782,-0.04719692772179842,1.4768160354726017
1746476117537237800,6.48423779296875,1.2801093681544065,-0.29568332050740714,1.4838506102845073
1746476117547234000,6.494234130859375,1.1733932067543267,-0.3591464695058763,1.4570742470398543
1746476117557230800,6.50423095703125,0.7108288867413998,-0.2279296347081661,1.3948365481831133
1746476117567227000,6.514226806640625,0.022711598023772237,0.020909224776923654,1.2830669027857482
1746476117577223200,6.52422314453125,-0.6260445711642504,0.24155264799967407,1.0677380987145006
1746476117587220000,6.534219970703125,-1.0550000515639781,0.27787703018188475,0.8543309103555977
1746476117597216000,6.544216064453125,-1.1353718113958835,0.24562588878795502,0.6436885105349123
1746476117607213000,6.554213134765625,-0.9314017289459705,0.17076003289595246,0.39799437881633637
1746476117617208800,6.564208740234375,-0.5080149885892867,0.03687149467095732,0.12878288564905524
1746476117627204900,6.574204833984375,-0.006367196944355964,-0.1825872488118708,-0.11483166331648825
1746476117637202000,6.584201904296875,0.570736525440216,-0.4223362083904445,-0.17004662392958997
1746476117647198000,6.594197998046875,1.0476105258345603,-0.6060720427155495,-0.06179886904805898
1746476117657194000,6.604194091796875,1.156033491152525,-0.7461559284493327,0.17940379647016524
1746476117667191000,6.61419091796875,1.0262199472814797,-0.7079245436020195,0.5299969571642578
1746476117677187000,6.62418701171875,0.8342308100044726,-0.49414004636332387,0.879701060064137
1746476117687182800,6.634182861328125,0.6722662241131067,-0.3318770620472729,1.1578678669728337
1746476117697180200,6.64418017578125,0.5576952575594186,-0.2615989723369479,1.3191349721193313
1746476117707176000,6.654176025390625,0.45211482219099997,-0.24529957944303749,1.3070702941857277
1746476117717172000,6.664171875,0.40369770502448077,-0.2216938090585172,1.170280773822218
1746476117727169000,6.6741689453125,0.39924598631262775,-0.20353753625154494,0.9275507526062429
1746476117737164800,6.684164794921875,0.4046837934523821,-0.22381942291036247,0.657948068164289
1746476117747160600,6.69416064453125,0.42003859897255896,-0.2913737867452204,0.4343202223032713
1746476117757158000,6.704157958984375,0.3662298518955707,-0.3604832710675895,0.18121449915394186
1746476117767153700,6.714153564453125,0.3326297801107168,-0.3599687456741929,-0.13326982180476188
1746476117777150700,6.724150634765625,0.3016904519677162,-0.3931042686872184,-0.43889118348062034
1746476117787146800,6.734146728515625,0.28548750518560406,-0.41524595786854623,-0.6881894771710038
1746476117797142800,6.744142822265625,0.2513736386597156,-0.4264025810465216,-0.9280087255068122
1746476117807139600,6.7541396484375,0.2291939555555582,-0.4178589168459177,-1.0980421976938843
1746476117817135900,6.764135986328125,0.22824176939725874,-0.44181496197283265,-1.1880382565699517
1746476117827131600,6.774131591796875,0.1727829170256853,-0.4608576622255146,-1.199890753057599
1746476117837128700,6.784128662109375,0.10661503911316395,-0.45578985744193196,-1.1344019434504211
1746476117847124700,6.794124755859375,0.1010527288109064,-0.4067255284130573,-0.98433617740646
1746476117857120800,6.804120849609375,0.13572948991656303,-0.36586350280120966,-0.7741916441053152
1746476117867117600,6.81411767578125,0.258094471347332,-0.33541824178546664,-0.5919628533422947
1746476117877113900,6.82411376953125,0.4067173451066017,-0.3379286171711981,-0.501155039691925
1746476117887109600,6.834109619140625,0.5422790772408247,-0.37230975633114577,-0.45218759516626594
1746476117897106700,6.844106689453125,0.6683166097044945,-0.408040994925797,-0.38802155859544873
1746476117907102700,6.854102783203125,0.6728653590500354,-0.45411987840309737,-0.3151280256897211
1746476117917099800,6.864099853515625,0.6080389588743448,-0.5263919184096157,-0.22107450811639426
1746476117927095600,6.874095458984375,0.5082324307322502,-0.6163007373936474,-0.19145546879172323
1746476117937091800,6.884091796875,0.41317222033441064,-0.7341758600592613,-0.24683044227212667
1746476117947088600,6.894088623046875,0.315046192625165,-0.8048845962718129,-0.3419558268606663
1746476117957084700,6.904084716796875,0.22303952457904813,-0.8590091312997042,-0.437134987463057
1746476117967080700,6.914080810546875,0.1297404786348343,-0.9475972230739891,-0.5971937397330999
1746476117977077800,6.924077880859375,0.11570961519479751,-1.0023353599555789,-0.8356473988041281
1746476117987073500,6.934073486328125,0.1137356847733259,-0.9862190685436129,-1.0752256779909133
1746476117997069800,6.94406982421875,0.09247896173298359,-0.9664227734446525,-1.244440088880062
1746476118007066600,6.954066650390625,0.0633078123062849,-0.9527190961323678,-1.4399325581029057
1746476118017062700,6.964062744140625,-0.009116787913441657,-0.898635331506282,-1.6148045563623308
1746476118027059000,6.974058837890625,-0.10822948857247829,-0.802522397185117,-1.7081436420559881
1746476118037055700,6.9840556640625,-0.23029285670816896,-0.703175303248316,-1.699234943935275
1746476118047051800,6.9940517578125,-0.3326864787340164,-0.5596699186332523,-1.6504525005877018
1746476118057047600,7.004047607421875,-0.38908933395743367,-0.41214360793903465,-1.5906503583148122
1746476118067044600,7.014044677734375,-0.3402642205119133,-0.31356209154725073,-1.5460852404013274
1746476118077040600,7.02404052734375,-0.24252806890308856,-0.2853855061158538,-1.4943343026369809
1746476118087037700,7.03403759765625,-0.08851239618957042,-0.29778672252744437,-1.4023824335180222
1746476118097033700,7.04403369140625,0.06405015510618686,-0.32978885759636756,-1.2395751131922006
1746476118107029800,7.05402978515625,0.16276830348968505,-0.4301414753139019,-1.0165900952793656
1746476118117026800,7.06402685546875,0.11970891396403312,-0.5681814341299235,-0.8187557391054928
1746476118127022800,7.07402294921875,-0.02369184123277664,-0.6822054343253374,-0.6066194474652409
1746476118137018600,7.0840185546875,-0.2621025379449129,-0.7069561369612812,-0.40184433224275706
1746476118147016000,7.094015869140625,-0.5461053575307131,-0.7165851121805608,-0.21984014401584862
1746476118157011700,7.10401171875,-0.8609200794875621,-0.7464934898406267,-0.07428571791648865
1746476118167007700,7.1140078125,-1.1159136622101067,-0.9734870127424597,0.03984115813151002
1746476118177004800,7.1240048828125,-1.023899395379424,-1.2875319193705916,0.14409677463695406
1746476118187000800,7.134000732421875,-0.6319020650207996,-1.3634177659600972,0.3269704391747713
1746476118196996600,7.14399658203125,-0.22415946851968763,-1.2328661170728503,0.5691179843276739
1746476118206994000,7.153993896484375,-0.03297463336288929,-1.1547859753094614,0.7992134187676012
1746476118216989700,7.16398974609375,-0.3696259240746498,-1.08924748134166,1.0940703714534639
1746476118226986800,7.17398681640625,-1.2366741310536862,-0.926799788108468,1.3398356687121094
1746476118236982800,7.183982666015625,-2.191807448720932,-0.5696529679872095,1.3977829768985508
1746476118246978800,7.193978759765625,-2.9352240153342484,-0.000824175864458084,1.4114059901900589
1746476118256975600,7.2039755859375,-3.485179618552327,0.5597649034403264,1.458536282416433
1746476118266972000,7.213971923828125,-3.7736955316483973,1.0179876871176063,1.4600151227973401
1746476118276967700,7.2239677734375,-3.7599949230760332,1.3163489946626126,1.4923719165228306
1746476118286964700,7.23396484375,-3.5132658953517675,1.493093216534704,1.4688250367186964
1746476118296960800,7.243960693359375,-3.088968469890952,1.5906297539182006,1.318380062098801
1746476118306956800,7.253956787109375,-2.4141782802581786,1.6107346765749155,1.014879491969198
1746476118316953600,7.26395361328125,-1.6163368804961442,1.6232418375790119,0.6320728915430605
1746476118326950000,7.273949951171875,-0.8251163601785898,1.7134364877671002,0.21272841231450437
1746476118336945700,7.283945556640625,-0.03337152372598648,1.7937923193775116,-0.21072744775563476
1746476118346942700,7.293942626953125,0.7453063258826732,1.7719547277092933,-0.699504067389667
1746476118356938800,7.303938720703125,1.4461322895258664,1.675741547884047,-1.2431696305528281
1746476118366935800,7.313935791015625,2.1461118654727933,1.5902777256101368,-1.7976890345551073
1746476118376931600,7.323931640625,2.8920208334237336,1.4935276624292135,-2.3240946892291308
1746476118386927600,7.333927734375,3.4128421120941637,1.340991414618492,-2.75229175247699
1746476118396924700,7.343924560546875,3.659780983176827,1.3120549507305026,-2.9534897398650646
1746476118406920700,7.353920654296875,3.5860622514933347,1.3538576181933284,-2.8878806648790833
1746476118416916700,7.363916748046875,3.1116490882545706,1.4283227843299506,-2.557803491860628
1746476118426913800,7.373913818359375,2.1991449520021678,1.5338175872415303,-2.040789350388199
1746476118436909600,7.38390966796875,1.1030062498420476,1.62815971249789,-1.535631066404283
1746476118446905600,7.393905517578125,0.15916121890842913,1.6798542438998818,-1.1064281871147452
1746476118456902700,7.403902587890625,-0.512276153165102,1.708712966376543,-0.8711828225657343
1746476118466898700,7.413898681640625,-0.8423527416616677,1.7080644393399356,-0.7897577542886137
1746476118476894700,7.423894775390625,-0.79721537681818,1.5897957873120903,-0.7805440818719566
1746476118486891800,7.433891845703125,-0.35171558885276316,1.3195339083090423,-0.7706259144477545
1746476118496887800,7.4438876953125,0.282833775806427,0.9601616672232747,-0.7238822834514081
1746476118506884900,7.453884765625,0.744390964603424,0.6323904330596327,-0.6257480724357068
1746476118516880600,7.463880615234375,0.8989701164186,0.35153672515451906,-0.49795726656392214
1746476118526876700,7.473876708984375,0.8135463338941336,0.13178718203157186,-0.4053220913559198
1746476118536873700,7.483873779296875,0.5544137516707182,0.02670095992088318,-0.37631168544888494
1746476118546869800,7.493869873046875,0.2600555422872305,0.011381517975032328,-0.35123277377188206
1746476118556865800,7.50386572265625,0.001662380254268646,0.020538345637917517,-0.2599853996604681
1746476118566862800,7.51386279296875,-0.09540975448787212,0.03213146053701639,-0.09442030505910515
1746476118576859000,7.52385888671875,0.00806581755578518,0.011650690305233,0.127817255487293
1746476118586854700,7.533854736328125,0.2421469606310129,-0.060576049254834646,0.2894854887805879
1746476118596851700,7.543851806640625,0.4706009114742279,-0.11934563360959291,0.3445638174019754
1746476118606847700,7.55384765625,0.618531126794219,-0.1568359908312559,0.3716979080431163
1746476118616844500,7.563844482421875,0.6333972720146179,-0.14242401911914349,0.40959494636952876
1746476118626840800,7.5738408203125,0.5649567729949951,-0.13625497509539128,0.49600905510559673
1746476118636836900,7.5838369140625,0.42539398852586746,-0.15069588064104317,0.6081228377655148
1746476118646833700,7.593833740234375,0.3020926030278206,-0.18301701853126287,0.709333533617109
1746476118656830000,7.603829833984375,0.28021394869685173,-0.2551929046869278,0.8693842487111687
1746476118666825700,7.61382568359375,0.3480874614834785,-0.33553514616340396,1.0735615441709756
1746476118676822800,7.62382275390625,0.4826531683176756,-0.4213470512226224,1.222722470329702
1746476118686818800,7.63381884765625,0.609981909635663,-0.5576639856383204,1.3346663032501935
1746476118696814800,7.64381494140625,0.6791723502397536,-0.7225725160270929,1.415923906005919
1746476118706811600,7.653811767578125,0.6558084257870912,-0.9201648801386356,1.4758543508335946
1746476118716808000,7.663807861328125,0.5983452478557825,-1.136486494639516,1.5123624190196394
1746476118726803700,7.6738037109375,0.4816618191927671,-1.258045712645352,1.5555436813592909
1746476118736800800,7.68380078125,0.29907471651136874,-1.2783639857918023,1.577907634989172
1746476118746796500,7.693796630859375,0.08446341305971145,-1.281070614401996,1.606071360938996
1746476118756793600,7.703793701171875,-0.0017746084570884704,-1.279037647269666,1.62972140885666
1746476118766789600,7.71378955078125,0.052479544299840926,-1.3086062715813518,1.5855356456495822
1746476118776785700,7.72378564453125,0.1802203735500574,-1.3656439175769686,1.5050911128424107
1746476118786782500,7.733782470703125,0.37689971446990966,-1.37897569283694,1.3997424404032528
1746476118796778800,7.74377880859375,0.48969899517595766,-1.3532736808255315,1.2494566018678248
1746476118806774500,7.7537744140625,0.3786234695225954,-1.2854606660544872,0.9767414844937622
1746476118816771600,7.763771484375,0.007836684975028037,-1.2185580441266297,0.6425608216792345
1746476118826767600,7.773767578125,-0.47565234964489933,-1.2566881605565547,0.35413244073614475
1746476118836763600,7.783763671875,-0.9795102185547351,-1.394970257565379,0.16776114334091544
1746476118846760400,7.793760498046875,-1.3757400719165802,-1.5180246825650334,-0.015208528917282818
1746476118856756700,7.8037568359375,-1.6515204220801591,-1.6597162957563996,-0.23820012270137667
1746476118866752500,7.81375244140625,-1.7184850033283232,-1.8993004201620816,-0.4667908516667783
1746476118876749600,7.82374951171875,-1.5147943223416804,-2.0529548583477735,-0.5901387066550553
1746476118886745600,7.83374560546875,-1.147940785589814,-1.9356869077950716,-0.6008718437239527
1746476118896742700,7.84374267578125,-0.8492927700579166,-1.6066379087805747,-0.48757118936702604
1746476118906738400,7.853738525390625,-0.9813882873862981,-1.3011802132338284,-0.34586510925889014
1746476118916734700,7.863734619140625,-1.69305245590806,-1.045110233451426,-0.14671455591991542
1746476118926731500,7.8737314453125,-2.7142238876283167,-0.5804089014098048,0.14125950538441537
1746476118936727600,7.8837275390625,-3.4970027428150177,0.13412556185126304,0.31291955586001274
1746476118946723600,7.8937236328125,-3.9661856041848655,0.9942403163053095,0.5651053876854479
1746476118956720600,7.903720703125,-4.175511660709977,1.7878347261473535,0.8368963759519159
1746476118966716400,7.91371630859375,-4.0327316677600145,2.342533139978349,0.8405132512748241
1746476118976712700,7.923712646484375,-3.360754197460413,2.6373630585268137,0.6469492658965289
1746476118986709500,7.93370947265625,-2.0992717883646486,2.705430048058927,0.40125542643889783
1746476118996705500,7.94370556640625,-0.6545598870307207,2.628554313649237,0.23039850903972983
1746476119006701800,7.953701904296875,0.7904273241132498,2.5246450263634324,0.11913242925032973
1746476119016698600,7.96369873046875,2.1354139458477497,2.38206961607486,0.09244768981188535
1746476119026694700,7.973694580078125,3.2349528118401762,2.196475440531969,0.20324907469898462
1746476119036691700,7.983691650390625,3.9740117677658793,2.0562334416270254,0.4000098102919757
1746476119046687500,7.9936875,4.29050114493668,1.9432649418339132,0.6394971963249146
1746476119056683500,8.00368359375,4.194878624480962,1.8439567186027763,0.873262843710184
1746476119066680600,8.0136806640625,3.7488872536063194,1.7852783196628093,1.0165791354939342
1746476119076676600,8.023676513671875,3.0968302893072366,1.6818500938922165,0.9598254210062325
1746476119086672600,8.033672607421876,2.425692192441225,1.5521096152573823,0.6744141959272325
1746476119096669700,8.043669677734375,1.8386375694066286,1.401732883568108,0.30766075854897496
1746476119106665700,8.053665771484376,1.3880132780343293,1.249574529159069,0.022968057002872227
1746476119116661500,8.06366162109375,0.9998135863929987,1.0207005993381142,-0.15673092302158473
1746476119126658600,8.073658447265625,0.7755448122799397,0.7561474533706903,-0.21196794933602212
1746476119136654600,8.083654541015624,0.6469172633230685,0.537157204182446,-0.11743147055134176
1746476119146651400,8.0936513671875,0.5338982023864984,0.32692163159698245,0.03465937157943844
1746476119156647700,8.103647705078124,0.4279799133658409,0.10777034662812948,0.15020020607858894
1746476119166643700,8.113643798828125,0.3960416373133659,0.0034761516779661175,0.20439751408174633
1746476119176640500,8.123640625,0.3498141391456127,-0.09535013325512409,0.1528834538131952
1746476119186636800,8.13363671875,0.1974830585181713,-0.18277531872987746,0.04207403175011277
1746476119196632600,8.143632568359376,-0.02955459578633308,-0.20790800642073154,-0.04745791674554348
1746476119206629600,8.153629638671875,-0.2821656672865152,-0.4049345533430576,-0.2657695360198617
1746476119216625700,8.163625732421876,-0.4374357239753008,-0.6926314051412046,-0.4319030781589448
1746476119226621700,8.17362158203125,-0.36912674238085746,-0.8889638323195278,-0.5324649547129869
1746476119236618500,8.183618408203126,-0.21334873616993427,-0.7768212619565427,-0.5422486821025609
1746476119246614800,8.19361474609375,0.0662011956602335,-0.6529727639697491,-0.5365814501211047
1746476119256610600,8.203610595703125,0.4538134428024292,-0.4382318427890539,-0.37413054201751944
1746476119266607600,8.213607666015625,0.783157040849328,-0.28887510179728265,-0.19164368484020233
1746476119276603600,8.223603759765625,0.892687090626359,-0.22452698665782808,-0.048918198556452984
1746476119286600700,8.2336005859375,0.8558277247846126,-0.17964944179430603,0.04641863682568073
1746476119296596500,8.243596435546875,0.697789956948161,-0.09530395602583884,0.044212651214003564
1746476119306592800,8.2535927734375,0.4443213918358087,-0.004977934543043375,-0.1022685343414545
1746476119316589600,8.263589599609375,0.18088965111374855,0.07849602908790111,-0.27958617218732834
1746476119326585600,8.273585693359376,-0.08282616724669933,0.07871697836220264,-0.3674083941556513
1746476119336581600,8.28358154296875,-0.2998065379172563,-0.02682180982157588,-0.3635049569763243
1746476119346578700,8.29357861328125,-0.4725140516191721,-0.2104946619130671,-0.2886772411376238
1746476119356574500,8.303574462890625,-0.4601999289691448,-0.42848128701671956,-0.14210048625320196
1746476119366570800,8.31357080078125,-0.277277895244956,-0.5674043122775853,0.04630494731813669
1746476119376567600,8.323567626953125,0.031472996628284455,-0.6904413477510214,0.2711933146342635
1746476119386563600,8.3335634765625,0.28877836342453955,-0.7826904462508857,0.5163961557045579
1746476119396560600,8.343560546875,0.5350777675598859,-0.8384839374043047,0.6644106883071362
1746476119406556700,8.353556640625,0.7098346150070428,-0.9466969132333993,0.7701080280534922
1746476119416552400,8.363552490234374,0.7945230689942836,-1.052413542202115,0.8563846280150115
1746476119426549800,8.3735498046875,0.8376420797526836,-1.2178678699053824,0.9378336616896092
1746476119436545500,8.383545654296874,0.8105793007820844,-1.367727299722284,1.0487965207487344
1746476119446541600,8.39354150390625,0.6549333965182303,-1.4267803771935403,1.208731792769581
1746476119456538600,8.40353857421875,0.41715865962207316,-1.3843129622116683,1.4083870807603
1746476119466534700,8.41353466796875,0.23301439062654972,-1.3436889831393957,1.5700075293891131
1746476119476530400,8.423530517578126,-0.002719195830821991,-1.3243734572947023,1.624363096693903
1746476119486527700,8.43352783203125,-0.3870832548320293,-1.1901438505470752,1.6491092692852019
1746476119496523500,8.4435234375,-0.8001444160073995,-0.9375622974023222,1.7054637553222476
1746476119506520600,8.4535205078125,-1.1921616201102734,-0.8105321006394922,1.817659809438139
1746476119516516600,8.4635166015625,-1.3695306958824396,-1.066507534006238,2.025906107902527
1746476119526512600,8.4735126953125,-1.1782897466242312,-1.4105785994552076,2.2619855851881203
1746476119536509400,8.483509521484375,-0.7495750892430544,-1.3803776685893534,2.3515905989199877
1746476119546505700,8.493505615234374,-0.27014731271266934,-0.8988951514862478,2.1867755920335648
1746476119556501500,8.50350146484375,-0.20273907935023305,-0.2927818999774754,1.750785390691459
1746476119566498600,8.51349853515625,-0.8442296414494515,0.13875322165191173,1.3999988993823527
1746476119576494600,8.52349462890625,-2.1915637030929327,0.38311946576759215,1.1911312541492283
1746476119586490600,8.53349072265625,-3.8678555783361195,0.6763268976807594,0.8838900361865758
1746476119596487400,8.5434873046875,-5.156559171834588,1.1872161265321075,0.3478000228442251
1746476119606483700,8.553483642578126,-5.750141150811314,1.7328750554695724,-0.22698168633356688
1746476119616479700,8.563479736328125,-5.7020110338926315,2.1228772664882243,-0.7289099023550748
1746476119626476500,8.5734765625,-5.134093073004484,2.2215144585900006,-1.1230037666015327
1746476119636472600,8.58347265625,-4.249131608194112,2.1337115258440376,-1.3271671796664595
1746476119646469600,8.5934697265625,-3.0465982316732405,1.9955795048303901,-1.3642656149610877
1746476119656465400,8.60346533203125,-1.8026988255411385,1.7961024960160255,-1.3961986303165554
1746476119666461700,8.613461669921875,-0.6238713187783956,1.5604587797991931,-1.528748467283696
1746476119676458500,8.62345849609375,0.41503216898739337,1.3356390938051044,-1.7184348805762826
1746476119686454500,8.63345458984375,1.3050766361504793,1.145431579247862,-1.9135431727871297
1746476119696450800,8.643450927734374,2.0109633903145787,0.9424635134473442,-2.068403479631245
1746476119706447600,8.653447509765625,2.5278023213505745,0.6988257297366857,-2.182300638576597
1746476119716443600,8.663443603515624,2.916837294772267,0.49980450186580416,-2.301913106428832
1746476119726439700,8.673439697265625,3.193100460016727,0.35859131984114645,-2.3574591986924407
1746476119736436500,8.6834365234375,3.27994872238636,0.31299247496575117,-2.3896175472363828
1746476119746432000,8.693431884765625,3.1590006220161913,0.34318712222129105,-2.306767999114096
1746476119756429300,8.70342919921875,2.7266116600364443,0.45402007129043337,-1.9986839005865156
1746476119766425000,8.713425048828125,2.0441420218169686,0.6222372878357768,-1.5095086370237172
1746476119776421000,8.723421142578125,1.305060269537568,0.7353709150627254,-1.026511477573961
1746476119786418200,8.733418212890625,0.7339630940914154,0.8614064016997813,-0.6047736734680831
1746476119796414200,8.743414306640625,0.4902028530448675,0.9807570037454366,-0.21165552238598465
1746476119806410000,8.753409912109374,0.5363333205789327,1.0423448603913188,0.012079437111318111
1746476119816407300,8.7634072265625,0.5262088169276714,1.0564379754126072,0.06029957040101289
1746476119826403000,8.773403076171874,0.41086160530447957,0.9450061836674809,-0.18335384927019477
1746476119836399000,8.783399169921875,0.43875966605544087,0.7455825124755502,-0.4026484882324934
1746476119846396200,8.793396240234374,0.6640735653072595,0.4539323930069804,-0.3723044956341386
1746476119856392200,8.80339208984375,0.9629191492378711,0.09576777414530516,-0.07368000710830092
1746476119866389000,8.813388916015626,1.1677303586870431,-0.1498772577345371,0.27951822151765227
1746476119876385300,8.82338525390625,1.3042197270601987,-0.20482085406035183,0.5126512700878083
1746476119886381000,8.833381103515626,1.3614584485858678,-0.1717702328518033,0.5921500464774668
1746476119896378000,8.843378173828125,1.3518132528841496,-0.11318652645796537,0.5333887915596366
1746476119906374100,8.8533740234375,1.2388181573450565,-0.10218260962367057,0.3958835241422057
1746476119916370200,8.8633701171875,1.0827379533171653,-0.11195903048962354,0.2561111885756254
1746476119926367000,8.873366943359375,1.0102981555283068,-0.1600014691248536,0.12671908498704432
1746476119936363000,8.883363037109374,1.0607383029550312,-0.26514088272750375,-0.00005523731857538223
1746476119946359000,8.893359130859375,1.160565289363265,-0.38799130958765743,-0.12563961918726563
1746476119956356000,8.903356201171874,1.361773505884409,-0.5833809029579162,-0.20951675679162143
1746476119966352000,8.913351806640625,1.6047469804674386,-0.8291670968741178,-0.23827537989467382
1746476119976348200,8.92334814453125,1.59732179890275,-1.0796180677309632,-0.13772314795181154
1746476119986345000,8.933344970703125,1.322464408802986,-1.2474667432248592,0.018787702578306198
1746476119996341000,8.943341064453126,0.9618436289608479,-1.3067600591927766,0.08797229796350002
1746476120006338000,8.953338134765625,0.5922556988090276,-1.3099705456718802,0.036314153049141165
1746476120016334000,8.963333984375,0.2556985161215067,-1.3321207104206085,-0.08296323762983084
1746476120026330000,8.973330078125,-0.009964344653487205,-1.3365192376405,-0.22489742740541696
1746476120036327200,8.9833271484375,-0.23317279605865476,-1.325659405452013,-0.268981337673217
1746476120046323000,8.993322998046875,-0.4391600635498762,-1.3029637356497346,-0.13749014291353523
1746476120056319000,9.003319091796875,-0.6683598643243313,-1.2894948900066316,0.013160948737710714
1746476120066316000,9.01331591796875,-0.9498843110978603,-1.2993527055457235,0.1396427909027785
1746476120076312000,9.02331201171875,-1.1950859831243752,-1.2587532763928175,0.18234437996670602
1746476120086308000,9.03330810546875,-1.3188994097977875,-1.2102186703264712,0.13612338460497558
1746476120096305200,9.04330517578125,-1.3322872991591692,-1.1181441977411508,0.010534984148293732
1746476120106301200,9.05330126953125,-1.242584231880307,-1.0696300499409437,-0.08114340179152786
1746476120116298200,9.06329833984375,-1.135906064403057,-1.0442834272384642,-0.12868673179820178
1746476120126294000,9.0732939453125,-1.0926187113404273,-1.0085416672497987,-0.10210486821234226
1746476120136290000,9.0832900390625,-1.19802379014194,-0.9110898855403066,-0.05640482798479497
1746476120146287000,9.093287109375,-1.5627175185114144,-0.7445911633506417,-0.032859336420148606
1746476120156283100,9.103283203125,-2.033995890855789,-0.6213982066631317,0.006004281916096806
1746476120166279200,9.113279052734375,-2.3830425527602435,-0.6069798052102326,-0.02484144965931773
1746476120176276200,9.123276123046875,-2.529809569519758,-0.6830649737641215,-0.15593590018637477
1746476120186272300,9.133272216796875,-2.256465506592393,-0.952967664065957,-0.31411380714587867
1746476120196268000,9.14326806640625,-1.5307283890545367,-1.2296253815859555,-0.32199542724117636
1746476120206265000,9.15326513671875,-0.6446107399463653,-1.3264794896632432,-0.21736549753062426
1746476120216261000,9.16326123046875,-0.03860124107301235,-1.1837936047375202,-0.22894801797047257
1746476120226258000,9.1732578125,-0.11863456273078918,-0.9437252039462327,-0.20906937835030256
1746476120236254200,9.183254150390624,-0.9223042302548885,-0.5751172247424722,0.15892784854397177
1746476120246250200,9.193250244140625,-2.130512145280838,-0.034817923142015934,0.6545050150383264
1746476120256247000,9.2032470703125,-3.4768583649307487,0.7263819913126528,1.0433727421343326
1746476120266243000,9.2132431640625,-4.672284539794922,1.5662734574273227,1.2189239548295736
1746476120276239000,9.223239013671876,-5.330587705007195,2.2818143212519586,1.1988354718510061
1746476120286236200,9.233236083984375,-5.218731258109211,2.8099644815057516,0.9949881389979273
1746476120296232000,9.24323193359375,-4.40475237801671,2.9961177522361275,0.6731782974567264
1746476120306228200,9.253228271484375,-3.0237703137934204,2.938598460203409,0.34129823973476886
1746476120316225000,9.26322509765625,-1.3743939180046318,2.8054768146976827,0.16940065417625008
1746476120326221000,9.273220947265624,0.17933248479962346,2.627198515126109,0.12161825471669435
1746476120336218000,9.283218017578125,1.4255647177934645,2.3781167867958546,0.0503184207431972
1746476120346214100,9.293214111328124,2.346800442034006,2.0990537616997957,0.00783792708404362
1746476120356210000,9.3032099609375,2.9447207424759863,1.7877488014295697,-0.05642243670672178
1746476120366207200,9.313207275390624,3.2902561813890934,1.5205731980040669,-0.0839534177109599
1746476120376203000,9.323203125,3.3849937357038256,1.3361732006818055,-0.04183963847234845
1746476120386199000,9.333198974609376,3.2782115233302114,1.27146779653728,0.010772007774561642
1746476120396196000,9.343196044921875,2.975400542899966,1.2149547589376568,-0.010946049167215824
1746476120406192000,9.353192138671876,2.4494752190887925,1.146663312999904,-0.11846899690553546
1746476120416188000,9.36318798828125,1.8391782521545885,1.1476263128131627,-0.2650290929161012
1746476120426185200,9.373185302734376,1.2431705073356627,1.1791431485831736,-0.45590296242758627
1746476120436181000,9.383180908203125,0.7874176209032535,1.1689517171755432,-0.5746973918952047
1746476120446178300,9.39317822265625,0.576223432418704,1.1239733422860503,-0.6302266791544854
1746476120456174000,9.403174072265625,0.6304734935224056,0.9831064894810319,-0.6444552571237087
1746476120466170000,9.413170166015625,0.9018500557690858,0.750010265789926,-0.5723832697339356
1746476120476167200,9.423167236328124,1.2181366038441657,0.48188744464218614,-0.4606168392069637
1746476120486163200,9.4331630859375,1.576193086156249,0.31835721686929463,-0.4239585488952696
1746476120496159000,9.443158935546874,1.947552702155709,0.21784487854540346,-0.43649303629770875
1746476120506156300,9.45315625,2.1894284446299075,0.1311973994448781,-0.5492978699617087
1746476120516152000,9.463152099609376,2.297732752004266,0.00944996539056301,-0.7422641817077994
1746476120526148000,9.473148193359375,2.418944471746683,-0.17783114032596348,-0.900919935312122
1746476120536145200,9.483145263671876,2.3757722694963217,-0.4768889057025313,-0.9258955327451228
1746476120546141200,9.49314111328125,2.1757821965932846,-0.5532002842277288,-0.8172333518438041
1746476120556138000,9.503137939453126,1.9597534275591373,-0.5908028696522116,-0.6458643202040344
1746476120566134300,9.51313427734375,1.7231272761762142,-0.67173781632483,-0.4614286670465022
1746476120576130000,9.523130126953125,1.4288403784632682,-0.5373430821433663,-0.14192980586141346
1746476120586127000,9.533127197265625,1.0981126325815915,-0.43772710813730953,0.2408142507225275
1746476120596123000,9.543122802734375,0.6172755737751722,-0.4389323922738433,0.6529472642023116
1746476120606119200,9.553119140625,0.01194528933763504,-0.4888271807774901,1.0457996770203113
1746476120616116000,9.563115966796875,-0.5812877300709486,-0.6140127725869416,1.215572817770764
1746476120626112000,9.573112060546874,-1.0585749874413013,-0.7825275107741355,1.1106493850063532
1746476120636108300,9.5831083984375,-1.3555974475979804,-0.9450348252400755,0.857163576498255
1746476120646105000,9.59310498046875,-1.4368407295674084,-1.0023416435658932,0.5917260489117354
1746476120656100900,9.603100830078125,-1.3394465232640504,-0.9435559848591685,0.3610322832524776
1746476120666098200,9.61309814453125,-1.1759177567958832,-0.817038559924066,0.21132314862646162
1746476120676094000,9.623093994140625,-1.0097358454704284,-0.7720283285915851,0.1814754881776869
1746476120686090000,9.633090087890626,-0.9132166684359312,-0.7686229040622711,0.31660686607062816
1746476120696087000,9.643087158203125,-0.8058300604283809,-0.8346504967212677,0.43623745410144327
1746476120706083000,9.6530830078125,-0.631071459415555,-0.8102075448602437,0.5743154068402946
1746476120716079000,9.6630791015625,-0.3431780621320009,-0.7443950562566518,0.6678562987163662
1746476120726076200,9.673076171875,-0.0896983911037445,-0.7041261742323637,0.5852173976700753
1746476120736072000,9.683072021484374,0.20705869611501693,-0.6642205725625157,0.5755196315309032
1746476120746068500,9.693068359375,0.42423955779373645,-0.5958887946143746,0.6797614021740853
1746476120756065500,9.7030654296875,0.4501140037626028,-0.5728107013657688,0.7953551359042524
1746476120766061600,9.7130615234375,0.3006587708324194,-0.5171908132135867,0.932385479286313
1746476120776058600,9.72305859375,0.1015630164206028,-0.4346080993339419,1.1119579103216528
1746476120786054700,9.7330546875,-0.1155658228099346,-0.48422144054770466,1.227639030074328
1746476120796050400,9.743050537109376,-0.3243424287587404,-0.6269108326047659,1.2890987302958965
1746476120806047500,9.753047607421875,-0.3268558728843927,-0.9793754862591624,1.282695000733435
1746476120816043500,9.76304345703125,0.03745031747221946,-1.6891569097742438,1.1994709932755678
1746476120826039600,9.77303955078125,0.5706202055841684,-2.173774071641266,1.0147736204419284
1746476120836036400,9.783036376953126,1.0474567965775727,-1.905909316907823,0.6083853976918384
1746476120846032600,9.79303271484375,1.1450175916194916,-1.1338295503899454,-0.12771814249437302
1746476120856028700,9.803028564453125,0.7082704344302415,-0.35333734483569856,-0.7310410691648721
1746476120866025500,9.813025390625,-0.4241331748098135,0.19229922613948583,-1.1005493582092225
1746476120876021500,9.823021484375,-2.1063217068761584,0.7763079056069254,-1.2455756687812507
1746476120886018600,9.8330185546875,-3.9735026491999625,1.642975004313886,-1.2854787862330674
1746476120896014300,9.843014404296875,-5.484764121240377,2.5760470045596358,-1.4043863206863403
1746476120906010600,9.8530107421875,-6.308032223203778,3.126324971599877,-1.5255591697230935
1746476120916007400,9.86300732421875,-6.315454482159018,3.23507673048079,-1.655992891319096
1746476120926003500,9.87300341796875,-5.387459346786141,2.96924874227196,-1.7533619631811976
1746476120935999700,9.882999755859375,-3.668796064281463,2.556431034463644,-1.6573779159367084
1746476120945996500,9.89299658203125,-1.7295260373026131,2.128865839378536,-1.4875170238375663
1746476120955992600,9.90299267578125,0.17661504253447055,1.6951164027005432,-1.4723355290576814
1746476120965988600,9.912988525390626,1.765674040004611,1.253897653055191,-1.3978889214910566
1746476120975985400,9.9229853515625,2.9223014053970573,0.859297738982737,-1.1315211273171006
1746476120985981400,9.9329814453125,3.5179672049105166,0.47730157815665003,-0.8152882091253996
1746476120995978500,9.942978515625,3.6907471993267533,0.2106751330465078,-0.5095151640191674
1746476121005974500,9.952974609375,3.489232108813524,0.04933218618482351,-0.20561963975522665
1746476121015970600,9.962970458984374,3.0672926446557045,0.00003536357432603836,-0.040517623487813396
1746476121025967600,9.972967529296875,2.501595866948366,0.07406476864218711,0.019940845535648986
1746476121035963600,9.982963623046874,1.7926000408530234,0.27274755833894015,0.0382586381804198
1746476121045959400,9.99295947265625,1.0238514645844696,0.5394453151196241,0.07097562525412067
1746476121055956500,10.00295654296875,0.3634031040370464,0.7886234895616769,0.11310171598503366
1746476121065952500,10.012952392578125,-0.16347265236675737,0.9437971001386641,0.15812840526197106
1746476121075948500,10.022948486328126,-0.5700006123811007,1.0289107938006519,0.21655814493680373
1746476121085945600,10.032945556640625,-0.7357230895012616,1.032170964640379,0.3747756349880248
1746476121095941600,10.042941650390626,-0.6793541365474463,0.9386065457582473,0.596146751430817
1746476121105938700,10.052938720703125,-0.4527998818457126,0.7927703801080584,0.7875275840837508
1746476121115934700,10.062934814453126,-0.03691489542126655,0.625810177886486,0.8356010023791343
1746476121125930500,10.072930419921875,0.5079536137908697,0.4610270274430513,0.7104493859045207
1746476121135927600,10.082927490234376,1.0539566799908875,0.31598113538771866,0.4862402330242097
1746476121145923600,10.092923583984375,1.5190011263817549,0.19577946947067976,0.2625342256267555
1746476121155919600,10.102919677734375,1.9070657934665678,0.11624649855047464,0.08523592266901396
1746476121165916400,10.11291650390625,2.171504665404558,0.04767711245417595,-0.04527475488702766
1746476121175912700,10.12291259765625,2.263188677367568,0.03996434611976146,-0.17352233721613883
1746476121185908500,10.132908447265624,2.332359828749299,0.10006664038300514,-0.3859416470488533
1746476121195905500,10.142905517578125,2.387067570492625,0.1534530703946948,-0.6003242197785527
1746476121205901600,10.152901611328126,2.447486091098189,0.10904694243520498,-0.7255498513374478
1746476121215898600,10.162898681640625,2.4524276391535995,-0.12482231145501137,-0.4794628843763843
1746476121225894400,10.172894287109376,2.2292262020111084,-0.4334071991115808,0.10288136901017278
1746476121235890700,10.182890625,1.6578694988459348,-0.6973929204545914,0.7326286306172609
1746476121245887500,10.192887451171876,1.0228384881496428,-0.7852807550050318,1.0098318531908095
1746476121255883500,10.202883544921875,0.4464011207193136,-0.6809441822178661,0.787137781048566
1746476121265879600,10.212879638671875,-0.09289046514332294,-0.5136176309019327,0.14715634487066417
1746476121275876600,10.222876708984375,-0.5768050316989421,-0.4244555386319756,-0.555712997701019
1746476121285872400,10.232872314453125,-0.8170324224442244,-0.5225565780304372,-0.8632267489947378
1746476121295868700,10.24286865234375,-0.8989549188494682,-0.8184702001623809,-0.7469900411859154
1746476121305865500,10.252865478515625,-0.9906114582836627,-1.1617254191838204,-0.404330267306976
1746476121315861500,10.262861572265624,-1.2314292161375284,-1.3693886570632456,-0.15792265355680138
1746476121325858600,10.272858642578125,-1.6052730501681565,-1.3698377160049975,-0.14035331379231064
1746476121335854600,10.2828544921875,-1.8638772246032953,-1.1806759111084044,-0.3163864647855982
1746476121345850400,10.292850341796875,-1.8778730167299509,-0.9274243497475981,-0.5338707663903013
1746476121355847700,10.30284765625,-1.6562591410398482,-0.7915857003681361,-0.689457305149734
1746476121365843500,10.312843505859375,-1.4352666121184825,-0.7896756289631128,-0.7449041748225689
1746476121375839500,10.322839599609376,-1.321552554655075,-0.8130611807256937,-0.7280160222552716
1746476121385836500,10.33283642578125,-1.4226479535639285,-0.814531107147783,-0.6500688592217863
1746476121395832600,10.34283251953125,-1.7339730798393487,-0.7977220111660659,-0.477313706985861
1746476121405828400,10.352828369140624,-2.114854557421803,-0.7907352210186421,-0.2791699560692534
1746476121415825700,10.36282568359375,-2.359575167933106,-0.8630475930355489,-0.11308850944358854
1746476121425821400,10.372821533203124,-2.441673605427146,-1.064287081477791,-0.021427768758311868
1746476121435818800,10.38281884765625,-2.316139346310496,-1.464343068999052,-0.09474771038256585
1746476121445814500,10.392814453125,-1.8436212030380963,-2.0136068905606863,-0.2264464834783226
1746476121455810600,10.402810546875,-1.1834212642937898,-2.2503616367593406,-0.2814843339588493
1746476121465807400,10.412807373046874,-0.7821744595527649,-1.984787184920162,-0.14390008302107452
1746476121475803600,10.4228037109375,-0.8631979612916707,-1.416314512758702,0.07131006310656667
1746476121485799400,10.43279931640625,-1.4306278464019297,-0.7972827429659665,0.3630635698843747
1746476121495796500,10.44279638671875,-2.3733313060849905,-0.129505062443763,0.8122074865058064
1746476121505792500,10.45279248046875,-3.5558471459716556,0.6634555795393884,1.2158606948014348
1746476121515788500,10.46278857421875,-4.595255076128244,1.4475537006311119,1.434361187711358
1746476121525785300,10.472785400390626,-5.012338916948438,2.1289337900482117,1.402215698648989
1746476121535781600,10.48278173828125,-4.806628128311038,2.6157167516469952,1.1059627615600824
1746476121545777700,10.492777587890625,-4.005472489434481,2.856012239192426,0.7069101058624684
1746476121555774500,10.5027744140625,-2.740003056529164,2.8686633387118574,0.37743922817409037
1746476121565770800,10.512770751953125,-1.2032453241825103,2.746273515100777,0.09144085085690021
1746476121575767600,10.522767578125,0.36337504698634143,2.5950942348569632,-0.19595701799467205
1746476121585763300,10.532763427734375,1.775766979473829,2.441547056438029,-0.493465654233098
1746476121595759600,10.542759521484374,3.0594670655965803,2.2598709311217067,-0.8459785309433937
1746476121605756400,10.55275634765625,3.933208632734418,2.018734608837962,-1.148510840562731
1746476121615752400,10.56275244140625,4.313853378951549,1.7649957023516296,-1.299507165455073
1746476121625748700,10.572748779296875,4.202776684254408,1.5074381143599749,-1.3800387920238077
1746476121635745500,10.58274560546875,3.744505092999339,1.2416022351056337,-1.4001026520177722
1746476121645741600,10.592741455078125,3.194219234913587,1.0772209434613584,-1.3289413497321307
1746476121655738600,10.602738525390626,2.5172441024571657,0.9500260576561093,-1.222762071687728
1746476121665734700,10.612734619140625,1.6193196956992149,0.9287070830345153,-0.9721721307516098
1746476121675730400,10.62273046875,0.5769225205987691,1.062751104082167,-0.6702157213240861
1746476121685727500,10.6327275390625,-0.28409985021948814,1.369389826107025,-0.3606751403778791
1746476121695723500,10.6427236328125,-0.9117524411022663,1.6357526518449186,-0.06459302981123329
1746476121705719600,10.652719482421874,-1.434931681075692,1.7403794397503136,0.07622311571985482
1746476121715716600,10.662716552734375,-1.7509493490815162,1.748625874570012,0.0947697030186653
1746476121725712600,10.672712646484374,-1.8566864363163709,1.687526385962963,-0.06987988417297601
1746476121735708400,10.68270849609375,-1.7776421256959438,1.550950216089189,-0.3531431374378502
1746476121745705500,10.69270556640625,-1.225480536866188,1.3269979605793951,-0.6864737592943012
1746476121755701500,10.702701416015625,-0.35284897679686544,0.9934753232821821,-0.940882381735742
1746476121765698600,10.712698486328126,0.5352823502212762,0.6035024844884872,-0.9635628539688884
1746476121775694300,10.7226943359375,1.212246376761794,0.22254268097281454,-0.8840662695363164
1746476121785690600,10.732690673828126,1.728596062976122,-0.04599076680243015,-0.7802807547606527
1746476121795687400,10.7426875,2.0911708994954825,-0.20675562151521443,-0.6625295507356525
1746476121805683500,10.752683349609375,2.339355971246958,-0.335134164147079,-0.5598604727692902
1746476121815679500,10.762679443359374,2.4812130041331053,-0.38087943175584077,-0.3785648712031543
1746476121825676500,10.772676513671875,2.4512732084214686,-0.39226679494976996,-0.2031801011160016
1746476121835672300,10.78267236328125,2.297154659855366,-0.4261357468038797,0.1671864121928811
1746476121845668600,10.792668701171875,1.978925745540857,-0.4024807304501533,0.4744833058655262
1746476121855665400,10.80266552734375,1.5068775578677653,-0.2869794973090291,0.5240221205383538
1746476121865661400,10.812661376953125,1.0712731409728526,-0.1314849842146039,0.41909868777394294
1746476121875658500,10.822658447265624,0.7649076829314232,-0.02174684464484453,0.25188071139901874
1746476121885654500,10.832654541015625,0.4895879360169172,0.04412760327905416,0.1563727572336793
1746476121895650300,10.842650390625,0.45538346859812734,0.14631518133878707,0.12582593553960322
1746476121905647600,10.852647705078125,0.613103841048479,0.24105098208785056,0.09428484211117029
1746476121915643400,10.862643310546876,0.7030559146523475,0.24870851110368966,0.18702128573656082
1746476121925639400,10.872639404296875,0.7974222975671291,0.2190636066854,0.31600510078519584
1746476121935636500,10.882636474609376,0.7506815891802311,0.14821458521932362,0.46875995978266
1746476121945632500,10.892632568359375,0.4683247832357883,0.029471301417052745,0.6764858876347541
1746476121955628300,10.902628173828125,-0.029636428850889206,-0.05794248588085174,0.9447881570026277
1746476121965625600,10.91262548828125,-0.5630231745839118,-0.17067688465714453,1.2499784337848425
1746476121975621400,10.922621337890625,-0.9569763151854276,-0.3048760962665081,1.618267264036834
1746476121985618700,10.93261865234375,-1.0949755035996436,-0.36524814738184214,1.8258821327298878
1746476121995614500,10.942614501953125,-1.0356681591063737,-0.38347996964305636,1.9326149530038237
1746476122005610500,10.952610595703124,-0.7792547727137804,-0.23389643415808675,1.7746943818062544
1746476122015607300,10.962607177734375,-0.30663959880769254,-0.402070980605483,1.2406103014588354
1746476122025603600,10.972603515625,-0.3359083633899689,-0.9069079236805438,0.6745423523515462
1746476122035599400,10.982599365234375,-0.4727636424660682,-0.7877464144662022,0.20620953193977473
1746476122045596400,10.992596435546876,-0.6351455769866704,-0.7823571226432919,0.09053206544890999
1746476122055592400,11.002592529296875,-0.7010358070015907,-1.2604986587554217,0.16756839724779127
1746476122065588500,11.01258837890625,-0.9861316825211047,-1.5054697368964551,0.5685382847435773
1746476122075585300,11.022585205078125,-1.1389654519736767,-1.488261704725027,0.9715499072000384
1746476122085581600,11.03258154296875,-0.8097153774291277,-1.5710393566548824,1.2049414605759083
1746476122095578400,11.042578369140625,-0.21314882968366144,-2.103330708366632,1.2528377687387167
1746476122105574400,11.052574462890625,0.5193699108183384,-2.9681770213872194,1.125172050551325
1746476122115570400,11.0625703125,1.4213129055678844,-3.5328614071816205,0.7841711863279343
1746476122125567500,11.0725673828125,2.037528741157055,-3.5498850226968526,0.23660730055198073
1746476122135563300,11.082563232421874,1.8640964203119277,-3.1105384966641663,-0.29482056619822977
1746476122145559600,11.0925595703125,0.7646703670442104,-2.34448047465384,-0.4330434803657233
1746476122155556400,11.102556396484376,-1.2049661566257477,-1.3529150766462086,0.11573036572188139
1746476122165552400,11.112552490234375,-3.309652955776453,-0.2624602653414011,1.2738139212720094
1746476122175548700,11.122548583984376,-4.212913462865353,0.7763561286628246,2.1161431359276173
1746476122185545500,11.13254541015625,-4.7147564848214385,1.795585194143653,2.760364292034507
1746476122195541500,11.14254150390625,-4.562540555006265,2.6642554493665696,2.948736992380023
1746476122205538600,11.15253857421875,-3.6731612737536428,3.2689205478936434,2.655648949062824
1746476122215534300,11.162534423828125,-2.496903325217962,3.588714811828732,2.02660870321393
1746476122225530400,11.1725302734375,-1.0773621054977178,3.6128199100375173,1.2734288674771785
1746476122235527400,11.18252734375,0.46407063292264933,3.3719220726847645,0.6413922162912785
1746476122245523500,11.1925234375,1.7040969970136879,2.985534983423352,0.2282508294865489
1746476122255519500,11.20251953125,2.697324775275588,2.5443518896132704,-0.0693491382971406
1746476122265516500,11.2125166015625,3.455734912881255,2.0333669453024865,-0.283490193888545
1746476122275512600,11.2225126953125,3.7407325887233016,1.4376935470044612,-0.6461717056527734
1746476122285508400,11.23250830078125,3.4546336736410854,0.9956401001006364,-0.9727890936061739
1746476122295505400,11.24250537109375,2.8009195897847414,0.9000941520124673,-1.0553567560471593
1746476122305501400,11.25250146484375,1.8639853611528872,1.060049151647091,-0.734660282575339
1746476122315498500,11.26249853515625,0.8089479001879691,1.3621037607520818,-0.026703298008441925
1746476122325494500,11.27249462890625,-0.24951252096295357,1.6603128003448246,0.8522783617399633
1746476122335490600,11.282490478515625,-1.216326924073696,1.912559714707732,1.6150355886392294
1746476122345487400,11.2924873046875,-2.0100439373821017,2.171499404707551,2.0611539468944073
1746476122355483600,11.302483642578125,-2.3659698374062774,2.3819068267285823,2.088418385916948
1746476122365479400,11.3124794921875,-2.287465040490031,2.4077625679969787,1.8740448367439209
1746476122375476500,11.3224765625,-1.862057607960701,2.1934645682781935,1.7445901893131435
1746476122385472500,11.332472412109375,-1.2065870358258486,1.7276532291680573,1.840375791376084
1746476122395468500,11.342468505859374,-0.35683424704074856,1.0970528943955897,2.1078524235747755
1746476122405465300,11.35246533203125,0.49460371835231776,0.46912557822465895,2.4004651044651864
1746476122415461600,11.362461669921874,1.0578080947220325,0.10630582703351973,2.708645210713148
1746476122425458400,11.37245849609375,1.3161416355222464,-0.08577157304883003,2.92496331808269
1746476122435454500,11.382454345703126,1.4464479313462972,-0.11613806973993777,3.011111615489423
1746476122445450500,11.392450439453125,1.4216934293180703,-0.006762333741784096,3.076427552747726
1746476122455447600,11.402447509765626,1.2552525747954846,0.2627805833369493,3.110013011485338
1746476122465443300,11.412443359375,1.11290512804389,0.6474246283233165,3.2306969079613683
1746476122475439600,11.422439697265625,0.9014069881767034,1.0227531479537486,3.1097493921130894
1746476122485436400,11.4324365234375,0.6132406191706657,1.2129641696423292,2.7555530923604965
1746476122495432400,11.442432373046875,0.37757951342761514,1.4165391152948141,2.716144626557827
1746476122505428500,11.452428466796874,0.33141222101449963,1.6942586168274283,2.9862983690112825
1746476122515425500,11.462425537109375,0.22992285435199736,1.7740826796486973,2.957610034665465
1746476122525421300,11.47242138671875,-0.1178232463479042,1.7774778750449418,2.817184203626215
1746476122535418600,11.482418701171875,-0.4940747260421514,1.8917963281422852,2.9054107686117288
1746476122545414400,11.492414306640624,-0.7632084777981042,2.01561472325176,3.160900318157673
1746476122555410400,11.502410400390625,-0.9034440469622611,2.1247613266691565,3.40805604686141
1746476122565407500,11.512407470703126,-0.9119780665516852,2.181849533808231,3.596690613013506
1746476122575403500,11.522403564453125,-1.072085626399517,2.2390362328857183,3.668462594543397
1746476122585399300,11.5323994140625,-1.1471084264189004,2.3140873822167514,3.4462335095643994
1746476122595396600,11.542396728515625,-1.085840010985732,2.4793133079916236,3.0260648544713855
1746476122605392400,11.552392333984375,-1.1503881787419319,2.740566535630822,2.3919138414800165
1746476122615388400,11.562388427734374,-1.080633089992404,3.0048391110911963,1.7267935435988009
1746476122625385500,11.572385498046875,-1.0226882660239935,3.2813480677902698,1.2674648445062338
1746476122635381500,11.582381591796874,-0.9734908121347426,3.421213634598255,0.9498790504008531
1746476122645378600,11.592378662109375,-0.9265817614436149,3.4420334275260567,0.7166836771842092
1746476122655374600,11.60237451171875,-0.8843348573446274,3.3725714765042065,0.6804078833840786
1746476122665370400,11.612370361328125,-0.7417699684500694,3.3390631746560335,0.8735569312859326
1746476122675367400,11.622367431640624,-0.5469090751290321,3.2449294314533472,0.991641239722818
1746476122685363500,11.632363525390625,-0.41405660195350646,3.081338413403928,1.1099667365044354
1746476122695359500,11.642359375,-0.3691635672599077,2.997594546790421,1.1649418970122933
1746476122705356300,11.652356201171875,-0.44486382814943787,3.041369391109049,1.0427293296642601
1746476122715352600,11.6623525390625,-0.6609206542342901,3.1682807837978,0.8387534019954502
1746476122725348400,11.672348388671875,-1.0154197363257407,3.3098248052120205,0.6202746825259179
1746476122735345400,11.682345458984376,-1.4012807558864355,3.3493595277428625,0.49571420034486796
1746476122745341200,11.692341064453124,-1.7653133899986744,3.3869971844807267,0.3468148477317765
1746476122755338200,11.702338134765625,-2.2974194482713934,3.4345962632626295,0.022564079311862585
1746476122765334000,11.712333984375,-2.666170343077183,3.2529163385540243,-0.48585517922937865
1746476122775330000,11.722330078125,-2.501637368002534,2.932867515335977,-0.9633778527908027
1746476122785327000,11.7323271484375,-1.947826842921972,2.7175778742313383,-1.309736883046478
1746476122795323100,11.7423232421875,-1.4334434883445502,2.6301857142433525,-1.5823875568822026
1746476122805319200,11.752319091796876,-1.5236831467181444,2.6150693936541676,-1.5737541685715317
1746476122815316200,11.762316162109375,-2.23821205702126,2.5639962090209125,-1.2199418997004627
1746476122825312300,11.772312255859376,-3.430426868623495,2.638123813766241,-0.4434888865344226
1746476122835308000,11.78230810546875,-4.709629058805108,2.896783810041845,0.6404547893106937
1746476122845305000,11.79230517578125,-5.616452811333537,3.222023187640309,1.756384233611822
1746476122855301000,11.802301025390625,-5.963147357153892,3.473869704508781,2.465282152290642
1746476122865298200,11.812298095703126,-5.7219619350314135,3.6136139830246568,2.5787074559405445
1746476122875294200,11.822294189453125,-4.787423077103496,3.7788852092459795,2.160570891197026
1746476122885290200,11.832290283203125,-3.344035702371597,3.9220451414242383,1.463814222819358
1746476122895287300,11.842287353515625,-1.6191946080148218,3.8350048636138436,0.6228196908336132
1746476122905283300,11.852283447265625,0.17807810082435607,3.437604505167901,-0.022263452397473155
1746476122915279000,11.862279052734374,1.8214596401125192,2.8254388217523694,-0.3525508706331253
1746476122925276200,11.872276123046875,3.0195857215851545,2.2122005406692624,-0.4776052372783422
1746476122935272200,11.882272216796874,3.6178269245445724,1.7820441600471735,-0.4503909210078418
1746476122945268200,11.892268310546875,3.8337954878240823,1.559960036496818,-0.20589542448930442
1746476122955265300,11.902265380859374,3.7112867140084504,1.5427511275425552,0.2848173508390784
1746476122965261300,11.91226123046875,3.2309932605594396,1.782430821277201,1.0741513998229055
1746476122975258000,11.922258056640626,2.4599440061330795,2.212005602619052,1.9661486815541982
1746476122985254400,11.93225439453125,1.4171645537167787,2.6574942846685645,2.7166639742568135
1746476122995250200,11.942250244140626,0.26760756510198114,3.010358459034562,3.248200708208978
1746476123005247200,11.952247314453125,-0.6780144123762846,3.2350273383811112,3.675434771643579
1746476123015243300,11.9622431640625,-1.4021984552532434,3.2413562491416927,3.9243496189743277
1746476123025239300,11.9722392578125,-1.9007763379335403,3.065123776184022,3.786377903088927
1746476123035236000,11.982236083984375,-2.0682547188103197,2.7694264271512625,3.2830233075261113
1746476123045232400,11.992232421875,-2.0133178444862363,2.447199383111298,2.549885850603878
1746476123055228200,12.002228271484375,-1.8080588912695645,2.180487305544317,1.806328998737037
1746476123065225200,12.01222509765625,-1.5187655640602111,1.8945760219886898,1.142853033996746
1746476123075221200,12.02222119140625,-1.3327864808529615,1.541630599080026,0.5752693465642631
1746476123085218300,12.03221826171875,-1.2330676309943198,1.1715841115057468,0.11011968623325229
1746476123095214000,12.042214111328125,-1.206759469783306,0.8052683348923921,-0.11881963697411119
1746476123105210000,12.052210205078126,-1.2257020706623791,0.4833990182489156,-0.18059534434229135
1746476123115207200,12.062207275390625,-1.170171906620264,0.25166180795133114,-0.1106369881056249
1746476123125203200,12.072203125,-1.1096528482496737,0.16731968318372964,0.13016272263489662
1746476123135199000,12.082198974609375,-1.1540607297748326,0.15445581769645214,0.457891140570119
1746476123145196300,12.0921962890625,-1.3361989196449517,0.18835954860299825,0.6047418170250952
1746476123155192000,12.102192138671874,-1.4776134694606065,0.2872334720700979,0.513692961160466
1746476123165188000,12.11218798828125,-1.56285605019927,0.4173284632310271,0.305770560888201
1746476123175185200,12.12218505859375,-1.5946213077723979,0.4828963294237852,0.0016983283504843712
1746476123185181200,12.13218115234375,-1.518069983011484,0.5153098217725753,-0.18895020797252654
1746476123195178200,12.14217822265625,-1.3383680803775786,0.5590981100946665,-0.21201529560908675
1746476123205174300,12.15217431640625,-1.1078075126439333,0.6212476922765374,-0.22444106194004415
1746476123215170000,12.162170166015626,-0.7459884629279374,0.7728978049024939,-0.30459830223843454
1746476123225167400,12.17216748046875,-0.3051315323323011,0.923804697945714,-0.48232978158220646
1746476123235163100,12.1821630859375,0.15226678321957587,1.0102025861993431,-0.713953302372247
1746476123245159200,12.1921591796875,0.5254623824745416,1.0358815095961094,-0.88715064541772
1746476123255156200,12.20215625,0.7727946367889642,0.9824953718453645,-0.9990826417699455
1746476123265152300,12.21215234375,0.917047624900937,0.8894318882226944,-1.1286676375821232
1746476123275148000,12.22214794921875,0.9638450319111347,0.8263923714637755,-1.3687370612867176
1746476123285145300,12.232145263671875,0.8830541698843241,0.7824678895413875,-1.6284227473482489
1746476123295141000,12.24214111328125,0.791294170075655,0.7062117483347654,-1.8093283266834914
1746476123305138200,12.25213818359375,0.6819967600107193,0.5346548659726977,-1.8676932757601141
1746476123315134200,12.26213427734375,0.6042915890395641,0.3581844926059246,-1.8449458757705985
1746476123325130200,12.272130126953124,0.4943588036805391,0.2900803859338164,-1.790317336743325
1746476123335127000,12.282126953125,0.47481180716753,0.24941139867603776,-1.7342318769060074
1746476123345123300,12.292123291015624,0.5223860437691211,0.17359394114762544,-1.663726992702484
1746476123355119000,12.302119140625,0.5539601626843214,0.06495148786008358,-1.7135070687852798
1746476123365116200,12.3121162109375,0.6983540205717086,0.0007467267140746116,-1.780894113229215
1746476123375112200,12.3221123046875,0.9890385098785162,-0.030815117241442203,-1.6952965815730392
1746476123385109200,12.332109130859376,1.2140262459158897,-0.07855652710348367,-1.5621449793204665
1746476123395105000,12.34210498046875,1.3800713791191577,-0.12335954542607068,-1.4244019576244056
1746476123405101300,12.352101318359376,1.4661463190287352,-0.19314473705291746,-1.3289654612600803
1746476123415098000,12.36209814453125,1.4337602992087601,-0.2447244099035859,-1.243917087919265
1746476123425094100,12.37209423828125,1.3890753543078898,-0.3281666632220149,-1.1648341988541184
1746476123435090200,12.382090087890624,1.2688152362018823,-0.4695356203302741,-0.9988495636664331
1746476123445087200,12.392087158203125,1.0561895536094903,-0.5890069261461496,-0.8733281640313565
1746476123455083000,12.4020830078125,0.7478577639311551,-0.6953530851900577,-0.8794191743828356
1746476123465079000,12.4120791015625,0.5033060802459717,-0.7034896298944949,-0.8707287951879202
1746476123475076000,12.422076171875,0.29453882664740083,-0.7348784553706645,-0.7968700705118477
1746476123485072100,12.432072021484375,0.09511047928035259,-0.8417074294954537,-0.6737580701060593
1746476123495069200,12.442069091796874,-0.07384206580221653,-0.962826210257411,-0.5565631847895681
1746476123505065200,12.452065185546875,-0.20992460694015025,-1.0497712109997868,-0.49604134994000193
1746476123515061200,12.462061279296876,-0.3195885122299194,-1.1112100145637989,-0.4777382160082459
1746476123525058300,12.472058349609375,-0.34725393326878545,-1.1806190663546323,-0.43857364196404813
1746476123535054000,12.48205419921875,-0.38227322420179843,-1.2385527844071387,-0.3285886149611324
1746476123545050000,12.492050048828125,-0.44562136851847167,-1.274718615026772,-0.18125965346992015
1746476123555047200,12.502047119140625,-0.5575403592586518,-1.2629716247402132,-0.18396365173161028
1746476123565043200,12.512043212890624,-0.6492588580131531,-1.2046071140550076,-0.32171865612640976
1746476123575039200,12.522039306640625,-0.6302326705038547,-1.1051168122552335,-0.4182403904441744
1746476123585036300,12.532036376953124,-0.5873819552928209,-1.0092071454212068,-0.38680845647864043
1746476123595032300,12.5420322265625,-0.5331465072363615,-0.9825539701648056,-0.3054865563150495
