time,seconds_elapsed,z,y,x
1745463231831848400,0.032848388671875,4.527023835945129,3.1547166610866784,0.2838309701502323
1745463231841820400,0.0428203125,4.110956478691101,-1.2888561537116765,0.02202887645661831
1745463231851792400,0.05279248046875,2.7470167346835135,0.4136614651560783,-2.20089384149611
1745463231861764400,0.062764404296875,6.420933795240521,3.10573781838417,-3.0418931227222084
1745463231871736600,0.072736572265625,8.296631806018947,4.237692514812946,-1.7172693439282476
1745463231881708300,0.082708251953125,8.438998541992902,4.4538399417907,-1.5626960373319685
1745463231891680500,0.092680419921875,9.091837012058496,3.730315239605307,-1.1166196185223758
1745463231901652200,0.10265234375,9.703823831775784,2.736581265386939,-0.4350717713229358
1745463231911625500,0.11262548828125,8.801390423160791,1.7036317175894975,0.13481354411542415
1745463231921597400,0.122597412109375,8.194907461556792,1.7791566219121218,0.1778723491191864
1745463231931569400,0.1325693359375,7.1171455430865285,1.9005261625647545,-0.9067517102055251
1745463231941541400,0.142541259765625,4.5661961549043655,0.7438681097730994,-2.036664087151736
1745463231951513600,0.152513671875,-3.456100823584199,-4.0092248277053235,-1.6467213512353598
1745463231961485300,0.1624853515625,-2.83607741240561,-2.7472408988282084,-1.8711469233453273
1745463231971457500,0.17245751953125,-1.1503051766335963,0.37229631232768295,-4.239070525167882
1745463231981429200,0.18242919921875,1.5276047040760516,2.024570475384593,-6.657118632596731
1745463231991401500,0.1924013671875,3.84487802285254,1.7514003077194094,-7.544506447771191
1745463232001373400,0.20237353515625,3.71729267642498,1.4796350384160875,-6.258748260074854
1745463232011345400,0.212345458984375,5.150934317690134,2.3739263493686913,-0.8852794447183608
1745463232021318400,0.222318359375,7.0163131790280335,3.411379346065223,0.1286381799487397
1745463232031290600,0.23229052734375,7.055284422457218,4.80015337933898,-2.9145319404393435
1745463232041262300,0.242262451171875,3.919039822128415,5.274868155872822,-4.267713851328194
1745463232051234600,0.252234619140625,-2.155147404843569,6.036579673111438,-4.993150816875696
1745463232061206300,0.262206298828125,-6.4512219659984105,6.6996238953709595,-5.519922528383136
1745463232071178500,0.272178466796875,-7.567329104954004,6.551452272510528,-4.802974866500497
1745463232081150500,0.282150390625,-5.902992455920577,6.317706644999981,-3.6499949176996944
1745463232091122400,0.292122314453125,-3.203286338466406,5.8745455291152,-2.596970550122857
1745463232101094400,0.302094482421875,-0.7705810523927211,5.240160415107011,-1.5248478065833448
1745463232111066400,0.31206640625,0.6962053181052208,4.5218274363458155,-1.0587500517472623
1745463232121039400,0.322039306640625,-0.20497429105639456,4.101811633726954,-1.8844126476317642
1745463232131011600,0.332011474609375,-3.6659237237155433,4.787917290361225,-3.510512212729454
1745463232140983300,0.3419833984375,-7.136045473867655,5.318444847270846,-4.150371374234557
1745463232150955500,0.35195556640625,-8.767584015148877,5.5177872699201105,-3.790561326253414
1745463232160927500,0.361927490234375,-8.539784144300222,5.5896606659978625,-2.853796608969569
1745463232170899500,0.3718994140625,-6.840789438861608,5.33719981662333,-1.9807471157491205
1745463232180871400,0.381871337890625,-4.12308004720509,4.96585890532434,-1.7576923936009405
1745463232190843400,0.391843505859375,-1.7534014184087514,3.712827513709664,-2.617438753134012
1745463232200815400,0.4018154296875,-0.4626566744714975,3.1089231704220173,-2.9014374810665844
1745463232210787600,0.41178759765625,0.017168869204819203,2.9863822479024527,-2.103101575785875
1745463232220759300,0.42175927734375,0.19081424827873705,2.7686221250310536,-1.8070985218048095
1745463232230732500,0.431732666015625,-0.040461481986939905,2.848739325580001,-1.437630418640375
1745463232240704500,0.44170458984375,-1.2919777928635476,2.9541192699402568,-1.3519459393531084
1745463232250676500,0.451676513671875,-2.5553797718450424,2.5882071056917306,-2.164903075182438
1745463232260648400,0.4616484375,-2.6678029127150773,2.2661704696573315,-2.3984487962067127
1745463232270620400,0.471620361328125,-2.6159809555411337,1.8436419535651802,-1.4164017526507378
1745463232280592400,0.48159228515625,-1.97617425487563,1.2313679874695838,-0.5618488701075315
1745463232290564600,0.491564697265625,-1.3270873924285174,0.7901363783426583,-0.025060206976532936
1745463232300536300,0.501536376953125,-1.0524182183772326,0.5111173385187984,-0.1999234374076128
1745463232310508500,0.511508544921875,-1.1514344729244708,0.38271015431433913,-1.720352550765872
1745463232320480300,0.521480224609375,-1.6331348705619573,-0.5349477114394307,-2.5097896947979925
1745463232330453500,0.53145361328125,-1.8817197552859781,-1.2509744590848684,-2.4605332041978834
1745463232340425500,0.541425537109375,-1.8144319334328174,-1.4515119367375968,-2.3982196636259556
1745463232350397400,0.5513974609375,-1.7087094592452048,-1.7264610967740415,-1.3929717772245407
1745463232360369400,0.561369384765625,-1.4926023642778397,-2.0043381269559264,-0.10222761780917644
1745463232370341600,0.571341552734375,-1.3619172982692718,-1.8318509780064225,0.8298018876463175
1745463232380313300,0.581313232421875,-1.262891252980381,-1.0214294981345533,0.7470382642418145
1745463232390285600,0.59128564453125,-1.4759212785899638,0.2841659011930227,-1.714292812335491
1745463232400257300,0.60125732421875,-2.5752725130558014,0.0869008693397045,-4.068838169407845
1745463232410229500,0.6112294921875,-3.8951018971800804,-0.9975848044276237,-4.453901901111006
1745463232420201500,0.621201416015625,-4.351134185075759,-1.1320961507260798,-4.248550593435764
1745463232430173400,0.63117333984375,-4.150195433145761,-0.7781734072178602,-3.4673803424894807
1745463232440146400,0.641146484375,-3.819407481509447,-0.8125906406044959,-1.9746786094903945
1745463232450118700,0.65111865234375,-3.4103403584063052,-1.0773439853191376,-0.3426543305188417
1745463232460090400,0.66109033203125,-2.796205420744419,-0.8952093025803566,0.2813561044692993
1745463232470062600,0.6710625,-2.524599141395092,-0.31109891630411146,-1.4683569808155297
1745463232480034300,0.681034423828125,-2.6941712796807287,-0.318089798104763,-3.6799154241889713
1745463232490006500,0.691006591796875,-3.0065181502193212,-0.7331792502373456,-4.726631631532311
1745463232499978500,0.700978515625,-3.421217141729593,-0.6486871956050395,-5.235130604246258
1745463232509950500,0.710950439453125,-4.003170642232894,-0.3028933980166912,-5.758576970723271
1745463232519922400,0.72092236328125,-4.436249924564361,0.10602174939513206,-5.693354264706373
1745463232529894400,0.730894287109375,-4.821663784879446,0.3249216899514198,-5.843303418633341
1745463232539866400,0.740866455078125,-5.289584078967571,0.6104676473259926,-6.746038440543413
1745463232549839600,0.750839599609375,-5.745291372692584,0.6748907273977994,-7.612050290212035
1745463232559811300,0.760811279296875,-6.068814886283874,0.46620647590756414,-8.284838492372632
1745463232569783600,0.770783447265625,-6.083030458641052,0.005165419939160347,-9.070319007733463
1745463232579755500,0.780755615234375,-5.69921585021615,-0.6909352687478065,-9.6201296495229
1745463232589727500,0.7907275390625,-5.333958642745018,-1.5340549031287432,-9.795998257604241
1745463232599699500,0.800699462890625,-4.826774844282865,-2.4170535434335467,-9.397233917328714
1745463232609671400,0.81067138671875,-4.322656278610229,-3.502827503445744,-8.558079679447411
1745463232619643400,0.820643310546875,-3.7716380145967006,-4.433004074510932,-7.831488575428724
1745463232629615600,0.83061572265625,-3.189866884922981,-4.891548052966594,-7.355634565731883
1745463232639587300,0.84058740234375,-2.5847780080258844,-4.858505030542612,-6.766832222247123
1745463232649559600,0.8505595703125,-1.9732523760795593,-4.405931358668208,-5.968703822237253
1745463232659532500,0.860532470703125,-1.3578987102776765,-3.8732150595426558,-5.288994296380877
1745463232669504500,0.87050439453125,-0.973441712296009,-3.52275327014327,-4.927743986463547
1745463232679476500,0.8804765625,-0.8077765183210373,-3.184794403964281,-4.435944804137945
1745463232689448400,0.890448486328125,-0.8325883034944533,-2.7899527900904415,-4.160537378939986
1745463232699420400,0.90042041015625,-1.0062111784756183,-2.346504089435935,-4.204397563454508
1745463232709392600,0.910392578125,-1.0739344691365957,-1.9097709607720375,-4.267642247396707
1745463232719364400,0.9203642578125,-0.895915405023098,-1.427091488969326,-4.312144236946105
1745463232729336600,0.930336669921875,-0.815615541383624,-0.8575012109547853,-4.338524878871441
1745463232739308300,0.940308349609375,-0.9005582623928785,-0.6180448045819997,-4.194596884930133
1745463232749280500,0.950280517578125,-0.9457400508999824,-0.5805711062341928,-3.9008272890895603
1745463232759252500,0.96025244140625,-0.9232388807564973,-0.6591185732483863,-3.4527702178567647
1745463232769225500,0.9702255859375,-0.7500755130458623,-0.7501888372272253,-2.8196365652143953
1745463232779197400,0.980197509765625,-0.4796580781549215,-0.742716309389472,-2.066215906459093
1745463232789169400,0.99016943359375,-0.1562210372706875,-0.6661281597495079,-1.2167290751338005
1745463232799141400,1.000141357421875,0.0678916329652071,-0.4643015190690756,-0.44645080507993695
1745463232809113600,1.010113525390625,0.17618428643438963,-0.21172376531660556,0.3306085034161806
1745463232819085300,1.020085205078125,0.19300963943116367,0.08850362836122512,0.9252321004003285
1745463232829057500,1.0300576171875,0.062441039409115905,0.36503567367494105,1.3420423849761485
1745463232839029200,1.040029296875,-0.16129991143755615,0.49531917314529417,1.6155401771605014
1745463232849001500,1.05000146484375,-0.4537304041614756,0.4120493537843227,1.936886931234598
1745463232858973400,1.059973388671875,-0.6301022490572183,0.3561480183422565,2.3762696976244446
1745463232868945400,1.0699453125,-0.6233405729025602,0.4404243843972683,2.8031232373088595
1745463232878917400,1.07991748046875,-0.5593312977960333,0.5099368965625762,3.2006466376125813
1745463232888890600,1.089890625,-0.4257756447872147,0.6021709436237812,3.6471319294840097
1745463232898862300,1.0998623046875,-0.326733634744212,0.7586100440919399,4.07878673197031
1745463232908834600,1.10983447265625,-0.2992202259292826,0.9509507712855935,4.294413349944353
1745463232918806300,1.11980615234375,-0.2945394111692905,1.1003729787290095,4.160161531364918
1745463232928778500,1.129778564453125,-0.3134405109941959,1.2447630372241139,3.988585652041435
1745463232938750500,1.13975048828125,-0.32834874179065227,1.3311732004374266,3.8854333206027745
1745463232948722400,1.149722412109375,-0.3223655757278204,1.4735571798071265,3.772399646618962
1745463232958694400,1.1596943359375,-0.26630702216373753,1.675293804116547,3.574720188745856
1745463232968666400,1.169666259765625,-0.22976970961689946,1.9473545492351054,3.4342584096103903
1745463232978638300,1.179638427734375,-0.20630290931165218,2.3645301599919795,3.357853215321898
1745463232988610600,1.189610595703125,-0.2511258013784885,2.920759728913009,3.2534464999079704
1745463232998583300,1.199583251953125,-0.44641807185411453,3.3878955946251748,3.0585329996168613
1745463233008555500,1.209555419921875,-0.6602618980646133,3.8685862306982277,2.809400417882204
1745463233018527500,1.219527587890625,-0.7959680071055889,4.4361967330724,2.445425651437044
1745463233028499500,1.22949951171875,-0.8572083654880523,5.095368497812748,2.1702245624661445
1745463233038471400,1.239471435546875,-0.950400955383107,5.7935728807806965,1.7810498883128165
1745463233048443400,1.249443359375,-1.130321469203755,6.367905384886265,1.3057026590943335
1745463233058415400,1.259415283203125,-1.4343629412770271,6.836289789354801,0.9858698167145251
1745463233068387600,1.2693876953125,-1.7908827155411242,7.251578563451766,0.7814519904971122
1745463233078359300,1.279359375,-2.2241410077013075,7.382743521931767,0.7743664161503314
1745463233088331500,1.28933154296875,-2.5531214715242383,7.150616435533761,0.8574357445031404
1745463233098303200,1.29930322265625,-2.5428175196528433,6.851474499005079,1.0396516757845877
1745463233108275500,1.309275390625,-2.185479414743185,6.854495308130979,1.0597732573151588
1745463233118248400,1.31924853515625,-1.8210639187932014,6.861590234827995,1.2005214521765708
1745463233128220400,1.329220458984375,-1.5918685019329188,6.587533639717102,1.728493187123537
1745463233138192400,1.3391923828125,-1.3987573748886584,6.1001908522784705,2.3783102635413407
1745463233148164600,1.34916455078125,-1.215993819661811,5.690426394560933,2.8550141680657863
1745463233158136300,1.35913623046875,-0.927027167123556,5.3440463215172285,3.293957373994589
1745463233168108500,1.369108642578125,-0.6491173306506127,4.901114922735094,3.822280991119146
1745463233178080300,1.379080322265625,-0.22924130182862282,4.315258277313411,3.842382114383578
1745463233188052500,1.389052490234375,0.5614683463573455,3.8628514864385126,4.3506320807725185
1745463233198024400,1.3990244140625,1.2036403879147022,3.698123865574598,4.224819589236378
1745463233207996400,1.408996337890625,1.5558148995161056,3.5274680237054823,3.7912937321811913
1745463233217968400,1.418968505859375,1.4415233344256877,3.275705093467235,3.3108746065258976
1745463233227940400,1.4289404296875,1.1516625095266848,3.2037007644861935,2.9368887336760756
1745463233237912300,1.438912353515625,0.836371329164505,3.120525637671351,2.459118661224842
1745463233247885600,1.448885498046875,0.42431956422738726,2.981816255161166,1.9816648151159286
1745463233257857300,1.458857177734375,0.065991352301836,2.9127041404902934,1.4411024786651134
1745463233267829500,1.46882958984375,-0.13809198126420377,2.759296955063939,1.1361439648121594
1745463233277801500,1.478801513671875,-0.2848003266390413,2.4833663827747103,0.9861007028609514
1745463233287773400,1.4887734375,-0.5110930808603763,2.1310259400218725,0.8080746244847774
1745463233297745400,1.498745361328125,-0.7042236432574689,1.734069525951147,0.8759481372714042
1745463233307717400,1.50871728515625,-0.8678359963558614,1.2147130591362714,1.1605869166731835
1745463233317689300,1.518689453125,-1.0015618913650512,0.6377618969649076,1.5273212109595535
1745463233327661600,1.52866162109375,-0.961051090343669,-0.0029921675533056257,1.8026491411805152
1745463233337633300,1.53863330078125,-0.7158827360648662,-0.6837649387270212,1.9603660064995287
1745463233347605500,1.54860546875,-0.45472887714691457,-1.2683522948652506,1.9043588725954292
1745463233357577200,1.5585771484375,-0.24156645732931792,-1.8018524378448724,1.771358515381813
1745463233367549400,1.568549560546875,-0.1581773224376142,-2.2824217856258153,1.706689351594448
1745463233377522400,1.5785224609375,-0.23909867897629736,-2.6618980725854633,1.5167612385004758
1745463233387494400,1.588494384765625,-0.38205991024468094,-2.9147710098922253,1.1940852816492318
1745463233397466400,1.59846630859375,-0.35489589938931165,-3.042863136798143,0.9301584508866071
1745463233407438600,1.6084384765625,-0.08505027303695678,-3.022100334754586,0.9117799136310816
1745463233417410300,1.618410400390625,0.25258940765764565,-3.0362200455218553,0.8277180671095847
1745463233427382500,1.628382568359375,0.3920599472660571,-3.020533816090226,0.6005091478914022
1745463233437354200,1.638354248046875,0.4200760083734989,-3.043514878705144,0.4772434182286262
1745463233447326500,1.648326416015625,0.43771921709179873,-2.774782693487406,0.21164602390527723
1745463233457298400,1.65829833984375,0.4672293892145157,-2.239787928035855,-0.5618488701075315
1745463233467270400,1.6682705078125,0.4987151357265189,-1.5997937419742345,-1.0561053824573754
1745463233477242400,1.678242431640625,0.47613512819316234,-1.2299018604397773,-1.1013508838504553
1745463233487214300,1.68821435546875,0.41570721870474514,-1.0968769533067941,-1.091358482146263
1745463233497186300,1.698186279296875,0.39752164673805235,-1.0829255848437547,-1.210541910931468
1745463233507158500,1.708158447265625,0.5286322081496939,-1.0713590656906367,-1.5969763464659452
1745463233517131300,1.71813134765625,0.8346855680346489,-1.182023672455549,-2.1420102753728627
1745463233527103500,1.728103515625,1.0193126521110534,-1.3793418958008288,-2.7397090420186516
1745463233537075700,1.73807568359375,1.333641636377573,-1.271286594751477,-3.3283632092043756
1745463233547048000,1.7480478515625,1.6977122644126414,-0.8369739712327718,-4.080350035764277
1745463233557019600,1.75801953125,1.9188287119746208,-0.0086269585698843,-4.780614273871481
1745463233566992000,1.767991943359375,1.9733926613330839,0.8918354422330855,-5.383837064635753
1745463233576963600,1.777963623046875,1.5959049178421496,2.035564163085818,-6.027856268429756
1745463233586935800,1.787935791015625,0.6495592291992157,2.872596001985669,-6.273614989817142
1745463233596907800,1.79790771484375,-0.38729010251574214,2.95849616985023,-6.610181524854898
1745463233606879700,1.807879638671875,-1.2122166392106561,2.6670412806928154,-7.2652218888789415
1745463233616851700,1.817851806640625,-1.9766390959084033,1.8657623076975345,-8.238377769970894
1745463233626823700,1.82782373046875,-2.836752535188198,0.9095902946323156,-9.642467153537273
1745463233636795600,1.837795654296875,-2.6958991263866423,0.5188005864977836,-11.07923364882469
1745463233646767900,1.847767822265625,-1.9412239375256002,0.07394903330802917,-11.882198382949829
1745463233656740600,1.85774072265625,-1.7497732910394668,-0.5355027149736881,-11.358453910309075
1745463233666712800,1.867712890625,-1.8746973093032835,-1.0098609331548214,-9.800913502174616
1745463233676684800,1.877684814453125,-1.844272944945097,-1.339038526985049,-8.372837678343057
1745463233686656800,1.88765673828125,-1.457808114272356,-1.5536077448606491,-7.080940841761231
1745463233696628700,1.897628662109375,-0.8620120394427329,-1.7007149533599615,-6.253771640706062
1745463233706600700,1.9076005859375,-0.5275379466395825,-1.6788164252847433,-5.7942783987015485
1745463233716572700,1.91757275390625,-0.5338322975434363,-1.7518629567950963,-5.436726943302154
1745463233726545000,1.927544921875,-0.6091079763453453,-1.7539257345438002,-5.194920758932828
1745463233736516600,1.9375166015625,-0.6394563528578728,-1.6859797410428523,-4.980370245757698
1745463233746488800,1.94748876953125,-0.7575028865676373,-1.4561416423648594,-4.984311676859855
1745463233756460500,1.95746044921875,-0.9135948540985583,-1.0062409890919923,-4.96878677546978
1745463233766432800,1.967432861328125,-1.2317255687355995,-0.5841904657751321,-4.828001755729318
1745463233776404700,1.97740478515625,-1.4611270295619965,-0.15170564220547675,-4.67565343170613
1745463233786376700,1.987376708984375,-1.6583600588418543,0.23662089068591594,-4.360945677255094
1745463233796349700,1.997349609375,-1.9317454766929147,0.5068722482949495,-4.058450923167169
1745463233806322000,2.007322021484375,-2.167277403098345,0.5063946939110756,-3.64029565372318
1745463233816293600,2.017293701171875,-2.265965740865469,0.2526204238504171,-3.2897765811786055
1745463233826265900,2.027265869140625,-2.2372446732938287,-0.09232114082276821,-2.9522680891156194
1745463233836237600,2.037237548828125,-2.137597865758091,-0.5640256296247244,-2.5362556769192217
1745463233846209800,2.047209716796875,-1.953224318051338,-1.0893214233607054,-2.1111112792402507
1745463233856181800,2.057181640625,-1.7237223194599152,-1.4803712437361478,-1.7312877862781286
1745463233866153700,2.06715380859375,-1.506221724307537,-1.6887392688840626,-1.349880238994956
1745463233876125700,2.077125732421875,-1.3518062386214733,-1.745914277523756,-0.9438158048391342
1745463233886097700,2.08709765625,-1.2308103535868227,-1.6301280899614095,-0.40191900491416455
1745463233896070000,2.09706982421875,-1.13315881152153,-1.3356003692299128,0.1448714122712612
1745463233906041900,2.107041748046875,-1.202905205507949,-0.9411176517963409,0.8052735955893993
1745463233916013800,2.117013916015625,-1.30761170758605,-0.7041863799870014,1.5081179133176803
1745463233925985800,2.12698583984375,-1.2605822453856468,-0.4647387414425611,1.958757986781001
1745463233935958800,2.136958740234375,-1.284232001042366,-0.3026058132469654,2.3697458488136527
1745463233945930800,2.1469306640625,-1.4467454529881476,-0.17706453986763954,2.725049233025312
1745463233955902700,2.15690283203125,-1.714261248153448,0.04539104734361171,2.9332933395326135
1745463233965874700,2.166874755859375,-1.9866449416160583,0.33635260002613065,2.9740076272368428
1745463233975846700,2.1768466796875,-2.1325871979892255,0.7228174306988716,3.05445069873929
1745463233985819000,2.18681884765625,-1.9825521193444728,1.2107722125560045,3.208787273970246
1745463233995790600,2.19679052734375,-1.6938123343646525,1.3668600153684616,3.452921024504304
1745463234005762800,2.2067626953125,-1.3406114753901959,1.4203911145478487,3.5664310838282107
1745463234015734800,2.21673486328125,-1.1605612707752733,1.6813655252456665,3.5117841323614116
1745463234025706800,2.226706787109375,-1.0892132868111133,2.130597485476732,3.6363352256596086
1745463234035679000,2.236678955078125,-1.0526420902609825,2.551923201650381,3.8500112940877673
1745463234045650700,2.246650634765625,-1.0611902114409952,3.003521306490898,4.03505221966207
1745463234055623000,2.256622802734375,-1.2047661040090023,3.5662054583787914,4.006848453962803
1745463234065594600,2.2665947265625,-1.4201485379636287,4.110786967343092,3.9655332777559753
1745463234075566800,2.27656689453125,-1.6171556495331227,4.530039968895912,3.888759250155091
1745463234085539800,2.286539794921875,-1.70703524242267,4.940048756763339,3.739773388302326
1745463234095511600,2.296511474609375,-1.7434850045502184,5.376227758675813,3.5600247239172456
1745463234105483800,2.30648388671875,-1.8447488918937742,5.986514204216003,3.328464623752236
1745463234115455700,2.316455810546875,-2.1367359882317483,6.444949461600184,3.1421137846231457
1745463234125427700,2.326427734375,-2.5172587155044077,6.708533178013563,2.966155160170793
1745463234135400000,2.33639990234375,-2.97101019898653,6.89921590886712,2.98529649849236
1745463234145371600,2.34637158203125,-3.3132384130477903,6.8819999856501815,3.1598581156283614
1745463234155344000,2.35634375,-3.405867596906423,6.797351863673329,3.2870214372515676
1745463234165315800,2.36631591796875,-3.253523364536464,6.93746702132821,3.36780879214704
1745463234175287800,2.376287841796875,-3.0337972022891044,6.977952176451683,3.856419992086291
1745463234185259800,2.386259765625,-3.0203555369138715,6.707163643226027,4.434917214655876
1745463234195231700,2.396231689453125,-2.793558705627918,6.214400584304332,4.8498897624105215
1745463234205203700,2.40620361328125,-2.3399346479177474,5.6503813844203945,4.962029702425003
1745463234215176000,2.416176025390625,-1.943619454360008,5.1260319316238165,4.843846390593051
1745463234225147600,2.426147705078125,-1.7015781460605561,4.9088481473356484,3.9926130078613755
1745463234235119900,2.436119873046875,-1.7971778701625762,4.558378174629807,2.8578420849680897
1745463234245092900,2.4460927734375,-1.2858299377582967,3.9624528473973273,2.3946073183476924
1745463234255064800,2.45606494140625,-0.5098725991547107,3.602537000954151,2.222176868021488
1745463234265036800,2.466036865234375,0.08510273387655615,3.2293945931911465,2.0566151344209906
1745463234275008800,2.4760087890625,0.6993862862288951,2.953946835982799,2.0473691671699283
1745463234284980700,2.485980712890625,1.0084897909320891,2.75839971396327,1.7786533485651015
1745463234294953000,2.495952880859375,0.953834436963126,2.5553058298259974,1.4199047923356294
1745463234304924700,2.505924560546875,0.6944494143486023,2.4263474414795634,0.9527221648722887
1745463234314897000,2.51589697265625,0.34045579756125804,2.385158522000909,0.4126128328859806
1745463234324868600,2.52586865234375,-0.0876373669207096,2.3907506429195404,-0.08583879306614399
1745463234334840800,2.5358408203125,-0.5324423044897616,2.1252532018393278,-0.5408066666007042
1745463234344812800,2.545812744140625,-0.9182666453018784,1.595771646851301,-0.9916641822069883
1745463234354784800,2.55578466796875,-1.1479707423366605,0.7940975370585918,-1.2462123592495917
1745463234364756700,2.5657568359375,-1.0564962814711034,-0.10178630378246306,-1.2913128992140293
1745463234374728700,2.575728759765625,-0.8899427603542804,-0.9345593161940574,-1.1072405264109373
1745463234384700700,2.58570068359375,-0.6355579571798443,-1.6537597254395484,-0.8220411905169487
1745463234394674000,2.595673828125,-0.3948750777520239,-2.1717840668678283,-0.6249620366245507
1745463234404645600,2.605645751953125,-0.2552572020947933,-2.5288912856310604,-0.36161972775161266
1745463234414617900,2.615617919921875,-0.20578896844014524,-2.8199720807790754,0.017286650365591048
1745463234424589800,2.62558984375,-0.3618916034955531,-3.079526103284955,0.37980420373976226
1745463234434561800,2.635561767578125,-0.44290275720953937,-3.1938135767221447,0.8393857085496187
1745463234444533800,2.64553369140625,-0.3445112104319036,-3.214112268385291,1.2259575067281723
1745463234454505700,2.655505615234375,-0.2695160290718078,-3.188206842756271,1.5135335086256265
1745463234464477700,2.665477783203125,-0.2318612020034343,-3.099482849642634,1.7553607357829808
1745463234474450000,2.675449951171875,-0.14275069379024208,-3.0149563082188364,1.988627639865875
1745463234484421600,2.685421630859375,-0.12023849079608917,-2.9475217713713646,2.1296102280050513
1745463234494393900,2.695393798828125,-0.050036242800951,-2.758354705777764,2.1332003614515065
1745463234504365600,2.705365478515625,0.008594736800715326,-2.611277307894826,2.1175322521984574
1745463234514337800,2.715337890625,0.021468246899172663,-2.537549808382988,2.0385048927128313
1745463234524309800,2.725309814453125,-0.011542042298987507,-2.4103292036145922,1.779111029204726
1745463234534281700,2.73528173828125,-0.1675976233422756,-2.1864169878542423,1.4732681337326765
1745463234544254700,2.745254638671875,-0.43558103601932524,-1.8780185626804828,1.214569851273298
1745463234554227000,2.75522705078125,-0.763531718403101,-1.7030103708207607,0.9988204837024212
1745463234564198700,2.76519873046875,-0.8900339457690716,-1.6335820298075674,0.6452227343648672
1745463234574171000,2.7751708984375,-0.6958382383584976,-1.5548101063877344,-0.05753682768940925
1745463234584142600,2.785142578125,-0.2004594439804554,-1.378319567015767,-0.8305825166299938
1745463234594114800,2.79511474609375,0.3158955029308796,-0.9273211816340684,-1.6659584050163625
1745463234604086800,2.805086669921875,0.616007745796442,-0.1824602614313364,-2.6487796478152275
1745463234614058800,2.815058837890625,0.8173544940054416,0.6258610312908888,-3.604176584854722
1745463234624030700,2.82503076171875,1.068486140602827,1.36984692222476,-4.550497650513052
1745463234634002700,2.835002685546875,1.242660804247856,1.9083219310075044,-5.361424157297611
1745463234643974700,2.844974609375,1.320935299539566,2.2355162420660255,-6.062651687479018
1745463234653947000,2.85494677734375,1.345534318745136,2.298349422597885,-6.653672876057028
1745463234663918800,2.8649189453125,1.182564939725399,2.186113620993495,-7.182807225042581
1745463234673890800,2.874890869140625,0.9776385794639587,2.0529618726104495,-7.651471030974387
1745463234683862800,2.88486279296875,0.8483505207717418,2.087435804620385,-8.282057337221502
1745463234693834800,2.894834716796875,0.6333832434892654,2.2311282362401483,-8.797062623089552
1745463234703807000,2.904806884765625,0.18316457377579062,2.054009920358658,-8.871206886708736
1745463234713779700,2.91477978515625,-0.4485410553574562,1.518409590229392,-8.559908648440242
1745463234723751700,2.924751708984375,-1.037816350116208,0.7766308539509773,-8.202170730558038
1745463234733724000,2.934723876953125,-1.3026888642311096,0.00023380875587463378,-7.943435623219608
1745463234743695600,2.944695556640625,-1.1185387500166892,-0.9642688102811574,-7.6841329451262945
1745463234753667800,2.954667724609375,-0.5753811363756657,-1.8836007467269897,-7.6043363548338405
1745463234763639800,2.964639892578125,0.17970537323262542,-2.5100042143315076,-7.542132704377174
1745463234773611800,2.97461181640625,0.8139829717457294,-3.001588877123594,-7.4985986830770965
1745463234783584000,2.984583984375,1.320788000023365,-3.2404940793544053,-7.404217687115072
1745463234793555700,2.9945556640625,1.7676076384156942,-3.1183681673765182,-7.227574587529897
1745463234803528000,3.00452783203125,2.0848148084670304,-2.6807255226522684,-6.915527576720714
1745463234813499600,3.014499755859375,2.1197405758976937,-2.013241856640577,-6.468638380223513
1745463234823471900,3.024471923828125,1.9370079272657632,-1.2409323730200528,-5.84647678797245
1745463234833443800,3.03444384765625,1.5672329501092432,-0.380470558694005,-5.108351898026466
1745463234843415800,3.044415771484375,0.9588298340976238,0.3284609699934721,-4.4274099077656865
1745463234853387800,3.0543876953125,0.25092940202355385,0.825692114239931,-3.6825001799851655
1745463234863359700,3.06435986328125,-0.4112438826203346,1.0649234796851872,-2.947745935516059
1745463234873332700,3.074332763671875,-0.9205167623162269,0.9345505483657122,-2.216791375590861
1745463234883305000,3.084304931640625,-1.3009656937003136,0.485571101590991,-1.6003051986277101
1745463234893276700,3.094276611328125,-1.554685603225231,-0.024991817915439606,-1.1990858664155006
1745463234903249000,3.104248779296875,-1.6760767711877822,-0.44452129832208154,-0.9253174405962228
1745463234913220600,3.114220703125,-1.744185261774063,-0.8779284974336624,-0.8834685959041119
1745463234923192800,3.12419287109375,-1.886574794101715,-1.2768915751516818,-0.7337725399553775
1745463234933164800,3.134164794921875,-1.9868051006138323,-1.4699579862713812,-0.5438315673798322
1745463234943136800,3.14413671875,-2.0538532684922215,-1.5344675755828618,-0.3302677271544933
1745463234953108700,3.154108642578125,-2.030788034725189,-1.4393459903866053,0.11692892785668373
1745463234963080700,3.164080810546875,-1.814699644458294,-1.2993442299783229,0.921506942397356
1745463234973052700,3.174052734375,-1.513721140152216,-1.0426713158667087,1.9506828168749808
1745463234983025000,3.18402490234375,-1.227015491348505,-0.7330547470748424,2.904899604219198
1745463234992996600,3.19399658203125,-1.0502923122644423,-0.5223638319373131,3.6696839530318974
1745463235002968800,3.20396875,-0.9122234926801175,-0.40734161448478695,4.042897087943554
1745463235012940500,3.2139404296875,-0.636157384377718,-0.359008083948493,4.221196722564101
1745463235022912800,3.223912841796875,-0.43512627798914905,-0.3690507545351982,4.192218465360999
1745463235032885800,3.2338857421875,-0.33234387584142383,-0.1589239030212164,4.085540882405638
1745463235042857700,3.243857666015625,-0.3460230032343417,0.30164076760709285,4.004030473932624
1745463235052829700,3.25382958984375,-0.5256758060295135,0.8324860121637583,3.9782314312875267
1745463235062802000,3.263802001953125,-0.7806266455888747,1.2916069137245416,3.9059669900655742
1745463235072773600,3.273773681640625,-0.8750409592986106,1.6009744761914013,3.790406427952647
1745463235082745900,3.283745849609375,-0.8632090672075748,1.7287258268356323,3.5167443851172924
1745463235092717600,3.293717529296875,-0.9238018484015017,1.9543927773088217,3.089688600859046
1745463235102689800,3.303689697265625,-1.127879409813881,2.2637001340210436,2.6417899350583554
1745463235112661800,3.313661865234375,-1.2393838284038006,2.6952240036040545,2.2407570653289555
1745463235122633700,3.3236337890625,-1.3009070953808723,3.344173649537563,1.9941478645920752
1745463235132605700,3.333605712890625,-1.4424233520053327,4.263375822123885,1.9794383712381123
1745463235142577700,3.34357763671875,-1.5787315185926853,5.128780938071012,2.3311259030401703
1745463235152549600,3.353549560546875,-1.583803122768551,5.888139754703641,2.5461440337270496
1745463235162521900,3.36352197265625,-1.6584638114772736,6.5101750902265305,2.675970437079668
1745463235172493800,3.373493896484375,-1.9507482833266256,6.8665914041161535,2.828303855794668
1745463235182465800,3.3834658203125,-2.396018354189396,6.875044175162911,3.1374878783881663
1745463235192437800,3.393437744140625,-2.833423098504543,6.684454967811703,3.315161490064859
1745463235202409700,3.40340966796875,-3.053103083522618,6.59025868076682,3.2222745320528743
1745463235212382700,3.4133828125,-3.1207658761680124,6.729883424556255,2.8808512046337125
1745463235222354700,3.423354736328125,-3.1812671066209672,6.68651306938529,2.6625691037148234
1745463235232326700,3.43332666015625,-3.303906813339889,6.184152161034941,2.935569467771053
1745463235242299000,3.443298828125,-3.1369205998942253,5.371655628454685,3.3456501518309114
1745463235252270600,3.4532705078125,-2.6120085447788237,4.764519755899906,3.6658974202305075
1745463235262242800,3.463242919921875,-2.0346528934597967,4.417686678391695,4.016334659710526
1745463235272214500,3.473214599609375,-1.636593194322288,4.073417313891649,4.417812935119867
1745463235282186800,3.483186767578125,-1.295455698107183,3.7905321001589294,4.662918161034583
1745463235292158700,3.49315869140625,-1.0101996635898947,3.6156852363407608,4.547727601277828
1745463235302130700,3.503130615234375,-0.9496902498304843,3.5485675103574987,4.1933916007936
1745463235312103000,3.51310302734375,-1.0813351007819174,3.494699726569652,3.8308202714055772
1745463235322074600,3.52307470703125,-1.731338201291114,3.366197265297174,3.332810544002056
1745463235332046800,3.533046875,-1.488333747047931,3.2290964870274066,2.8270804514795542
1745463235342018800,3.543018798828125,-1.402734461826086,3.0380373240768908,2.0982634881049393
1745463235351990800,3.55299072265625,-1.2936862042166293,2.8512855029314754,1.4714128612548112
1745463235361962800,3.562962646484375,-1.1936837151110171,2.7725615103065966,1.0234832157939673
1745463235371934700,3.572934814453125,-0.9021497693680226,2.536785253751278,0.5229699811369181
1745463235381907700,3.58290771484375,-1.001320922216028,2.3619617708086964,0.6264841316252946
1745463235391879700,3.592879638671875,-0.9280359057746828,1.8775567903876305,0.5330050529390573
1745463235401851600,3.6028515625,-1.0556697675190865,1.2576795096814632,0.8103606895953417
1745463235411823900,3.612823974609375,-1.0839150342725217,0.4765045825600624,0.7446791338950395
1745463235421795800,3.6227958984375,-1.130052808330208,-0.37336686416864395,0.8688076178669929
1745463235431767800,3.632767822265625,-1.0888009066179394,-1.0231517918825148,0.7428554255992174
1745463235441739800,3.64273974609375,-1.0306547148585319,-1.567270944032073,0.5307856233239173
1745463235451711700,3.652711669921875,-1.0112168778084218,-2.1046955669790504,0.4094792110353708
1745463235461683700,3.66268359375,-0.9196049081683159,-2.45343418584764,0.28069617925584317
1745463235471656000,3.672656005859375,-0.7136860297381877,-2.684485751968622,0.22333646169900892
1745463235481627600,3.682627685546875,-0.42839141677618026,-2.930754176443815,0.15688509066998957
1745463235491600000,3.692599853515625,0.03517879234366119,-3.155298844888806,-0.015624270111322402
1745463235501571600,3.702571533203125,0.5392508154608309,-3.3002170189112423,-0.09035831631720065
1745463235511543800,3.712543701171875,0.9932792161881923,-3.447529394593835,-0.04315291302800178
1745463235521515800,3.722515869140625,1.4143687855184077,-3.412610641425848,0.05556932700872421
1745463235531487200,3.7324873046875,1.6774913141608236,-3.2887066138595342,0.24080665193796155
1745463235541459200,3.742459228515625,1.7803332644760608,-3.055543170151114,0.3750631466925144
1745463235551431200,3.75243115234375,1.7900117779254912,-2.7500527413785454,0.3303688494414091
1745463235561403400,3.7624033203125,1.6587901208221911,-2.3459072925865647,-0.04529752384126186
1745463235571376400,3.77237646484375,1.417063431429863,-1.8581828123539685,-0.5145142874807119
1745463235581348000,3.78234814453125,1.0462801540136337,-1.4866162756055592,-0.9918208340734243
1745463235591320300,3.7923203125,0.7516226694226265,-1.243509530031681,-1.5731857210338114
1745463235601292300,3.802292236328125,0.5960591827452183,-1.082091472107172,-2.2067489972651004
1745463235611264300,3.81226416015625,0.4986673145294189,-1.0914748020023106,-2.6109967373877763
1745463235621236200,3.822236328125,0.4253472267746925,-1.101735499253869,-2.730589039234817
1745463235631208200,3.832208251953125,0.535959811091423,-1.131058624371886,-2.811914446529746
1745463235641180200,3.84218017578125,0.7966291013628244,-1.0819798284262419,-2.9759724975690243
1745463235651152400,3.85215234375,1.1339239506751297,-0.9395295058220624,-3.2737934146270153
1745463235661124400,3.862124267578125,1.544937531670928,-0.6009212358236312,-3.6908608888342975
1745463235671096300,3.872096435546875,1.8691431823074816,-0.005502104547619819,-4.185579465737939
1745463235681068300,3.882068359375,2.096184343743324,0.8779530473530291,-4.728036822155118
1745463235691040300,3.892040283203125,2.186382501062751,1.6813579264611005,-5.21060172766745
1745463235701012500,3.902012451171875,2.0897423279970884,2.366582416346669,-5.70803628553152
1745463235710984200,3.911984130859375,1.8303227455258368,2.7392694815576073,-6.101787766081094
1745463235720956400,3.921956298828125,1.6295698715567588,2.6413106271088123,-6.525296086990833
1745463235730928000,3.93192822265625,1.5910504635483025,2.199082408159971,-6.888879223769902
1745463235740900400,3.941900390625,1.658376279324293,1.8782897808372974,-7.173703881132602
1745463235750872300,3.951872314453125,1.6711510052233933,1.733053042384982,-7.4168193945348255
1745463235760845300,3.96184521484375,1.500496332398057,1.3958534701406955,-7.363727271294594
1745463235770817300,3.9718173828125,1.18573363288939,0.9985375751078128,-7.0250704859793185
1745463235780789200,3.981789306640625,0.9200187496662139,0.6931324865311383,-6.637087067437172
1745463235790761200,3.99176123046875,0.6895879457920789,0.29084815543591974,-6.223215174400806
1745463235800733400,4.0017333984375,0.5579664757162333,-0.37278117323517795,-5.9814463994324205
1745463235810705200,4.011705078125,0.7152250758737325,-1.0924632285177707,-5.822590885472297
1745463235820677400,4.021677490234375,1.0653694698870182,-1.809313275244832,-5.690441007608175
1745463235830649300,4.0316494140625,1.272454469487071,-2.4008891750961543,-5.604835438776016
1745463235840621300,4.041621337890625,1.3507318873882292,-2.7270740168511867,-5.507768564730882
1745463235850593300,4.05159326171875,1.382700558578968,-2.7275702759355305,-5.509885703015327
1745463235860565200,4.061565185546875,1.3291495856553315,-2.4263304903447627,-5.421265754798054
1745463235870537200,4.071537109375,1.225760522851348,-1.9307839381843803,-5.129000718301534
1745463235880509400,4.081509521484375,1.067353921702504,-1.2926929553955793,-4.725014259463548
1745463235890481200,4.091481201171875,0.8263315811872481,-0.6352203957885504,-4.28631509142369
1745463235900453400,4.101453369140625,0.5464823741495609,-0.06358838281333447,-3.7679879676565524
1745463235910425000,4.111425048828125,0.2498234866082668,0.44489130067825317,-3.1719965894505378
1745463235920397300,4.121397216796875,-0.0839163005709648,0.7598959922492504,-2.679003228904307
1745463235930369300,4.131369384765625,-0.509666847449541,0.7750742721587419,-2.1365946800649165
1745463235940341200,4.14134130859375,-0.9479249937236308,0.6119815590202808,-1.4980723201215267
1745463235950314200,4.151314208984375,-1.2500456538021563,0.37206864105165005,-1.0367121152013539
1745463235960286500,4.161286376953125,-1.3852549192368984,0.03372574399113655,-0.7145505376130342
1745463235970258200,4.171258056640625,-1.471886908507347,-0.2612666716426611,-0.3111591220587492
1745463235980230400,4.18123046875,-1.5547335340201853,-0.4942231946021318,0.0590729512155056
1745463235990202000,4.1912021484375,-1.542721609187126,-0.6755962453186511,0.36694413764476774
1745463236000174300,4.20117431640625,-1.4850526795506476,-0.7378677003145218,0.8353034076720476
1745463236010146300,4.211146240234375,-1.487384921890497,-0.7048761158168315,1.3685183039695024
1745463236020118300,4.2211181640625,-1.6404267811357973,-0.6090887601882219,1.7917197508871554
1745463236030090200,4.23109033203125,-1.917218938690424,-0.45386078907549376,2.273337730938196
1745463236040062200,4.241062255859375,-2.167519395160675,-0.4216846126139164,2.672875978195667
1745463236050034200,4.2510341796875,-2.0425661508023736,-0.4390811530947685,2.8325726191550493
1745463236060006400,4.26100634765625,-1.833380964052677,-0.6101560971587896,2.9722026236414907
1745463236069978000,4.27097802734375,-1.758508386158943,-0.7049696393191814,3.038732320603728
1745463236079950300,4.280950439453125,-1.512531053584814,-0.4987848034292459,2.9155776500999924
1745463236089922300,4.29092236328125,-1.2739935156226156,-0.3375497008562088,2.8277281017333267
1745463236099894300,4.300894287109375,-1.270018766772747,-0.2448480362832546,2.8460967021167276
1745463236109866500,4.310866455078125,-1.3359165955722332,0.05272562801539898,3.0294091964632273
1745463236119838200,4.320838134765625,-1.2581436200618743,0.43396424847245213,3.1433582317262885
1745463236129810400,4.330810546875,-1.0351146168768406,0.8515314888954162,3.199727184680104
1745463236139782100,4.3407822265625,-0.969644658100605,1.3011708608835935,3.210809719708562
1745463236149755100,4.350755126953125,-1.18713239377141,1.7173773343473673,3.265528567367792
1745463236159727400,4.360727294921875,-1.3492939635396002,2.23847392282784,3.2232851704001426
1745463236169699000,4.370698974609375,-1.3702758151613175,2.959399256169796,2.9875574291616678
1745463236179671300,4.38067138671875,-1.3538590794980525,3.7586335715949533,2.806975236561894
1745463236189643300,4.390643310546875,-1.3911844554163515,4.5817128729879855,2.688299757298827
1745463236199615200,4.400615234375,-1.4999734775677322,5.3192462267816065,2.6068220820516346
1745463236209587500,4.41058740234375,-1.5638625968933104,5.939038751813769,2.5763503714203835
1745463236219559200,4.42055908203125,-1.6157611264348029,6.492872073248028,2.575150347980857
1745463236229531400,4.430531494140625,-1.708851936455816,6.978919560179114,2.749468219488859
1745463236239503000,4.440503173828125,-1.8446176667295395,7.255746789047121,3.1171324881017206
1745463236249475300,4.450475341796875,-1.924134855558723,7.534257440957426,3.4323090291082856
1745463236259447300,4.460447265625,-1.9256290396392344,7.923788673463464,3.4856618491113185
1745463236269419300,4.470419189453125,-1.983890674471855,8.289986961176991,3.2770155915439125
1745463236279391200,4.48039111328125,-2.0375578211210668,8.231643493279813,3.20066768040061
1745463236289363200,4.49036328125,-2.140576297046989,7.617531936493515,3.396004374539852
1745463236299335200,4.500335205078125,-2.250709719544649,6.737531893482804,3.69849328340888
1745463236309307400,4.510307373046875,-2.263231347465515,5.926552195206284,3.9894723717480898
1745463236319279000,4.520279052734375,-2.207895683082193,5.436185091510414,4.56249437777698
1745463236329252400,4.53025244140625,-1.9731180821754037,5.248977927812934,5.642118582987785
1745463236339224300,4.540224365234375,-1.4591291337430476,4.966038938066363,6.314588805240392
1745463236349196300,4.5501962890625,-0.9654712448734789,4.751650921976566,5.838857545140385
1745463236359168300,4.560168212890625,-0.5588730691671371,4.190599924248457,4.2675002085775136
1745463236369140200,4.57014013671875,0.033501360650733114,3.1067262448996305,2.3227970506340263
1745463236379112200,4.5801123046875,0.0998679394731298,1.8699515760809182,0.3340110053360462
1745463236389084400,4.59008447265625,0.4996469732165336,0.9920154798626899,-0.9662795655816793
1745463236399056100,4.60005615234375,1.1548819830298422,0.5313181227654218,-1.1960761632055044
1745463236409028400,4.6100283203125,1.222729776853323,0.45388066281974315,-1.5132617059469222
1745463236419000000,4.62,1.3418985925912856,0.28443419674038883,-1.3826876990973949
1745463236428972300,4.62997216796875,1.5667536421597004,0.23577976368665693,-1.1613806973993777
1745463236438944300,4.6399443359375,1.453738672876358,0.4252338295280933,-0.2999550064772367
1745463236448916200,4.649916259765625,1.507678352856636,0.3691197281181812,0.2826893988996744
1745463236458888200,4.65988818359375,1.2372551458120344,0.25278116737008094,0.5739730231434107
1745463236468860200,4.669860107421875,0.7915490216195583,-0.028672552254796025,0.629987755832076
1745463236478832000,4.67983203125,0.31569442740082737,-0.4329752374351024,0.5654191298097372
1745463236488804400,4.689804443359375,-0.14281858966099098,-0.8664905730962753,0.47641047453582286
1745463236498776300,4.6997763671875,-0.3845826701879501,-1.315717272630334,0.2830126395046711
1745463236508748300,4.709748291015625,-0.4821019641757011,-1.7885569029420614,0.1501917305111885
1745463236518720300,4.71972021484375,-0.5559609811127185,-2.2038544448673725,0.022943068692088127
1745463236528693200,4.729693359375,-0.6152887838721275,-2.4364631773024796,0.0699304453164339
1745463236538665700,4.739665771484375,-0.6914765360176562,-2.6704654099225995,0.3387994086563587
1745463236548638000,4.749637939453125,-0.7027169650215656,-2.950128154477477,0.6085106680393219
1745463236558609700,4.759609619140625,-0.6292658712983131,-3.218199829959869,0.8977192395746707
1745463236568582000,4.769581787109375,-0.5295359520563856,-3.357303764745593,1.101284248355031
1745463236578553900,4.779553955078125,-0.5019137491047382,-3.4498704047620294,1.1469330698519944
1745463236588525800,4.78952587890625,-0.5707668840458616,-3.544773378771543,1.0742255610376596
1745463236598497800,4.799497802734375,-0.7170365092098713,-3.5025942792117593,1.032556749087572
1745463236608469800,4.8094697265625,-0.8273416350126266,-3.43401700206995,0.9288713336855172
1745463236618441700,4.819441650390625,-1.0356126295268535,-3.1067525483846663,0.6756359928071498
1745463236628414000,4.8294140625,-0.9822808523118496,-2.5004110410779714,0.5659060365438461
1745463236638385700,4.8393857421875,-0.9522656532764434,-2.1768080325096846,0.39347792430520057
1745463236648358000,4.84935791015625,-1.0687737253725529,-1.7688456557780503,0.25478432388603683
1745463236658329600,4.85932958984375,-1.2208195593178273,-1.2428572036027907,0.028057050704956052
1745463236668301800,4.8693017578125,-1.3633879553437231,-0.8130588426381349,-0.24525544804036617
1745463236678273800,4.879273681640625,-1.2732803989171981,-0.46250469878017897,-0.5010977565467357
1745463236688245800,4.889245849609375,-0.9772609052579849,-0.2884574609071016,-0.787976131568849
1745463236698218000,4.899218017578125,-0.6057680913329124,-0.0729500853985548,-1.201142214423418
1745463236708189700,4.909189697265625,-0.18581950873136518,0.18497955077588557,-1.7485542706385253
1745463236718162000,4.919161865234375,0.23039047186374664,0.4650573058724403,-2.542033675798774
1745463236728135000,4.929135009765625,0.511567785700038,0.8759358623117208,-3.3674595403179524
1745463236738106600,4.939106689453125,0.6290064166445285,1.4654408011078834,-4.180225537489354
1745463236748078800,4.949078857421875,0.6227578776437789,2.2259990566581487,-4.991826290273666
1745463236758050800,4.95905078125,0.40640630639605224,2.7678134389966726,-5.676336494410037
1745463236768022800,4.969022705078125,0.028972411984205245,2.9271815786540505,-6.196690740090609
1745463236777994800,4.978994873046875,-0.5382721796870231,2.7832179288774728,-6.5764288928568355
1745463236787966700,4.988966796875,-1.3514016033433376,2.335022910478711,-6.866144829392433
1745463236797939000,4.99893896484375,-2.069644565733522,1.6719997310072183,-7.137930556961893
1745463236807911000,5.008910888671875,-2.379044861426204,1.2714227883517741,-7.62412592793107
1745463236817883000,5.0188828125,-2.406988807145506,1.1821183650016784,-8.118458428126573
1745463236827854800,5.028854736328125,-2.6705776381254194,1.0064788895010948,-8.07935391370654
1745463236837826800,5.038826904296875,-3.2056922305643556,0.30790391965508457,-7.492150237590074
1745463236847798800,5.048798828125,-3.367365140032768,-0.5501800596237182,-6.951817618241906
1745463236857771000,5.05877099609375,-2.946248682695627,-1.196651332744956,-6.711679659345745
1745463236867742700,5.06874267578125,-2.324331420594454,-1.7433277681618928,-6.486202678486705
1745463236877715000,5.07871484375,-1.7896400220036506,-2.069891964623332,-6.289726751184463
1745463236887686700,5.088686767578125,-1.297393095910549,-2.2819424776762722,-6.1331228155434125
1745463236897659000,5.098658935546875,-0.9927052156925201,-2.4922031847029924,-6.0148904038727276
1745463236907630800,5.108630859375,-0.8077894508678466,-2.7259593336075545,-5.9994590259850025
1745463236917603800,5.118603759765625,-0.6106909346878528,-2.855083141648769,-6.129993285346031
1745463236927575800,5.128575927734375,-0.4414146375436336,-2.7020021194368598,-6.414833140277862
1745463236937548000,5.138548095703125,-0.24051197984032333,-2.1201392198264597,-6.65395052395463
1745463236947519700,5.148519775390625,-0.033521161329746245,-1.3996020090192556,-6.529275512015819
1745463236957492000,5.158491943359375,0.11375263590812683,-0.71146250846982,-6.047246028554439
1745463236967463700,5.168463623046875,0.1098807629108429,0.1075146183013916,-5.3371875416636465
1745463236977436000,5.178435791015625,-0.08469378774948418,0.8104244024813174,-4.45686016639471
1745463236987408000,5.188407958984375,-0.406705654668808,1.1038041222214698,-3.451637122173607
1745463236997379800,5.1983798828125,-0.8061433641612529,0.9981476990073919,-2.4689506116703153
1745463237007351800,5.208351806640625,-1.3001333345293997,0.6047632982045412,-1.8076155314162372
1745463237017323800,5.21832373046875,-1.6404022312164306,0.12891338016092777,-1.3604559935450553
1745463237027295700,5.228295654296875,-1.7526222507297993,-0.3669599197357893,-0.9533370819002389
1745463237037267700,5.238267822265625,-1.8514204786121844,-0.8055325387865304,-0.6694938367903233
1745463237047239700,5.24823974609375,-1.9593501074552535,-1.0145885461986064,-0.23887597613632677
1745463237057212000,5.2582119140625,-2.04369193996191,-1.083750929751992,0.22737375439107416
1745463237067183600,5.26818359375,-2.0883353838086127,-1.005898459264636,0.6781944451183081
1745463237077155800,5.27815576171875,-2.0542320386767385,-0.8763520418971776,1.1948556814998388
1745463237087127800,5.2881279296875,-1.9154571897149084,-0.7611597285747528,1.7234382418215273
1745463237097099800,5.298099853515625,-1.7201146503567695,-0.6304629721283912,2.302241753861308
1745463237107072000,5.308072021484375,-1.4821628033280372,-0.509566309684515,2.8249662358045575
1745463237117044700,5.318044677734375,-1.1505448306083679,-0.34112580577731133,3.1086954991459845
1745463237127016700,5.3280166015625,-0.8757599212229251,-0.28277123196423054,3.423686162191629
1745463237136989000,5.337989013671875,-0.8183446740865707,-0.21978432217538355,3.648172962969541
1745463237146960600,5.347960693359375,-0.7460954304337502,-0.002749006447196007,3.7916941296756264
1745463237156932900,5.357932861328125,-0.5651438565323129,0.30279169120788574,3.981162808564305
1745463237166904600,5.367904541015625,-0.38142862660381943,0.6117652859210968,4.043630078393221
1745463237176876800,5.377876708984375,-0.23982706631608305,1.0807681145489216,3.9782261705905198
1745463237186848800,5.387848876953125,-0.201338564902544,1.6348445970892904,3.9475697510421273
1745463237196820700,5.39782080078125,-0.28813297819308936,2.232833871114254,3.7884120392650362
1745463237206792700,5.407792724609375,-0.47503874779120087,2.784904859051108,3.6205274156749248
1745463237216764700,5.4177646484375,-0.7272843469798564,3.3274551544487476,3.6364959691792724
1745463237226737000,5.42773681640625,-0.9597125352162867,3.717804133078456,3.5977433369368312
1745463237236708900,5.437708984375,-1.135232695186138,4.085791057774425,3.4325352390795945
1745463237246680800,5.447680908203125,-1.1877052252233027,4.601040673792362,3.229334387436509
1745463237256652800,5.45765283203125,-1.1910370730597526,5.087464592820406,3.0741426566809413
1745463237266624800,5.467624755859375,-1.1987329613246023,5.530815093797445,2.9293168371170757
1745463237276596700,5.4775966796875,-1.1604524766385556,5.877779688730835,2.8282804749190804
1745463237286569000,5.48756884765625,-1.0537456675887107,6.193906662330031,2.7657074066281315
1745463237296540700,5.497540771484375,-1.0252969872176647,6.438890307691693,2.8543729475528
1745463237306513000,5.507512939453125,-1.0107248565077782,6.618164340302347,3.086349227303266
1745463237316484600,5.517484619140625,-0.9870587342381477,6.774456725776195,3.193703686606884
1745463237326456800,5.527456787109375,-1.013942064988613,6.878101224645972,3.078195731464028
1745463237336429800,5.537429931640625,-1.1841048626437782,6.714032359951734,3.052348173502087
1745463237346401800,5.54740185546875,-1.3479891645513473,6.115142337694763,3.1593525041937824
1745463237356373800,5.557373779296875,-1.3660672575555741,5.454858227798343,3.2247657643467185
1745463237366346000,5.567345947265625,-1.3680534629367291,4.9944484554708,3.53519364952147
1745463237376317700,5.577317626953125,-1.3653824901618064,4.617171139860153,3.9927562157243486
1745463237386290000,5.5872900390625,-1.3179649054266511,4.225488866800069,4.22470443842411
1745463237396261600,5.59726171875,-1.094005270328,4.0367976020246745,4.06569402616322
1745463237406233900,5.60723388671875,-0.808700062906742,3.969820161294937,3.7994659327208993
1745463237416205800,5.617205810546875,-0.58941185368523,3.772043672788143,3.4893531048446893
1745463237426177800,5.627177734375,-0.4940191964626312,3.3682746560931203,3.2605963716626167
1745463237436149800,5.637149658203125,-0.4062906441271305,3.008371669131517,2.9165736754000187
1745463237446121700,5.647121826171875,-0.8117500981271266,2.782926836976409,2.3193781821012496
1745463237456093700,5.65709375,-0.5489874888382852,2.593212658894062,1.9416291573256252
1745463237466066000,5.66706591796875,-0.4979414844729006,2.272356318685412,1.6996072843790053
1745463237476037600,5.67703759765625,-0.6102092886507511,2.11579329957664,1.6180226416260004
1745463237486009900,5.687009765625,-0.6623007104158402,1.9126228430718182,1.6026994002878665
1745463237495981600,5.696981689453125,-0.7201999416768551,1.6066694729626179,1.725462441125512
1745463237505953800,5.706953857421875,-0.9094318892002106,1.2296774040341376,2.200560079497099
1745463237515925800,5.71692578125,-0.8138904711566864,0.690488694024086,2.472604165741801
1745463237525897700,5.726897705078125,-0.5959117370985448,0.1869219170153141,2.577993462452292
1745463237535870200,5.7368701171875,-0.4385398858249187,-0.23981121115982532,2.7051918553888794
1745463237545842400,5.746842529296875,-0.3026549130856991,-0.6031102703005075,2.843763290733099
1745463237555814400,5.756814453125,-0.2091782455522567,-0.9666291096717119,2.822517089086771
1745463237565786400,5.766786376953125,-0.15251936974115668,-1.351077339825034,2.6871219456911084
1745463237575759400,5.77675927734375,-0.12160627201795578,-1.6770435703933237,2.4584090516507624
1745463237585731600,5.786731689453125,-0.15642046883292496,-1.9384598796397448,2.209980234271288
1745463237595703300,5.796703369140625,-0.07917458593659102,-2.3067320510178804,1.93514856313467
1745463237605675500,5.806675537109375,-0.0019523396441712975,-2.584943427720666,1.6085761833667753
1745463237615647200,5.816647216796875,0.009031995706818997,-2.6677853770583866,1.31794371650815
1745463237625619500,5.826619384765625,0.023359796266816554,-2.73473242264986,1.1575491564124822
1745463237635591200,5.836591064453125,0.0584019200861454,-2.706848974946141,1.1313830340206623
1745463237645563400,5.8465634765625,0.20303601647019384,-2.5603707120001316,1.123552194264531
1745463237655535400,5.856535400390625,0.3320200872471556,-2.2986562965899706,0.9831675720185041
1745463237665507300,5.86650732421875,0.3846434239318594,-1.9445453370332717,0.7327151398569345
1745463237675479300,5.876479248046875,0.43039051817152646,-1.5680664783239364,0.3671124799489975
1745463237685451300,5.886451171875,0.44676531438920647,-1.194334872496128,-0.061246788123250004
1745463237695423500,5.896423583984375,0.45837154449820516,-0.8539625154346228,-0.48820524948686356
1745463237705395500,5.9063955078125,0.38325229836702346,-0.7178647767275571,-0.8330287407383322
1745463237715367400,5.916367431640625,0.1953332052742131,-0.6648334437638521,-1.1849401444241403
1745463237725339400,5.92633935546875,0.0402022465288639,-0.6369038188308477,-1.6582231345891951
1745463237735311400,5.936311279296875,0.08124385735816322,-0.687044106528163,-2.1451438972234724
1745463237745283300,5.946283447265625,0.31287001762986183,-0.6959872914403676,-2.647787421907484
1745463237755255600,5.956255615234375,0.6945359235882759,-0.5918997249782085,-3.16764774659127
1745463237765227300,5.966227294921875,1.1401654754132031,-0.324917598298192,-3.732932436366379
1745463237775199500,5.976199462890625,1.5866268018871545,0.3126005530387163,-4.306998690751195
1745463237785171200,5.986171142578125,1.9453975699484347,1.1166583430975674,-4.873656422445178
1745463237795143400,5.996143310546875,2.258415471616387,1.8535633358597754,-5.51409542966485
1745463237805115400,6.006115478515625,2.4122049343585967,2.4205232653707265,-6.218499251794815
1745463237815087400,6.01608740234375,2.320867543876171,2.7438854509204624,-6.968667630755901
1745463237825059300,6.026059326171875,2.125366014564037,2.78866918002069,-7.743978634279966
1745463237835032600,6.036032470703125,1.9433774622976778,2.547758483186364,-8.298153316497801
1745463237845003300,6.046003173828125,1.7827502624899147,2.0134516999989747,-8.59394828068614
1745463237854976500,6.0559765625,1.7822767997592686,1.570131594160199,-8.895156502094864
1745463237864948200,6.0659482421875,1.6679162610858678,1.246092532262206,-9.141447722923756
1745463237874920400,6.07592041015625,1.2620897273391485,0.7201070026963948,-9.000987697353958
1745463237884892400,6.085892333984375,0.7793143939465283,-0.0006394669473171234,-8.677765797057747
1745463237894864400,6.095864501953125,0.4779641337186098,-0.611067366784811,-8.279608775025606
1745463237904836400,6.10583642578125,0.4655997421860695,-1.1861071423768996,-7.8473747113466255
1745463237914808300,6.115808349609375,0.6229863526374101,-1.8126304369688033,-7.4349185303270815
1745463237924780300,6.1257802734375,0.8307067275315523,-2.3453747931450604,-7.078148580694198
1745463237934752500,6.13575244140625,1.0118266802698372,-2.703161810865998,-6.774137576824426
1745463237944724200,6.14572412109375,1.1386112317085266,-2.8730799861103296,-6.482310931745171
1745463237954696400,6.155696533203125,1.2548112607687711,-2.8540532140791415,-6.157851014086604
1745463237964668200,6.165668212890625,1.3412357447683811,-2.522116676929593,-5.87228810557723
1745463237974640400,6.175640380859375,1.2384130836755036,-1.9136907645642756,-5.532102210998535
1745463237984612400,6.1856123046875,0.9956108740061521,-1.2497621606856584,-5.164698639148473
1745463237994584300,6.195584228515625,0.6127046125978232,-0.6400929702609777,-4.805440379831195
1745463238004556500,6.205556640625,0.12498363949656485,-0.03925532106757164,-4.37856813544631
1745463238014528300,6.2155283203125,-0.3805167359232902,0.47430561121106146,-3.998227340611815
1745463238024500500,6.22550048828125,-0.8940624706327914,0.7406634685128927,-3.5603108473822473
1745463238034472400,6.235472412109375,-1.3086755374252796,0.712941348850727,-3.0582860391184687
1745463238044444400,6.2454443359375,-1.5600503451287746,0.41326048313975333,-2.548301211760938
1745463238054416400,6.25541650390625,-1.7002689631581305,-0.06140168642401695,-2.038220230552554
1745463238064388400,6.265388427734375,-1.7414684040307997,-0.5846341178894042,-1.5301020738497375
1745463238074360300,6.2753603515625,-1.7409703913807868,-0.9928905091315507,-1.0866247316226363
1745463238084332500,6.28533251953125,-1.7136404859066008,-1.3113099775820969,-0.6689432171702384
1745463238094304300,6.29530419921875,-1.5980536203086375,-1.6220990972846745,-0.2811585360705852
1745463238104276500,6.3052763671875,-1.4926234070658684,-1.8343723131775855,0.05324994415044784
1745463238114248200,6.315248291015625,-1.388521227556467,-1.8984423420280216,0.3708148415982723
1745463238124220400,6.325220458984375,-1.2941022376716136,-1.8546634060561655,0.6804319949120283
1745463238134192400,6.3351923828125,-1.2138134799480438,-1.7109259662508964,1.0686889696985482
1745463238144164400,6.345164306640625,-1.0790168869674206,-1.5400819083333015,1.5049503891974687
1745463238154136300,6.35513623046875,-0.9769429984152317,-1.3805302288025616,1.8666934510678053
1745463238164109600,6.365109619140625,-0.9290577961683273,-1.1901187161058187,2.0908494124561545
1745463238174081300,6.375081298828125,-0.6229821879189461,-0.8977782762855291,2.20216166947484
1745463238184053500,6.385053466796875,-0.34841705876402557,-0.7777426145851611,2.328773202434182
1745463238194025200,6.395025146484375,-0.24942126248292623,-0.46746027536094187,2.3281384116619823
1745463238203997400,6.40499755859375,-0.1950607998073101,0.14841127683520317,2.280648930734396
1745463238213969400,6.414969482421875,-0.23817644956484435,0.5052630595326424,2.3551988525450227
1745463238223941400,6.42494140625,-0.5234032579876482,0.7035919212251901,2.4927117187470196
1745463238233913300,6.434913330078125,-0.807221222525835,1.046318732458353,2.5355939981400963
1745463238243885300,6.44488525390625,-0.8379762801431119,1.479009307733178,2.4683394940346477
1745463238253857300,6.454857177734375,-0.8231904336173087,1.8703467128783464,2.3808804062902924
1745463238263829500,6.46482958984375,-0.993030282928422,2.2665917638093234,2.260547222948074
1745463238273801200,6.47480126953125,-1.269811846023798,2.8602152438402175,2.0226368769735097
1745463238283773400,6.4847734375,-1.547178150204569,3.6048294958055016,1.7709493500590323
1745463238293745200,6.4947451171875,-1.8065454179666935,4.325597592759132,1.6272598410487173
1745463238303717400,6.50471728515625,-1.9947885005831718,4.986673729816079,1.6047154162853956
1745463238313689300,6.514689453125,-2.10744238146916,5.664874604675173,1.649552921399474
1745463238323661300,6.524661376953125,-2.1899264572799204,6.260474353215098,1.6979671159565448
1745463238333633500,6.534633544921875,-2.306462586426735,6.765474962419271,1.82947752687335
1745463238343605200,6.544605224609375,-2.546607559585571,6.954250398346781,1.9803835431337355
1745463238353577500,6.554577392578125,-2.8787176997363564,6.706596656993031,2.3075199865251776
1745463238363549400,6.564549560546875,-3.0393957529485225,6.252726515567303,2.5641952387243507
1745463238373521400,6.574521484375,-2.9904186638116834,5.884418103832006,2.5687293750226496
1745463238383493400,6.584493408203125,-2.9309973375499245,5.577935741412639,2.6635972777187824
1745463238393465300,6.59446533203125,-2.932821045845747,5.2042865531712765,3.2511832311511037
1745463238403437300,6.604437255859375,-2.8830571902453896,4.822860885709524,4.022803563463688
1745463238413409500,6.614409423828125,-2.5806091979086396,4.6588709314703936,4.5742035202711815
1745463238423381200,6.62438134765625,-2.207450277402252,4.534966319382191,4.985882287177443
1745463238433353500,6.634353515625,-1.8731984490476548,4.478231455725431,5.17125054500997
1745463238443325200,6.6443251953125,-1.5233037920117378,4.345480104836821,5.126670814049244
1745463238453297400,6.65429736328125,-1.2835444571696222,4.007653340604901,4.9672167496740816
1745463238463269400,6.664269287109375,-1.098087498140335,3.7311937760055063,4.641879464659095
1745463238473241300,6.674241455078125,-1.0970059865139423,3.531865966403484,4.118890194299817
1745463238483213300,6.68421337890625,-1.1193138260424136,3.3715012169241905,3.565402325302362
1745463238493185300,6.694185302734375,-1.207732260338217,3.3304882385343313,2.9371354019135234
1745463238503157500,6.704157470703125,-1.2029929568566382,3.2498446760237214,2.7176667215585706
1745463238513129500,6.71412939453125,-1.2534054856240748,3.339582230094075,2.5407342836380002
1745463238523102200,6.724102294921875,-0.7215817514240741,3.2791812451452014,2.4959523081034423
1745463238533072600,6.73407275390625,-0.5895793922718614,2.9584447319239375,2.4467992778778074
1745463238543045600,6.744045654296875,-0.6154911015111952,2.5850106477379797,2.41577987023592
1745463238553017900,6.754017822265625,-0.5579448484063149,1.9626585013508795,2.3676421545326707
1745463238562989800,6.76398974609375,-0.5966917084950953,1.2105033324867487,2.5596020657151937
1745463238572961800,6.7739619140625,-0.5939630872488022,0.40252340054810043,2.6988357643604277
1745463238582934000,6.78393408203125,-0.5310393788892775,-0.3127583739489317,2.7868647609472275
1745463238592905700,6.79390576171875,-0.3065583502650261,-0.8714280294984579,2.8032074084609744
1745463238602878000,6.8038779296875,-0.009352423300221561,-1.3081909687787294,2.7076228819280863
1745463238612849700,6.813849609375,0.2620774035036564,-1.7049819631546734,2.466255673497915
1745463238622822000,6.82382177734375,0.4404185391783714,-2.0160504843205214,2.2163363252997397
1745463238632793900,6.8337939453125,0.54309327970054,-2.3493343444257975,2.063936855611205
1745463238642765800,6.843765869140625,0.7586345940113067,-2.6570360195070504,1.9067998360067604
1745463238652737800,6.85373779296875,1.0282909083366394,-2.820382999667525,1.6832640523433684
1745463238662709800,6.863709716796875,1.2203308990180493,-2.9683798504829406,1.5066186146706342
1745463238672681700,6.873681640625,1.2808651549577712,-3.0501398498028514,1.3601941277384757
1745463238682654000,6.883654052734375,1.3299708389103413,-2.9608436097592112,1.174382802313566
1745463238692625700,6.893625732421875,1.4167805228352546,-2.719115166801214,0.8831821801781654
1745463238702598000,6.903597900390625,1.4843056605756282,-2.3494062406182286,0.5698591580837965
1745463238712569600,6.913569580078125,1.357750241717696,-1.7890952476024626,0.20677754108607768
1745463238722541800,6.923541748046875,1.0073258617192506,-1.3228741586476565,-0.3131049954295158
1745463238732513800,6.933513671875,0.5950953061491251,-0.9558265606284141,-0.7216016251683235
1745463238742485800,6.94348583984375,0.25299510238170625,-0.6288923618108033,-1.0500929903000593
1745463238752458000,6.9534580078125,0.13663024728172457,-0.364858563542366,-1.5760501705542205
1745463238762429700,6.9634296875,0.13003566218912602,-0.3859118729650974,-1.941098119188845
1745463238772402000,6.97340185546875,0.17788228599131106,-0.46775195178389545,-2.186847780486941
1745463238782374000,6.983373779296875,0.4585188440144062,-0.4453583336681127,-2.4758938549369574
1745463238792345900,6.993345947265625,0.8831348339051007,-0.31963468945920465,-2.7580703358784318
1745463238802317800,7.00331787109375,1.3351087863206863,-0.006456044271588325,-3.1470921575576063
1745463238812289800,7.013289794921875,1.7520722156316042,0.5260895744621753,-3.629775428752601
1745463238822261800,7.02326171875,1.9907628983289003,1.2728051826208828,-4.165811227689683
1745463238832234000,7.03323388671875,2.0506027422636746,2.14250010471642,-4.687486492840946
1745463238842205700,7.043205810546875,1.8512597350925206,2.8007097464263437,-5.253937596046924
1745463238852178000,7.053177978515625,1.484421395909786,3.0188749429672956,-5.718597427034378
1745463238862149600,7.063149658203125,1.064385135024786,2.914852842956781,-6.226790110278129
1745463238872121900,7.073121826171875,0.7982809602230787,2.5298867264091967,-6.904518106928467
1745463238882093800,7.08309375,0.8276894255369901,1.9587901354849337,-7.519421106353402
1745463238892065800,7.093065673828125,1.0266630148738622,1.4712912807017564,-8.05887811191082
1745463238902037800,7.103037841796875,1.1593144125193358,1.076207090243697,-8.420701837801932
1745463238912009700,7.113009765625,1.0536024597257374,0.4155576541662216,-8.338354978504777
1745463238921981700,7.122981689453125,0.9242238001406192,-0.4528302769839763,-8.001926975154877
1745463238931954000,7.132953857421875,1.0383493610143661,-1.195293488395214,-7.704850154462457
1745463238941926000,7.14292578125,1.3278794195890427,-1.7572779675811527,-7.337196407243609
1745463238951899000,7.15289892578125,1.7395400663167238,-2.08358438988924,-6.8726300997585055
1745463238961870800,7.162870849609375,2.023723503166437,-2.1893898661851883,-6.382848102474212
1745463238971842800,7.1728427734375,2.1091507928222417,-2.231656644028425,-5.871482634413242
1745463238981814800,7.182814697265625,2.087700593036413,-2.186485961437225,-5.326395514014363
1745463238991786800,7.192786865234375,2.037154647147655,-2.0311510228186846,-5.041114929577708
1745463239001758700,7.2027587890625,1.9883400550961494,-1.6531436393678187,-5.120320568239689
1745463239011731000,7.21273095703125,1.837450405448675,-1.1555793176442384,-5.270672457748651
1745463239021702700,7.22270263671875,1.4966227058351038,-0.6745411833077669,-5.3370513480633495
1745463239031675000,7.2326748046875,0.977128876376152,-0.05888648873269558,-5.345876459553837
1745463239041646600,7.242646484375,0.44154549738168714,0.5284095418423413,-5.284651883262396
1745463239051618800,7.252618896484375,-0.06792263089166954,0.9137006525605916,-5.101523513311148
1745463239061590800,7.2625908203125,-0.5393055778553709,1.0372791014343499,-4.773827097949385
1745463239071562800,7.272562744140625,-0.9516588464897126,0.8030027280479669,-4.311837655214965
1745463239081535000,7.282534912109375,-1.1747568963229655,0.3311404183357954,-3.734978262980282
1745463239091506700,7.292506591796875,-1.2937480174064635,-0.22400281665325164,-3.267429432553053
1745463239101479000,7.30247900390625,-1.342774206382036,-0.8124567850917577,-2.916873242868483
1745463239111451000,7.312450927734375,-1.374912388920784,-1.3174813596934078,-2.5712805208101868
1745463239121422800,7.3224228515625,-1.3668109155297279,-1.6995733821094035,-2.2171236762851474
1745463239131394800,7.332394775390625,-1.3489689693689346,-1.8988737191826104,-1.8350243473455308
1745463239141366800,7.34236669921875,-1.356191321837902,-1.9919751967281103,-1.3488485578596592
1745463239151338800,7.3523388671875,-1.3829974956989288,-1.9969377875715493,-0.8189654363334179
1745463239161311000,7.36231103515625,-1.3775195026792586,-1.900202337437868,-0.24574527738392352
1745463239171282700,7.37228271484375,-1.4085491394542158,-1.722685377627611,0.35176878034472464
1745463239181255000,7.3822548828125,-1.4083316973112523,-1.419122117525339,0.8972907850295305
1745463239191226600,7.3922265625,-1.4393851533532143,-1.134497951170802,1.5540519814968108
1745463239201198800,7.40219873046875,-1.5269510624729097,-0.9418985730409621,2.179074808397889
1745463239211170800,7.4121708984375,-1.3676619794011116,-0.7306453478455543,2.5288737499743696
1745463239221142800,7.422142822265625,-1.108259348064661,-0.6145756671667099,2.775973949098587
1745463239231114800,7.43211474609375,-1.0144657966017723,-0.4905371995657682,2.939933508199453
1745463239241086700,7.442086669921875,-0.9733695238426328,-0.0007324059277772903,3.056720397236943
1745463239251059000,7.452058837890625,-1.0494109993852674,0.7001105088502169,3.234854612162709
1745463239261031000,7.462031005859375,-1.3529285206496715,1.8052724754214287,3.4584733979344366
1745463239271003000,7.4720029296875,-1.7278233250379562,2.901318823122978,3.9431145251989363
1745463239280974800,7.481974853515625,-2.0927613835573196,3.0777947494477034,4.902189858490228
1745463239290946800,7.49194677734375,-2.0648026786603033,2.698167655840516,5.259327472391725
1745463239300918800,7.501918701171875,-1.8731717071712015,2.405385317471623,4.749102406537532
1745463239310891000,7.51189111328125,-1.6022810287453233,2.3690023369699715,4.135432748299837
1745463239320862700,7.52186279296875,-1.383644999822229,2.571774149546027,3.5459213797628877
1745463239330835000,7.5318349609375,-1.1312160068906842,3.0058856975346804,3.0601047789782285
1745463239340806700,7.541806640625,-0.8678491480983793,3.640726738616824,2.765473597872257
1745463239350779000,7.55177880859375,-0.7367185302793979,4.402728763234615,2.770514514648914
1745463239360750800,7.561750732421875,-0.8530207045398652,5.272025625923276,2.998045505428314
1745463239370722800,7.571722900390625,-1.2336628204084932,6.0407689414948225,3.16957813013196
1745463239380694800,7.58169482421875,-1.9058672313317655,6.26921821616292,3.449479359617829
1745463239390666800,7.591666748046875,-2.624378197008371,6.234045780494808,3.7506934262454505
1745463239400638700,7.601638671875,-3.0302140831053257,6.347498556673527,3.7585049767792222
1745463239410611000,7.61161083984375,-3.338120340847969,6.563537847101688,3.4966473535060882
1745463239420582700,7.621582763671875,-3.725692255979776,6.552649373340606,3.328303880232572
1745463239430556000,7.631555908203125,-4.026095883007347,6.203865746286511,3.478952122339606
1745463239440528000,7.64152783203125,-4.07617625721097,5.772051369324326,3.661018416017294
1745463239450499800,7.651499755859375,-4.011729211741685,5.1970776447057725,3.8195050966650244
1745463239460471800,7.661471923828125,-3.773369368433952,4.4764083319514985,3.996784156066179
1745463239470443800,7.67144384765625,-3.213222041547298,3.90737451877594,3.983656378945708
1745463239480415700,7.681415771484375,-2.598721193182468,3.4397540844172236,3.804734813034534
1745463239490388000,7.691387939453125,-2.1138542943380774,3.0395652642965314,3.6789509630709882
1745463239500359700,7.701359619140625,-1.7636825739264488,2.8448487478822466,3.4103567250192164
1745463239510332000,7.711331787109375,-1.4913503183901309,2.8341052355498073,3.050282473143935
1745463239520303600,7.7213037109375,-1.2588530835054814,2.8392507817447186,2.747521177074313
1745463239530275800,7.73127587890625,-1.0960405024826525,2.821659010952711,2.4473984128147364
1745463239540248300,7.741248291015625,-0.9323065688312053,2.813331327590346,2.125862858170271
1745463239550220300,7.75122021484375,-0.6683690705440938,2.884619617256522,1.8403239150583743
1745463239560192300,7.761192138671875,-0.4504429434560239,3.0156892986685038,1.6759002455770968
1745463239570164200,7.771164306640625,-0.3519499821305275,2.913219104275107,1.6746441080361603
1745463239580136200,7.78113623046875,-0.3877110313415527,2.642728092691302,1.6730606382369995
1745463239590108400,7.7911083984375,-0.5707587372720241,2.1686445997983217,1.7157172921806574
1745463239600080100,7.801080078125,-0.875278129055351,1.4420646016955374,2.0000468595027923
1745463239610052400,7.81105224609375,-1.0844213763594626,0.6464414625048637,2.241314114689827
1745463239620024300,7.8210244140625,-1.2003741526603697,-0.07509761882126331,2.476623338255286
1745463239629996300,7.830996337890625,-1.2355531641997397,-0.723045978757739,2.6272651506215334
1745463239639968500,7.840968505859375,-1.0941280199248342,-1.1782909156680106,2.7992501952677964
1745463239649940200,7.850940185546875,-0.8780057273883372,-1.416988612627983,2.8824586398303507
1745463239659912400,7.860912353515625,-0.6573288402874022,-1.6033388672351836,2.9470231741994617
1745463239669884200,7.87088427734375,-0.4581050025165081,-1.8437825310796498,2.7896470851421356
1745463239679856400,7.8808564453125,-0.350149727775529,-1.9323685770273207,2.3918249941527843
1745463239689828400,7.890828369140625,-0.2922141100268811,-1.9802906041532753,2.0834937889963387
1745463239699800300,7.90080029296875,-0.14075641470048575,-2.0660662688553333,1.876766516792774
1745463239709772300,7.910772216796875,0.052119478815793985,-2.091677095451951,1.6807921092718838
1745463239719744300,7.920744140625,0.19336922999117523,-2.0158330421775577,1.4359002338469027
1745463239729716200,7.93071630859375,0.29193832529280334,-1.9011808270812034,1.0802888065993785
1745463239739688400,7.9406884765625,0.504883120304346,-1.800752952170372,0.7202993103981018
1745463239749660200,7.95066015625,0.7696025627493858,-1.6967086403280496,0.3436804586961865
1745463239759632400,7.96063232421875,0.9122820179343223,-1.6040478922873735,-0.036978608307242394
1745463239769604000,7.97060400390625,1.0473837313413619,-1.4484358902931211,-0.4651148812785744
1745463239779576300,7.980576416015625,1.1677794585257768,-1.2848480871140957,-0.9026052580505609
1745463239789548300,7.99054833984375,1.2637041767984627,-1.1615998931080103,-1.3383119662761687
1745463239799520300,8.000520263671875,1.4210598075896501,-1.0540829367190598,-1.8879469592377542
1745463239809492200,8.0104921875,1.6664029339134692,-1.0378133544415236,-2.4475565259858962
1745463239819464200,8.020464111328126,1.9523656553953885,-1.0179057079225777,-2.8974408126458524
1745463239829436400,8.0304365234375,2.2670745788902043,-0.8817062624067068,-3.218770323324203
1745463239839408400,8.040408447265625,2.589846397331357,-0.4694751223146915,-3.6577833796188233
1745463239849380400,8.05038037109375,2.907316602233052,0.26873160069584845,-4.322206489016115
1745463239859352300,8.060352294921875,3.152394940140843,1.139759232699871,-5.01257681735754
1745463239869324300,8.07032421875,3.182524120944738,2.063709476596117,-5.766085154396295
1745463239879296300,8.080296142578124,3.0987960364222524,2.8923154324561358,-6.529260898968577
1745463239889268500,8.0902685546875,2.953608397808671,3.4187007749944924,-7.116121460735798
1745463239899240200,8.100240234375,2.722788886877894,3.492628180992603,-7.544170347684622
1745463239909212400,8.11021240234375,2.327344046413898,3.203566908973455,-7.739194907134771
1745463239919184100,8.12018408203125,1.9227935239523648,2.5079092878788707,-7.8539874074846505
1745463239929157400,8.130157470703125,1.8152835818260906,1.8116010939210652,-8.124304816067218
1745463239939129300,8.14012939453125,1.8089760061144828,1.4827140074700116,-8.554543322014808
1745463239949101300,8.150101318359376,1.5518132626593113,1.2468968343824147,-8.710692499625683
1745463239959073300,8.1600732421875,0.8266156588256358,0.6057347735852002,-8.325998770278693
1745463239969045500,8.17004541015625,0.2946978166013956,-0.21283903308212757,-7.873394118744135
1745463239979017200,8.180017333984376,0.4524135128766298,-0.8039829712569713,-7.567208693444728
1745463239988989400,8.189989501953125,0.8867606231868267,-1.177879996779561,-7.349531572681665
1745463239998961200,8.199961181640624,1.253772565370798,-1.3016969305843114,-7.054255079409479
1745463240008933400,8.209933349609376,1.3859510848075152,-1.4029308611810207,-6.7656357059389345
1745463240018905300,8.2199052734375,1.4835796843886375,-1.489455298423767,-6.541951453715562
1745463240028877300,8.229877197265624,1.7522200996696948,-1.5913409709274768,-6.243901988598704
1745463240038849300,8.239849365234376,2.108206789970398,-1.7150661347955465,-5.985290215378999
1745463240048821200,8.2498212890625,2.480858783867955,-1.7148054380327462,-5.786071126848459
1745463240058793200,8.259793212890624,2.7622277478188275,-1.4981646745800972,-5.571845023322105
1745463240068765400,8.269765380859376,2.773751012352109,-1.0789970132231712,-5.354704493653774
1745463240078737200,8.279737060546875,2.492138887295127,-0.5428355420798063,-5.1449347850143905
1745463240088709400,8.28970947265625,1.9723826075077056,0.0935679260134697,-5.014281283187866
1745463240098681000,8.29968115234375,1.2367401820272206,0.7330395495057106,-4.849158817787468
1745463240108653300,8.3096533203125,0.3796902219712734,1.140053831732273,-4.538226490221917
1745463240118625300,8.319625244140624,-0.43283845931291576,1.1800637705594301,-4.091459166538715
1745463240128597200,8.32959716796875,-1.0572177276134491,0.8164788802146911,-3.702854108966887
1745463240138569500,8.339569580078125,-1.5525053365767,0.25180676937997337,-3.3773680631309744
1745463240148541200,8.349541259765624,-1.9063070840537546,-0.3180523887038231,-2.921740556643903
1745463240158513400,8.359513427734376,-2.1573171500980854,-0.7274824999004602,-2.437007367181778
1745463240168485400,8.3694853515625,-2.28312145832777,-1.1299819350510836,-2.0065762612715363
1745463240178457300,8.379457275390624,-2.3835621927201744,-1.41925071234107,-1.5306524012088776
1745463240188429300,8.38942919921875,-2.4741981569349765,-1.5416916816174984,-1.025422951684892
1745463240198401300,8.3994013671875,-2.489922964811325,-1.4945850625276564,-0.46702831368446346
1745463240208373200,8.409373291015624,-2.5195944649755955,-1.2922908043354748,0.27856618148982526
1745463240218345500,8.419345458984376,-2.5134078852951527,-1.0719079317450522,1.118266947337985
1745463240228317200,8.429317138671875,-2.5526211207866667,-1.1085697291880845,1.9020839134007692
1745463240238289400,8.439289306640624,-2.5215783322691916,-1.1579513074725865,2.37961725448668
1745463240248261000,8.44926123046875,-2.4132956522047517,-0.7335568513780832,2.60218682346642
1745463240258233300,8.4592333984375,-2.339820081627369,-0.07294073304831981,2.729068405538797
1745463240268205300,8.469205322265625,-2.3521616768062112,0.2722182737678289,2.845316949915886
1745463240278177300,8.47917724609375,-2.281109533983469,0.2747667892068624,2.862440518674254
1745463240288149200,8.489149169921875,-1.8409329868674278,0.30219372531473637,2.606101366561651
1745463240298121200,8.499121337890625,-1.3407085060238837,0.49569911237359043,2.441958267587423
1745463240308093200,8.50909326171875,-0.9692974520981311,0.5959785187244415,2.5646955894619223
1745463240318065400,8.5190654296875,-0.6078104108154774,0.8133955272465944,2.7348826447755097
1745463240328037400,8.529037353515625,-0.25462241132259367,1.0904811147898434,2.9786037228554485
1745463240338009300,8.53900927734375,0.06174414318613708,1.6153952157318592,3.0925159332394596
1745463240347981300,8.548981201171875,0.15252521496005356,2.4266496392965315,3.1257793204158544
1745463240357953300,8.558953369140625,0.020107553005218503,3.0956290968239304,3.1134272038429973
1745463240367925500,8.568925537109376,-0.16989260241165757,3.7073125496804713,2.8693256020128723
1745463240377897200,8.578897216796875,-0.5456079294025897,4.366570823660493,2.6311855389356613
1745463240387869400,8.588869384765625,-1.0560041140399872,4.842848611727357,2.5360662918269634
1745463240397841200,8.598841064453126,-1.71309673441872,5.143507967081666,2.638634101375937
1745463240407813400,8.6088134765625,-2.4457683273948727,5.175525153589248,3.0256203255742786
1745463240417785300,8.618785400390625,-3.0775369752943513,4.837198623141646,3.4538334631741043
1745463240427757300,8.62875732421875,-3.556519930666685,4.560158043783903,3.7243940328627825
1745463240437729300,8.638729248046875,-3.8804417959257957,4.646519399419427,3.977489088487625
1745463240447701200,8.648701171875,-4.103348049513995,5.087342427745461,4.206452157896757
1745463240457673200,8.658673095703126,-4.275639675891399,5.75939822397828,4.2712645295470955
1745463240467646500,8.668646484375,-4.573101988770067,6.334122942271828,4.257577364978194
1745463240477618200,8.6786181640625,-4.860915891076624,6.407922337976098,4.313260673755407
1745463240487590400,8.68859033203125,-4.836388768063485,5.799679965484142,4.493741159546375
1745463240497562400,8.698562255859375,-4.402614489205181,4.94185551392436,4.763475799804926
1745463240507534300,8.708534423828125,-3.9339305172681804,4.086524048224091,5.062655730256438
1745463240517506300,8.71850634765625,-3.6193785379007455,3.3165205034583805,5.058841724926233
1745463240527478300,8.728478271484375,-3.5500641786560414,2.8498902491807936,4.834174891406297
1745463240537449500,8.738449462890625,-3.4877018305063245,2.617638659620285,4.495785232594609
1745463240547421400,8.74842138671875,-3.2900375702023505,2.356923192119598,4.072175789397955
1745463240557393700,8.7583935546875,-3.3744799404740333,2.338659221154451,3.671297233447432
1745463240567365600,8.76836572265625,-3.2824566135540603,2.309877363306284,3.1276363464593886
1745463240577337600,8.778337646484376,-2.9202167080774903,2.305530858534574,2.541427526599169
1745463240587309600,8.7883095703125,-2.3860370584011075,2.27702372597456,2.1272154418230054
1745463240597281500,8.798281494140625,-1.8100483115211128,2.2240461690247058,1.8044792792171238
1745463240607253500,8.80825341796875,-1.3190741818428038,2.1013386577665805,1.56468385014832
1745463240617225700,8.818225830078125,-0.9382290907479822,1.9460656784683465,1.3560399306684732
1745463240627197400,8.828197509765625,-0.7363302616141736,1.5139853440463542,1.302397187808156
1745463240637169700,8.838169677734374,-0.6990228597439825,1.0413789379686116,1.3239058397829533
1745463240647141400,8.848141357421875,-0.7676656033374368,0.5603700297266244,1.438250011843443
1745463240657113600,8.858113525390625,-0.8194682712890208,-0.018451017969846724,1.5866846695542334
1745463240667085600,8.86808544921875,-0.8525438808083534,-0.5594172590464354,1.7426666739046572
1745463240677057500,8.8780576171875,-0.8214085917018353,-0.9793658416479826,1.9087655831217765
1745463240687029500,8.888029541015625,-0.8337082474350929,-1.3411638485759496,2.0730191567331553
1745463240697001500,8.89800146484375,-0.8903237224958837,-1.6379343797981738,2.2572008351296184
1745463240706973400,8.907973388671875,-0.8747931220173836,-1.8228870425671337,2.417055296999216
1745463240716945700,8.917945556640625,-0.8539514095187186,-1.884344258570671,2.5774954498022793
1745463240726917600,8.927917724609374,-0.8388729367218911,-1.954360628604889,2.7733488612920043
1745463240736889600,8.9378896484375,-0.740637238093093,-1.950235073107481,2.8985540345847607
1745463240746861600,8.947861572265625,-0.5914613335609435,-1.9036802426815032,2.9157687887579202
1745463240756833500,8.95783349609375,-0.4296786070425063,-1.8376567416757343,2.786435137358308
1745463240766805800,8.9678056640625,-0.23127894513607022,-1.735764639431238,2.6273972525686022
1745463240776777500,8.977777587890625,-0.06469254466295242,-1.531432737931609,2.371088495594263
1745463240786749700,8.987749755859374,0.059159387389943,-1.2478215480118988,2.0952099457532167
1745463240796721400,8.997721435546875,0.11048051890227943,-0.9784177471429109,1.7460937257438898
1745463240806693600,9.007693603515625,0.08226557422187179,-0.6719418144643307,1.3730328587844967
1745463240816665600,9.01766552734375,-0.03573299216032028,-0.4504313991487026,0.8997674042761326
1745463240826637600,9.027637451171875,-0.1329074182331562,-0.3346732686370611,0.3221943108141422
1745463240836609500,9.037609619140625,-0.180170670923125,-0.2941092030584812,-0.4271797028988599
1745463240846581500,9.04758154296875,-0.04823123920559883,-0.18197861539423466,-1.2132295425802468
1745463240856553500,9.057553466796875,0.3192284467458725,-0.2291582997202873,-1.8225962429270148
1745463240866525700,9.067525634765625,0.9253156870305538,-0.3510644314676523,-2.476645550087094
1745463240876497400,9.077497314453124,1.6162299129903315,-0.36129122644960876,-3.05114931910634
1745463240886469600,9.0874697265625,2.352608251529932,0.09560147766768932,-3.563135257153213
1745463240896441300,9.09744140625,2.990320464134216,0.843797679772973,-4.037900010308623
1745463240906413600,9.10741357421875,3.545553715494275,1.6699387068241833,-4.506002382965385
1745463240916385500,9.117385498046875,3.9610885733067986,2.52193547514379,-4.729142737570405
1745463240926357500,9.127357421875,4.132822273540497,3.2870594311743973,-4.940741415202617
1745463240936329700,9.137329833984374,4.053370551162958,3.754235044375062,-5.195350382521748
1745463240946301400,9.147301513671875,3.7177304833203553,3.782975985690951,-5.350753125679493
1745463240956273700,9.157273681640625,3.3180344151526686,3.4127228696286678,-5.7095969589769835
1745463240966245600,9.16724560546875,2.8730899229824542,3.0239450858384367,-6.330868908911943
1745463240976217600,9.177217529296875,2.414598551496863,2.7964374759346247,-7.102161908966303
1745463240986189600,9.187189453125,1.7831494909405707,2.671421103212237,-7.821850393989681
1745463240996161500,9.19716162109375,0.8199065165758133,2.2254157038122413,-8.070873085609078
1745463241006133500,9.207133544921875,-0.09125559395048767,1.2834452345788478,-7.981409672304988
1745463241016105700,9.217105712890625,-0.5845411789089441,0.28965047008395195,-7.937347827738523
1745463241026077400,9.227077392578124,-0.5770949545562267,-0.5309907905071973,-7.83468532564342
1745463241036049700,9.237049560546875,-0.21180738847944885,-1.168161151319742,-7.695832735270261
1745463241046021400,9.247021484375,0.27629995359089227,-1.5140964032053947,-7.523335649448633
1745463241055993600,9.25699365234375,0.6468523813933134,-1.6839631405234337,-7.217973815491795
1745463241065965600,9.266965576171875,0.9006945290584116,-1.783059474569559,-6.866949131512642
1745463241075937500,9.2769375,1.343473879083991,-1.8509265576153993,-6.509136394828557
1745463241085909500,9.286909423828124,1.9262270055323838,-1.9590017324090003,-6.135571962261199
1745463241095881500,9.296881591796875,2.45201613574326,-1.9596143113493918,-5.670663709470629
1745463241105853400,9.306853515625,2.7656968852341173,-1.719997745978832,-5.2643900164783
1745463241115825700,9.31682568359375,2.7591245211064814,-1.250555356889963,-4.91238859642148
1745463241125797600,9.326797607421875,2.4068138889700172,-0.7413625566929578,-4.5481294600769875
1745463241135769600,9.33676953125,1.8232190510004758,-0.26968612494170663,-4.265565733383596
1745463241145741600,9.346741455078124,1.2111767017036676,0.1445458335787058,-4.1217631193876265
1745463241155713500,9.356713623046875,0.6789893948882818,0.38785833085775373,-3.8875235708802935
1745463241165685800,9.366685791015625,0.09981704953610897,0.367227046239376,-3.539846443763375
1745463241175657500,9.376657470703124,-0.4362269327074289,0.07110474979281425,-3.1727173049405217
1745463241185629700,9.386629638671875,-0.7598112365752459,-0.3414139750689268,-2.785907021830976
1745463241195601400,9.396601318359375,-1.0089093315184117,-0.8071855666905641,-2.407853461150825
1745463241205573600,9.40657373046875,-1.1841712058782576,-1.2415256627380846,-2.0183441482156512
1745463241215545600,9.416545654296876,-1.3349112179219722,-1.581314082431793,-1.62200528152138
1745463241225517600,9.426517578125,-1.4238228425621986,-1.819772125416994,-1.1839423655584453
1745463241235489500,9.436489501953124,-1.4615397020161152,-1.9750585487186907,-0.6503381776824593
1745463241245461500,9.44646142578125,-1.4186451476633548,-2.03791043395102,-0.13739976121634245
1745463241255433500,9.45643359375,-1.3165677519798278,-2.0011691415309905,0.407899248367548
1745463241265405700,9.46640576171875,-1.1413736821591853,-1.9713222847998142,0.8712538419753313
1745463241275377400,9.47637744140625,-0.926419264358282,-1.8464859448194502,1.1617676508903503
1745463241285349600,9.486349609375,-0.7201625322759151,-1.692054677042365,1.4911083263278007
1745463241295321300,9.4963212890625,-0.5852934220483527,-1.5722078159123658,1.7723551252037286
1745463241305293600,9.50629345703125,-0.4057621998062357,-1.3343769649147987,2.033182236385345
1745463241315265500,9.516265625,-0.1629319696187973,-1.080026940792799,2.263161204838753
1745463241325237500,9.526237548828124,0.01282203563954681,-0.7201233693093061,2.365707971599698
1745463241335209700,9.536209716796876,0.029658640682697295,-0.2158048971503973,2.4986650741934775
1745463241345181400,9.546181396484375,-0.006402889312244951,0.25962241156697274,2.653843945467472
1745463241355153700,9.556153564453124,-0.2506943511586636,0.6712994249075651,2.7758184662759304
1745463241365125600,9.566125732421876,-0.523080492306687,1.0509311946898698,2.948085834994912
1745463241375097600,9.57609765625,-0.6599778934914619,1.4238549912661314,2.9888357785344124
1745463241385069600,9.586069580078124,-0.7850140668928622,1.8668115244895218,2.796079748538136
1745463241395041500,9.59604150390625,-0.91413261423707,2.4647914461642504,2.493917587405443
1745463241405013500,9.606013427734375,-1.0383037683069705,3.3104332924991846,2.1491928803533313
1745463241414985700,9.61598583984375,-1.2771930423162876,4.158417902567982,1.8931307916164397
1745463241424957400,9.62595751953125,-1.6324084559835492,4.854741878616809,1.7395400663167238
1745463241434929700,9.6359296875,-1.9644155741512774,5.437060705301166,1.6421797622829675
1745463241444901400,9.6459013671875,-2.3700610522426664,5.820708140465617,1.682466764485836
1745463241454873600,9.65587353515625,-2.717865459001064,6.006861995717883,1.7756494905740021
1745463241464845600,9.665845458984375,-2.815548419117927,6.294948869746923,1.7863725446403025
1745463241474817500,9.675817626953124,-2.6357132454931733,6.878982683655619,1.5941630426108837
1745463241484789500,9.68578955078125,-2.4757950707376,7.584223541131615,1.3685253182321786
1745463241494761500,9.695761474609375,-2.495008305251598,7.890437023481726,1.3432038299709557
1745463241504733400,9.7057333984375,-2.54095874004364,7.650150011503696,1.529918826237321
1745463241514705700,9.71570556640625,-2.6618834595382213,7.008037518113851,1.9415449861735103
1745463241524677600,9.725677734375,-2.8005270833358167,6.15133067240715,2.429733576786518
1745463241534649600,9.735649658203124,-2.9030007848605512,5.406517682999372,3.0500679536104203
1745463241544622000,9.7456220703125,-2.915427720235288,4.913651163703203,3.8948119743227956
1745463241554594300,9.75559423828125,-2.951573092588782,4.619221058127284,4.576063468924165
1745463241564566000,9.76556591796875,-2.996051993523538,4.615107777589559,4.8170291108161205
1745463241574538200,9.775538330078126,-3.1570325368136167,4.586551545190811,4.946037183523178
1745463241584510200,9.78551025390625,-3.2878257393717765,4.3427778601408,5.0408577399462455
1745463241594482200,9.795482177734375,-3.152002141430974,3.8453076464414595,4.672264081528782
1745463241604454400,9.805454345703126,-2.7777202082440255,3.321497707349062,3.90105116097331
1745463241614426000,9.815426025390625,-2.343737547332048,2.952431170722842,3.062367463213205
1745463241624398300,9.8253984375,-1.9845980920888482,2.706525149819255,2.3520190534651277
1745463241634370000,9.8353701171875,-1.5486499763227999,2.4696312874108552,1.9720318943738937
1745463241644342300,9.84534228515625,-1.1584358761191367,2.2459739231944083,1.7411942632645367
1745463241654314200,9.855314208984375,-0.8878466648578643,1.8772335497826336,1.8168156136989593
1745463241664286200,9.8652861328125,-0.6475295500025153,1.467865982428193,2.1862731954693793
1745463241674258200,9.875258056640625,-0.5186576708957552,1.051854154753685,2.672794145131111
1745463241684230100,9.885230224609375,-0.399424557749927,0.6847755770742893,3.2161160094231365
1745463241694202000,9.8952021484375,-0.27836992826536294,0.3738303900271654,3.5810119823664426
1745463241704174300,9.90517431640625,-0.17140885219350457,0.020503274324536323,3.769635442602634
1745463241714146000,9.91514599609375,-0.03058583853021264,-0.28378187031149865,3.8162697680056095
1745463241724118300,9.9251181640625,0.00451236285790801,-0.5650941356390714,3.6970658809542654
1745463241734090000,9.935090087890625,0.0802094088770449,-0.845597422671318,3.4337060364246366
1745463241744062200,9.945062255859375,0.16647051900848744,-1.1436714377075432,3.1618530888378618
1745463241754034200,9.9550341796875,0.205371619810909,-1.3630980324864386,2.804609091952443
1745463241764006100,9.965006103515625,0.22865078858956694,-1.4209978482693433,2.3735867421507835
1745463241773978000,9.97497802734375,0.20279650862589477,-1.4460656540304422,2.03809689643383
1745463241783950000,9.9849501953125,0.23150924676060675,-1.4619289935946465,1.9013129290282724
1745463241793922300,9.99492236328125,0.3253787860691547,-1.4282698850989342,1.8077572779744862
1745463241803894300,10.004894287109375,0.39879239732623095,-1.3589374056756496,1.8035405370622872
1745463241813866200,10.0148662109375,0.4575579630929976,-1.0882932493567465,1.6358125653386115
1745463241823838200,10.024838134765625,0.5424889936644584,-0.876207664990425,1.2262421688884495
1745463241833810200,10.03481005859375,0.6371581589180976,-0.7288005967617035,0.8871440695464611
1745463241843782100,10.0447822265625,0.7265513565301894,-0.700098818412423,0.8103367241978645
1745463241853754400,10.05475439453125,0.6943851169407367,-0.6342413216233254,0.5115396555840969
1745463241863726000,10.06472607421875,0.7291594201367348,-0.8349965336799621,-0.10346446612775326
1745463241873698300,10.0746982421875,0.9183657217621802,-1.105054999065399,-0.7810054157733917
1745463241883670000,10.084669921875,1.3083996430933476,-1.2360545378506183,-1.4532120186537503
1745463241893642200,10.094642333984375,1.7334452565729617,-1.416196000945568,-2.1342115843206644
1745463241903614200,10.1046142578125,2.289824755358696,-1.4786977575659752,-2.6494880883455276
1745463241913586200,10.114586181640625,2.8877707747638226,-1.3333622349143028,-3.0830548619329927
1745463241923558100,10.12455810546875,3.4546704985201355,-0.8263590537160634,-3.474989063927531
1745463241933530000,10.134530029296876,3.9174049144029617,-0.08084288447499274,-3.7980031666919585
1745463241943502000,10.144502197265625,4.2882852224528785,0.8380711188197135,-4.15130807056278
1745463241953474300,10.154474365234375,4.413925864553451,1.826609277960658,-4.4385582015067335
1745463241963446000,10.164446044921876,4.268370561671257,2.591209502378106,-4.569308149445057
1745463241973418200,10.174418212890625,3.861854292094707,3.0976264081209894,-4.675143728618323
1745463241983390200,10.18439013671875,3.26590499946475,3.317672011581063,-4.972090493190288
1745463241993362200,10.194362060546876,2.7057822224974633,3.1017233220458027,-5.338958642989397
1745463242003334400,10.20433447265625,2.2476421486675737,2.6378794836163517,-5.797263551992177
1745463242013306000,10.21430615234375,1.9779156917154788,2.2516361867398023,-6.328867505961656
1745463242023278300,10.2242783203125,1.6859750648677347,1.8631190997123717,-6.711866121828556
1745463242033250000,10.23425,1.1415968964558094,1.2559499094098805,-6.966361107379198
1745463242043222300,10.24422216796875,0.5193734179496765,0.3887356982141733,-6.788618522119521
1745463242053194200,10.2541943359375,0.031301074127480386,-0.5031079273253679,-6.453471206229925
1745463242063166200,10.264166259765625,-0.28611520862989126,-1.2887071006298065,-6.018033962595463
1745463242073138200,10.27413818359375,-0.4396913939476013,-1.9375158767879008,-5.55490207182765
1745463242083110100,10.284110107421874,-0.35110717463083563,-2.369419685599208,-5.162115052396059
1745463242093082000,10.29408203125,-0.1583575013101101,-2.5638521243751047,-4.88386188237816
1745463242103054300,10.304054443359375,0.013523498439788818,-2.5399504397839308,-4.6332311710402365
1745463242113026000,10.314026123046874,0.09839132758192717,-2.356948326560855,-4.452032600107788
1745463242122998300,10.323998291015625,0.19241751875691115,-2.054085908204317,-4.37838050391972
1745463242132970000,10.333969970703125,0.2925367661099881,-1.6949831317096948,-4.350597886241972
1745463242142942200,10.343942138671874,0.4105822769064456,-1.368291509476304,-4.4164138819769025
1745463242152914200,10.3539140625,0.43925526755265887,-1.023938558346033,-4.536113151329755
1745463242162886100,10.36388623046875,0.39783137027435,-0.7501759777456521,-4.625082351376116
1745463242172858000,10.373858154296874,0.33822073198556896,-0.5789245080709458,-4.648232925339043
1745463242182830000,10.383830078125,0.2728080563545227,-0.4975812728583812,-4.583856314757466
1745463242192802300,10.39380224609375,0.17025032980814575,-0.508031355202198,-4.49488916053772
1745463242202774300,10.403774169921874,-0.05403912176676094,-0.689531831690669,-4.316816028149426
1745463242212746200,10.413746337890625,-0.2680056975740939,-1.0407599292874337,-4.032443790729344
1745463242222718200,10.42371826171875,-0.41907194589748975,-1.5328402666419743,-3.7271407012224196
1745463242232690200,10.433690185546874,-0.47817046994566914,-2.0363351474583147,-3.3876638316959142
1745463242242662100,10.443662109375,-0.5170834073163568,-2.4292191975235937,-3.2027871567726134
1745463242252634400,10.45363427734375,-0.5882207442045212,-2.6788334252953527,-2.986519902807474
1745463242262606000,10.463606201171874,-0.6339629430733621,-2.769895505967736,-2.461647887441516
1745463242272578300,10.473578369140625,-0.6924069487355649,-2.67460499394536,-1.9032126251697539
1745463242282550000,10.483550048828125,-0.7873335228163748,-2.464727148756385,-1.408685479184985
1745463242292522200,10.493522216796874,-0.913473419675976,-2.2809598963797093,-0.8799562038689851
1745463242302494200,10.503494140625,-0.956703343462944,-2.1133862384349107,-0.36317046432495115
1745463242312466200,10.513466064453125,-1.0306639210782944,-1.848754474273324,0.10274608872532844
1745463242322438100,10.523438232421874,-1.1064518602512776,-1.537199630895257,0.5520242261856794
1745463242332410000,10.53341015625,-1.2430828290522098,-1.1833306634008884,0.9535743977874517
1745463242342382000,10.543382080078125,-1.3184113340198993,-0.8410042496621608,1.3313199154317379
1745463242352354300,10.553354248046874,-1.2707554104842245,-0.47783086272776126,1.6969161455988884
1745463242362326300,10.563326171875,-1.2546668838620185,-0.007316460493206977,1.8872656989753245
1745463242372298200,10.57329833984375,-1.1799496426604688,0.3974760540306568,2.096600523328781
1745463242382270200,10.583270263671874,-1.1082369901023805,0.6966998236238956,2.2257716776430607
1745463242392242200,10.5932421875,-1.1876960190035402,1.01562665707469,2.2236662297964096
1745463242402214400,10.60321435546875,-1.3100420034728943,1.4640005391716957,2.1396195808440446
1745463242412186000,10.61318603515625,-1.44049340685606,2.0230799445658922,2.0223878706485032
1745463242422158300,10.623158447265626,-1.4908395923890172,2.559481654205918,1.8944559027403591
1745463242432130000,10.633130126953125,-1.4121509633384643,3.217998754429817,1.559540057519078
1745463242442102300,10.643102294921874,-1.3774573972284794,4.0560990993440145,1.1166688644915819
1745463242452074200,10.65307421875,-1.4610416893661022,4.916698276314139,0.7273685181319713
1745463242462046200,10.663046142578125,-1.6334253779411314,5.727856838288903,0.4931383219748735
1745463242472018200,10.67301806640625,-1.81704255432263,6.4306140622556205,0.28668226792812346
1745463242481990100,10.682990234375,-2.0657447818160057,6.959744319587945,0.1738642825216055
1745463242491962000,10.692962158203125,-2.363015517645329,7.15220516602993,0.14862287375926972
1745463242501934300,10.702934326171874,-2.610124046206474,6.9881029835879795,0.23812720359563827
1745463242511906000,10.712906005859375,-2.8152310237318274,6.618679304087162,0.38878596709668634
1745463242521878300,10.722878173828125,-2.866021884292364,6.304867037171125,0.6034107145518064
1745463242531850000,10.73285009765625,-2.72086610212177,6.265791748845577,0.7722790884822607
1745463242541821200,10.7428212890625,-2.5952643307268617,6.295985227057337,1.162137653246522
1745463242551793400,10.75279345703125,-2.6066800432324406,5.8436184759318825,1.8577496816337107
1745463242561765000,10.76276513671875,-2.6111115959390996,5.22462733041048,2.8358932880103587
1745463242571737300,10.7727373046875,-2.518306178730726,4.737463406670093,4.116525803256034
1745463242581709000,10.782708984375,-2.378875496208668,4.38595415404439,5.5195221308887
1745463242591681300,10.792681396484374,-2.1066461165249346,3.9790105989664792,6.791404353445768
1745463242601653200,10.8026533203125,-1.6507527987085282,3.5470690884932874,7.734274986389279
1745463242611625200,10.812625244140625,-1.1636861978627742,3.203966721946001,8.130680780839919
1745463242621597200,10.82259716796875,-0.6658417440235614,2.8868624277472494,7.993704505732655
1745463242631569200,10.832569091796875,-0.3243653712429106,2.549580437916517,7.426866156774759
1745463242641541000,10.842541015625,-0.212362647742033,2.3596400498628616,6.591020897310972
1745463242651513300,10.852513427734374,-0.23979177580699323,2.3026064955204726,5.763308675420284
1745463242661485300,10.8624853515625,-0.5301705601654947,2.2657149809747934,4.867853873646259
1745463242671457300,10.872457275390625,-0.8315466854870319,2.284607897493243,4.1969601069301365
1745463242681429200,10.88242919921875,-0.7621464745897799,2.3367723844945427,3.627770226410031
1745463242691401200,10.892401123046875,-1.1545499745965004,2.716018954351544,3.217920428496599
1745463242701373400,10.90237353515625,-1.449105752378702,2.808029714050889,2.6774147906690833
1745463242711345200,10.91234521484375,-1.0684933009959756,2.553412563425302,2.3792945984035727
1745463242721317400,10.9223173828125,-0.9992555141188204,2.3011107040047643,2.261080891433358
1745463242731289000,10.9322890625,-1.0606628996312617,1.6349702692955732,2.0676187589943407
1745463242741261300,10.94226123046875,-1.0406184749901295,0.9259832110285758,1.8467390427976846
1745463242751233300,10.9522333984375,-0.980773808749765,0.3339636590629816,1.5541197860360145
1745463242761205200,10.962205322265625,-0.7536345937669277,-0.2525689859241247,1.4627490778058767
1745463242771177200,10.97217724609375,-0.5270084428727626,-0.8061632379055023,1.2652695264190434
1745463242781149200,10.982149169921875,-0.3172328890144825,-1.235133915874362,1.190235620483756
1745463242791121200,10.99212109375,-0.028549145070835946,-1.6679039861261844,0.9896417364686727
1745463242801093400,11.00209326171875,0.12633731912784277,-2.0385183367162942,0.8385200316309929
1745463242811065000,11.012065185546875,0.19689970567226409,-2.3248054678469896,0.6626508390277623
1745463242821037300,11.022037353515625,0.2648270675379783,-2.515742465722561,0.4166507100999355
1745463242831009000,11.032009033203124,0.3646469666182995,-2.5538579691052434,0.3157937961220741
1745463242840981200,11.041981201171875,0.48094585294313724,-2.574916539224982,0.22805296882688997
1745463242850953200,11.051953125,0.7073707821767776,-2.4901275474727154,0.07748480621874332
1745463242860925200,11.06192529296875,0.9884089798033237,-2.2234686613976953,0.023030162453651425
1745463242870897400,11.0718974609375,1.1992004327058792,-1.8697271196752785,-0.1456996797889471
1745463242880869000,11.081869140625,1.3309575118601322,-1.4965391192048787,-0.4266507105886936
1745463242890841300,11.09184130859375,1.3321861768722534,-1.2154799518555401,-0.7774597059905528
1745463242900813300,11.101813232421875,1.2483446951031685,-0.8396855682790278,-0.9765940388470887
1745463242910785300,11.111785400390625,1.1642372558742762,-0.6454325777232647,-1.1071446648210286
1745463242920757200,11.12175732421875,1.1728589537471532,-0.656416913074255,-1.3129776185333728
1745463242930729200,11.131729248046875,1.3383803553372622,-0.5547983670741319,-1.4301234040111301
1745463242940701200,11.141701171875,1.4983616584569215,-0.47733343459963795,-1.452541279785335
1745463242950673400,11.15167333984375,1.6956249367445706,-0.45993104889988895,-1.5993541815131902
1745463242960645000,11.16164501953125,2.067000919356942,-0.3057821051955223,-2.092180368798971
1745463242970617300,11.171617431640625,2.412938509330153,0.10102934793531894,-2.8492352924034
1745463242980589000,11.181589111328124,2.682428819438815,0.6768699185162782,-3.767707689410448
1745463242990561300,11.191561279296875,3.065197133681178,1.4045599236875772,-4.600996542389691
1745463243000533200,11.201533203125,3.3204484905570744,2.0956407383859155,-5.27395747076869
1745463243010505200,11.211505126953124,3.471654951068759,2.641499427679181,-5.902568093028664
1745463243020477200,11.221477294921876,3.60207289057374,2.974201688504219,-6.494079110950231
1745463243030449200,11.23144921875,3.516360354235768,2.7553426644802093,-6.865550370630621
1745463243040421000,11.241421142578124,3.3664094467431305,2.019736479356885,-7.012297513645887
1745463243050393300,11.251393310546876,3.3437831889152525,1.2577327011734247,-7.269927874612808
1745463243060365300,11.261365234375,3.3306723629295822,0.7681640543788671,-7.618574139022827
1745463243070337300,11.271337158203124,3.1908658328324555,0.4178320288389921,-7.791034984487295
1745463243080309200,11.281309326171876,2.7134891436129807,-0.08828501717448234,-7.579158658957481
1745463243090281200,11.29128125,2.084793181157112,-0.6107979021936655,-7.145383795577287
1745463243100253400,11.30125341796875,1.5838813025712966,-0.8471697865545749,-6.718344962453842
1745463243110225200,11.31122509765625,1.2800596837937832,-0.8233177863240242,-6.269219969728589
1745463243120197400,11.321197265625,1.2007435704946516,-0.8595031984269619,-5.718757586032152
1745463243130169000,11.331169189453124,1.2829466374069451,-1.0012269603222608,-5.295257448428869
1745463243140141300,11.341141357421876,1.4571604640185831,-1.1831763496220111,-4.967941556817292
1745463243150113300,11.35111328125,1.5756833830684422,-1.3993746300041674,-4.675864151847362
1745463243160085200,11.361085205078124,1.713987107387185,-1.5172025525271893,-4.454408681589364
1745463243170057200,11.37105712890625,1.7696961351275442,-1.492963598805666,-4.2694881675243375
1745463243180029200,11.381029296875,1.728918134537339,-1.2830331466466187,-4.074549532791972
1745463243190001200,11.391001220703124,1.5853385156422852,-0.8448077335983514,-3.9050919607967134
1745463243199973400,11.400973388671876,1.2573019085407255,-0.2662941444158554,-3.8417289111718533
1745463243209945000,11.410945068359375,0.7522486923664807,0.25332185011804104,-3.779762868863344
1745463243219917300,11.420917236328124,0.23661504546701906,0.6777800190985203,-3.6080619018554687
1745463243229889300,11.43088916015625,-0.263915140324831,0.8240887706965208,-3.336122152768075
1745463243239861200,11.440861328125,-0.6984533892929553,0.6934580652236938,-3.045466597294807
1745463243249833500,11.45083349609375,-0.9484709371685981,0.2454623687893152,-2.809165732343495
1745463243259805200,11.46080517578125,-1.133759700024128,-0.36710137403309345,-2.5786902125447986
1745463243269777400,11.47077734375,-1.3329659290730953,-0.9740326639264821,-2.385638998994231
1745463243279749000,11.4807490234375,-1.5172434690594672,-1.5603390989422796,-2.1940128498107194
1745463243289721300,11.490721435546876,-1.655666435843706,-2.053691940450668,-1.989521373835206
1745463243299693300,11.500693359375,-1.7481623487114906,-2.3486557145118714,-1.8574200112879276
1745463243309665300,11.510665283203124,-1.7862474569559097,-2.4522592968493697,-1.6302666216492652
1745463243319637200,11.52063720703125,-1.7677075916588305,-2.412536358270049,-1.2122241649299859
1745463243329609200,11.530609130859375,-1.7030162160396576,-2.2886931209802626,-0.7283300566405058
1745463243339581200,11.540581298828124,-1.5996411817610263,-2.0535142457962037,-0.22949615337252616
1745463243349553400,11.550553466796876,-1.4636498260378836,-1.7300965306669474,0.14603402630984783
1745463243359525000,11.560525146484375,-1.407471427220106,-1.3261924894154071,0.5673784471839666
1745463243369497300,11.570497314453124,-1.2698619687758386,-0.7875275110185146,1.0314672002851963
1745463243379469000,11.580468994140626,-1.0403460877895354,-0.3087023765563965,1.4874147325068712
1745463243389441300,11.590441162109375,-0.7184229951322079,0.03515139288008213,1.7866279807060956
1745463243399413200,11.600413330078124,-0.4733096589762717,0.4772101004809141,2.1567215222924947
1745463243409384200,11.61038427734375,-0.22780578913278876,0.9384235904067754,2.4818945566564796
1745463243419356400,11.6203564453125,0.017404723787307737,1.4917752658039332,2.6186685871899127
1745463243429328100,11.630328125,0.16726897590979933,2.288807687270641,2.748914092737436
1745463243439300400,11.64030029296875,0.058268795225769277,3.0878800901323555,3.094982615613937
1745463243449272000,11.65027197265625,-0.28311303113922476,3.787002756989002,3.5799785476654766
1745463243459244300,11.660244384765624,-0.7837783876180648,4.504004779407381,4.211979981407523
1745463243469216300,11.67021630859375,-1.312035369247198,5.080355637598037,4.507634660342336
1745463243479188200,11.680188232421875,-1.674797837293148,5.218211033627391,4.330830817237496
1745463243489160200,11.69016015625,-2.1629750297293064,5.13363363879919,3.8308196868836877
1745463243499132200,11.700132080078125,-2.4865850525602697,5.090285495460033,3.073477470770478
1745463243509104000,11.710104248046875,-2.79792829901427,5.081863704073429,2.499365331417322
1745463243519076400,11.720076416015624,-3.3124887637242675,5.261047720313072,2.401834346991777
1745463243529048300,11.73004833984375,-3.842599264265597,5.506116121348739,2.7836095585435627
1745463243539020500,11.7400205078125,-4.153317072297632,5.59109975889027,3.409559437161684
1745463243548992500,11.749992431640624,-4.2430888208985325,5.622744604954123,3.948607277396321
1745463243558964500,11.759964599609376,-4.06559261161536,5.648851690635085,4.42174326030612
1745463243568936400,11.7699365234375,-3.673756317037344,5.980182663106918,4.662103337520361
1745463243578908400,11.779908447265624,-3.5614088717520236,6.206875449496508,5.021618201947212
1745463243588880600,11.789880615234376,-3.900514569878578,5.618474088028073,5.675718070250749
1745463243598852400,11.799852294921875,-4.160765926998853,4.57142821033895,6.134278999841213
1745463243608824600,11.809824462890624,-4.005935430771112,3.895575944432616,6.052132047030329
1745463243618796300,11.81979638671875,-3.671455638879537,3.7714194034099577,5.620404763829708
1745463243628768500,11.8297685546875,-3.5707191364109514,3.7902410082578655,5.167649890169501
1745463243638740500,11.839740478515624,-3.481888175791502,3.5829613628685473,4.890520463484525
1745463243648712400,11.84971240234375,-3.126992203336954,3.2852930060237644,4.596934407517313
1745463243658684400,11.859684326171875,-2.4891587024405597,3.1360815187215803,4.199980331534147
1745463243668656400,11.869656494140624,-1.799816548103094,3.0008441962361334,3.868036780121922
1745463243678628400,11.87962841796875,-1.3030745025478303,2.9490824448168276,3.6398815199643373
1745463243688600600,11.8896005859375,-0.8423791912771761,2.940545502617955,3.3850182856231927
1745463243698572300,11.899572265625,-0.40726211950778957,2.9839900920689106,2.9503040955662727
1745463243708544500,11.90954443359375,-0.11038944308534264,3.0694799255669114,2.3459575614690777
1745463243718516200,11.91951611328125,0.03339037455692887,3.048684974819422,1.9450024331510065
1745463243728488400,11.929488525390624,0.020894246403500436,2.9173586882978677,1.5285826091974972
1745463243738460400,11.93946044921875,-0.1390028124988079,2.6352362756311893,1.4153963750004768
1745463243748432400,11.949432373046875,-0.3361843307871371,2.187366835924983,1.4506062200695276
1745463243758404600,11.959404541015624,-0.5585984169442206,1.6263965022176503,1.4554776254981756
1745463243768376300,11.969376220703126,-0.6531717206079513,1.0093483074575662,1.522971199056506
1745463243778348500,11.9793486328125,-0.6691502840496599,0.41719373093545437,1.6425030028879641
1745463243788320500,11.989320556640624,-0.5551623780809343,-0.0577221211284399,1.9051473926246165
1745463243798292500,11.99929248046875,-0.36018940268754956,-0.34136896688342094,2.241608129200339
1745463243808264400,12.009264404296875,-0.21557510698251425,-0.5966425355911255,2.500586982166767
1745463243818236400,12.019236328125,-0.11819967844486236,-0.8181962055265903,2.5270436119377613
1745463243828208400,12.02920849609375,-0.008174027170613407,-1.1701689840108156,2.2759955519706008
1745463243838180600,12.0391806640625,0.2008254277486354,-1.5282248818010091,1.6288766285955905
1745463243848152300,12.04915234375,0.39968671581745147,-1.7999895665824412,0.9106132079392671
1745463243858124500,12.05912451171875,0.5476724607169627,-2.099420256924629,0.31577596820443865
1745463243868096300,12.06909619140625,0.7538520359098911,-2.269355383303761,-0.049292438696324825
1745463243878068500,12.079068359375,1.005176574730873,-2.2481506827116013,-0.254127613542974
1745463243888040400,12.08904052734375,1.2657096714019775,-2.13573017219007,-0.498268086078763
1745463243898012400,12.099012451171875,1.4700316360294818,-1.9977923585742712,-0.8450102704331278
1745463243907984400,12.108984375,1.5350094273746013,-1.8124018889099358,-1.2898442879661918
1745463243917956400,12.118956298828126,1.4481915601432322,-1.5923673913657663,-1.7184800348922609
1745463243927928300,12.12892822265625,1.269554656392336,-1.356875796970725,-2.034999514940381
1745463243937900500,12.138900634765625,1.1335481031000614,-1.107688854700327,-2.481664547292888
1745463243947872500,12.14887255859375,1.00835286667943,-0.929302710840106,-2.9527082340985533
1745463243957844500,12.158844482421875,1.0080851556539534,-0.9617138651013374,-3.2596994228228926
1745463243967816400,12.16881640625,1.1583014360845088,-1.085888526302576,-3.413764195375144
1745463243977788400,12.178788330078126,1.48273563477993,-1.2204723533153534,-3.6503342326566575
1745463243987760600,12.1887607421875,2.016485953128338,-1.1449895345687866,-3.959392290782928
1745463243997732400,12.198732421875,2.5059219134539363,-0.7999217131674289,-4.323230571366846
1745463244007704600,12.20870458984375,2.870346761754155,-0.23258418251574037,-4.810865619750321
1745463244017676300,12.21867626953125,3.083912355545163,0.33146833511590956,-5.36155625924468
1745463244027648500,12.2286484375,3.1145202597767114,0.9672510409623384,-5.997528934705257
1745463244037620500,12.238620361328126,3.010406974351406,1.7390666035860776,-6.5512582112431526
1745463244047592400,12.248592529296875,2.85011996628344,2.2892566000819206,-7.007804293879866
1745463244057564400,12.258564453125,2.529870944318175,2.4639514882087705,-7.282257194831967
1745463244067536400,12.268536376953126,2.019751676926017,2.2301930012166498,-7.486223185628652
1745463244077508400,12.27850830078125,1.5656979956269264,1.9865011492311953,-7.697219221192598
1745463244087480600,12.28848046875,1.3209154257953166,1.9984604670941828,-7.79859635965228
1745463244097452300,12.298452392578126,1.2824153070092201,2.3000363527715204,-7.541746335408091
1745463244107424500,12.308424560546875,0.9740928696811199,2.352289102578163,-6.714426327705383
1745463244117396500,12.318396484375,0.13820789926145224,2.0341776771634814,-6.081159988594055
1745463244127368400,12.328368408203126,-0.7312661100924015,2.019829418337345,-6.209551975229382
1745463244137340700,12.338340576171875,-1.7659318141579627,1.7169336822330952,-6.490199639168381
1745463244147312400,12.3483125,-2.201212405925989,0.8778075014024972,-6.914090821915864
1745463244157284600,12.35828466796875,-2.0662053850650786,-0.26409049689173697,-7.3880042189389465
1745463244167256300,12.36825634765625,-1.5591443361997603,-1.4901450342535971,-7.7176698885470625
1745463244177228500,12.378228515625,-0.7201163550466299,-2.1678315298497677,-7.641123824483156
1745463244187200500,12.388200439453126,0.0700812702302821,-2.452508887696266,-7.164256838351488
1745463244197172500,12.39817236328125,0.7314999188482761,-2.340703878724575,-6.345466758584976
1745463244207144400,12.40814453125,1.3613526501238344,-1.8818197085291146,-5.556474435710907
1745463244217116400,12.418116455078126,1.8783716139018534,-1.2173609432965515,-4.864668229347467
1745463244227088400,12.42808837890625,2.318385663932562,-0.5777759225577116,-4.119418602088094
1745463244237060600,12.438060546875,2.6294074233472347,0.03528700195848942,-3.3105659789681434
1745463244247032300,12.4480322265625,2.8446985257565975,0.6097954471528529,-2.573141053985059
1745463244257004500,12.458004638671875,2.9186867220312354,1.0416238526403903,-2.0962389965400097
1745463244266976300,12.467976318359375,2.7466975857317446,1.1020663386434315,-1.8008973290771244
1745463244276948500,12.477948486328126,2.32251063490808,0.7159194878786802,-1.7114476520374415
1745463244286920400,12.48792041015625,1.8083160809010266,0.25599136158823965,-1.7041767842516302
1745463244296892400,12.497892333984375,1.287081545254588,-0.23096914853453634,-1.7195491254284976
1745463244306864400,12.507864501953126,0.7283610363006592,-0.7663117045104503,-1.722413282687962
1745463244316836400,12.51783642578125,0.1408019708752632,-1.2031161448448895,-1.6636352227658033
1745463244326808600,12.52780859375,-0.3738905957818031,-1.450562380927801,-1.5083900082573294
1745463244336780500,12.537780517578126,-0.8040764947593212,-1.5937749200761318,-1.2040861589208245
1745463244346752500,12.54775244140625,-1.2042986326277256,-1.575821914756298,-0.8965534106656908
1745463244356724500,12.557724365234375,-1.5311352162897587,-1.49614515145123,-0.49902591870874163
1745463244366696400,12.567696533203126,-1.7214812625348568,-1.3114935174554585,-0.02926671875566244
1745463244376668400,12.57766845703125,-1.867991674184799,-1.191487081849575,0.3928700215399265
1745463244386640400,12.587640380859375,-1.9399054022729396,-1.1526683986335993,0.9119418261945247
1745463244396612400,12.5976123046875,-1.9613817594133316,-1.045828318592906,1.3533096289217472
1745463244406584600,12.60758447265625,-2.060633722412586,-0.8223112396299839,1.6643857488721607
1745463244416556300,12.617556396484375,-2.198008056926727,-0.69691551220119,1.893070585861802
1745463244426528500,12.627528564453126,-1.9956746357679367,-0.5756523545324802,2.0440935065001247
