time,seconds_elapsed,z,y,x
1745463183794726400,0.032726318359375,4.016530474543571,0.12571458411961794,0.5326655918516219
1745463183804699400,0.042699462890625,5.130666605687141,-0.149101597186923,0.8612009422555565
1745463183814671600,0.052671630859375,6.101288584387302,1.006607192055881,-0.6262998610995709
1745463183824644600,0.06264453125,5.592844556730985,1.8744842510744928,-1.184340424965322
1745463183834617300,0.072617431640625,4.722184004473686,1.757527558428049,-0.8908962616868317
1745463183844590300,0.08259033203125,5.186157022240757,1.6591747362256049,-0.7017508234031498
1745463183854562600,0.0925625,6.53805912245214,1.6660756016552447,-0.814925513292849
1745463183864535600,0.10253564453125,7.236308513605594,0.9115297382622957,-0.374181687682867
1745463183874508300,0.11250830078125,5.1538843996673815,-1.3354092305719851,0.5366998158037662
1745463183884480500,0.12248046875,4.958303959900141,-0.8422992579087615,0.04092705367207527
1745463183894453500,0.13245361328125,4.567980700233578,1.138990878675878,-2.2229335316076875
1745463183904426500,0.142426513671875,5.334512769496441,1.378172267499566,-4.184610328444839
1745463183914398500,0.1523984375,7.033796813270449,1.6573106959193944,-5.892214456796646
1745463183924371500,0.162371337890625,6.757875008809566,2.03385414429754,-5.940565522989631
1745463183934344400,0.172344482421875,5.814377183878421,2.3537167972937225,-5.132918184006214
1745463183944317700,0.182317626953125,6.074637308827042,2.435805590176582,-4.382977184060215
1745463183954289400,0.192289306640625,6.557383416125178,2.386985445167124,-2.681370834818482
1745463183964262400,0.202262451171875,6.945664356309175,2.4245927067667243,-1.2415204020410775
1745463183974235600,0.212235595703125,6.645327657037973,0.6096452250272035,1.6831220135241747
1745463183984207400,0.222207275390625,6.0018263396382325,-0.650295799845457,1.7234785738319158
1745463183994180400,0.232180419921875,5.276131892198324,0.6766179895818233,-0.3623155279960483
1745463184004153600,0.242153564453125,4.0901656195968386,2.486004622323811,-3.418404422396421
1745463184014125300,0.252125244140625,2.525742466211319,1.906888098812103,-4.804740999390185
1745463184024098300,0.262098388671875,0.7450877146959305,1.7818945224434137,-3.8956142306163906
1745463184034071600,0.272071533203125,0.4141834432035684,3.1707997808814046,-2.2168664866536854
1745463184044044500,0.28204443359375,-0.3441577208191156,4.152556317058205,-1.1738083634264767
1745463184054016300,0.292016357421875,-2.1881880891799925,4.215972265914083,-1.5909446650862693
1745463184063989500,0.301989501953125,-3.8399125093996522,4.534821650214493,-2.9047911754086613
1745463184073962500,0.31196240234375,-4.55727284373641,4.733133853033185,-3.743139649865031
1745463184083934500,0.3219345703125,-5.256549824371934,5.111704131063819,-3.4451503905028105
1745463184093907500,0.331907470703125,-5.074197699490189,5.726964273363351,-2.523442957097292
1745463184103880400,0.34188037109375,-3.4483109003603456,6.249468390554189,-1.3356255036711693
1745463184113853400,0.351853515625,-0.6961310838252306,5.9604094566226005,-1.4287392561763523
1745463184123825700,0.36182568359375,1.209672726881504,5.519255588907003,-1.7484119395583868
1745463184133798400,0.37179833984375,1.7494214088618754,5.404143939605355,-1.8961019163817165
1745463184143771400,0.381771484375,1.086541437253356,5.108749957433343,-2.217479065594077
1745463184153743600,0.39174365234375,-1.5377759694784878,4.444123142157495,-5.155763053020834
1745463184163716600,0.401716552734375,-4.987439453491568,3.562021450692415,-7.767818944072723
1745463184173689300,0.411689453125,-4.535260041631758,3.0661788381949067,-6.003592180266976
1745463184183661600,0.42166162109375,-3.231281429851055,3.5020568113341923,-4.692387416625023
1745463184193634600,0.431634521484375,-2.8018907729044553,3.8200460716739295,-3.9032928024202582
1745463184203607600,0.441607666015625,-2.942301990896463,3.843094646567106,-4.030796315783262
1745463184213579500,0.45157958984375,-3.1703917846024035,3.6287615755349396,-4.5519618778467175
1745463184223552500,0.461552490234375,-3.8631221200734376,3.3173294817537067,-4.913876204630732
1745463184233525500,0.471525390625,-4.501591873046755,3.1426573899805543,-5.513095312711596
1745463184243498500,0.48149853515625,-5.053302210977673,3.0713878050148486,-6.0372746696382755
1745463184253470500,0.491470458984375,-5.2206946671366685,2.9703192941129206,-6.0995414484590285
1745463184263443500,0.501443359375,-5.462749273309111,2.9818992572695016,-5.790026586475968
1745463184273416400,0.51141650390625,-5.381067015400529,2.4035902507483957,-5.8890925253838295
1745463184283388400,0.521388427734375,-4.805491233235597,1.4945567132160067,-5.666025528275966
1745463184293361400,0.531361328125,-4.10944665865004,0.7140387886986136,-5.433334378254413
1745463184303334400,0.54133447265625,-3.3415064761549234,-0.23161709104925393,-5.369722614565491
1745463184313307600,0.5513076171875,-2.565238025775552,-1.3221777008160949,-4.557934522515535
1745463184323279400,0.561279296875,-1.9520194723062216,-2.1478069789528846,-3.1142402737915513
1745463184333252400,0.57125244140625,-1.579922920334339,-2.511441553658247,-2.3753087436378
1745463184343225600,0.5812255859375,-3.8226276125997303,-2.0179484268963335,-4.249842386811971
1745463184353197600,0.591197509765625,-3.1833436206340786,-2.7653829969793557,-6.014276071366667
1745463184363170300,0.60117041015625,-1.8119570677518844,-4.3700007981091735,-5.821688383674621
1745463184373143600,0.6111435546875,-1.2026445087451487,-5.530063398647308,-5.600621620473265
1745463184383115500,0.621115478515625,-1.0207364743690936,-6.585808131098747,-4.451488410228491
1745463184393088500,0.631088623046875,-0.2946878066640347,-6.693662356618046,-3.096895755758881
1745463184403061500,0.6410615234375,0.39802608912885185,-6.200676010334491,-1.8572125060170888
1745463184413033500,0.651033447265625,0.9688578916370868,-5.674645472583174,-0.6413947005093097
1745463184423006500,0.66100634765625,1.9249159229338169,-5.619267868754267,-0.4448936387658119
1745463184432979500,0.6709794921875,2.6405770521372554,-5.630617530286312,-1.3880033411622046
1745463184442952400,0.680952392578125,3.14798063082993,-5.808634256312251,-3.107951987302303
1745463184452924400,0.69092431640625,3.3105630563586947,-6.348809054750204,-4.826650341120362
1745463184462897700,0.700897705078125,3.2470272805154323,-6.790237647753954,-6.12579700269997
1745463184472870400,0.710870361328125,3.0051386785596605,-6.927828255367278,-6.946628232905268
1745463184482842400,0.72084228515625,2.839915383133292,-6.57295157213509,-7.674370260524749
1745463184492815600,0.730815673828125,2.2409680777311323,-5.898085979178547,-7.465503053683042
1745463184502788600,0.74078857421875,1.9499827057816088,-5.1425025894314045,-7.256112699750066
1745463184512760600,0.750760498046875,1.6615438034445047,-4.881570848831534,-6.815860164788365
1745463184522733600,0.760733642578125,1.3918294753216207,-4.617207964739203,-6.58973728724122
1745463184532706800,0.770706787109375,-0.014749240842461585,-4.122177545407414,-7.103394665631652
1745463184542679600,0.780679443359375,-1.8499515751034021,-3.4767075582832097,-7.660089221715927
1745463184552651500,0.790651611328125,-2.468215575394034,-2.6653403219938276,-7.718449640747904
1745463184562624800,0.800624755859375,-2.4502108398869633,-1.7759814990073441,-7.659447416681051
1745463184572597800,0.81059765625,-2.1310820541232824,-1.1943886485099793,-7.591070630547404
1745463184582569500,0.820569580078125,-1.276151424308866,-0.5014829564720392,-7.210807577124237
1745463184592542700,0.830542724609375,-0.36087314716801044,0.3428121514290571,-6.52261605412662
1745463184602515700,0.840515625,0.08159428736418485,1.1489759738564491,-5.720363267663121
1745463184612487700,0.85048779296875,-0.12560279430821536,1.7231301987856626,-4.849820204305648
1745463184622460700,0.860460693359375,-0.428210068859905,1.8588631958335637,-4.353138510635495
1745463184632433700,0.87043359375,-0.41577071239501234,1.5123270554453134,-4.0474727252960205
1745463184642406700,0.88040673828125,-0.2198082875728607,1.2641928370982407,-4.120010138240456
1745463184652378600,0.890378662109375,0.33269436977952715,1.0779945581823587,-4.1327018620312215
1745463184662351600,0.9003515625,0.8414864802211522,0.9173433929771184,-3.521225914445519
1745463184672324600,0.91032470703125,1.3630029015488923,0.973111457428336,-2.4469652820944785
1745463184682296600,0.920296630859375,1.860527914175391,1.119669215351343,-1.603548710593581
1745463184692269600,0.93026953125,1.896923754158616,1.4833675029426812,-1.0637070896327494
1745463184702242600,0.94024267578125,1.384901283493638,1.952711692354083,-0.7407236742675304
1745463184712214800,0.95021484375,1.0270974607683718,2.1016607293277976,-0.6503226878523827
1745463184722187500,0.9601875,0.6611579701215028,2.3468384359568355,-0.4398907159119844
1745463184732160500,0.970160400390625,-0.20223346791565416,2.8352783709824085,-0.21468261512219905
1745463184742132700,0.9801328125,-1.2402929060727357,3.2249557339608668,-0.06693126350045203
1745463184752105700,0.990105712890625,-1.8540671937286852,3.743240187630057,0.06388824254274368
1745463184762078500,1.000078369140625,-2.4343507151931525,4.153361203700304,0.24308044208884239
1745463184772051500,1.010051513671875,-2.7162814046800134,4.6072196546882385,1.0002776967734097
1745463184782023700,1.020023681640625,-2.553959675914049,5.088001768437028,2.0615151814222337
1745463184791996700,1.02999658203125,-2.136517523175478,5.321842088493704,2.8102240092247723
1745463184801969400,1.039969482421875,-1.902843207335472,5.177884868457913,2.214362979400158
1745463184811941600,1.049941650390625,-2.1764485515475274,4.868843176944553,2.9083658190250397
1745463184821914600,1.05991455078125,-2.311916321787983,5.095560805514454,3.4650381632775065
1745463184831887600,1.0698876953125,-2.421736148291826,4.957293906074762,4.183931114009022
1745463184841859600,1.079859619140625,-2.0399217737734316,4.831922144043445,4.955534495186805
1745463184851832600,1.08983251953125,-1.4473252987027168,4.669635486590862,5.53306316498518
1745463184861805600,1.0998056640625,-0.708874318607524,4.111294916865229,5.736043651875853
1745463184871777500,1.109777587890625,0.11323138851299881,3.432226319260895,5.646298499020934
1745463184881750500,1.11975048828125,0.02017199654355645,3.447396415863931,5.803778048452735
1745463184891723500,1.1297236328125,-0.2893019489072263,3.5270270019397136,6.586401420816779
1745463184901696800,1.13969677734375,-0.07200009119734167,3.311846374167502,7.091915824761986
1745463184911668500,1.14966845703125,0.08594239957109093,3.13397431730926,7.361238377088308
1745463184921641500,1.159641357421875,-0.12120397482737898,2.9413538963913917,7.4279147890448565
1745463184931614700,1.16961474609375,-0.26810513936057684,2.728282223597169,7.301547001713514
1745463184941586700,1.179586669921875,-0.3818646434009075,2.676020705962181,7.056405535441637
1745463184951559400,1.189559326171875,-0.3814962484799325,2.565970723964274,6.715359224641323
1745463184961532700,1.19953271484375,-0.35289924567937847,2.4490225068852305,6.416561571505666
1745463184971504600,1.209504638671875,-0.6939898340128362,2.4776032892033455,6.238014099603891
1745463184981477600,1.2194775390625,-0.8147942881286144,2.2693743802651762,5.870681839424371
1745463184991450600,1.22945068359375,-0.9472001865804195,2.071814457118511,5.646813462805747
1745463185001422600,1.239422607421875,-1.0644294125579297,2.304993098396063,5.4826037283360955
1745463185011395600,1.2493955078125,-1.7936732230424879,2.305542548972368,4.869382982909679
1745463185021368800,1.259368896484375,-1.9568669123373925,2.4848741569891573,4.164854073095322
1745463185031341600,1.269341552734375,-0.7672060230016708,2.6388819386571645,3.211713975071907
1745463185041313500,1.2793134765625,-0.740233844923973,2.5399326118662953,2.2084178072601555
1745463185051286800,1.289286865234375,0.47343343148641287,2.0371280514016745,1.687962439292669
1745463185061259800,1.299259765625,0.7305705290436745,2.4320363007709385,0.6126783091127872
1745463185071231500,1.3092314453125,0.6267851603984832,2.2744331249594687,-0.11322715072929858
1745463185081204700,1.319204833984375,0.20510865802578626,2.218387120349705,-0.663324792766571
1745463185091177700,1.329177734375,0.17946107961535454,1.9502286433666944,-1.2777519913733004
1745463185101149400,1.3391494140625,0.053652241341024635,2.232307801413536,-1.8778133954972027
1745463185111122700,1.349122802734375,-0.31572584545239807,1.7826123153239488,-2.9026591318160295
1745463185121095700,1.359095703125,-0.19304419928789138,1.1436895578861237,-3.4104707067877054
1745463185131067400,1.3690673828125,0.7064134814519435,0.20745909360945222,-2.319692654877901
1745463185141040600,1.37904052734375,2.1229776581227777,-0.007500000366568565,-4.020277259856463
1745463185151013600,1.389013671875,1.4948071808457373,-1.03045305480659,-4.237092795354128
1745463185160985600,1.398985595703125,1.5939561218619345,-1.3384621884018182,-4.0860067463517185
1745463185170958600,1.40895849609375,1.881856533408165,-0.7004594684183597,-4.596104386433959
1745463185180931600,1.418931640625,1.4965022943258284,-0.5044084885299206,-4.650911496898532
1745463185190903600,1.428903564453125,1.035084294803813,-0.5838982048302889,-4.258933455762267
1745463185200876800,1.438876708984375,0.6786264798600227,-0.5605564922094345,-4.412290372306108
1745463185210849500,1.448849609375,0.4223591508746147,-0.37110067280232906,-4.828282910758257
1745463185220822500,1.458822509765625,0.07462013750262558,-0.39758360605835913,-5.473206954437494
1745463185230794800,1.468794677734375,-0.26124979357309636,-0.6698194154828786,-5.970088554593921
1745463185240767700,1.478767822265625,-0.2366308640906587,-1.0644862573117018,-6.123875679248571
1745463185250740500,1.488740478515625,-0.20775080656502395,-1.3491256212353706,-6.165549167373776
1745463185260712700,1.498712646484375,-0.012044694591499865,-1.4907283870995043,-6.0610430832386015
1745463185270685700,1.508685791015625,0.032098398517630994,-1.5557845043778418,-5.788204631745815
1745463185280658700,1.51865869140625,-0.06924253611750901,-1.3397913911789654,-5.583921830084919
1745463185290630700,1.528630615234375,-0.5688988616842776,-1.1287304736852646,-5.631064689531922
1745463185300603600,1.538603759765625,-1.1055389101248234,-1.1376157909303903,-5.413426147213578
1745463185310576600,1.54857666015625,-1.527329978787899,-1.0175877280145882,-5.304854713335633
1745463185320548600,1.558548583984375,-1.859047320228815,-0.9565887771725654,-5.123351898759603
1745463185330521600,1.568521484375,-1.9374924959123134,-1.2020020461231469,-4.691148814740777
1745463185340494600,1.57849462890625,-1.7839444407105445,-1.2270032163888216,-4.373856304493546
1745463185350466800,1.588466796875,-2.1551392215371132,-1.3573621191829441,-4.194240326577424
1745463185360439600,1.598439453125,-1.976844847613573,-2.120284181255102,-3.144600925263762
1745463185370412500,1.60841259765625,-1.6650655478298664,-2.413170564520359,-2.4559505525827405
1745463185380384800,1.618384765625,-1.4963491495907306,-2.9002357040613886,-1.9781845717847346
1745463185390357800,1.628357666015625,-1.2377274394989013,-3.3359593634217974,-1.4784598571568726
1745463185400330500,1.63833056640625,-1.2129040369529276,-3.3739737445175644,-0.866875188499689
1745463185410302700,1.648302734375,-0.6396843163948506,-3.509096500712633,-0.6101151806265115
1745463185420275700,1.658275634765625,-0.3085702015440911,-3.5624925753355026,-0.12174188109636307
1745463185430248700,1.668248779296875,-0.5479776176759973,-3.1743963440686462,0.5309872833758592
1745463185440220700,1.678220703125,0.06762216837406158,-2.840243299913406,0.8174912721276283
1745463185450193700,1.688193603515625,0.38898996523618695,-2.780348510921001,1.1975514964550733
1745463185460166700,1.698166748046875,0.6034966392695903,-2.5566747800916434,1.431394154599309
1745463185470139600,1.7081396484375,0.850302823883295,-2.3898867195665834,1.534584479960799
1745463185480111600,1.718111572265625,1.0321136814951897,-2.2493834393769503,1.6885919693678617
1745463185490083800,1.728083740234375,1.204911211568117,-2.0468319915533066,1.8709300657242536
1745463185500057000,1.73805712890625,1.259527767896652,-1.8355974710583687,1.9924112500578164
1745463185510029000,1.748029052734375,1.1849041963279248,-1.5418980178445576,2.060460119411349
1745463185520001800,1.758001708984375,1.0509738647878168,-1.181162671712041,2.2293261552542445
1745463185529975000,1.76797509765625,0.8837176022291183,-0.880441357037425,2.3708307214409112
1745463185539947000,1.777947021484375,0.7375275085747242,-0.6299713892191648,2.410104162687063
1745463185549920000,1.787919921875,0.707687666106224,-0.4860574238032102,2.4659563982903956
1745463185559893000,1.79789306640625,0.6339595820724964,-0.37226036423146724,2.3544950881898403
1745463185569865000,1.807864990234375,0.4796586626768112,-0.235429050552845,2.1928689404726027
1745463185579838000,1.817837890625,0.3970318539271131,-0.0694970223352313,1.9713193621903657
1745463185589811200,1.827811279296875,0.3228466737756505,0.09540975448787212,1.717041818782687
1745463185599783000,1.837782958984375,0.12585231208987532,0.5122916429951787,1.5092559774369
1745463185609756000,1.847755859375,0.30604400753472,1.2612284343346953,1.2670166623473167
1745463185619729200,1.857729248046875,0.18804419904351233,1.9952084795609115,1.1516256115823984
1745463185629700900,1.867700927734375,-0.005562346834875643,2.8814798579260703,1.169733515202999
1745463185639673900,1.877673828125,0.07638305552192032,4.168119796893,1.7012106279224157
1745463185649647000,1.887647216796875,0.32553901813216507,5.5181297997474665,2.6519594468951224
1745463185659619000,1.897619140625,0.6278139189243316,6.657177669307589,3.2775936836928126
1745463185669591800,1.907591796875,0.5862276706911623,6.982177100670337,2.7368057217925785
1745463185679565000,1.91756494140625,-0.2376420504271984,6.454550233638286,2.2219243545651435
1745463185689537000,1.927537109375,-1.1589318429425357,6.0259717698574065,1.8195973533719776
1745463185699510000,1.937510009765625,-2.0110640742100774,5.880639754337072,1.4961831453740595
1745463185709483000,1.94748291015625,-2.4879098714232444,6.638609162437915,0.9781506206393241
1745463185719455000,1.957455078125,-2.7477871345341205,7.595947296673059,0.32815234243571756
1745463185729428000,1.967427978515625,-2.865889782345295,7.417438403216004,1.1842875257343053
1745463185739401200,1.977401123046875,-2.8594015893697735,6.9255345914721484,1.6280553753405809
1745463185749373000,1.987373046875,-2.583180217440426,5.759964041167497,1.9581372245341537
1745463185759346000,1.997345947265625,-2.1711108437813817,4.453208073627948,1.9668658899128435
1745463185769319200,2.007319091796875,-1.9336825822353363,4.19639253617525,2.551286657312512
1745463185779291000,2.017290771484375,-2.0256931958042084,3.7663743949800725,2.499955114004016
1745463185789264000,2.027263916015625,-2.2821945527411995,3.1154373746216297,1.3431985692739485
1745463185799237000,2.037237060546875,-3.2002994316101074,2.09328277708292,-0.3713765671342611
1745463185809209000,2.047208984375,-2.7812989435136317,3.7636663050651546,1.391467802402377
1745463185819181800,2.057181884765625,-2.8330338069260117,3.259848183643818,0.6670470281600952
1745463185829155000,2.067155029296875,-2.3479412826322017,2.5885733086556195,0.5425584787040949
1745463185839128000,2.077128173828125,-1.5028993018865584,2.7396026590347287,0.615080694079399
1745463185849100000,2.08710009765625,-0.9020670595206319,2.319810143777728,0.46018297783434386
1745463185859073000,2.097072998046875,-0.3112253191627562,1.9461375746607779,0.2380038694769144
1745463185869045000,2.107044921875,-0.10395838712453842,2.041301245433092,0.3854851719856262
1745463185879018000,2.11701806640625,-0.01065364209190011,2.060391730350256,0.49365562384724615
1745463185888991200,2.1269912109375,-0.07397241418361664,2.020228646788001,0.6039999126166105
1745463185898964000,2.1369638671875,-0.22708324701189994,1.5943027433425188,0.7022025126934051
1745463185908936000,2.14693603515625,-0.2568297121085226,0.8981605536013841,0.868518279531598
1745463185918909200,2.1569091796875,0.018480244064331054,0.0745189421504736,0.8882569992244244
1745463185928882200,2.166882080078125,-0.05751826911941171,-0.0810889681905508,1.0257932463020085
1745463185938854000,2.17685400390625,-0.5606020849168301,-0.020111060136556624,1.501699278447032
1745463185948827100,2.1868271484375,-0.04524900852441788,-0.9240385067015886,1.6116344018936157
1745463185958800100,2.196800048828125,0.5408627076368778,-1.5298282253444193,1.1524053637832403
1745463185968771800,2.206771728515625,0.4521278278030455,-2.157545113635063,0.6871545811653137
1745463185978745000,2.2167451171875,0.6101708563365041,-3.1090754383742807,0.40435821475982664
1745463185988718000,2.226718017578125,0.7073463053226471,-3.416566101053357,-0.14137304876148699
1745463185998689800,2.236689697265625,0.4677683183968067,-3.719282388937473,-0.3944476461201906
1745463186008663000,2.2466630859375,0.5840554412186145,-4.0769221071422095,-0.334287484189868
1745463186018636000,2.256635986328125,0.9870202288586646,-3.993784974250197,-0.26869769842624663
1745463186028608000,2.26660791015625,1.3075193531274796,-3.9772143631994723,-0.21518764203488824
1745463186038581000,2.2765810546875,1.4448060093581676,-3.9638527773231265,-0.13062661381959914
1745463186048554000,2.286553955078125,1.4831342787086963,-3.83592490106821,-0.24136603938639162
1745463186058526000,2.29652587890625,1.3944085320293902,-3.7835885646313425,-0.5422171179205179
1745463186068499200,2.306499267578125,1.4308055410563945,-3.7647827418744564,-0.8368442073732614
1745463186078472000,2.316471923828125,1.4516285488545895,-3.5826609186172482,-0.8941074788182973
1745463186088444000,2.32644384765625,1.4190671724677084,-3.1749031245470043,-0.8957669364631176
1745463186098417200,2.336417236328125,1.3673545208871363,-2.7919892643541098,-1.0602999115377665
1745463186108390100,2.34639013671875,0.9702139824211596,-2.484022216334939,-1.897115477338433
1745463186118361900,2.35636181640625,0.40743747607469555,-2.219834688809514,-3.1488726112335916
1745463186128335000,2.366335205078125,-0.1729226177573204,-1.72859957010746,-3.9238971990317104
1745463186138308000,2.37630810546875,-0.4731926815330982,-1.2780278857052325,-4.757057164934277
1745463186148279800,2.38627978515625,-0.4338835844516754,-1.026859414228797,-5.839529745313524
1745463186158253000,2.396253173828125,0.10738777705132961,-1.1965578092426061,-6.720037737846374
1745463186168226000,2.40622607421875,0.9571138239599764,-1.5082085142105817,-7.09733668076694
1745463186178198000,2.416197998046875,1.8862234964460134,-1.63736330191195,-7.189079729440808
1745463186188171000,2.4261708984375,2.8166595952302216,-1.576394161686301,-6.591634060773253
1745463186198144000,2.43614404296875,3.618071839216351,-1.2393845590561627,-6.303214009267092
1745463186208116000,2.446115966796875,3.7521705130606886,-0.765167210650444,-6.148212248125672
1745463186218089200,2.456089111328125,3.1883155638277527,-0.14840601613819598,-6.1232894037932155
1745463186228062000,2.46606201171875,2.099955678975582,0.3628057226657867,-6.153599786382913
1745463186238034000,2.476033935546875,1.0277817897707224,0.8578273741692304,-6.403233303377032
1745463186248007200,2.486007080078125,0.11022731132619082,1.190541325432062,-6.79134531673491
1745463186257980200,2.495980224609375,-0.6218132172048092,1.2692471978783606,-6.88927728317678
1745463186267951900,2.505951904296875,-1.1421136138062924,1.06700730022192,-6.583591039571166
1745463186277925000,2.515925048828125,-1.4660919584929941,0.4640647877037525,-5.759107132077217
1745463186287898000,2.525898193359375,-1.493187470689416,-0.2397112579166889,-4.930125913164019
1745463186297869800,2.535869873046875,-1.3115490470349789,-0.9576894318908452,-4.277328944152593
1745463186307843000,2.545843017578125,-1.0238337827973067,-1.60843706715703,-3.809229786366224
1745463186317816000,2.555816162109375,-0.8220311805795878,-2.140334451115131,-3.435208842203021
1745463186327788000,2.5657880859375,-0.7664501631330698,-2.5280109956651926,-3.1072938156545162
1745463186337761000,2.575760986328125,-0.8105203371364623,-2.7133143715679644,-2.9799966385185717
1745463186347734000,2.585734130859375,-0.6398551429171114,-2.4613643943250176,-3.065290072661638
1745463186357706000,2.5957060546875,-0.5072206233412027,-2.030080763238668,-3.034695027911663
1745463186367679200,2.60567919921875,-0.45558154845349486,-1.3822797028183935,-2.8691297871798276
1745463186377652000,2.61565185546875,-0.5582184046506882,-0.8507493986070156,-2.4093793555438516
1745463186387624000,2.6256240234375,-0.6011170506566763,-0.18227496799230575,-2.2900211547136307
1745463186397597200,2.63559716796875,-0.5796125634003431,0.397002006778121,-2.211013084450364
1745463186407570200,2.645570068359375,-0.5679026902537793,0.6555261017143726,-1.9603321042299269
1745463186417542000,2.6555419921875,-0.45502164954841134,0.7671984242171048,-1.752337004047632
1745463186427515100,2.66551513671875,-0.3441934131870046,0.68149173309803,-1.5027163465350866
1745463186437488000,2.675488037109375,-0.39380587761793284,0.5926946747481823,-1.327414140164852
1745463186447459800,2.6854599609375,-0.8291530683487653,0.6113309861570596,-1.3034651093006133
1745463186457433000,2.69543310546875,-1.3869184685349463,0.6418237395763396,-1.1835410912811755
1745463186467405000,2.705405029296875,-2.05145088352561,0.5819722052037716,-0.8638760066837072
1745463186477377800,2.715377685546875,-2.7233810075521467,0.2446124739617109,-0.40423955681622026
1745463186487351300,2.725351318359375,-3.0203438464760777,-0.19562018725574015,0.1798638151973486
1745463186497323500,2.735323486328125,-2.7812065890550612,-0.7148276009887456,0.7066448790550232
1745463186507296500,2.745296630859375,-2.3571055629491804,-1.1619324860632418,0.9570230769366025
1745463186517269200,2.755269287109375,-2.109312705385685,-1.3433289176553487,1.0513269160091876
1745463186527241500,2.765241455078125,-1.830883886539936,-1.3982798205047846,1.2770593329340219
1745463186537214500,2.77521435546875,-1.5895716231673955,-1.3293757956266403,1.6839467739105223
1745463186547187500,2.7851875,-1.3417980548262596,-1.1912994503229857,2.070171366086602
1745463186557159400,2.795159423828125,-1.0556915409594774,-0.9173954154253006,2.4469296262592075
1745463186567132400,2.80513232421875,-0.8396662790566682,-0.687407679143548,2.927906970319152
1745463186577105400,2.81510546875,-0.5451140449384227,-0.5137894803375005,3.332226606634259
1745463186587077400,2.825077392578125,-0.1511988617271185,-0.22947101893126964,3.3933903926491737
1745463186597050400,2.83505029296875,0.15680910282433033,0.20079729763269424,3.253102216514945
1745463186607023400,2.8450234375,0.30910109355039894,0.577838466399908,3.172339996060729
1745463186616995600,2.85499560546875,0.3658154258757829,0.9140741620481013,3.1200650344222782
1745463186626968300,2.86496826171875,0.28122809417545797,1.2202496504753828,3.126698188826442
1745463186636941300,2.87494140625,0.06824587149666622,1.6024620844006539,3.1792221567898986
1745463186646913500,2.88491357421875,-0.23871932426989076,2.133699543145299,3.218325502166152
1745463186656886500,2.894886474609375,-0.524926375901699,2.6904107581034302,3.212778973954916
1745463186666859300,2.904859375,-0.7940203801691532,3.2124846671834586,3.066817428359389
1745463186676831500,2.91483154296875,-1.0427613322377205,3.758189919480681,2.8006483716279265
1745463186686804500,2.924804443359375,-1.2671779903888702,4.355070940002799,2.517002694916725
1745463186696777500,2.934777587890625,-1.564361778587103,5.005629190176725,2.2990502643436193
1745463186706749400,2.94474951171875,-1.9550246454715727,5.484750092715025,2.2302993842005727
1745463186716722400,2.954722412109375,-2.3994039049744607,5.745571943199634,2.3668390214562414
1745463186726695400,2.9646953125,-2.7753590320706367,5.925876487901807,2.5371628548920153
1745463186736667400,2.97466748046875,-3.0714380738973617,6.085125969615579,2.7415023551762103
1745463186746640400,2.984640380859375,-3.256744372409582,6.239455530583858,2.8176690645337104
1745463186756613400,2.99461328125,-3.3223300665199753,6.600905746987461,2.5802976477414368
1745463186766585300,3.00458544921875,-3.371807506394386,6.932713689321279,2.360081363889575
1745463186776558300,3.014558349609375,-3.477525304406881,6.784642019703984,2.4495652354598043
1745463186786531300,3.02453125,-3.5266952857673166,6.20845541216433,2.6605413972795007
1745463186796503600,3.034503662109375,-3.5466157917678354,5.65266569596529,2.707408946916461
1745463186806476300,3.044476318359375,-3.1081191605627536,4.684797692148387,2.8417367533415554
1745463186816449300,3.05444921875,-2.109344269567728,3.4747017714187503,2.724111659914255
1745463186826421500,3.06442138671875,-2.0593091958105565,4.371663470624387,2.127252266702056
1745463186836394500,3.07439453125,-2.1181050836503506,4.771778348726034,1.836760669618845
1745463186846367200,3.0843671875,-1.138724702020362,3.2003546689286826,1.9583926605999469
1745463186856339500,3.09433935546875,-0.2524176678199321,2.5747429362237453,1.6773966216146945
1745463186866312400,3.1043125,0.1712788691382855,2.5114310322642326,1.344536539879441
1745463186876285400,3.114285400390625,0.2539689158499241,2.6170593984276054,1.1958125438332556
1745463186886257400,3.12425732421875,0.18411270481348035,2.5932038910657167,1.1151911931544543
1745463186896230400,3.13423046875,-0.1804769786596298,2.5903257052809,0.9930869084864854
1745463186906202600,3.14420263671875,-0.6493032816767692,2.639046773830056,0.9130980104923248
1745463186916175400,3.15417529296875,-1.269104574537277,2.7524247312068937,0.8530775492936372
1745463186926148400,3.1641484375,-1.8882582171440123,2.754878554099798,0.8292255490630864
1745463186936120600,3.17412060546875,-2.4119909993469713,2.3695061948388814,0.8666612534880638
1745463186946093600,3.184093505859375,-3.037047143995762,1.5969237394958733,0.9548679447293281
1745463186956066300,3.19406640625,-3.370164999884367,0.9896890827417373,0.9016951574683189
1745463186966038500,3.20403857421875,-2.4272470206677914,0.5516483786106109,0.7466630011886358
1745463186976011500,3.214011474609375,-1.5142951406478882,-0.2507704120695591,1.055274776852131
1745463186985984500,3.223984619140625,-1.3139596153080462,-1.1019289759993554,1.41816934684515
1745463186995956500,3.23395654296875,-0.9855506677627562,-1.6163380495399235,1.4613076468259096
1745463187005929500,3.243929443359375,-0.5527671535074711,-2.044777397111058,1.5724954006820917
1745463187015902500,3.25390234375,-0.3719172498822212,-2.5409149009019134,1.4051520443618297
1745463187025874400,3.26387451171875,-0.3103863841205835,-3.1477246102422476,0.5756885948896407
1745463187035847400,3.273847412109375,0.06063830083608627,-3.5857863571614024,-0.007941314393281936
1745463187045820400,3.2838203125,0.7831716538965702,-3.349001215824485,0.8391150749146938
1745463187055792600,3.293792724609375,1.6849381230354308,-3.4775305651038884,0.3257984727859497
1745463187065765400,3.303765380859375,2.609167768394947,-3.865913796618581,0.03032674920260906
1745463187075738400,3.31373828125,2.9944167935371397,-3.7288024969547986,0.5876321306616068
1745463187085710600,3.323710693359375,2.906747862434387,-3.314586320525408,0.61709320294559
1745463187095683600,3.33368359375,3.222995832064748,-3.0763959885656833,0.3500321658104658
1745463187105656300,3.34365625,3.630172611376643,-2.7532138357579705,0.06297054317593574
1745463187115628500,3.353628662109375,3.683925828874111,-2.434515550366044,-0.2403308511197567
1745463187125601500,3.3636015625,2.8428257176220417,-1.9579080919533967,-0.5871645131498575
1745463187135574500,3.373574462890625,2.3486527919024227,-1.4971891075462103,-1.2002958267271517
1745463187145546500,3.38354638671875,2.2724439969688652,-1.08851069149971,-1.6757447627544402
1745463187155519500,3.39351953125,2.1549778934955595,-0.6507318531751632,-1.9217291095912454
1745463187165492500,3.403492431640625,2.0040788914978505,-0.36262978157699105,-2.097636296117306
1745463187175464400,3.41346435546875,1.8525735941700636,-0.39634032799899577,-2.4551240386307236
1745463187185437400,3.4234375,1.6826606796227395,-0.5699509280204773,-3.4428783539175987
1745463187195409700,3.43340966796875,1.8639130265690385,-0.7844219462186097,-4.650979301437736
1745463187205382400,3.44338232421875,2.3919606032311913,-0.6244856512844562,-5.626494312876463
1745463187215355400,3.45335546875,2.5319798992961644,0.04052724069952965,-6.525299594122171
1745463187225327600,3.46332763671875,2.4140618142716583,0.6093734223484992,-7.1572963516891
1745463187235300600,3.473300537109375,2.3910386660806835,0.5990589490830898,-7.574991017884016
1745463187245273300,3.4832734375,1.907287327262759,1.4069488646507262,-7.656261187860369
1745463187255245600,3.49324560546875,1.3184516660302876,1.6170938363432883,-6.925958954364061
1745463187265218600,3.503218505859375,2.0982991439402103,1.29504156434834,-5.500768915101886
1745463187275191600,3.513191650390625,0.6550543925493956,2.6696494173645973,-7.278852354824543
1745463187285163500,3.52316357421875,-1.6583195807009934,2.73413621032238,-9.037941755741834
1745463187295136500,3.533136474609375,-2.026466664394736,1.3746476005047559,-8.36783534001112
1745463187305109500,3.543109619140625,-2.2474936801075933,0.4126198471486568,-8.546153094810247
1745463187315081500,3.55308154296875,-2.4167314718723296,-0.6266846226334571,-8.041909441453218
1745463187325054500,3.563054443359375,-2.550809102928638,-1.5512059444159267,-7.589987511485814
1745463187335027500,3.57302734375,-2.3865502686202524,-2.246602868747711,-6.968969244050979
1745463187344999400,3.58299951171875,-1.9983809721171855,-2.6712521763861177,-6.270667830449343
1745463187354972400,3.592972412109375,-1.619287546995282,-2.7260411666721103,-5.610605838871002
1745463187364945400,3.6029453125,-1.3668296202301977,-2.3912293663471935,-4.987919345963001
1745463187374917600,3.612917724609375,-1.2391437360376119,-1.7025895150601862,-4.516116072961688
1745463187384890600,3.622890625,-1.1244073497891425,-0.9305530031621455,-4.215288959825038
1745463187394862300,3.6328623046875,-0.7663134580761194,-0.3654173664689064,-4.1180829695701595
1745463187404835600,3.642835693359375,-0.7405126618653536,0.019231354692578313,-3.582480885875225
1745463187414808600,3.65280859375,-0.6794482445716857,0.26928631196916103,-3.14837284501791
1745463187424780300,3.6627802734375,-0.575479336053133,0.35445582747161386,-2.4707372028261423
1745463187434753500,3.67275341796875,-0.5816220765918493,0.1933878981590271,-1.6629916641652582
1745463187444726500,3.6827265625,-0.7114911500424146,-0.18190028946101663,-0.9194482563018799
1745463187454698500,3.692698486328125,-0.7885708825916051,-0.7035720474809408,-0.37136312313079833
1745463187464671500,3.70267138671875,-0.8110971871763467,-1.274817691487074,-0.04132745116651058
1745463187474644500,3.71264453125,-0.8572147952288389,-1.7580039437681436,0.15490005433261395
1745463187484616400,3.722616455078125,-0.9159159905225038,-2.029691471660137,0.3418424296140671
1745463187494590000,3.73258984375,-0.9793757785201073,-2.1529583703666924,0.6435498327165842
1745463187504563000,3.74256298828125,-0.9878080913007259,-2.207035412991047,1.0610942767858504
1745463187514535000,3.752534912109375,-0.9287047449469565,-2.2285148388713596,1.4227660269856452
1745463187524508000,3.7625078125,-0.8474486034959554,-2.2061761658132073,1.7109890946149826
1745463187534481200,3.772481201171875,-0.7942781543225049,-2.152363911604881,2.022347538638115
1745463187544452900,3.782452880859375,-0.6831763251841068,-2.013268744647503,2.3133657899439335
1745463187554425900,3.79242578125,-0.5507581517726182,-1.761720333942771,2.6065888578176497
1745463187564398000,3.802398193359375,-0.3980138141691684,-1.5330559552192686,2.992500730782747
1745463187574370800,3.812370849609375,-0.13708147078109903,-1.1720844622433184,3.3016496820628642
1745463187584343800,3.82234375,0.15765728061888365,-0.6857949832499027,3.496096733886003
1745463187594316000,3.83231591796875,0.217713361120224,-0.27371114267408847,3.7445150298714633
1745463187604289000,3.8422890625,0.2458147989561781,0.1380225692898035,3.8604070158958432
1745463187614261800,3.85226171875,0.4666863683789968,0.7863836016803979,3.709724871519208
1745463187624234000,3.86223388671875,0.6284276669085025,1.3356862939476966,3.8346506433486938
1745463187634207000,3.87220703125,0.7311316700577736,2.0030986482888458,3.6845810779124495
1745463187644180000,3.882179931640625,0.4650222345590591,3.020411066493392,2.3844448207736013
1745463187654152000,3.89215185546875,-0.19103812016248703,3.013186375936866,2.671425194865465
1745463187664125000,3.902125,-0.499657494610548,3.466737952932715,2.492235333406925
1745463187674098000,3.912097900390625,-0.5629974556207656,4.220374884787201,2.0588702198714017
1745463187684070000,3.92206982421875,-0.5560287491193041,4.803475801759958,2.0805489677160978
1745463187694043000,3.93204296875,-0.6900269217312336,5.361356352758407,2.017100870156288
1745463187704016000,3.942015869140625,-0.7489315306425094,5.729934229084849,2.021795165452361
1745463187713988000,3.951988037109375,-0.7753589343190193,6.096687228071689,1.9120254617005585
1745463187723960800,3.9619609375,-0.9116483962059021,6.246589035725593,1.841792234045267
1745463187733933000,3.97193310546875,-1.122588317668438,6.016584348309039,1.9568267264574766
1745463187743906000,3.981906005859375,-1.2685726596176623,5.74490792633295,1.9200263973265885
1745463187753879000,3.991879150390625,-1.3691666848756372,5.856673187816143,1.500085998031497
1745463187763851000,4.00185107421875,-1.4270856437504291,6.4188055510401725,0.8598428056448697
1745463187773824000,4.011823974609375,-1.617453755696863,6.830590116408467,0.6659311758726835
1745463187783797000,4.021796875,-1.9043479128099976,6.849273189568519,1.0506219826102257
1745463187793769000,4.03176904296875,-2.155971288447082,6.51133302809,1.855790948781371
1745463187803742000,4.041741943359375,-2.195047891946882,5.90227758564949,2.632714648199081
1745463187813715000,4.05171484375,-2.090232595732063,5.33589399472177,3.0634044050455094
1745463187823687200,4.061687255859375,-1.9543793333053587,4.705702240750194,3.390648400464654
1745463187833660000,4.071659912109375,-1.7515432233214376,4.094143583317101,3.354733621996641
1745463187843633000,4.0816328125,-1.456682471243292,3.6191117036581035,2.9490467889815566
1745463187853605000,4.091605224609375,-1.1953134352046995,3.3620115040451286,2.3502643187522887
1745463187863578000,4.101578125,-1.03351185785532,3.287024652121961,1.7947534194946289
1745463187873549800,4.1115498046875,-0.9766496414918452,3.24639716591835,1.2195529003828762
1745463187883523000,4.121523193359375,-0.9256781636673956,3.2040999929368494,0.7743091330051421
1745463187893496000,4.13149609375,-0.8387095628537237,3.229502145218849,0.5331570286303758
1745463187903467800,4.1414677734375,-0.712543800900504,3.1461703665375707,0.2831085010945797
1745463187913441000,4.15144091796875,-0.6393150446910411,2.9487469292521475,0.09502397004067897
1745463187923414000,4.1614140625,-0.771107122093439,2.657678409063816,0.10163023643791674
1745463187933385700,4.1713857421875,-0.9900852424524724,2.09492353002727,0.36497137626707554
1745463187943359000,4.18135888671875,-1.1136556541502476,1.3051035241574047,0.8593962309211493
1745463187953332000,4.19133203125,-1.1227003997407854,0.5044488205403089,1.322514677685499
1745463187963304000,4.201303955078125,-1.0070084663331509,-0.27112346426844597,1.8037673315554856
1745463187973277000,4.21127685546875,-0.8657388048809022,-0.9274930310696363,2.3625655819207427
1745463187983250000,4.22125,-0.673775971088931,-1.3016332176983356,3.0013480541050432
1745463187993222000,4.231221923828125,-0.33020101859383283,-1.4845476526379584,3.4585032085508107
1745463188003195100,4.241195068359375,0.18577859219908713,-1.60435301271379,3.633525428935885
1745463188013166800,4.251166748046875,0.824087090196088,-1.704509084945917,3.8473850372374057
1745463188023139800,4.261139892578125,1.3118904078185558,-1.9455390242457389,3.963917659252882
1745463188033113000,4.271113037109375,1.2931962287425993,-2.332428217810392,3.5047201853245493
1745463188043084800,4.281084716796875,0.9553436724822968,-2.7040245651751755,2.796127094811201
1745463188053057800,4.291057861328125,0.4817722572972998,-3.068117989563942,2.073843332597613
1745463188063031000,4.301031005859375,0.09596563480496406,-3.1969904531925915,1.2419359971046446
1745463188073003000,4.3110029296875,-0.1119196117946878,-3.098171767044067,0.46985681510865684
1745463188082975700,4.320975830078125,-0.23142863753875717,-3.0098329738557337,-0.15541326455175875
1745463188092949000,4.330948974609375,-0.27382746253013607,-2.821893988752365,-0.7064929033637046
1745463188102921000,4.3409208984375,-0.17727376217152924,-2.654664029678702,-1.0656143845587969
1745463188112894000,4.35089404296875,-0.0865395982792601,-2.585502230647206,-1.2584896570205688
1745463188122866000,4.360865966796875,0.06154312245501205,-2.538543495595455,-1.432329974144697
1745463188132839000,4.3708388671875,0.3148959704995155,-2.4707120683848856,-1.7011527602553367
1745463188142812000,4.38081201171875,0.6601894173502921,-2.3553660258054734,-1.9756869097501037
1745463188152784000,4.390783935546875,0.9119032477498054,-2.027276227211952,-2.3974212067246436
1745463188162756900,4.4007568359375,1.165641861975193,-1.4727327116817235,-2.8657798922300337
1745463188172729900,4.410729736328125,1.5069979693770408,-0.9421160151839256,-3.5331852323085067
1745463188182702000,4.4207021484375,1.8669477180898189,-0.371636094853282,-4.401715786799788
1745463188192674800,4.4306748046875,2.004642370599508,0.23281097700893877,-5.229149776270985
1745463188202647800,4.440647705078125,1.8034312314689158,0.6570096182703972,-5.816807041373848
1745463188212620000,4.4506201171875,1.4962614713072775,0.865347832801938,-6.364919062551856
1745463188222593000,4.460593017578125,1.1686030498683453,0.77908759945333,-6.526722320401668
1745463188232565800,4.470565673828125,0.905242036294937,0.3800643159806728,-6.551534105575084
1745463188242538000,4.4805380859375,0.7663081973791122,-0.22983283798098564,-6.2966650260150425
1745463188252511000,4.490510986328125,0.8989058190107345,-0.6716869629204273,-6.141839790484309
1745463188262483000,4.50048291015625,1.2756126412570477,-0.5610018978893756,-6.373555373471975
1745463188272456000,4.5104560546875,1.5167536397159098,-0.1712193209707737,-6.52133010596931
1745463188282429000,4.520428955078125,1.3536007208228111,-0.033788287833333014,-6.03342617751658
1745463188292401200,4.530401123046875,1.0401344908654688,-0.35843759058415886,-5.348077184468507
1745463188302374000,4.540373779296875,1.0039461561530827,-0.7589975821048021,-5.004012987151742
1745463188312347000,4.550346923828125,1.293379768615961,-0.9711480484008789,-4.873313892617821
1745463188322319000,4.560319091796875,1.6753578092634678,-1.0879980658024548,-4.795357377234101
1745463188332292000,4.5702919921875,1.8776631733715534,-1.3596990376979112,-4.7758477901220315
1745463188342264800,4.580264892578125,1.8875848479270934,-1.7209534392684698,-4.702468081134557
1745463188352237000,4.590237060546875,1.7968518530786037,-1.9410709389209746,-4.639510981962085
1745463188362210000,4.6002099609375,1.6867799515098332,-1.9696803628116846,-4.390132901033759
1745463188372182000,4.61018212890625,1.6406372090160846,-1.6459902604818344,-4.2511698360234496
1745463188382155000,4.620155029296875,1.4600468331098555,-1.0104150599062443,-4.169400484353304
1745463188392128000,4.6301279296875,0.9871721314847469,-0.2326876428902149,-4.023543568176031
1745463188402100000,4.640099853515625,0.3955985697209835,0.6903788039088249,-3.8487534029811616
1745463188412073000,4.650072998046875,-0.1678629597475752,1.502540405446291,-3.59653337662518
1745463188422046000,4.6600458984375,-0.7332055537223815,1.9628718518406152,-3.29524215310812
1745463188432018000,4.670017822265625,-1.2444225532233715,1.9083160857886075,-2.856419358688593
1745463188441991000,4.679990966796875,-1.5499474687874317,1.5588649347364902,-2.4198224236249923
1745463188451964000,4.6899638671875,-1.7160042924284935,0.9755524208396673,-2.0344091478317976
1745463188461935900,4.699935791015625,-1.8532465249955654,0.1961801592260599,-1.563986515533924
1745463188471909000,4.7099091796875,-1.9149650222837924,-0.5797235494941473,-0.9881319164276122
1745463188481880800,4.719880859375,-1.8974328727245329,-1.2278390826910734,-0.29605449190735816
1745463188491853600,4.729853515625,-1.8835843801140784,-1.771716242778301,0.310478738579154
1745463188501826600,4.73982666015625,-1.7965923253595828,-2.0914801115751267,0.8064315334528684
1745463188511798500,4.749798583984375,-1.6403730051219463,-2.23077109336555,1.300595106822252
1745463188521771500,4.759771484375,-1.477813960468769,-2.2533774774491784,1.6699100652515888
1745463188531744500,4.76974462890625,-1.3377742061376572,-2.191964100587368,1.8734271432369947
1745463188541716500,4.779716552734375,-1.2069301501750946,-2.124892551833391,2.063808260795474
1745463188551689700,4.789689697265625,-0.9854431157350539,-1.958420133128762,2.3128543332904576
1745463188561661400,4.799661376953125,-0.6067992244789376,-1.6638994266599416,2.5745523820877074
1745463188571634400,4.809634521484375,-0.12233575533628463,-1.2543366289943456,2.9530753138452766
1745463188581607700,4.819607666015625,0.2664321281144395,-0.9351526059120893,3.277086318692565
1745463188591579400,4.829579345703125,0.49120293346550314,-0.6400304264187813,3.4433635070860382
1745463188601552400,4.839552490234375,0.6534452037870884,-0.28879531455934043,3.543675062140822
1745463188611525600,4.849525634765625,0.6304220555961132,0.05027063607871532,3.375819664645195
1745463188621497300,4.859497314453125,0.5298725635996088,0.5123667540580034,3.253228473243117
1745463188631470300,4.86947021484375,0.6659633245766162,1.1361159077614544,3.246190245169401
1745463188641443600,4.879443603515625,0.743980630236864,1.5988947473078965,3.201105487295985
1745463188651415600,4.88941552734375,0.616487053745985,1.9687275921314953,2.938050178670883
1745463188661388300,4.89938818359375,0.7716729392826557,2.4747949537843463,2.7860569516956804
1745463188671360500,4.909360595703125,1.0047054500877857,2.862675496473908,2.5855355483949185
1745463188681333500,4.91933349609375,1.226571254712343,3.340063583870232,2.2907822022140025
1745463188691306500,4.929306396484375,1.3037842582523822,4.026714014905691,1.9246780225247144
1745463188701278500,4.939278564453125,1.3183224866926668,4.760911502274871,1.5206833803802728
1745463188711251500,4.94925146484375,1.0662637883782387,5.455664283484221,1.2853344093263148
1745463188721224400,4.959224365234375,0.5186311482150108,5.974380698829889,1.2900368879288435
1745463188731196400,4.969196533203125,-0.36528051528148353,6.179713886326551,1.265550096926093
1745463188741169400,4.97916943359375,-1.3336954123914242,6.224409937143325,1.404323192322254
1745463188751141600,4.9891416015625,-2.145564752984047,6.369664795774221,1.451453776809573
1745463188761114600,4.999114501953125,-2.7513024491786955,6.80328008467853,1.3102011395573616
1745463188771087400,5.00908740234375,-3.2239620467483996,7.360055889305472,1.2131892105698585
1745463188781059600,5.0190595703125,-3.6242636795938012,7.613752417954802,1.4267793542802334
1745463188791032600,5.029032470703125,-4.058548246061802,7.24157505583167,1.955874540299177
1745463188801005600,5.039005615234375,-4.341151720243692,6.7012436055272815,2.5223084001094103
1745463188810977500,5.0489775390625,-4.44367569065094,6.168083654287457,2.9618910729855297
1745463188820950500,5.058950439453125,-4.413028038930893,5.511061176535486,3.370462521526217
1745463188830923500,5.068923583984375,-4.088796084809303,4.938460026267171,3.3357465974539515
1745463188840895500,5.0788955078125,-3.449856376236677,4.377699535918236,2.9248388149201867
1745463188850868500,5.088868408203125,-2.8117525339663025,3.796009947048127,2.3227853601962325
1745463188860840400,5.09884033203125,-2.2015362310528754,3.2772415092542766,1.7379104192882775
1745463188870813700,5.108813720703125,-1.684165385097265,2.7715584707438943,1.326062141034007
1745463188880786400,5.118786376953125,-1.2775509158432483,2.3799983627587555,0.9886427885591983
1745463188890758400,5.12875830078125,-1.0088754292488098,2.089009922069311,0.77248542470932
1745463188900731600,5.138731689453125,-0.8642389947772026,1.9421236628443002,0.5532943922519683
1745463188910704600,5.14870458984375,-0.7460345670919865,1.873143065598607,0.40658991933465
1745463188920676400,5.15867626953125,-0.6019932855019345,1.8537948065280914,0.48176411052346224
1745463188930649600,5.168649658203125,-0.5909259115099906,1.7213181809276341,0.6378916608244181
1745463188940621600,5.17862158203125,-0.6209142225384712,1.4619646494299172,0.9302204102069139
1745463188950594300,5.18859423828125,-0.583007941459678,0.9925397959977388,1.2702303636968135
1745463188960567600,5.198567626953125,-0.4402303231298923,0.3874795606732368,1.672317126393318
1745463188970539500,5.20853955078125,-0.19405655466821042,-0.23548107300102708,1.9927835905015467
1745463188980512500,5.218512451171875,0.17151510731326416,-0.8139251040786504,2.2603706973373887
1745463188990485500,5.228485595703125,0.6094377197563647,-1.1567173817634582,2.4162714531451464
1745463189000457500,5.23845751953125,1.0506535467922686,-1.3626602255910634,2.6566221780091523
1745463189010430500,5.248430419921875,1.4999509734749794,-1.5787649824708698,2.8084780423402784
1745463189020402400,5.25840234375,1.7171809349924325,-1.8336375691622495,2.85051218047142
1745463189030375400,5.26837548828125,1.8692063106715677,-2.0052105258762833,2.844735935157537
1745463189040348400,5.278348388671875,1.9866595546633004,-2.1571640053629872,2.7326205450624226
1745463189050320600,5.288320556640625,2.123864962351322,-2.3298785333275793,2.5141589959234
1745463189060293400,5.29829345703125,2.2305273477375507,-2.4279344184100626,2.267189145180583
1745463189070266400,5.308266357421875,2.269803127071261,-2.3049989436149594,2.0236036761790515
1745463189080238600,5.318238525390625,2.2252298258513212,-2.0518951201617717,1.774989565360546
1745463189090211300,5.32821142578125,2.13028418174386,-1.86245099119246,1.429609024748206
1745463189100184300,5.338184326171875,1.944984897494316,-1.7072867329657078,0.9303314693659543
1745463189110156500,5.348156494140625,1.6068383997887372,-1.6477391499757765,0.4618611401796341
1745463189120129500,5.358129638671875,1.3057482518017292,-1.6557669736087322,-0.03274959243535995
1745463189130101500,5.3681015625,0.991785762760043,-1.7538111682534216,-0.6946580886632203
1745463189140074500,5.378074462890625,0.8292156121909617,-1.865226301124692,-1.3216443245917557
1745463189150047500,5.388047607421875,0.8035497674714773,-2.0160960770279166,-1.981874658474326
1745463189160019500,5.39801953125,0.9055945029944181,-2.2238936088114976,-2.632920399904251
1745463189169992400,5.407992431640625,1.152795824405551,-2.265844160312414,-3.3335259987950323
1745463189179964400,5.41796435546875,1.5058973146587609,-2.0683049876928328,-4.05724593129158
1745463189189937700,5.427937744140625,1.9336971952825783,-1.6870014853060245,-4.70876688901782
1745463189199910400,5.437910400390625,2.2237942400902506,-1.1371616174221038,-5.3944356155395505
1745463189209882600,5.447882568359375,2.255558913141489,-0.47731648346483707,-6.08473083281815
1745463189219855600,5.457855712890625,1.9505267495304346,0.1866600512087345,-6.64701166460216
1745463189229828600,5.46782861328125,1.3917933810949326,0.6445657317608594,-7.008090125083923
1745463189239800600,5.477800537109375,0.7759323502928018,0.7629606405168772,-7.296306762972474
1745463189249773600,5.487773681640625,0.3371954805910587,0.7181780804604292,-7.552128613212704
1745463189259746600,5.49774658203125,-0.03897069543991238,0.5839005429178477,-7.851357643502951
1745463189269718500,5.507718505859375,-0.24711247408390044,0.5435276159971952,-8.154723919728397
1745463189279691500,5.51769140625,-0.33479718727767466,0.6824684691756964,-8.418647827881575
1745463189289663500,5.52766357421875,-0.6975526410609484,0.6216489665538072,-8.10292885056138
1745463189299636500,5.537636474609375,-1.2358417718827723,0.2591080323040485,-7.16553869485557
1745463189309609500,5.547609375,-1.7634931888341903,-0.09553484217226504,-6.23805384709239
1745463189319581400,5.55758154296875,-2.0726491543769834,-0.3548497952252626,-5.4147787308663125
1745463189329554400,5.567554443359375,-2.2797978668630123,-0.8027326789349317,-4.940089088773727
1745463189339527700,5.577527587890625,-2.376081481575966,-1.359596746367216,-4.888858083230256
1745463189349499400,5.58749951171875,-2.022483147716522,-1.8328689228773116,-5.081231835910677
1745463189359472600,5.59747265625,-1.1865863772612064,-1.9531167660236357,-5.3599704513579605
1745463189369444600,5.607444580078125,-0.14893150131702423,-1.9113778114467859,-5.279788661140203
1745463189379417300,5.617417236328125,0.9294371508747339,-1.640317475542426,-5.088506210827827
1745463189389390600,5.627390625,1.8671236591786144,-1.2603741555929184,-4.706766070589423
1745463189399362600,5.637362548828125,2.443528877905011,-0.8595224876493215,-4.084544857105612
1745463189409335600,5.64733544921875,2.6415385906457898,-0.40935178526341914,-3.3450048396646976
1745463189419308500,5.65730859375,2.4895471172362567,-0.03087795334458351,-2.6296260345339775
1745463189429280500,5.667280517578125,2.075686330115795,0.15578735856115816,-1.9810475600004196
1745463189439253500,5.67725341796875,1.435622001427412,0.15743863289952278,-1.3826748396158217
1745463189449225500,5.6872255859375,0.6917442470431328,-0.180452428740263,-0.8962462444126605
1745463189459198500,5.697198486328125,0.0134673478057608,-0.7018208198994398,-0.45892391768395896
1745463189469171500,5.70717138671875,-0.5431120574662461,-1.234197511807084,-0.07368716750144957
1745463189479143700,5.717143798828125,-0.8562661162018775,-1.7093483416706323,0.20654840850532052
1745463189489116400,5.727116455078125,-0.9891080679833888,-2.0596780291229484,0.4192348813742399
1745463189499088600,5.737088623046875,-0.9181751676261425,-2.3233026620686053,0.715095312014222
1745463189509061600,5.7470615234375,-0.7318038702309131,-2.4592034168988466,0.9081938718378544
1745463189519034600,5.75703466796875,-0.482381950160861,-2.433655718666315,1.1976023498594761
1745463189529006600,5.767006591796875,-0.27212942644059657,-2.3537053991168735,1.5244512084811925
1745463189538979600,5.7769794921875,-0.13591536787748337,-2.2231009971290825,1.774491552710533
1745463189548952600,5.78695263671875,-0.058518824464082714,-2.018057732489705,2.048328367590904
1745463189558924800,5.7969248046875,-0.008111990218493155,-1.784131487715244,2.44021113165915
1745463189568897800,5.806897705078125,-0.017369643340772015,-1.5350596962571144,2.6548072375416756
1745463189578869500,5.816869384765625,0.10821953343404456,-1.2207219441622494,2.739072497680783
1745463189588842800,5.8268427734375,0.18891394934905692,-0.9266957432121038,2.718570976921916
1745463189598815700,5.836815673828125,0.26382861281884834,-0.6250701731741428,2.645609201085567
1745463189608787500,5.846787353515625,0.24994503062870352,-0.2985094838440418,2.465099489200115
1745463189618760700,5.8567607421875,0.09232636498715728,-0.02259703173339367,2.2982272575229405
1745463189628733700,5.866733642578125,-0.07259648618791252,0.38689036260843274,2.2223528091102835
1745463189638705700,5.87670556640625,-0.27092706491351126,0.836404646912217,2.1961124524384736
1745463189648678700,5.8866787109375,-0.5121288901815191,1.2733826902478933,2.1803023043662306
1745463189658650600,5.896650634765625,-0.698950232899189,1.7744833694040774,2.103868468505144
1745463189668623600,5.90662353515625,-0.8615547971945255,2.311219425565004,1.9391794260859487
1745463189678596600,5.9165966796875,-0.9887152692735195,2.9147429528415203,1.7959534429341553
1745463189688568600,5.926568603515625,-1.1255308739263563,3.5014193902134894,1.6140367868602274
1745463189698541600,5.93654150390625,-1.2589606355331837,4.1062236049503085,1.4197417107284067
1745463189708514800,5.946514892578125,-1.480192818429321,4.651060549980402,1.2504080573737621
1745463189718486500,5.956486572265625,-1.660943353333324,5.1760471316367385,1.138000406333804
1745463189728459500,5.96645947265625,-1.87902613228783,5.55320462026,1.051274309039116
1745463189738431700,5.976431640625,-2.1022879213154315,5.727589711785316,1.057926168143749
1745463189748404700,5.98640478515625,-2.2181401598513126,5.7659828630656005,1.1541250271826982
1745463189758377500,5.99637744140625,-2.356031065585464,5.677285173436999,1.1505325556486845
1745463189768349700,6.006349609375,-2.532531395699084,5.667462283080816,0.9851830034941434
1745463189778322700,6.01632275390625,-2.881420821215212,5.688937032786011,0.4983838214129209
1745463189788294700,6.026294677734375,-3.113582102143764,5.670727422356605,0.4237327773153782
1745463189798267600,6.036267578125,-3.2478993871748445,5.8879234816044566,0.719701929026842
1745463189808240600,6.04624072265625,-3.1458254986226555,5.9512675342679024,1.2741671186238526
1745463189818212900,6.056212890625,-2.8034909015774727,5.830664301812648,1.7921265781223772
1745463189828185600,6.066185546875,-2.2958909235298632,5.626757347726822,2.198327205878496
1745463189838158600,6.07615869140625,-1.7532675628960133,5.219347928702831,2.7728140237629413
1745463189848130800,6.086130859375,-1.1400503246009348,4.587211762665212,3.201099642077088
1745463189858103600,6.096103515625,-0.5250175613164901,3.8584102891206737,3.227833335223794
1745463189868075500,6.106075439453125,0.11623572142813354,3.3215663886711,3.1152590954452752
1745463189878048800,6.116048828125,0.7159702682178467,2.9611542831435798,2.9014713833361863
1745463189888021800,6.126021728515625,1.1670698489516973,2.756590910975635,2.5962474965453146
1745463189897993500,6.135993408203125,1.368655082091689,2.717078400276601,2.300411615824699
1745463189907966700,6.145966796875,1.3594377564132212,2.8442355844199656,2.0879893468499184
1745463189917938700,6.155938720703125,1.1057852130360901,3.0588708532691,1.9674743772000074
1745463189927911400,6.165911376953125,0.6604455110032111,3.2093340941980477,1.8213900820076465
1745463189937884700,6.175884765625,0.17551840640418231,3.234963333234191,1.694125053575635
1745463189947856600,6.185856689453125,-0.29571546921133995,3.0537592093437906,1.7947031506121158
1745463189957829600,6.19582958984375,-0.6113736562550067,2.5823721159279347,2.0460405489146707
1745463189967802600,6.205802734375,-0.7381950325727462,1.848752136185765,2.255601583239436
1745463189977774600,6.215774658203125,-0.5982592866053804,1.0903455057114362,2.5322242294460535
1745463189987747600,6.22574755859375,-0.20111060136556624,0.425322092333436,2.7784008839845655
1745463189997719600,6.235719482421875,0.27568500003032387,-0.19338088389635086,2.9848984390854834
1745463190007692500,6.245692626953125,0.6608681203294545,-0.7076251222640275,3.14369140920341
1745463190017665500,6.25566552734375,0.642864261605218,-1.3482646204918622,3.074247286099195
1745463190027637800,6.2656376953125,1.1807220152724534,-1.4309773904919623,3.2684102602839467
1745463190037610500,6.275610595703125,1.4855027614057064,-1.9225760818094013,3.625526831397414
1745463190047582700,6.285582763671875,1.4884348693348466,-2.247577851259708,3.5106355468481776
1745463190057555700,6.2955556640625,1.3872067839570343,-2.4270021059960127,3.312519451123476
1745463190067528700,6.30552880859375,1.3149965571403504,-2.4434160651803016,3.0812703166037796
1745463190077500700,6.315500732421875,1.3307057290561497,-2.4374299765080214,2.5728695435673
1745463190087473700,6.3254736328125,1.3255997842192648,-2.4842881737947464,1.9007289916604757
1745463190097446700,6.33544677734375,1.388969701976329,-2.4173282687216995,1.2215700854241847
1745463190107418600,6.345418701171875,1.4224201361574231,-2.4073873049438,0.570335543423891
1745463190117391600,6.3553916015625,1.4391086744993924,-2.4192829099208115,-0.11262450866103171
1745463190127363600,6.365363525390625,1.4839837351448832,-2.242358070784807,-0.5812012208312749
1745463190137336800,6.3753369140625,1.5137323921985923,-2.025821352228522,-0.9158405871987342
1745463190147309600,6.3853095703125,1.4951086480103433,-1.8465350446581839,-1.2441811456829308
1745463190157281500,6.395281494140625,1.4856136744342743,-1.7115227631002663,-1.7704723801970481
1745463190167254800,6.4052548828125,1.5141605544827879,-1.5695914959341286,-2.5187679510235785
1745463190177226500,6.4152265625,1.6369531136758624,-1.3262334059476852,-3.340290670624375
1745463190187199500,6.425199462890625,1.9880805273771285,-1.192546235513687,-4.235385991436242
1745463190197172700,6.4351728515625,2.4311245927534997,-1.0241022244751452,-5.195014282435179
1745463190207144700,6.445144775390625,2.8336294347316024,-0.6927127998143434,-5.884897411781549
1745463190217117400,6.455117431640625,3.1267092947423456,-0.2017091517806053,-6.460111959418654
1745463190227089700,6.465089599609375,3.2697774569839235,0.4435398860692978,-7.093348487913608
1745463190237062700,6.475062744140625,3.3235277518719433,1.2436363712817429,-7.664048772996663
1745463190247035600,6.48503564453125,3.1593139257490632,1.9238684597074984,-7.974902190107107
1745463190257007600,6.495007568359375,2.6445909639537333,2.3021809635847807,-8.033944746184348
1745463190266980600,6.504980712890625,1.8706822284430265,2.2320903592705723,-7.765569703841209
1745463190276952800,6.514952880859375,1.2902438086777925,1.8645663759112356,-7.575416549819708
1745463190286925600,6.524925537109375,0.699348803762719,1.8673697428941725,-7.706929298824072
1745463190296898600,6.534898681640625,0.10891221013963222,1.788044861766696,-7.745173397022485
1745463190306870800,6.544870849609375,-0.39425471736397594,0.9924176309227943,-7.171444119507074
1745463190316843800,6.55484375,-1.0880699619948864,-0.1980138043940067,-5.983148527175188
1745463190326816500,6.56481640625,-1.7344646627485751,-1.1831734270125627,-4.8904453524217
1745463190336788700,6.574788818359375,-2.216404714360833,-1.706314088541269,-4.202590221771597
1745463190346761700,6.58476171875,-2.472581953909993,-2.0405448741078374,-3.6473724602416158
1745463190356733400,6.5947333984375,-2.50973884139359,-2.2258020727813244,-3.5168729799330234
1745463190366706700,6.604706787109375,-2.372601238244772,-2.3635697905272246,-3.7693972499325867
1745463190376679700,6.6146796875,-2.0181214453756806,-2.470507485723495,-4.086042109926045
1745463190386651400,6.6246513671875,-1.4578724116802215,-2.4257167423605916,-4.362429778333008
1745463190396624600,6.634624755859375,-0.6931686538230627,-2.1486334929049016,-4.5973193151816725
1745463190406596600,6.6445966796875,0.11420965896062553,-1.6886439918160439,-4.798234393975139
1745463190416569600,6.654569580078125,0.7882137397170066,-1.025501569879055,-4.8927360937073825
1745463190426542600,6.66454248046875,1.2770651781529188,-0.27064357179701326,-4.799167875432968
1745463190436514600,6.6745146484375,1.535129254361987,0.3069242609679699,-4.498415873359144
1745463190446487600,6.684487548828125,1.4179495666146278,0.6266776083707809,-3.9878348336741327
1745463190456459500,6.69445947265625,1.1454694270402193,0.656271367123723,-3.373264134943485
1745463190466432500,6.7044326171875,0.81534315418303,0.3949976812183857,-2.753947995251417
1745463190476405500,6.714405517578125,0.4636509462058544,-0.020025135418772697,-2.4059014503002167
1745463190486377700,6.724377685546875,0.02617547474205494,-0.5804910267353057,-2.1911533687263725
1745463190496350700,6.734350830078125,-0.39482057108581065,-1.1814473338723182,-1.943819360846281
1745463190506323000,6.744322998046875,-0.6402782637000084,-1.7231711153179405,-1.662766623237729
1745463190516296000,6.7542958984375,-0.871940655195713,-2.1251193463265894,-1.2949936335533856
1745463190526269000,6.76426904296875,-1.0868296065449714,-2.4435095886826512,-0.7816261780202388
1745463190536241000,6.774240966796875,-1.2070891401290893,-2.6221827327907086,-0.18278408655822276
1745463190546214000,6.7842138671875,-1.252198447921872,-2.7071675393760204,0.3890016556739807
1745463190556185600,6.794185546875,-1.3622943148881197,-2.6927432927042245,0.9170207368940114
1745463190566158800,6.804158935546875,-1.3977835614204406,-2.584550044488907,1.4159510862737894
1745463190576131800,6.8141318359375,-1.2758446964472532,-2.3567343915492294,1.843806496477127
1745463190586103800,6.824103759765625,-1.1447229925870894,-2.0544488962978122,2.2010288660526274
1745463190596076800,6.834076904296875,-1.0017167896658181,-1.6662527117878199,2.466643796032667
1745463190606048800,6.844048828125,-0.8598726162612438,-1.149044947439432,2.6314883212745186
1745463190616021800,6.854021728515625,-0.737941934594512,-0.602559066158533,2.8218308603882787
1745463190625995000,6.8639951171875,-0.5462263535618782,0.06875088014304638,3.1359991011351345
1745463190635966700,6.873966796875,-0.2985878097772598,0.6850058786988258,3.469080716666579
1745463190645939700,6.883939697265625,-0.10369886853867209,1.2675024000376462,3.6362124760627745
1745463190655912000,6.893911865234375,-0.01824994243979454,1.858167030262947,3.548542960438132
1745463190665884700,6.903884765625,0.04818505284315906,2.349140867680311,3.4066017563998696
1745463190675857700,6.913857666015625,0.041914315710333175,2.7256530441373585,3.2470272805154323
1745463190685830000,6.923829833984375,-0.10372750097811222,3.055051002719998,3.003043167585134
1745463190695803000,6.933802978515625,-0.31106384499073025,3.397196214672923,2.760876917731762
1745463190705774800,6.94377490234375,-0.43796822341680525,3.854236218306422,2.4979893668889996
1745463190715747800,6.953747802734375,-0.47557402371168134,4.338388100749254,2.281278460809588
1745463190725720800,6.963720947265625,-0.448330627477169,4.703912434723973,2.2329706492364405
1745463190735692800,6.97369287109375,-0.6419990961432457,5.587344790270924,1.6998200503468512
1745463190745665800,6.983665771484375,-1.2228607097566127,6.632289896288514,1.721490030363202
1745463190755637800,6.9936376953125,-1.8776608352839945,6.443493417572975,2.4023878892213104
1745463190765611000,7.003611083984375,-2.2226783878028393,6.794908562174439,2.1810148365497586
1745463190775583700,7.013583740234375,-2.2939187466740605,6.520076891037822,2.5195769293189048
1745463190785555700,7.0235556640625,-2.4852350992560384,5.83196778562665,2.7975919066667556
1745463190795529000,7.033529052734375,-2.4840508579075333,5.88189355379045,2.3883517650842667
1745463190805500700,7.043500732421875,-2.163912895101309,6.030685354375839,2.296272031801939
1745463190815474000,7.053473876953125,-1.8797405641674994,5.67021479665935,2.475095982557535
1745463190825447000,7.063447021484375,-1.7332278144299984,5.126408363720774,2.411784663119912
1745463190835419000,7.0734189453125,-1.6691548629701136,4.889477676433325,2.203780795109272
1745463190845392000,7.083391845703125,-1.6160662468612192,4.662534714674949,2.036167389675975
1745463190855363800,7.09336376953125,-1.6198738224506377,4.367673816466331,2.0242022265940904
1745463190865336800,7.1033369140625,-1.5204711989343165,3.842221370863914,1.9536936891287564
1745463190875309800,7.113309814453125,-1.5323030910253523,3.4547155067056416,2.0294728604733945
1745463190885281800,7.12328173828125,-1.6009318060934543,3.2631080622226,2.1941355994075535
1745463190895254800,7.1332548828125,-1.5077613549649715,3.342264016523957,2.204341351601481
1745463190905227000,7.14322705078125,-1.233162323540449,3.501358599936962,1.9846476303189993
1745463190915199700,7.15319970703125,-0.9536229131042957,3.577816401195526,1.587817472976446
1745463190925172700,7.1631728515625,-0.7881295685648918,3.5352164458751676,1.1770324400395153
1745463190935145000,7.17314501953125,-0.6660194386780262,3.4208564917236566,0.878699481806159
1745463190945118000,7.183117919921875,-0.5728583033671603,3.130334499502182,0.7599766562700271
1745463190955090000,7.19308984375,-0.49957566154599187,2.5968612445294856,0.9444768990963697
1745463190965063000,7.20306298828125,-0.3931576063096523,2.0024211874186992,1.2617916211754083
1745463190975036000,7.213035888671875,-0.2669944016396999,1.2938280969053506,1.619304498130083
1745463190985007900,7.2230078125,-0.024481528022454586,0.520278842356801,1.9898335085242986
1745463190994980900,7.23298095703125,0.28008184674978254,-0.20855741024017332,2.297382038870454
1745463191004952800,7.242952880859375,0.6260165141135454,-0.9214420604676008,2.4422242250472306
1745463191014926000,7.252926025390625,1.1310948647290469,-1.5321967080414294,2.452200844660401
1745463191024898800,7.26289892578125,1.511902692553401,-1.9796289253741501,2.7196815685123203
1745463191034870800,7.272870849609375,1.9343834239810704,-2.4826667100727557,2.7161440420359373
1745463191044844000,7.282843994140625,2.3309394405573607,-2.9613778627663847,2.6715380075901747
1745463191054815700,7.292815673828125,2.5699440115094183,-3.2912527912110088,2.801634460055828
1745463191064788700,7.302788818359375,2.803609559521079,-3.6535593321830033,2.794273575899005
1745463191074762000,7.312761962890625,2.981889320397377,-3.722669108766317,2.7246009047359228
1745463191084733700,7.322733642578125,3.1585470330297944,-3.5742882270693777,2.6456109546512363
1745463191094706700,7.332706787109375,3.1783161478608846,-3.33804318395853,2.4901024130314586
1745463191104679000,7.342678955078125,3.1073616201937195,-2.9491479112684726,2.186480700740218
1745463191114652000,7.35265185546875,2.8107272825717926,-2.5063614739149807,1.8668606243282555
1745463191124624600,7.362624755859375,2.436677112314105,-2.117518223673105,1.4704630131840706
1745463191134596900,7.372596923828125,2.0313884848363695,-1.7567220872640608,0.8080740399628877
1745463191144569900,7.38256982421875,1.5370150681085883,-1.426826700553298,0.15882804143130777
1745463191154541800,7.392541748046875,1.033897642302513,-1.1654302650511263,-0.42888183064162727
1745463191164514800,7.402514892578125,0.5595663851935416,-0.696758860334754,-0.982882325336337
1745463191174487800,7.41248779296875,0.23682898047864437,-0.5427057782202959,-1.2096592828780413
1745463191184460000,7.4224599609375,-0.1908691933363676,-0.16022738683521748,-1.8666624714076518
1745463191194432800,7.432432861328125,-0.3838923498362303,-0.012573650369048117,-2.374273555371165
1745463191204404700,7.44240478515625,-0.2836982836812734,0.48199148953855037,-3.2092303415626287
1745463191214378000,7.4523779296875,-0.12899579774737358,1.3054378706783056,-4.385330469188093
1745463191224349700,7.462349609375,-0.0888443315576762,2.0769290236532685,-5.301332384428382
1745463191234322700,7.47232275390625,-0.24472528668642043,2.5666782877117393,-5.938322712498903
1745463191244296000,7.4822958984375,-0.3662766136467457,2.9284757101178167,-6.314881650707125
1745463191254268000,7.492267822265625,-0.44866438947618004,2.7961873005658386,-6.470703496059775
1745463191264240600,7.50224072265625,-0.4678863918185234,2.0947715543359515,-7.119502335345745
1745463191274212900,7.512212890625,-0.47023149363994593,1.229521921211481,-8.212830071738361
1745463191284185900,7.522185791015625,-0.29479353206083175,0.44288755964040755,-9.412547806316613
1745463191294158800,7.532158935546875,0.1287165424145758,-0.5726625250667333,-10.698735617601871
1745463191304130800,7.542130859375,0.6362311802662909,-1.320642454072833,-11.308356877231597
1745463191314103800,7.552103759765625,1.0533033306486903,-1.8809698137015103,-11.1060351465106
1745463191324076000,7.562075927734375,1.078213023238629,-2.259255429571867,-10.556164883488416
1745463191334048800,7.572048828125,0.9736550627857447,-1.8763094206750393,-9.936130950915812
1745463191344021800,7.582021728515625,1.0195604893922805,-1.3855653003603219,-8.92215206104815
1745463191353994000,7.591993896484375,1.071295498935133,-1.2394798361241817,-7.943528562200069
1745463191363967000,7.601967041015625,0.8090854089625179,-1.451017723479867,-7.232467620268464
1745463191373938700,7.611938720703125,0.5960077448189258,-1.8109838388055561,-6.74652826988697
1745463191383912000,7.621911865234375,0.613364099419862,-1.9541431864619254,-6.442648198920488
1745463191393885000,7.631885009765625,0.6605870383657515,-1.529778540983796,-6.157248372018337
1745463191403856600,7.641856689453125,0.7283207042902707,-0.7384341020256281,-5.611733381596207
1745463191413830000,7.651829833984375,0.8345487899124622,0.31448972778618334,-4.840171501472592
1745463191423801900,7.6618017578125,0.8284447739489376,1.4616361481279134,-3.9068268217653035
1745463191433774800,7.67177490234375,0.6626677901625633,2.3423475542783736,-2.872801169168949
1745463191443746800,7.681746826171875,0.4029875109285116,2.738466933003068,-1.9493343248754738
1745463191453719800,7.6917197265625,-0.03864508021473884,2.5646073266565796,-1.129040854808688
1745463191463692800,7.70169287109375,-0.6267997734457254,2.0252461826890706,-0.44116731171905993
1745463191473664800,7.711664794921875,-1.0948533385246992,1.2849994782835243,0.057005497291684144
1745463191483637800,7.7216376953125,-1.408040167018771,0.4564841233164072,0.40956104409992694
1745463191493610000,7.73160986328125,-1.5531249297797678,-0.25686346824765205,0.8192267176181077
1745463191503583000,7.7415830078125,-1.6253122141122818,-0.8164701123863458,1.2323434083729983
1745463191513555700,7.7515556640625,-1.6872037298798561,-1.2633908730655907,1.742888792222738
1745463191523528000,7.76152783203125,-1.6357307322740553,-1.6499264308869839,2.3130969098746776
1745463191533501000,7.7715009765625,-1.447363877147436,-1.8542209229856728,2.8768039750695227
1745463191543472600,7.78147265625,-1.2900018166154623,-1.808904694443941,3.3855426017582415
1745463191553446000,7.79144580078125,-1.192328208848834,-1.7383856355845928,3.813502641379833
1745463191563417900,7.80141796875,-1.1374959639430045,-1.6646458611130714,3.826501823684573
1745463191573390800,7.811390869140625,-1.145738307109475,-1.772046497645974,3.2397283556789156
1745463191583363800,7.82136376953125,-1.024041434198618,-2.199505602008104,2.52631822027266
1745463191593335800,7.831335693359375,-0.7514917365193367,-2.459821841058135,1.9746470453083513
1745463191603308800,7.841308837890625,-0.4702075282424688,-2.338262330791354,1.6572072355449199
1745463191613280800,7.85128076171875,-0.25368600725531576,-1.8330869495421647,1.8161942669302225
1745463191623253800,7.861253662109375,-0.04360414566053077,-0.9120189830839633,2.468891282698512
1745463191633226800,7.871226806640625,0.05848963490221649,0.1660591617286205,3.136190824314952
1745463191643198700,7.88119873046875,0.012242226457595824,1.0752107726827262,3.5352900956332682
1745463191653171700,7.891171630859375,-0.12816935686059294,1.8517410888686776,3.6122394798010586
1745463191663144000,7.90114404296875,-0.4056359796106815,2.605707983329892,3.3456337852180003
1745463191673117000,7.911116943359375,-0.9260638019841164,3.2942277153685686,2.741478389778733
1745463191683089700,7.921089599609375,-1.4947323620438575,3.6369898901760576,2.3034698343515396
1745463191693062000,7.931061767578125,-2.020240775617212,4.01868706805557,1.9473948812454938
1745463191703035000,7.941034912109375,-2.4270073666930196,4.574588135674595,1.7780904539853333
1745463191713006800,7.9510068359375,-2.6946400662362575,5.076837984865904,1.9277023387819527
1745463191722979800,7.960979736328125,-2.7885037603259084,5.504841279107332,1.8904291314423083
1745463191732951800,7.970951904296875,-2.737929757386446,5.845653781151771,1.8496452856332062
1745463191742925000,7.980925048828125,-2.6896470802545545,6.019467210268974,1.9689573092341421
1745463191752897800,7.990897705078125,-2.8063819468438624,6.082415541613101,2.111806275767088
1745463191762869800,8.000869873046875,-2.948955019044876,6.2305895025610925,2.1560826398670674
1745463191772843000,8.010843017578125,-3.1426620661556717,6.15315788783431,1.9633494062244892
1745463191782814700,8.020814697265624,-3.3390392092585564,5.945799916511774,1.3981898041337728
1745463191792787700,8.03078759765625,-3.48892231221199,6.065195526742935,0.9068225834846496
1745463191802760000,8.040760009765625,-3.567948502653837,6.324927828425168,0.9247516234070062
1745463191812733000,8.05073291015625,-3.5656910791158674,6.045891106814146,1.4927344662249087
1745463191822705700,8.06070556640625,-3.119369453373551,5.388108750605583,2.244898987439275
1745463191832678000,8.070677978515626,-2.252965974038839,4.755210368023812,2.7069658793240783
1745463191842651000,8.08065087890625,-1.294398005747795,4.447628519929945,3.0173382349193094
1745463191852622800,8.090622802734375,-0.4333089994341135,4.312183399912715,3.2962948770314453
1745463191862595800,8.100595947265624,0.17518121033906936,4.102128152330219,3.3074025465011596
1745463191872567800,8.11056787109375,0.6270750101905316,3.8622947293385863,3.0982284656673666
1745463191882541000,8.120541015625,1.0258055212616919,3.6012563134938476,2.703367562571168
1745463191892513800,8.130513671875,1.1506184803664683,3.327496655502915,2.111735548618436
1745463191902485800,8.14048583984375,1.050828318837285,3.16444895054996,1.4914187074512242
1745463191912459000,8.150458984375,0.920375381084159,3.1042098781645295,0.8827952266871929
1745463191922430700,8.1604306640625,0.8092109350383281,3.022552170175314,0.4117471559673547
1745463191932403700,8.17040380859375,0.631149785348773,3.088627109107375,0.037840193572640415
1745463191942377000,8.180376953125,0.35923948155157265,2.974393996205926,0.04018237278461456
1745463191952349000,8.190348876953125,0.2181738913040608,2.514582189771533,0.3070160309046507
1745463191962321700,8.20032177734375,0.21539565876238048,1.9059388352632523,0.565011133530736
1745463191972294000,8.2102939453125,0.21275537338666617,1.0855588559567928,0.8179115433663129
1745463191982267000,8.220266845703126,0.31196101302616297,0.28090602261424064,1.0767530336886644
1745463191992238800,8.23023876953125,0.5078268456060439,-0.3134241443812847,1.2735200528919697
1745463192002211800,8.2402119140625,0.6856622967809438,-0.792166861256957,1.4468383919686079
1745463192012184800,8.250184814453124,0.8054781782507896,-1.2643535806179045,1.7188514985531567
1745463192022157000,8.260156982421876,0.8478986853510141,-1.714927018585801,1.992723384746909
1745463192032129800,8.2701298828125,0.873330063727498,-1.9659528667211532,2.283617132890224
1745463192042101800,8.280101806640625,0.8870328642569482,-2.0480437054306266,2.5593326011240483
1745463192052075000,8.290074951171874,0.8417651510320603,-2.1144120743513106,2.7391134142130613
1745463192062046700,8.300046630859375,0.8667068461954593,-2.2040438299596308,2.7726795837283134
1745463192072019700,8.310019775390625,0.8559433139882981,-2.3549931008398532,2.6607792976886033
1745463192081993000,8.319992919921875,0.8523311148405075,-2.4037042325168847,2.4808640445649623
1745463192091964700,8.329964599609376,0.9169517633110285,-2.3886036940187214,2.2725345978617666
1745463192101937700,8.339937744140625,0.9382814054571091,-2.356953002735972,2.0437597445011138
1745463192111910000,8.349909912109375,0.8750776380471885,-2.238143083438277,1.7857126194268464
1745463192121883000,8.3598828125,0.713736737012118,-2.0317478196680545,1.5904069049477576
1745463192131854800,8.369854736328126,0.47461482329070565,-1.8420657902896402,1.4381775311291216
1745463192141827800,8.379827880859375,0.2227759782720357,-1.5729343766212462,1.1919167054384947
1745463192151800800,8.38980078125,-0.005105214184522628,-1.230566461828351,0.6019926644474267
1745463192161772800,8.399772705078124,-0.21754779529497026,-0.9612836569905281,-0.13736556668579578
1745463192171745800,8.409745849609376,-0.3555458146654069,-0.9459528168678283,-0.9190344148039817
1745463192181717800,8.4197177734375,-0.34926410404741765,-1.1826631394028664,-1.6713836449354886
1745463192191691000,8.42969091796875,-0.07324877608418465,-1.245688043114543,-2.4029823479831216
1745463192201662700,8.439662841796874,0.6150871238201856,-0.8449509414613247,-3.2108295934528113
1745463192211635700,8.4496357421875,1.344816525864601,-0.19472177711129188,-4.051647380632162
1745463192221609000,8.45960888671875,1.9166994448609649,0.504431869405508,-4.7484500801086424
1745463192231580700,8.46958056640625,2.284742337527871,1.1002443839132785,-5.0870525048881765
1745463192241553700,8.4795537109375,2.3557775292158127,1.5640993282586335,-5.174405794170498
1745463192251526000,8.48952587890625,2.1843192849226294,1.8419161526858805,-5.215257444518804
1745463192261499000,8.499498779296875,1.7816547223381698,1.9644547371178864,-5.364084900939464
1745463192271470800,8.509470947265624,1.2825805805735289,1.7197528313070534,-5.569533239248394
1745463192281443800,8.51944384765625,0.8151859177947044,1.1626835966914892,-6.133558868873119
1745463192291416800,8.529416748046875,0.6053776307106018,0.7891706020504236,-6.9775196302533145
1745463192301388800,8.539388916015625,0.6041701546169818,0.799358234065771,-7.947684512835741
1745463192311361800,8.54936181640625,0.20738851259127258,0.938515944865346,-8.35511672821343
1745463192321333800,8.559333740234376,-0.706708591940999,0.9359522318571806,-7.883960520943999
1745463192331307000,8.56930712890625,-1.7813392266482113,1.2153694772183894,-7.037665763658285
1745463192341278700,8.57927880859375,-2.500960491654277,1.2958961353510619,-6.139316994008421
1745463192351252000,8.589251953125,-2.739856341534853,0.7882599169462918,-5.63194381045401
1745463192361225000,8.599224853515626,-2.283112690499425,-0.048615270087122915,-5.8152580583661795
1745463192371196700,8.60919677734375,-1.4324708439201115,-0.9651765727758407,-6.183713769617676
1745463192381170000,8.619169921875,-0.7843722618579864,-1.7180238155573606,-6.487692624783516
1745463192391142000,8.629141845703124,-0.18476093958914278,-2.3380910658776757,-6.823798556572198
1745463192401115000,8.639114990234376,0.4308088531814515,-2.6386528060764074,-7.02130031979084
1745463192411086800,8.6490869140625,1.1413158144921063,-2.212025476363301,-6.938764659923315
1745463192421059800,8.659059814453125,1.7838842349559068,-1.472618145391345,-6.292416720920801
1745463192431032800,8.66903271484375,2.1512818154565987,-0.7975929779589176,-5.569867001247406
1745463192441004800,8.6790048828125,2.189070571102947,-0.19309680625796316,-5.0271454409360885
1745463192450977800,8.688977783203125,1.8602526043653487,0.24533728110492228,-4.353888452219963
1745463192460950000,8.698949951171874,1.3119728254050016,0.3192974203288555,-3.608580080510676
1745463192470923000,8.708923095703126,0.5862811544440686,-0.23912615150511263,-3.038960284140706
1745463192480894700,8.718894775390625,-0.060869771504402155,-1.1537982794463635,-2.729658772647381
1745463192490868000,8.728867919921875,-0.364065951859951,-2.0019354497283697,-2.624675718650222
1745463192500839700,8.738839599609374,-0.42432957416474815,-2.662285026076436,-2.556483056911826
1745463192510812000,8.74881201171875,-0.45968905683755873,-3.124754069021344,-2.355875436632335
1745463192520785000,8.758784912109375,-0.5126624490689486,-3.439216908800602,-1.9160376199513673
1745463192530756600,8.768756591796874,-0.4620656497757882,-3.5612393604040142,-1.323275725185871
1745463192540729900,8.778729736328126,-0.3314437851965427,-3.4460429554283616,-0.7097510283768177
1745463192550701800,8.788701904296875,-0.26789047369658947,-3.1302193486899137,-0.11874737545549868
1745463192560674600,8.798674560546875,-0.3195832515329122,-2.7589474109739065,0.4015595239520073
1745463192570647800,8.808647705078124,-0.3822901753365993,-2.3835382273226977,0.8325684297502041
1745463192580619800,8.818619873046876,-0.47810087530817835,-1.998072344559431,1.1427923167854548
1745463192590592800,8.8285927734375,-0.5287865584611893,-1.472504163622856,1.3781576544523237
1745463192600564700,8.838564697265625,-0.549781415694952,-0.899126768285036,1.4556675951123237
1745463192610537700,8.848537841796874,-0.6281646320581435,-0.3499351351767778,1.6031529892742633
1745463192620510000,8.858510009765626,-0.6819657803505659,0.19955226600766182,1.6650322300821543
1745463192630482700,8.868482666015625,-0.7159399461448193,0.9388415235579013,1.5726257490634916
1745463192640455700,8.87845556640625,-0.6930301952004432,2.042422358417511,1.5705267309576272
1745463192650428000,8.888427978515624,-0.6813596311509609,3.634553018417954,1.8019342709094286
1745463192660401000,8.89840087890625,-0.6578256108283996,5.382474544110894,2.645700971022248
1745463192670372600,8.90837255859375,-0.7887491617679595,6.440677775630355,4.201196721586585
1745463192680345900,8.918345947265625,-1.0755834053874016,5.988948153364658,5.969804476955533
1745463192690317800,8.92831787109375,-1.93046771184206,4.679553654015064,6.539983368512988
1745463192700290600,8.93829052734375,-3.0748475900799033,3.50320861171782,5.7505514851778745
1745463192710262800,8.9482626953125,-3.7284833480030297,2.9979625033199784,4.116447477322817
1745463192720235800,8.95823583984375,-3.7975282426565884,2.5353935071319342,2.55267080514729
1745463192730208800,8.968208740234376,-3.576180908948183,2.023011555504799,1.5686860715270041
1745463192740180700,8.9781806640625,-3.104975601840019,2.174904829236865,1.0061106407105922
1745463192750153700,8.98815380859375,-2.4290625456571577,2.9823657057374713,1.503041925227642
1745463192760126000,8.9981259765625,-1.781125291636586,4.17556076054871,3.065750675910711
1745463192770098700,9.0080986328125,-0.9236836288493127,5.639614491212368,4.615651382946968
1745463192780070700,9.018070556640625,-0.2771433821450919,6.6966644610434765,5.873513847979903
1745463192790044000,9.0280439453125,-0.053043023401498794,7.123284191972017,6.388408074688911
1745463192800016600,9.0380166015625,-0.3424042282152921,7.172991933470964,6.215385503688454
1745463192809988900,9.04798876953125,-1.071134609284997,6.928892669728398,5.95447948205173
1745463192819961900,9.0579619140625,-2.0124018986850976,6.278774564537406,6.303762875321507
1745463192829933600,9.06793359375,-2.9468408033698794,5.35663166232407,6.466722317469119
1745463192839906800,9.07790673828125,-3.476326450011134,4.5305555172026155,5.93858866995871
1745463192849878800,9.087878662109375,-3.2311142565906046,3.7774125063449144,4.957523038655519
1745463192859851800,9.097851806640625,-2.179043244215846,3.316861279720068,4.073372890228033
1745463192869824800,9.10782470703125,-0.7137474045366048,3.0016438221812245,3.6609792530506846
1745463192879796700,9.117796630859376,0.6202017634201794,2.659863936409354,3.423074752295017
1745463192889769700,9.127769775390625,1.7130699925422668,2.3625889627963303,2.9877123274624346
1745463192899741700,9.13774169921875,2.4421558359861373,2.3168998092889783,2.403226093611121
1745463192909714700,9.147714599609374,2.8538801955997943,2.3170465242832896,1.968834559637308
1745463192919687000,9.15768701171875,2.362948297628015,2.536989251890778,1.9020868360102177
1745463192929660000,9.167659912109375,0.969176456066966,2.6320330956757068,1.6935183198541401
1745463192939631600,9.177631591796874,1.9897329707592724,2.539065473642945,1.333621178111434
1745463192949604900,9.18760498046875,0.6206826788049191,2.2541309261649847,1.370609723290801
1745463192959577900,9.197577880859376,0.21678915894739328,1.9107815991193056,1.08384796038568
1745463192969549600,9.207549560546875,-0.4305991559535265,1.4618652807086705,1.272068685039878
1745463192979522800,9.217522705078125,-0.8737327993094921,0.8946312104314565,1.3971569539546966
1745463192989494800,9.227494873046876,-1.1265846938282251,0.40504502798020836,1.6273831751674412
1745463192999467800,9.2374677734375,-1.2769517809063196,-0.1520697993427515,1.9355933842927215
1745463193009439700,9.247439697265625,-1.3397218330740928,-0.46679275136291976,2.205682244816422
1745463193019412700,9.257412841796874,-1.377256321698427,-0.704302699843049,2.3990678048878906
1745463193029385700,9.2673857421875,-1.3346212950646876,-1.0215238984197377,2.523638187408447
1745463193039357700,9.277357666015625,-1.2662386637121439,-1.6096569643408059,2.54851193190217
1745463193049330700,9.28733056640625,-1.0128775775622576,-2.0304145252376795,2.415118775978684
1745463193059303000,9.297302978515624,-0.575753476819396,-2.171983973354101,2.1093401779145
1745463193069276000,9.30727587890625,-0.12783493727445602,-2.136675344085693,1.7484546096563338
1745463193079247600,9.31724755859375,0.6098651513881981,-2.1971984941095113,1.5049381142377853
1745463193089220900,9.327220947265625,1.2924598772920668,-2.0863047547638414,1.1509206781834362
1745463193099192800,9.33719287109375,1.7839950018540023,-1.9659037668824195,0.8965034340441227
1745463193109165600,9.34716552734375,2.076489024800807,-1.9349545018672942,0.7498240955680608
1745463193119138800,9.357138916015625,2.2634283313423396,-1.8775322404682635,0.7435895850926637
1745463193129110800,9.36711083984375,2.2906103527784345,-1.481335120332241,0.7637023987948894
1745463193139083800,9.377083740234376,2.095069806630164,-1.1326789190500974,0.7393664144396781
1745463193149055700,9.3870556640625,1.752375144100934,-0.46834407245814796,0.38227351646274327
1745463193159028700,9.39702880859375,1.271850073853135,0.26360709728896614,0.0033908114820718764
1745463193169001000,9.4070009765625,0.5651549259155988,0.711460754904151,-0.3572849134176969
1745463193178973700,9.4169736328125,-0.06926642844974994,1.0065408488214016,-0.9566805471092462
1745463193188945700,9.426945556640625,-0.2832642761781812,0.8086416107177734,-1.5956117801144718
1745463193198919000,9.4369189453125,-0.010752864682674407,0.7394102535814047,-2.761111895531416
1745463193208892000,9.446891845703124,-0.008693886326253413,0.49963294469118114,-3.7183904085338115
1745463193218863600,9.456863525390625,-0.11072685834616422,0.4964379480421543,-4.581366543768346
1745463193228836900,9.4668369140625,0.16098492720425128,1.1655951002240181,-5.300661937820911
1745463193238808800,9.476808837890625,0.41104894457012414,1.9568658894240856,-6.037107496377826
1745463193248781600,9.486781494140626,0.28846242934316396,2.6329817747026683,-6.891863792538643
1745463193258753800,9.49675390625,-0.39830636737495656,2.8808704938560723,-7.1836717329174276
1745463193268726800,9.506726806640625,-1.745363950164616,2.3583850813657046,-6.989347430691122
1745463193278699800,9.51669970703125,-3.087018212606013,1.7748147933155298,-7.405348736971616
1745463193288671700,9.526671630859376,-3.8959406860917802,1.1301333262205122,-8.256230822047591
1745463193298644700,9.536644775390625,-4.181102320323884,0.2016308258473873,-8.897806724342704
1745463193308616700,9.54661669921875,-3.874417421069741,-0.5367267038106918,-9.456372919517754
1745463193318589700,9.556589599609374,-3.326966786409914,-0.9277028744280338,-9.57695744727254
1745463193328561700,9.566561767578126,-2.898226410065591,-1.0462976896703242,-8.701229090231656
1745463193338535000,9.576534912109375,-2.486666008841991,-1.0435907687991857,-7.307666361376643
1745463193348506600,9.586506591796875,-1.890107059881091,-0.9446884960204363,-6.461710626786947
1745463193358479600,9.596479736328124,-1.3094871460691093,-0.9765671508401632,-5.840758994847536
1745463193368451800,9.606451904296875,-0.6553989682033657,-1.0920920571178196,-5.424912586867809
1745463193378424600,9.616424560546875,0.04574059143364429,-1.0686340246409176,-5.520396575635671
1745463193388397600,9.6263974609375,0.6895283245593309,-1.0582505777925253,-5.565910372576117
1745463193398369800,9.636369873046876,1.1817580072566867,-1.1340250729620456,-5.4579579473793505
1745463193408342800,9.6463427734375,1.601202731989324,-0.9912491716653108,-5.351394930714369
1745463193418314800,9.656314697265625,1.8708704444915054,-0.6928752968996763,-5.10914567875266
1745463193428287700,9.666287841796875,1.9491782575309275,-0.11138882938623428,-4.818789690747857
1745463193438260000,9.676260009765626,1.7577508457899094,0.44634266853034493,-4.388204271058738
1745463193448232700,9.686232666015625,1.448693664446473,0.8758370781123638,-3.9194729528486727
1745463193458205700,9.696205810546875,1.04324706992805,1.1240449462175368,-3.7379245455652472
1745463193468178000,9.706177978515624,0.5320291936442255,1.3260142102390526,-3.694898766048252
1745463193478151000,9.71615087890625,-0.09521788517758249,1.2627519906401634,-3.4885827049940823
1745463193488122600,9.72612255859375,-0.8719305721931159,1.121720887184143,-3.25311098434329
1745463193498095900,9.736095947265625,-1.6789098026566207,1.062850180542469,-3.0277655209094285
1745463193508067800,9.74606787109375,-2.5089222643136977,1.0972428640097378,-2.748810340102017
1745463193518040800,9.756040771484376,-3.3563007251828907,0.5880284365028142,-2.1403350356370208
1745463193528012800,9.7660126953125,-4.092749206349254,-0.25804829411804675,-1.5598858022168278
1745463193537985800,9.77598583984375,-4.486017871817946,-1.0377531486868858,-1.2550102904722094
1745463193547958800,9.785958740234374,-4.5320963169038295,-1.6282044284224508,-1.0647545528590678
1745463193557931000,9.795930908203125,-4.287577950966358,-2.150985608989,-0.8014017225921154
1745463193567903700,9.80590380859375,-3.934710853990912,-2.5120389350295067,-0.3749029876947403
1745463193577876000,9.8158759765625,-3.5500767458766695,-2.596124162426591,-0.008277706740796566
1745463193587849000,9.825848876953126,-3.249994898149371,-2.445487610757351,0.519967292189598
1745463193597820700,9.835820556640625,-2.924295794084668,-2.1575983051270247,0.9743979901075362
1745463193607794000,9.8457939453125,-2.3615391614824532,-1.8371376862376927,1.3317378485828637
1745463193617766000,9.855765869140624,-1.7241823381870984,-1.5816881764411925,1.7711305518448353
1745463193627739000,9.86573876953125,-1.1163257501423358,-1.276672963964939,2.1464567333877085
1745463193637710800,9.8757109375,-0.4077577575376257,-0.7878846538931131,2.2157231618374587
1745463193647683800,9.885683837890625,0.40356384951174257,-0.17949965806007384,2.107628113299608
1745463193657656800,9.89565673828125,0.9918447994709014,0.46289282131493087,2.1547879238814116
1745463193667628800,9.90562890625,1.1049532922565937,0.8671452376127242,2.564892573338747
1745463193677601800,9.915601806640625,0.8726496802479028,1.1345043809115887,3.1283342655956745
1745463193687574000,9.925573974609375,0.593657382300496,1.346528590479493,3.4322055687338113
1745463193697547000,9.935547119140624,0.2832996397525072,1.5069477004945278,3.416567854619026
1745463193707518700,9.945518798828125,0.00841124259312637,1.6360440360069275,3.3290777872145174
1745463193717492000,9.955491943359375,-0.1903320725186728,1.971169724586606,3.121613432908058
1745463193727463700,9.965463623046874,-0.37573417782187457,2.8069109391540286,2.978457007861137
1745463193737436700,9.975436767578126,-0.48843343221955,4.035338635388016,3.2312878595918417
1745463193747410000,9.985409912109375,-0.6480581769865006,5.385870031768083,3.7201772919505833
1745463193757382000,9.9953818359375,-0.9538672432541847,6.507837587189674,4.181880611220002
1745463193767354600,10.005354736328124,-1.2799240747153757,7.305075760361552,4.494034589534998
1745463193777326800,10.015326904296876,-1.6335983964204788,7.971028563544154,4.515834917932748
1745463193787299800,10.0252998046875,-1.993638015373796,8.303762973073125,4.534327436956763
1745463193797271800,10.035271728515625,-2.313402030301094,8.545414843663572,4.521927974110842
1745463193807244800,10.045244873046874,-2.695364873379469,8.800781935873626,4.724791556623578
1745463193817216800,10.055216796875,-2.952433216549456,8.830852079966665,4.84480033031702
1745463193827190000,10.06518994140625,-3.1270787125766275,8.97198196762204,4.306454500871896
1745463193837162800,10.075162841796875,-3.31025501332283,8.79736423638463,4.0938089445352555
1745463193847134700,10.085134765625,-3.3892987394213674,8.04880621522963,4.286988752901554
1745463193857108000,10.09510791015625,-3.4444331821441647,7.339428696340322,4.5000925743997096
1745463193867079700,10.10507958984375,-3.3857366630256176,6.4718538351386785,4.378553522399067
1745463193877052700,10.115052734375,-3.127276280975342,5.4708221051275725,3.946348684814572
1745463193887025000,10.12502490234375,-2.658471020746231,4.641830949342251,3.4818016665518283
1745463193896998000,10.134997802734375,-1.990485250431299,4.050696948039532,2.9544255594104527
1745463193906969900,10.144969970703125,-1.2754478060841559,3.5866146246790884,2.3787118300795553
1745463193916942800,10.15494287109375,-0.6664777038395404,3.3047447254687548,1.899379915139079
1745463193926914800,10.164914794921875,-0.1817137539129704,3.0730811649292704,1.5312772551089524
1745463193936887800,10.1748876953125,0.12749825266599654,2.9622698431700467,1.1552578306049108
1745463193946860800,10.18486083984375,0.28061259262561794,2.858727051109075,0.8145867828577756
1745463193956832800,10.194832763671876,0.3830324450712651,2.7180659500092266,0.6378589275985955
1745463193966806000,10.204805908203125,0.43954990311767905,2.675547243231535,0.46894554548263545
1745463193976777700,10.21477783203125,0.40149522654414177,2.566939568996429,0.37878304399847984
1745463193986750700,10.224750732421874,0.2678840439558029,2.288062421861291,0.3451169212400913
1745463193996723000,10.234722900390626,0.11581132200360297,1.8605103785187005,0.5348217469722032
1745463194006695700,10.24469580078125,-0.017048201967217028,1.2220552385926247,0.9098200117349624
1745463194016668000,10.25466796875,-0.109169984292984,0.514058944928646,1.1664257058292626
1745463194026641000,10.264640869140624,-0.045738910933211446,-0.1563444079220295,1.352306589359045
1745463194036614000,10.27461376953125,0.12172781603839247,-0.7510340558797121,1.5461954227775334
1745463194046585900,10.2845859375,0.36994152936246244,-1.208577917382121,1.7510680070251226
1745463194056558800,10.294558837890625,0.5553752901792526,-1.5504174243867397,1.863591977921128
1745463194066530800,10.30453076171875,0.6114087275683879,-1.8988275419533251,2.01161454769969
1745463194076503800,10.31450390625,0.614901830381155,-2.118244199860096,1.9921213272005318
1745463194086475800,10.324475830078125,0.589351209539175,-2.3679572118312118,1.9410101486444473
1745463194096449000,10.334448974609375,0.5005430452734232,-2.627127787977457,1.8697621909886597
1745463194106420700,10.344420654296876,0.5085194309800863,-2.866618681141734,1.6616303126841783
1745463194116393700,10.354393798828125,0.6590268033117056,-3.027460400483012,1.2882488354682922
1745463194126366000,10.364365966796875,0.9023977527797221,-3.0818630217999217,0.9641033905863762
1745463194136339000,10.3743388671875,1.0647200660675764,-3.0053198803454637,0.6030448038488626
1745463194146311000,10.384310791015626,1.1924650600362567,-2.754721317711472,0.33342122274935243
1745463194156284000,10.394283935546875,1.2773527629226444,-2.5668425383627413,0.04552957903146743
1745463194166257000,10.4042568359375,1.253717035791278,-2.350687512600422,-0.31310557995140553
1745463194176228900,10.414228759765624,1.2051396865617483,-2.054395120283961,-0.49920916632115836
1745463194186201900,10.424201904296876,1.0201958646863698,-1.7998112874060868,-0.7041109766632319
1745463194196173800,10.434173828125,0.7583306426286697,-1.7914578850805758,-1.1053221255689858
1745463194206147000,10.44414697265625,0.6087685517905279,-1.7923761689692734,-1.5927005688428877
1745463194216118800,10.454118896484376,0.7857085519630461,-1.6483792014449834,-2.132541313020885
1745463194226091800,10.464091796875,1.10797417444773,-1.2419722374618052,-2.855435316087305
1745463194236064000,10.47406396484375,1.396749542197585,-0.8867249673515558,-3.552336215241253
1745463194246036700,10.48403662109375,1.5750158590704202,-0.5947141978770494,-4.190434212292731
1745463194256009000,10.494009033203126,1.778465717038512,-0.230147310757637,-4.823339901398122
1745463194265982000,10.50398193359375,2.1894529945492742,0.28703999532461166,-5.515586545005441
1745463194275954700,10.51395458984375,2.654477567195892,1.1968278583556413,-6.480799942660331
1745463194285927000,10.523927001953124,3.1079753681778906,2.2787772916436193,-7.1260302758097644
1745463194295900000,10.53389990234375,3.0838644247502085,3.0915035413265226,-7.720632830005884
1745463194305871600,10.54387158203125,2.4386364296883345,3.5171062041670083,-8.263614502558111
1745463194315844900,10.553844970703125,1.4324322654753923,3.0198014101624486,-8.163921371662616
1745463194325816800,10.56381689453125,0.21487669465588405,1.8867443054497242,-7.751528319007158
1745463194335789800,10.573789794921876,-0.9872709156841039,1.0143050530821085,-7.610173974946141
1745463194345761800,10.58376171875,-1.9778677609205244,0.3496165707468986,-7.77936909661293
1745463194355734800,10.59373486328125,-2.809547717398405,-0.15228431887626648,-7.869543873056769
1745463194365707000,10.60370703125,-4.115317011988163,-0.7727502131253481,-7.2785484034419055
1745463194375679700,10.6136796875,-4.8127591784119605,-1.5449480530649422,-6.794289553493261
1745463194385652700,10.62365283203125,-4.195465484458208,-2.201411727890372,-6.472216238710284
1745463194395625000,10.633625,-4.0024902587533,-2.478783146637678,-5.544976890140772
1745463194405598000,10.643597900390626,-3.352167570900917,-1.910435562160611,-5.355903348049521
1745463194415569700,10.653569580078125,-2.44121826287508,-1.3043056517779827,-5.070148716360331
1745463194425543000,10.66354296875,-1.8088614398241043,-0.9754840317785739,-4.538172129686177
1745463194435515000,10.673514892578124,-1.2719710698843,-0.6769985133320092,-4.2502632425725455
1745463194445487600,10.683487548828126,-0.5971808802515268,-0.46455812417864795,-4.049975648027658
1745463194455459800,10.6934599609375,0.10952424109075218,-0.33703824420273304,-4.024223074872792
1745463194465432800,10.703432861328125,0.7620370959311723,-0.16948387548029423,-4.089716706785559
1745463194475404800,10.71340478515625,1.3195686873614787,0.0692857176721096,-4.181454787023365
1745463194485377800,10.723377685546875,1.6743436637848614,0.29799744266867634,-4.119772237831354
1745463194495351800,10.733351806640625,1.7774141621589659,0.44490065302848814,-3.870014217674732
1745463194505323800,10.74332373046875,1.6668015778422354,0.46756022860407825,-3.5049607160821554
1745463194515296800,10.753296875,1.2933961352288723,0.22474282136559484,-3.0520480215117334
1745463194525268700,10.763268798828125,0.8692956936448812,-0.2548486212939024,-2.6150194170325993
1745463194535241700,10.77324169921875,0.492268589935638,-0.8050152369141578,-2.244389576612413
1745463194545213700,10.783213623046874,0.13153554535806178,-1.4532961898058652,-2.0136103976920245
1745463194555186700,10.793186767578124,-0.24323822646643964,-2.099911255311966,-1.9259698159009218
1745463194565159000,10.803158935546875,-0.517649041842483,-2.543821143737435,-1.86358847078979
1745463194575131600,10.813131591796875,-0.6628770489990711,-2.8303993667691945,-1.7195856580466031
1745463194585104000,10.823103759765624,-0.8120505423784256,-2.8194834204792976,-1.6201473786950111
1745463194595076900,10.833076904296876,-0.9957552509129047,-2.6245178977400063,-1.496428644567728
1745463194605048600,10.843048583984375,-1.2642939593851565,-2.203782548674941,-1.2428168715924024
1745463194615021800,10.853021728515625,-1.4655764101862907,-1.5878694954246282,-0.7669324667572974
1745463194624994800,10.862994873046874,-1.6072984185159205,-1.0192921938449144,-0.09120236592590808
1745463194634966800,10.872966796875,-1.892207247030735,-0.5055477216929197,0.6694160953789949
1745463194644939800,10.882939697265625,-2.076203047466278,-0.20660686069428918,1.5581109014987944
1745463194654911700,10.892911865234375,-2.0876140837967396,0.005230886390805244,2.1722645438611505
1745463194664884700,10.902884765625,-2.0007026930630207,0.29637656346857544,2.581442141601443
1745463194674856700,10.912856689453125,-1.9509704016447067,0.6629939533770084,2.868870259460807
1745463194684829700,10.92282958984375,-1.895297029739618,1.0899293261259793,2.8056173922121523
1745463194694802000,10.932802001953124,-1.7492250095069408,1.4268161791592835,2.6670874579221007
1745463194704775000,10.94277490234375,-1.5770973415195941,1.6912141345649956,2.7381559673577547
1745463194714746600,10.95274658203125,-1.3458242416024206,1.8670728057742119,2.937777791470289
1745463194724719900,10.962719970703125,-1.1927414658248423,1.873424805149436,3.114979693982005
1745463194734691800,10.97269189453125,-1.1419698944866656,2.060779268363118,3.2162416816294193
1745463194744664600,10.98266455078125,-0.9624339960694313,2.216281964763999,3.396457379004359
1745463194754637800,10.992637939453125,-0.7749392476022243,2.4879157166421413,3.3253269102483984
1745463194764609800,11.00260986328125,-0.7031891856431961,2.9268361262172458,3.1756022127270698
1745463194774582800,11.012582763671874,-0.7315770757377147,3.3839404272586107,3.018492081129551
1745463194784554800,11.0225546875,-0.8710288010478019,4.010999143901467,2.7744898480206728
1745463194794527700,11.03252783203125,-1.0449264013171196,4.8138200856417415,2.648834592872858
1745463194804500000,11.0425,-1.259686757850647,5.432731736186146,2.735322205236554
1745463194814472700,11.05247265625,-1.5543933422803877,5.8851703835040325,2.95510185123682
1745463194824444700,11.062444580078125,-1.9253309334754942,6.203824829754233,3.2674481372535227
1745463194834418000,11.07241796875,-2.2310943339705465,6.307296310144663,3.7270699740737676
1745463194844389600,11.0823896484375,-2.4211387669205666,6.43919542811811,3.894663505762815
1745463194854362600,11.092362548828126,-2.525922498953342,6.805179780820012,3.6943969540059562
1745463194864334800,11.1023349609375,-2.6067197907209394,6.836673235714435,3.656670742201805
1745463194874307800,11.112307861328125,-2.8123662819504736,6.374794559878111,3.8591555545300245
1745463194884279800,11.12227978515625,-3.00256619772315,5.7955263529360295,4.133091738131642
1745463194894252800,11.132252685546876,-3.047623483067751,5.235566657575965,4.265479516404867
1745463194904225800,11.142225830078125,-2.899603835898638,4.676780097648501,4.2021302030444145
1745463194914197800,11.15219775390625,-2.5759528965353966,4.229644232913851,3.994904333668947
1745463194924170800,11.162170654296874,-1.9913632023096084,3.738333710888028,3.748956227189302
1745463194934142700,11.172142822265625,-1.173866084963083,3.3024025462567805,3.4885897192567583
1745463194944115700,11.18211572265625,-0.3384989644050598,2.9925638591468333,3.182237120696902
1745463194954087700,11.192087646484374,0.391300580266118,2.870317535659671,2.9519343271166085
1745463194964060700,11.202060791015626,0.9046598524928092,3.06545373879075,2.658648130878806
1745463194974032600,11.21203271484375,1.0779437047779559,3.591874152642488,2.0816887854009867
1745463194984005600,11.222005615234375,0.9553297170221805,4.120317596754432,1.413355809083581
1745463194993977900,11.231977783203124,0.6976631156980991,4.301731564003229,0.9505623564898967
1745463195003950800,11.241950927734376,0.44302199967503547,4.020514575743675,0.7437684487909079
1745463195013922800,11.2519228515625,0.2361784441480413,3.4502193643301724,0.7041209135353564
1745463195023895800,11.261895751953125,0.04672788543794304,2.829749378427863,0.7336386844426394
1745463195033867800,11.27186767578125,-0.23634211027715354,2.1863386619210243,0.8686129720777273
1745463195043840800,11.2818408203125,-0.5708990225255489,1.5759575238347052,1.160138003861904
1745463195053813800,11.291813720703125,-0.8587304604887962,0.9666191727995872,1.553693669578433
1745463195063785700,11.30178564453125,-1.0477203428845852,0.5180243414282798,1.9014386012345552
1745463195073758700,11.3117587890625,-1.1013654968976974,0.19168050971925257,2.3582798674255607
1745463195083730700,11.321730712890625,-0.9182885648727417,-0.12144494397640228,2.8874925423443316
1745463195093703700,11.33170361328125,-0.5199006932267919,-0.40040976939499373,3.2786703730136155
1745463195103676000,11.341676025390624,-0.16257194066736846,-0.6821364607423543,3.4623774196356534
1745463195113648600,11.351648681640626,0.05007597202314064,-1.000825978305936,3.504777468469739
1745463195123620900,11.361620849609375,0.21962357865571974,-1.2737936091363429,3.4394781900852918
1745463195133593900,11.37159375,0.4408399794608354,-1.5314268927127122,3.3406986669033762
1745463195143565600,11.381565673828124,0.6784358526587486,-1.6959966926664114,3.2212697389245033
1745463195153538800,11.391538818359376,0.9454378530830144,-1.7581582575470207,3.021977000635862
1745463195163510800,11.4015107421875,1.1876660622566937,-1.782544510784745,2.7637551035165786
1745463195173483800,11.41148388671875,1.3101134612739085,-1.7656015592902898,2.549135032236576
1745463195183455700,11.421455810546876,1.2644430124670267,-1.6783289340287446,2.3344494945049283
1745463195193428700,11.4314287109375,1.099766245007515,-1.423171100655198,2.1666192314505577
1745463195203401700,11.441401611328125,0.8653186067074536,-1.165380580690503,1.9870061761438846
1745463195213373700,11.451373779296874,0.6066642364550382,-0.9377408688396215,1.6836188571304083
1745463195223346700,11.4613466796875,0.44410223265979437,-0.4845645548969507,1.6985650818496942
1745463195233319000,11.47131884765625,0.5545691979607567,0.33073709823191166,1.5322364555299282
1745463195243292000,11.4812919921875,1.0104168134719134,0.31390345233082767,1.2481430350512266
1745463195253263600,11.491263671875,1.6949375390022992,-0.9738643216222524,0.5594786338448524
1745463195263236900,11.50123681640625,2.6410207042515275,-2.3208517617851494,-0.5230430463731288
1745463195273208800,11.511208740234375,3.101219464176893,-3.0705916862010953,-2.250795644262433
1745463195283181600,11.521181640625,2.898935142856836,-2.588023858079314,-4.604981228111684
1745463195293153800,11.53115380859375,2.8779508070170876,-1.1838707616269588,-6.987067210799455
1745463195303126800,11.541126708984375,3.117400199127197,0.7062865671366453,-9.18772724353969
1745463195313098800,11.5510986328125,3.201573689329624,3.047362201783061,-10.598355673485994
1745463195323071700,11.56107177734375,2.8892028533935545,3.8704146151691674,-11.048429345238208
1745463195333043700,11.571043701171876,2.387849076259136,2.542247610810399,-11.082476576268672
1745463195343017000,11.581016845703125,2.1558605215489863,0.840813695526123,-11.215603774732351
1745463195352988700,11.59098876953125,2.313302661579847,-0.43938335091173647,-11.272416964322328
1745463195362961700,11.600961669921874,2.3504887751579284,-0.5464379504859447,-11.451646573269366
1745463195372934000,11.610933837890625,1.7799346205472946,0.10521686275303363,-11.251668775326014
1745463195382906600,11.62090673828125,0.9415093545276672,0.2972714664816856,-10.120106877607107
1745463195392879600,11.630879638671875,0.2731659298814833,0.007936638218164444,-8.655283916136622
1745463195402851800,11.640851806640624,-0.17676526466012,-0.317502353605628,-7.341164726352691
1745463195412824800,11.650824951171876,-0.4949414258740842,-0.6518968053013086,-6.33738398989439
1745463195422796800,11.660796875,-0.6843358704827726,-1.061772322177887,-5.690646759313345
1745463195432769800,11.670769775390625,-0.8861246633708476,-1.4242203174471855,-5.452622431570291
1745463195442741800,11.68074169921875,-1.097694553299993,-1.457612299439311,-5.372841038846969
1745463195452714800,11.69071484375,-1.3420014684438704,-1.297021924510598,-5.385474894970655
1745463195462686700,11.700686767578125,-1.6439001563347875,-1.0094079286903141,-5.316040708738565
1745463195472659700,11.71065966796875,-1.79001411601305,-0.6422942796975374,-5.091020823997259
1745463195482631700,11.720631591796876,-1.8272304785989224,-0.1868652183920145,-4.88623153411895
1745463195492604700,11.730604736328125,-1.7431284461975096,0.25347441033124923,-4.60391652148962
1745463195502576400,11.740576416015625,-1.6177952626109122,0.704908849042654,-4.295331341572106
1745463195512549400,11.75054931640625,-1.5379261916041373,1.0593483099013565,-3.870114463178813
1745463195522521300,11.760521240234375,-1.5425310550510882,1.1462708065509795,-3.323515184651315
1745463195532494300,11.770494384765625,-1.5504326219558715,0.8289490702092647,-2.823846291863918
1745463195542466300,11.78046630859375,-1.5202981804549693,0.22917875798642634,-2.398947393378615
1745463195552439600,11.790439453125,-1.4180898518681526,-0.5568477008193731,-2.1632585228458048
1745463195562411300,11.800411376953125,-1.144029749625921,-1.4350152677059174,-2.0607152632161974
1745463195572384300,11.81038427734375,-0.7969920894563197,-2.3200106347858904,-1.9994202520370483
1745463195582357500,11.820357421875,-0.5983119666406884,-3.1159651978880167,-1.9741496171802282
1745463195592329200,11.8303291015625,-0.3797836358757689,-3.646194940894842,-1.833493192255497
1745463195602302200,11.84030224609375,0.0764531250834465,-3.691353933048248,-1.4018752146482467
1745463195612274400,11.8502744140625,0.8617173673450946,-3.1588428011059757,-0.7234019525885581
1745463195622247400,11.860247314453124,1.8227602013170718,-2.2128812164098024,-0.5322568649202585
1745463195632219400,11.870219482421875,2.6332863106071946,-1.4380559505760668,-1.3210259004324674
1745463195642192400,11.8801923828125,3.089322105634212,-1.5804028128057717,-2.8101865998238322
1745463195652164400,11.890164306640624,1.6742717675924301,-2.7069132723540066,-3.3731805483132598
1745463195662137300,11.900137451171876,-0.38392216045260424,-3.3542204117774963,-3.346256885552406
1745463195672109300,11.910109375,0.18026947338879107,-1.9513363123476504,-3.837030816483497
1745463195682082300,11.920082275390625,0.9914034854441881,-0.021613865914940834,-2.1611077745527028
1745463195692054300,11.93005419921875,0.6248223358929157,0.4915870008796453,1.0422814397662878
1745463195702027300,11.94002734375,0.23246083013070745,0.7492769830793142,3.3678877026021476
1745463195711999500,11.94999951171875,0.4645674399962649,1.4066466668337583,4.156560876524448
1745463195721972200,11.95997216796875,0.3962870999744162,2.2046406268090006,4.473181186598539
1745463195731944400,11.9699443359375,0.050860418665409086,2.864354827862978,4.793961538961529
1745463195741917400,11.97991748046875,-0.28117954232599585,3.1896681474804875,4.87072387612462
1745463195751889200,11.98988916015625,-0.7541881359964608,3.1141128480196,4.826602410325408
1745463195761862400,11.9998623046875,-1.1886562423378229,3.227172240966558,4.6953877674847835
1745463195771835400,12.00983544921875,-1.3913164112329481,3.453649923300743,4.474654181760549
1745463195781807400,12.019807373046875,-1.3850152652621268,3.6848902899920937,4.0875399472683664
1745463195791780400,12.0297802734375,-1.2754425453871487,4.057365758278966,3.6972985206663607
1745463195801752300,12.03975244140625,-1.1545528972059487,4.559420377159118,3.6365854010283947
1745463195811725300,12.049725341796876,-0.9867635506838559,5.274658312514424,3.7927836784780022
1745463195821697300,12.059697265625,-0.7924842566430568,6.107259475490451,4.078986638456583
1745463195831670300,12.069670166015625,-0.5757078475793823,6.676840401154756,4.45799881503582
1745463195841642500,12.079642578125,-0.42142450037300583,6.841511907917261,4.877441786202788
1745463195851615500,12.089615478515626,-0.46636254325211046,6.967033892074227,5.078176539993286
1745463195861587200,12.099587158203125,-0.5795967082440853,7.081283956110477,4.973437231624126
1745463195871560400,12.109560546875,-0.7958429194211959,7.232804889398813,4.544555400982499
1745463195881532400,12.119532470703126,-1.0530039093106984,7.421066530585288,3.801630417278409
1745463195891505200,12.129505126953125,-1.4152899920165538,7.193073182991147,3.43463250361979
1745463195901477400,12.139477294921875,-1.7444260847926139,6.540120146635174,3.5685353626310823
1745463195911450400,12.149450439453124,-1.9798972209215162,5.853795586553216,4.023427832841873
1745463195921422300,12.15942236328125,-2.0579338158041236,5.209592842885852,4.576895243573189
1745463195931395300,12.169395263671875,-1.9586305610090493,4.511158158293366,5.039268424928188
1745463195941367300,12.1793671875,-1.539914735072851,4.0838124511778355,5.100201909318566
1745463195951340500,12.189340576171874,-0.9242255537062883,4.103670997858047,4.732144841995835
1745463195961312300,12.199312255859375,-0.34071079523563386,4.051861900165677,4.268602032339572
1745463195971285200,12.20928515625,0.09662672906219959,3.7347950153678653,3.814147369024157
1745463195981257500,12.219257568359374,0.3569750802835449,3.5077789883732793,3.321945451116562
1745463195991230200,12.229230224609376,0.46207565971314907,3.302211407598853,2.83216053122282
1745463196001203200,12.239203125,0.5066852012902497,3.166714557394385,2.293560434755683
1745463196011175400,12.249175537109375,0.4612281029731035,3.150339761176705,1.8087842829346656
1745463196021148400,12.2591484375,0.4101034804135561,3.3061160138219594,1.4179367071330546
1745463196031120400,12.269120361328126,0.3201514068096876,3.379991397371888,1.2643798841029406
1745463196041093400,12.27909326171875,0.163119016623497,3.358168272620439,1.2506938885778187
1745463196051065300,12.2890654296875,0.0001607458029524423,3.106439829173684,1.4126882850855589
1745463196061038300,12.299038330078124,-0.18989596439003945,2.489796123561263,1.6840467271536588
1745463196071010300,12.30901025390625,-0.3747743928790092,1.6820254504591226,1.9458026436179876
1745463196080983300,12.3189833984375,-0.3944347866386175,0.7681979566484689,2.126563115394115
1745463196090955300,12.328955322265625,-0.2927747395843267,-0.09737433255910873,2.1837901464819907
1745463196100928300,12.33892822265625,-0.05679738923264667,-0.7272673958450555,2.2015958522856236
1745463196110900500,12.348900390625,0.26590835996866224,-1.2280471724838018,2.148746305629611
1745463196120873500,12.35887353515625,0.46768356272280215,-1.6120406446069477,2.1853964126348493
1745463196130845200,12.36884521484375,0.6954138754665851,-2.1259552126288415,2.1392145071744917
1745463196140818400,12.378818359375,1.0308990450084208,-2.592106743478775,1.9606091676056383
1745463196150790400,12.388790283203125,1.2374363475978374,-2.685871068847179,2.007222450220585
1745463196160763100,12.39876318359375,1.3265046241044998,-2.738440044996142,2.0502584588706494
1745463196170735400,12.4087353515625,1.426986859551072,-3.0113083071053026,1.9402742355853317
1745463196180708400,12.418708251953126,1.386553726875782,-3.0395319465488195,1.6250047555983065
1745463196190680300,12.428680419921875,1.3034312070310115,-2.917460979628563,1.2184002232164144
1745463196200653300,12.4386533203125,1.287445117869973,-2.878471031498909,0.7122931140750646
1745463196210625500,12.44862548828125,1.2211170809596776,-2.782353421002626,0.19263035778999327
1745463196220598500,12.4585986328125,1.198861410009861,-2.3698580770164726,-0.1488677884310484
1745463196230570200,12.4685703125,1.1094739845514296,-1.682192623719573,-0.3102577893048525
1745463196240543500,12.47854345703125,0.9928268693108111,-1.3395248491972684,-0.2081535056143999
1745463196250515200,12.48851513671875,0.7656079401552677,-0.9798042330652474,-0.3450397643506527
1745463196260488200,12.49848828125,0.6459405272454023,-0.6104430974066257,-0.7519663682937622
1745463196270460400,12.50846044921875,0.6526163517475128,-0.19475334129333494,-1.2225853999465703
1745463196280433400,12.518433349609374,0.6509422079902142,-0.2713736396372318,-1.4454793785750866
1745463196290405400,12.5284052734375,0.6540782409936189,0.006373626685142517,-1.8311510130435227
1745463196300378400,12.53837841796875,0.7033528517723083,1.0472130509495734,-2.2951298760294914
1745463196310351400,12.548351318359375,0.9793477214694023,2.0286428393900393,-2.636323486346006
1745463196320323300,12.5583232421875,1.0282190852094442,2.9061200859248637,-3.503281092432141
1745463196330296300,12.56829638671875,0.6050416036892682,3.6078871298104525,-4.767648701575398
1745463196340268300,12.578268310546875,-0.20530805305540561,4.0630747835755345,-6.181686063182354
1745463196350241500,12.588241455078125,-1.2114812376081943,4.156119562497735,-7.3601429830670355
1745463196360213200,12.598213134765626,-2.319056695061922,3.6389316718935962,-8.289301317000389
1745463196370186200,12.608186279296875,-3.4083296031057833,2.51751532061398,-8.930679650896787
1745463196380158500,12.618158447265625,-4.1552287511378525,1.4937906972795725,-9.09932707555294
1745463196390131200,12.628131103515624,-4.409595726394653,1.2032429860949516,-9.264721051371097
1745463196400103400,12.638103515625,-4.2692754015564915,1.2398773110091685,-9.066589173555373
1745463196410076400,12.648076416015625,-3.878345408168435,0.993044822910428,-8.257923012918233
1745463196420048100,12.658048095703125,-3.531494795003533,0.43627427898049354,-7.2276610967695705
