time,seconds_elapsed,z,y,x
1744402027860727600,0.0477275390625,1.9135399579167365,-0.788950675689429,0.584583045289293
1744402027870700500,0.057700439453125,1.822829174900055,-0.7199227321706712,0.2539433430172503
1744402027880674600,0.067674560546875,1.5618413201987742,-0.6664329879149794,0.029844153317436575
1744402027890647600,0.0776474609375,1.2594283991754054,-0.6368465356856584,-0.10619023782983422
1744402027900621600,0.08762158203125,0.9283423413753509,-0.648408013337478,-0.2685348360147327
1744402027910594800,0.0975947265625,0.5584206492245197,-0.6147394063610583,-0.3356628641963005
1744402027920568800,0.10756884765625,0.21994331212937832,-0.5888575077380984,-0.4068063385643065
1744402027930541800,0.117541748046875,-0.04134440230131149,-0.6009394290674478,-0.48837242274731396
1744402027940515800,0.127515869140625,-0.1088210247248411,-0.5784694577798247,-0.447369235099107
1744402027950488600,0.137488525390625,-0.12682839058041573,-0.6734289112169295,-0.5428543929107487
1744402027960462600,0.147462646484375,-0.08376549392342567,-0.871700489764288,-0.7333074066616594
1744402027970435600,0.157435546875,-0.19485797071158883,-1.0787765754055232,-0.8963450286120176
1744402027980409600,0.16740966796875,-0.4048556428879499,-1.2312389542624353,-0.9094900491282343
1744402027990382600,0.177382568359375,-0.6299252119898796,-1.2439053974814713,-0.6560868043370545
1744402028000355800,0.18735595703125,-0.8641787890225648,-1.2785336432702838,-0.23281199992224572
1744402028010329600,0.19732958984375,-1.0223661944627762,-1.4192866604372858,0.20313407001718878
1744402028020302800,0.207302734375,-1.1162369028151036,-1.583462784898281,0.5496127811297774
1744402028030276600,0.217276611328125,-1.083443471238017,-1.7196943791180848,0.6691407855689525
1744402028040249600,0.22724951171875,-0.964206266438961,-1.8094569214992224,0.5736209948353469
1744402028050223600,0.2372236328125,-0.7821937487751245,-1.8617489804029463,0.24912381390631197
1744402028060196600,0.247196533203125,-0.6553916616797447,-1.81138715890944,-0.16732874327301978
1744402028070170600,0.257170654296875,-0.5433949295282363,-1.6510640566147863,-0.5850640337392687
1744402028080143600,0.2671435546875,-0.47366146808862686,-1.519300255458802,-0.8946325256057083
1744402028090117600,0.27711767578125,-0.5141875397443771,-1.4041358530566095,-0.9837937410928308
1744402028100090600,0.287090576171875,-0.6668710870712995,-1.2817565508395432,-0.9294669614911079
1744402028110064600,0.297064697265625,-0.7709323500484228,-1.1857354595202951,-0.7048429441995918
1744402028120037600,0.30703759765625,-0.8573007199466228,-1.0580921723604202,-0.233538852892071
1744402028130011600,0.31701171875,-0.9437614443033933,-0.9089397217690944,0.1679877917036414
1744402028139984600,0.326984619140625,-0.929058380690217,-0.8715617388807236,0.4142043398611247
1744402028149957000,0.33695703125,-0.7685837410956621,-0.7482107420872897,0.7318316350206733
1744402028159931100,0.34693115234375,-0.5788099417805671,-0.5465481328621506,0.990918624536693
1744402028169904000,0.356904052734375,-0.4704512738704681,-0.30720695036686957,1.1938453354135155
1744402028179878100,0.366878173828125,-0.5309446132779121,-0.013501012613344937,1.4001749866016209
1744402028189851100,0.37685107421875,-0.8054284938901662,0.3782413383372128,1.6973966225922106
1744402028199825200,0.3868251953125,-1.420744750291109,0.6992749348089099,1.9120364214859902
1744402028209798100,0.396798095703125,-1.9136311433315276,0.8786771238438784,1.9120437280096112
1744402028219772200,0.406772216796875,-1.8627976126730441,0.9023232262387871,1.6587833988204597
1744402028229745200,0.4167451171875,-1.2517857754677533,0.8667672711458057,1.2752778563447296
1744402028239719200,0.42671923828125,-0.4679389987885952,0.7720692451238632,0.8129581587426364
1744402028249692200,0.436692138671875,0.2420727263510227,0.6364164737053215,0.23486221045032143
1744402028259666200,0.446666259765625,0.7491437120884656,0.5139265872532501,-0.3375586148150265
1744402028269639200,0.45663916015625,0.604621843907237,0.3325204745173454,-0.7973058315806091
1744402028279613200,0.46661328125,0.06641220806241036,0.25459179698862133,-1.185487549173832
1744402028289586200,0.476586181640625,-0.5096814604967832,0.37731355596780775,-1.3279380179084836
1744402028299560200,0.486560302734375,-1.1018716928541659,0.7427105372358113,-1.273510116019845
1744402028309533200,0.496533203125,-1.3481956469088792,1.1982898206669836,-1.0468421718105674
1744402028319507200,0.506507080078125,-1.1261772820711136,1.5350374844253063,-0.6560358048021793
1744402028329480200,0.516480224609375,-0.7196095745682716,1.5023714786201714,-0.4977717539291829
1744402028339454200,0.5264541015625,-0.3512824581325054,1.0091250200957058,-0.7658170528613031
1744402028349427200,0.53642724609375,-0.44687399892807006,0.4305919955603778,-1.0529151350487023
1744402028359400200,0.546400146484375,-0.40160394761562346,0.09400017995089292,-1.3352541861407459
1744402028369374000,0.5563740234375,-0.2683756268650293,0.1317738841585815,-1.7709304992280899
1744402028379347200,0.56634716796875,-0.336773455786705,0.26375439680516716,-2.2458275004610417
1744402028389321200,0.5763212890625,-0.3690975162863731,0.35666532021462916,-2.5140116964071986
1744402028399294200,0.586294189453125,-0.21396774485111236,0.44349867727607484,-2.820991194693744
1744402028409268200,0.596268310546875,-0.04220832565426826,0.4621399571210146,-3.227715846323967
1744402028419241200,0.6062412109375,0.11410334904193878,0.41261107932031155,-3.4616122804820537
1744402028429215200,0.61621533203125,0.1312298404097557,0.5192129666909575,-3.222733673997223
1744402028439188200,0.626188232421875,-0.053413610279560084,0.7164239302694797,-2.5873940357431766
1744402028449162200,0.636162353515625,-0.3984469448894262,0.7388869603596627,-1.7798839132733641
1744402028459135000,0.646135009765625,-0.29402853903770443,0.6492055203907191,-1.4292542199611662
1744402028469109000,0.65610888671875,0.33970424854159353,0.6433942037634551,-1.3022539799451827
1744402028479082000,0.66608203125,1.0464134250044823,0.7589505280926823,-0.8929606468707323
1744402028489056000,0.676055908203125,1.656270831477642,0.7693167315453291,-0.7353801943477243
1744402028499029200,0.686029296875,2.012900495857,0.5646691882252692,-0.5439836892016232
1744402028509003300,0.696003173828125,2.435703298845887,0.3446989880889654,-0.17075374928563833
1744402028518976300,0.705976318359375,2.6480443192780014,0.1399823250554502,0.48699119752198455
1744402028528950300,0.7159501953125,2.6348124972611666,-0.060059039643406864,1.0804573680993168
1744402028538923300,0.72592333984375,2.576084413960576,-0.20636004632636903,1.4009325269706547
1744402028548896000,0.73589599609375,2.431842531764507,-0.2724814547486603,1.514971578604728
1744402028558870000,0.7458701171875,2.327182718372345,-0.2712432912558317,1.3553591087974608
1744402028568843000,0.755843017578125,2.3461247347295284,-0.23830723633766174,1.2291773455575108
1744402028578817000,0.765817138671875,2.540856448712945,-0.0960448375210166,1.1844004845894873
1744402028588790300,0.775790283203125,2.9511177500367163,0.10917056881487369,1.2422072152614594
1744402028598764300,0.785764404296875,3.389295816811919,0.20766732953265307,1.3472440452724694
1744402028608737300,0.7957373046875,3.5378228289812803,0.10793291677869855,1.5529571719974278
1744402028618711300,0.805711181640625,3.6994951539278027,-0.14003814689591526,1.4016829069465397
1744402028628684000,0.81568408203125,3.7699423165947197,-0.46125469871908426,1.179632247274369
1744402028638658000,0.825657958984375,3.7535172514945265,-0.6824722685679793,1.0485542364254594
1744402028648631000,0.835631103515625,3.590243336570263,-0.9842132816791533,0.5191846173793078
1744402028658605000,0.84560498046875,3.68840326654911,-1.168105987066403,-0.5010439805328846
1744402028668578000,0.855578125,3.900532690057158,-1.1274996897812932,-1.1374313012089579
1744402028678552000,0.865552001953125,4.111000317832827,-0.9587048194784671,-1.483085325000435
1744402028688525300,0.875525390625,4.444333277776837,-0.7777216448623686,-1.6800620414316654
1744402028698499300,0.885499267578125,4.504460121959448,-0.6341433411415666,-1.5918611954092978
1744402028708472300,0.895472412109375,4.472129631718993,-0.525178670162335,-1.3270797936439513
1744402028718446300,0.9054462890625,4.2324008381456135,-0.45106297505050896,-1.2449448235318064
1744402028728419000,0.915419189453125,3.791182673022151,-0.3254810773998499,-1.4630666193224489
1744402028738393000,0.92539306640625,3.299672829031944,-0.04598017234317958,-1.6138720978178083
1744402028748366000,0.935365966796875,2.856713373199105,0.26332272738963364,-1.6010446188181637
1744402028758339000,0.945339111328125,2.4666432115107773,0.569130843809247,-1.5282101226232945
1744402028768313000,0.95531298828125,2.0899317130893467,0.8267094745889305,-1.5059512368030845
1744402028778286300,0.965286376953125,1.6880886960208414,0.8506921154618263,-1.4060077844083307
1744402028788260000,0.975260009765625,1.2183049461483955,0.9548794890366494,-1.1028045897901058
1744402028798233300,0.9852333984375,0.6821189250856637,1.0934906718693673,-0.45274150272198016
1744402028808207400,0.995207275390625,0.22792262044548986,1.242310383374989,0.24780600930601357
1744402028818180000,1.00518017578125,-0.2964677488833666,1.4352613514214754,0.5308917871121317
1744402028828154000,1.015154052734375,-0.8146943348854779,1.5512483222529292,0.403041360007599
1744402028838127000,1.025127197265625,-1.1200468164920807,1.6080372541844843,0.08555849655373021
1744402028848101000,1.03510107421875,-1.091703934583068,1.4887196776255964,-0.30825894363783296
1744402028858074000,1.04507421875,-0.8139864788770675,0.9540632772829383,-0.8781932127844542
1744402028868048100,1.055048095703125,-0.5277747510701417,0.15014453036859632,-1.385027101830393
1744402028878021000,1.065021240234375,-0.5337047256410121,-0.5921764230277389,-1.495795461230725
1744402028887995100,1.0749951171875,-0.8050158214360476,-1.1059426686201244,-1.2022861968267708
1744402028897968000,1.084968017578125,-1.2437953612357378,-1.4776657841697334,-0.452745594375208
1744402028907942100,1.094942138671875,-1.726065083193779,-1.8067945704221724,0.5681984948625788
1744402028917915100,1.1049150390625,-1.9882605601191519,-2.1309923300132154,1.59973675108999
1744402028927889200,1.11488916015625,-1.9504618676006793,-2.3755837611868977,2.17060508621633
1744402028937862100,1.124862060546875,-1.3997557382762431,-2.4890672247648236,2.0599491011492908
1744402028947835100,1.134835205078125,-0.40220425159633155,-2.37990630056113,1.3726678248643875
1744402028957809200,1.14480908203125,0.6994377241551876,-2.0467529349677265,0.4029780124478042
1744402028967782100,1.1547822265625,1.562684785285592,-1.6811406304486094,-0.570009087948501
1744402028977756200,1.164756103515625,1.9586603716254234,-1.364525288810581,-1.6553639457657932
1744402028987729200,1.174729248046875,1.8317051397949455,-1.0431699861038475,-2.6459935242280364
1744402028997703200,1.184703125,1.3683400247931479,-0.8105855843923986,-3.1163311085909604
1744402029007676200,1.19467626953125,0.764786686900258,-0.47569421602524814,-2.793973131647706
1744402029017650200,1.204650146484375,-0.022373159849643706,0.19985685671111567,-1.8869658392459152
1744402029027623200,1.214623046875,-0.8895955543518066,0.9140330993853509,-0.9305106253251433
1744402029037597200,1.22459716796875,-1.9264415250658988,1.1651491100221871,-0.04069382943809032
1744402029047570200,1.234570068359375,-3.168630620148778,1.1952197655718773,0.5162117390483617
1744402029057544200,1.244544189453125,-4.9333653334766625,0.9189480516947806,0.38474429049044845
1744402029067517000,1.254516845703125,-6.662319708371162,0.4396651635278016,0.04577584541011601
1744402029077491000,1.264490966796875,-7.720705895242094,0.6145267865236849,-0.09159501850530505
1744402029087464200,1.274464111328125,-8.195716439852118,1.584513609125465,0.11104038127474486
1744402029097438200,1.284438232421875,-7.9093737791419025,2.0108631448104974,0.4412785170085728
1744402029107411200,1.2944111328125,-6.932402139154076,1.8358584600821137,0.666628656617552
1744402029117385200,1.30438525390625,-5.792112745100259,1.646523928967118,0.991245080012083
1744402029127358200,1.314358154296875,-4.647676752761006,1.5196930541686713,1.1327440932407975
1744402029137332200,1.324332275390625,-3.516642093786597,1.3769883184120058,0.5845512619115412
1744402029147305200,1.33430517578125,-2.42396668382287,1.064060798441246,-0.5450047758776694
1744402029157279000,1.344279052734375,-1.3482768954515456,0.37204387193657457,-1.923207073189318
1744402029167252000,1.354251953125,-0.2209977896183729,-0.3797773157328367,-2.9358114598333835
1744402029177225200,1.36422509765625,0.9287328019976615,-0.9395586588513105,-3.147036043456197
1744402029187199200,1.37419921875,2.0710563322275877,-1.506131269545108,-2.8679122280836102
1744402029197172200,1.384172119140625,2.868870259460807,-2.1096862148731947,-2.515935650207102
1744402029207146200,1.394146240234375,3.213569832071662,-2.4266537309497593,-2.0401715107508003
1744402029217119000,1.404118896484375,3.307628756472468,-2.2435699307926,-1.1082063757684082
1744402029227093000,1.414093017578125,3.030860564315319,-1.471497032406926,0.3237698165025562
1744402029237066000,1.42406591796875,2.523559861475229,-0.7063480150002985,1.7744678795740008
1744402029247040000,1.4340400390625,2.1343103685200213,-0.2203437096238136,2.825167603595555
1744402029257013000,1.444012939453125,2.154462929710746,0.24868666459806263,3.176448015901446
1744402029266987000,1.453987060546875,2.5559324372917414,0.5876359300538897,2.724966230916977
1744402029276960300,1.463960205078125,3.022479104939103,0.7337946787219494,1.8715414756208657
1744402029286934000,1.47393408203125,3.4511925932765006,0.8357867342095822,1.1094815833359957
1744402029296907300,1.4839072265625,3.9905017147958275,0.8446274816606193,0.6531701131727546
1744402029306881300,1.49388134765625,4.504142726573348,0.6526140136599541,0.3210898567035794
1744402029316854000,1.50385400390625,4.965760705646872,0.10959507783725857,0.11085011939965188
1744402029326828000,1.513828125,5.190372009587287,-0.32749460917934775,-0.4306595078386366
1744402029336801000,1.523801025390625,5.135504693368077,-0.8763321681529282,-0.8532700031258166
1744402029346775000,1.533775146484375,4.620227020299434,-1.1812589716933668,-1.0099432046107948
1744402029356748000,1.543748046875,3.3786826528608795,-0.9066577483117579,-0.6112125474091619
1744402029366722000,1.55372216796875,1.3447867152482271,-0.27801468508690597,0.5908051346745342
1744402029376695000,1.563695068359375,-1.1710814226806163,0.1907321229532361,1.4649563785918056
1744402029386668000,1.57366796875,-4.080429823002219,0.27713234929442404,1.288850746884197
1744402029396642000,1.58364208984375,-6.658055036664009,0.11762012499123811,0.6114578274071216
1744402029406615000,1.593614990234375,-8.259372627204655,0.0849349760942161,-0.025623978339135645
1744402029416589000,1.603589111328125,-8.26374777354896,0.48906011275053024,-0.30868615607395766
1744402029426562000,1.61356201171875,-6.702239046305418,1.349549253474921,-0.34760683835968376
1744402029436536000,1.6235361328125,-4.326911013445258,1.984786162006855,-0.5311010459486395
1744402029446509000,1.633509033203125,-2.1095687259733675,2.1231234963342547,-0.6555576658964156
1744402029456483000,1.643483154296875,-1.0023778839230537,2.232188997339457,-0.5371030628424137
1744402029466456000,1.6534560546875,-1.0376882667571306,2.2136707593522966,-0.40763920919187363
1744402029476430000,1.66343017578125,-1.8285475525468586,1.8419250666446982,-0.30611009504087267
1744402029486403000,1.673403076171875,-2.484331428414583,1.448930395811796,-0.1375925073094666
1744402029496377000,1.683377197265625,-2.2780086453586814,1.2405315371342003,-0.037153891808912154
1744402029506350000,1.69335009765625,-1.4501993928343058,0.9201508516132831,0.04085457295775413
1744402029516324000,1.703323974609375,-0.24217092602849005,0.6485510020047426,0.4013617363575846
1744402029526297000,1.713297119140625,0.6834364374250174,0.331280995850265,1.0363543147396295
1744402029536271000,1.72327099609375,1.334197516694665,0.024212942497432232,1.7613691824175417
1744402029546244000,1.733244140625,1.8988409859567879,-0.2550532039552927,2.527123983697593
1744402029556218000,1.743218017578125,2.1644220136672256,-0.5466654756315052,2.8236776572987434
1744402029566190800,1.75319091796875,2.026640267395973,-0.9320895650796591,2.48812322191298
1744402029576164900,1.763164794921875,1.6127560993999241,-1.152996899935603,1.9751134937763213
1744402029586138000,1.77313818359375,1.2914520154237747,-1.0675744325853884,1.454327870941162
1744402029596112100,1.783112060546875,1.3100094163775444,-0.7929610803745687,0.971089523146674
1744402029606085000,1.793085205078125,1.7756974213689565,-0.3674690383017063,0.5701634747926145
1744402029616059100,1.80305908203125,2.481336338251829,-0.02634790869951248,0.48664011906199156
1744402029626032000,1.8130322265625,3.044830637478828,-0.08530980075597762,0.2846159647817723
1744402029636005000,1.823005126953125,2.9253280597418545,-0.2596951845422387,-0.11260154791055246
1744402029645979100,1.832979248046875,2.0108488240242,-0.3034456250719726,-0.4659442813074216
1744402029655952000,1.842951904296875,0.5626029033452272,-0.3300233970046043,-0.5323714677432552
1744402029665926000,1.85292578125,-1.19306295286417,-0.4187247398950159,-0.2847445778638124
1744402029675899100,1.862899169921875,-2.6919974427729843,-0.7181441781908273,0.027563969958387315
1744402029685873200,1.872873046875,-3.6694799548923966,-1.0306712276019154,0.2999821867451072
1744402029695846100,1.88284619140625,-3.9816637438237663,-0.8020091869659721,0.4950060155428946
1744402029705820200,1.892820068359375,-3.530094865077734,0.09276040902286767,0.6787595316551626
1744402029715793200,1.902793212890625,-2.6047616423904896,1.0276656160451472,0.6342603916499764
1744402029725767200,1.91276708984375,-1.5028186378657817,1.736245993207395,0.5459993033403531
1744402029735740200,1.922740234375,-0.6363982073962688,2.2234205844722688,0.7901287795580924
1744402029745714200,1.932714111328125,-0.3444564115047455,2.3245253357313573,0.8545762634187937
1744402029755687000,1.94268701171875,-0.6740647979676723,2.005753108320385,0.6102300757104531
1744402029765661000,1.952660888671875,-1.3310428520560265,1.4056592632316052,0.17416772244758902
1744402029775634200,1.96263427734375,-1.8597569298028944,0.6660841744773089,-0.46070174101144074
1744402029785608000,1.97260791015625,-1.9220593644589186,0.11462459643706678,-1.0339903620872646
1744402029795581200,1.982581298828125,-1.5928987217634916,-0.27860549058690665,-1.5525728488549588
1744402029805555200,1.99255517578125,-1.033347607204318,-0.587786444440484,-1.888504154729098
1744402029815528200,2.002528076171875,-0.25317279703617096,-0.7257672204151749,-1.7884256777778267
1744402029825502200,2.012502197265625,0.5001157597720622,-0.6280779766879976,-1.3582279422320425
1744402029835475000,2.022474853515625,0.8310545180559158,-0.6627693508408963,-1.0336937172282488
1744402029845449000,2.032448974609375,0.7472767491728067,-0.8131656640134751,-0.7143170211181045
1744402029855422000,2.042421875,0.31595161703228947,-0.9191424052231013,-0.324052213640511
1744402029865396000,2.05239599609375,-0.3086784111589193,-0.9111351859867572,0.16041372145386412
1744402029875369000,2.062368896484375,-0.9712631992131471,-0.8422314533695578,0.4910588853523135
1744402029885343000,2.072343017578125,-1.3446966988772153,-0.7007089131347835,0.6427027874331921
1744402029895316200,2.082316162109375,-1.2835054403334856,-0.24771175515130162,0.8861117308240384
1744402029905289200,2.092289306640625,-1.098958435755968,0.13841361443400382,1.1029736627466975
1744402029915263200,2.10226318359375,-0.6514636745810508,0.29798867484033104,1.3641221148371696
1744402029925236000,2.112236083984375,0.17484569477438924,0.3066325845450163,1.5136680947907268
1744402029935210000,2.1222099609375,1.124193999299407,0.10957271987497806,1.328599404426664
1744402029945183000,2.132182861328125,1.6680752510398624,0.0639214141599834,0.7936896138448267
1744402029955157000,2.142156982421875,1.810838877376914,0.11077113587930798,-0.08446684712581336
1744402029965130000,2.1521298828125,1.7420096713006494,-0.10110358221530914,-1.1675229995466767
1744402029975104000,2.16210400390625,1.5942477982848882,-0.2888923451930284,-1.5550883388072252
1744402029985077200,2.1720771484375,1.6741706453055143,-0.29209567127898334,-1.2570363894723355
1744402029995051300,2.18205126953125,2.043998229432106,-0.4510226430401206,-0.9407315750882029
1744402030005024000,2.19202392578125,2.6255431491345167,-0.6971179029054939,-0.6600761662341654
1744402030014998000,2.201998046875,3.256147575560212,-0.6668028441406786,-0.3657518225876614
1744402030024971000,2.211970947265625,3.5439509564727545,-0.3180107415191829,-0.062377472653612494
1744402030034945000,2.221945068359375,3.3951194083988665,-0.10884046007767319,-0.11841785124018787
1744402030044918000,2.23191796875,2.703687880566716,0.1359770349368453,-0.2553786730499938
1744402030054892000,2.24189208984375,1.3414683844804762,0.585783287924528,-0.15830522313360124
1744402030064865000,2.251864990234375,-0.03993336645960808,0.6290268018454312,-0.35524968126304446
1744402030074839000,2.261839111328125,-1.1055167713582514,0.10274433515965938,-0.9332532020315527
1744402030084812300,2.271812255859375,-1.3453320741713046,0.23219079928398131,-0.24855772272245957
1744402030094786000,2.2817861328125,-0.650764001879096,1.4337763735607265,1.680413339087367
1744402030104759000,2.291759033203125,0.17351649199724195,2.6157830948814746,3.2182930612012743
1744402030114733000,2.301733154296875,0.3699596860736608,3.350119990721345,3.4373256882265206
1744402030124706000,2.3117060546875,-0.027546178573369978,3.274472336801886,2.0949233838967976
1744402030134680000,2.32168017578125,-0.5358505054980516,1.807763415454328,-0.5455891516368836
1744402030144653000,2.331653076171875,-0.5763602105408907,0.1441841606594622,-2.7112869573935865
1744402030154627600,2.341627685546875,-0.094212653657794,-0.5597593504823744,-3.2402918347805736
1744402030164600600,2.3516005859375,0.9838105460971593,-0.49802068718895315,-2.6336580665290352
1744402030174574600,2.36157470703125,1.893480920228362,-0.4365472507029772,-1.6749217559337615
1744402030184547600,2.371547607421875,2.218122624194622,-0.7241717679172753,-0.7120929883930832
1744402030194520800,2.381520751953125,1.8406763817578553,-1.1234057715311645,0.41157205512877554
1744402030204494600,2.39149462890625,1.0722948852360248,-1.5273556977510452,1.2809655465923249
1744402030214467800,2.4014677734375,0.0984469302266836,-1.8244956468075513,1.7195999788329004
1744402030224441900,2.41144189453125,-0.9366764544785022,-1.7628760798491536,1.8308133055217564
1744402030234414600,2.42141455078125,-1.6667659220069646,-1.5400645188070832,1.4571613408014177
1744402030244388600,2.431388671875,-1.971309425318241,-1.1790569316044448,0.8244070428654551
1744402030254361600,2.441361572265625,-1.9375532861888407,-0.7806368747219443,0.19610694785937666
1744402030264335600,2.451335693359375,-1.5306483095556496,-0.5211895274609327,-0.34466954279877243
1744402030274308600,2.46130859375,-0.989749288496375,-0.2450125791952014,-0.7124225856736301
1744402030284282600,2.47128271484375,-0.6109370184034109,-0.119780956286937,-0.7183424772419035
1744402030294255600,2.481255615234375,-0.4544651847094297,0.016914309921860694,-0.45895277845226223
1744402030304229600,2.491229736328125,-0.5673585734397173,0.16394026987850666,-0.21027225133404134
1744402030314202600,2.50120263671875,-0.7444932559341192,0.32264366201683875,-0.08128920347038655
1744402030324176600,2.5111767578125,-0.7996931651085615,0.36517464375421405,-0.24448404354276135
1744402030334149600,2.521149658203125,-0.6277215644657611,0.40067426555007696,-0.46070919366553426
1744402030344123600,2.53112353515625,-0.19574469041824338,0.3901398659236729,-0.5968947202539071
1744402030354096600,2.5410966796875,0.40326515882611275,0.23262305322140453,-0.6514541761003434
1744402030364070700,2.551070556640625,1.0078811575144528,0.15661679512262344,-0.5033704872516915
1744402030374043600,2.561043701171875,1.4983219109684227,0.09470613626316189,-0.18764977463213725
1744402030384017700,2.571017578125,1.6422399680376052,-0.10796659985259174,0.12972331743747925
1744402030393990700,2.58099072265625,1.55388539275825,-0.3190805627077818,0.5340297198116779
1744402030403964700,2.590964599609375,1.290479370999336,-0.3585096329070627,1.1109021907236427
1744402030413937700,2.600937744140625,0.9488719191849231,-0.26092472633719443,1.575498528020829
1744402030423911700,2.61091162109375,0.6089619189381599,-0.22160642303600905,1.580113912861794
1744402030433884700,2.620884765625,0.3247346429467201,-0.45934681927114723,0.8199598541982471
1744402030443858700,2.630858642578125,0.18981939202249049,-0.7276156247608363,-0.18674824094884096
1744402030453831700,2.640831787109375,0.3207055335611105,-0.04077010954469442,-0.37596097231507297
1744402030463805700,2.6508056640625,0.6718494600057602,1.100026941770315,0.15305700201550498
1744402030473778700,2.66077880859375,0.9130600165694951,1.612903983438015,0.41806919859573244
1744402030483752700,2.670752685546875,0.7736369328320026,1.5791213946931064,0.2793735888825729
1744402030493725400,2.680725341796875,0.47937166242897505,1.2890937618598342,-0.02054998127678409
1744402030503699500,2.690699462890625,0.19305296711623668,0.9349296108111739,-0.32916867987141013
1744402030513672700,2.700672607421875,-0.09719839147031306,0.7215564708523452,-0.6197351688217372
1744402030523646700,2.710646728515625,-0.3619873920202255,0.6341456061638892,-0.8434533963799477
1744402030533619700,2.72061962890625,-0.5285667782306671,0.4936803198970854,-0.9879816943019628
1744402030543593700,2.73059375,-0.532670121896267,0.37382819807007905,-0.9252206291582434
1744402030553566700,2.740566650390625,-0.23540391611158845,0.3911081264339387,-0.47314643123857675
1744402030563540700,2.750540771484375,0.2017220112621784,0.5070658711709082,0.31750151335541155
1744402030573513700,2.760513671875,0.671219345408678,0.8377421791262925,0.8411714959878474
1744402030583486500,2.770486572265625,1.07372111864686,0.9015062107674777,1.1459054803699253
1744402030593460500,2.78046044921875,1.020579895567894,0.8132957201339304,1.4251616899505257
1744402030603433700,2.790433837890625,0.911463687288761,0.8295246781401335,1.4975614479899406
1744402030613407500,2.800407470703125,0.9716244337409734,0.9602513913333416,1.59920512843132
1744402030623380700,2.810380615234375,0.9359703520357608,1.1394960517190396,1.672600911770761
1744402030633354800,2.820354736328125,0.9802624982267618,1.1465670130185783,1.5085476830370723
1744402030643327700,2.83032763671875,1.2824386878848075,0.7972454796954989,0.9816066793773323
1744402030653301800,2.8403017578125,1.77664200874269,0.6302738792970776,0.6609386282823979
1744402030663274800,2.850274658203125,3.0371850911617275,0.2542620535776019,0.727501862188056
1744402030673248800,2.860248779296875,3.999510366159677,0.14404811318963764,0.8303226235847919
1744402030683221500,2.870221435546875,4.296169838222861,0.12353490199297666,0.7772094575565308
1744402030693195500,2.880195556640625,4.220421062016487,0.01489712488055229,0.28995080473739654
1744402030703168500,2.89016845703125,3.7389836992293595,-0.31339228793829677,-0.47567141967155036
1744402030713142500,2.900142578125,3.261830297371745,-0.8576952722221612,-1.2718728702068327
1744402030723115800,2.91011572265625,2.658345348539948,-1.5228750452056525,-2.061346254596114
1744402030733089800,2.92008984375,2.1175456962019203,-2.1376117481529713,-2.7926722781822084
1744402030743062800,2.930062744140625,1.6343208654761314,-2.495933311142027,-3.400851230049133
1744402030753036800,2.940036865234375,1.0607441481739281,-2.697309869967401,-3.5874160041898486
1744402030763009500,2.950009521484375,0.3506377304881811,-2.8484809669047593,-3.142510674986243
1744402030772983600,2.959983642578125,-0.44149990467429157,-2.894436662393808,-2.264756218945235
1744402030782956500,2.96995654296875,-1.0520417862802742,-2.831272934733331,-1.2565282938197255
1744402030792930600,2.9799306640625,-1.736494122749567,-2.4465640078172086,-0.8219802541099488
1744402030802903600,2.989903564453125,-3.0339164447546003,-1.7322022707745433,-1.002305549339205
1744402030812877600,2.999877685546875,-4.203255407682061,-0.455095007045567,-1.0221823623284696
1744402030822850800,3.009850830078125,-4.790525134772062,0.8198404656022786,-0.7641224508378655
1744402030832824800,3.019824951171875,-5.10735704177022,1.6314707367420196,-0.692258626306057
1744402030842797800,3.0297978515625,-5.172606051272154,2.116489172886312,-0.9638547495875507
1744402030852771800,3.039771728515625,-4.979672911143303,2.268526823525131,-1.479722862830013
1744402030862744600,3.04974462890625,-4.418045574831963,2.0943331629186868,-1.9972363321267068
1744402030872718600,3.059718505859375,-3.3579777184844013,1.6737953822523355,-2.309983892420679
1744402030882691600,3.069691650390625,-2.02472478916347,1.3126160917446017,-2.180582144220918
1744402030892665600,3.07966552734375,-0.8469400694519281,0.8991340748086571,-1.777142797871679
1744402030902638600,3.089638671875,0.14729542454779146,0.5402993016004562,-1.3574421986818312
1744402030912612600,3.099612548828125,0.6940069312781095,0.04773410333842039,-1.1315794333755969
1744402030922585600,3.109585693359375,0.9253197786837816,-0.8095204393789172,-1.1062553147658705
1744402030932559600,3.1195595703125,0.8138508697986603,-1.5559318038940428,-0.9126610803797841
1744402030942532600,3.12953271484375,0.5223831211596727,-2.0525246502369643,-0.3234235603481531
1744402030952506600,3.139506591796875,0.0869844559699297,-2.280140688951313,0.5061746214196086
1744402030962479600,3.149479736328125,-0.4604015890210867,-2.4126170222908256,0.9887975407294929
1744402030972452600,3.15945263671875,-0.8161550550878047,-1.6853709614947436,1.2867331702083349
1744402030982426600,3.169426513671875,-0.6226409002006054,-0.6379881069362163,1.4690136911585927
1744402030992399600,3.179399658203125,-0.0450736519575119,0.10488163944929838,1.21824970882982
1744402031002373600,3.18937353515625,0.5720967078775168,0.47512920255362984,0.47739130226671694
1744402031012346600,3.1993466796875,1.0201087709248065,0.6559905043557286,-0.4018418480247259
1744402031022320600,3.209320556640625,1.3081436225056648,0.7031772029444575,-1.2774158912867306
1744402031032293600,3.219293701171875,1.3583236576914786,0.6576452858254314,-2.0941882014900446
1744402031042267600,3.229267578125,1.1144517729640007,0.5052271114364266,-2.5721608107760545
1744402031052240600,3.23924072265625,0.5059656548440457,0.4458811884984374,-2.4560589813932774
1744402031062214700,3.249214599609375,-0.5437988341540098,0.607273819720745,-2.0009359172970056
1744402031072187600,3.259187744140625,-1.9539678298950194,0.6331967810064554,-1.5937065310150385
1744402031082161700,3.26916162109375,-3.576352173861861,0.3915156843215227,-1.270412150004506
1744402031092134700,3.279134765625,-5.105905673918127,0.29896804126650095,-0.6538387331493198
1744402031102108700,3.289108642578125,-6.382483945336937,0.42810996948629615,0.4502621800616383
1744402031112081700,3.29908154296875,-7.254442720711231,0.37422844943404193,1.7568476133398712
1744402031122055700,3.3090556640625,-7.327424370291829,0.3434527874201536,2.8241800538629294
1744402031132028700,3.319028564453125,-6.477535387906432,0.48603316614478825,3.291914469990134
1744402031142002700,3.329002685546875,-4.958702603828907,0.6022036768496036,2.7431694116055962
1744402031151975000,3.338974853515625,-3.2200515953063964,0.387199574688077,1.4149945162013173
1744402031161949000,3.348948974609375,-1.634455890032649,0.11484890671223401,-0.03554842937365174
1744402031171922000,3.358921875,-0.35215456479191776,0.12871288915276527,-1.1510218735355884
1744402031181896000,3.36889599609375,0.6035761342465877,0.1785629617318511,-1.8828771086275577
1744402031191869000,3.378868896484375,1.2261866393089293,-0.05862082353383302,-2.092600055515766
1744402031201843000,3.388843017578125,2.181633845230937,0.03255991508215666,-2.3274960221052168
1744402031211816200,3.398816162109375,3.0364503471463915,0.06823445505350828,-2.3618831526145336
1744402031221790000,3.4087900390625,3.59612304225862,0.03618511984199285,-2.1948061921454967
1744402031231763200,3.41876318359375,4.009344362431764,-0.05450228229910135,-1.9748375994443892
1744402031241737200,3.4287373046875,4.368499161374569,-0.249114461556077,-1.6860694651529191
1744402031251710000,3.4387099609375,4.438970289438963,-0.51755789296031,-1.4097330885417758
1744402031261684000,3.44868408203125,4.322745125937462,-0.9048962915971874,-1.2302917365401982
1744402031271657000,3.458656982421875,3.97084015199244,-1.3331018304124473,-1.1464103611521421
1744402031281631000,3.468630859375,3.675382456934452,-1.5505930732145905,-1.1592447813492268
1744402031291604000,3.47860400390625,3.404691538864374,-1.5585475393503903,-1.2192798555951565
1744402031301578000,3.488577880859375,3.0648230396717784,-1.4084060777217149,-1.2423580219089985
1744402031311551000,3.498551025390625,2.720027020949125,-1.2335247271120549,-1.3257671036101877
1744402031321525000,3.50852490234375,2.496453827884793,-1.0728025424972176,-1.306707890614122
1744402031331498200,3.518498291015625,2.2377473621189594,-0.8101911782473326,-1.2537715424574911
1744402031341472300,3.52847216796875,2.015021141272783,-0.46862756557464597,-1.282423636446148
1744402031351445000,3.538445068359375,1.9218617960602045,-0.3139791479155421,-1.2806519505985081
1744402031361419000,3.5484189453125,1.8857979645103216,-0.3475093693345785,-1.1022264976412057
1744402031371392000,3.55839208984375,1.7449767044126987,-0.2618716517984867,-1.0789597499527037
1744402031381366000,3.568365966796875,1.9972189426004885,-0.42968087206482886,-1.0024262531094252
1744402031391339000,3.578339111328125,2.2592928389728066,-0.40607700137645003,-0.7930458360485733
1744402031401313000,3.58831298828125,1.952321816253662,0.01751841329485178,-1.3981282832048834
1744402031411286000,3.5982861328125,2.1278724444270134,0.34470424878597256,-2.031730284011364
1744402031421260000,3.608260009765625,2.4826515125036237,0.5182715941876173,-2.557675189305842
1744402031431233000,3.61823291015625,2.7101374950975177,0.34871757608056064,-2.6305902033910153
1744402031441207000,3.62820703125,2.5918852096825837,0.08978460808247327,-2.43180409945026
1744402031451180000,3.638179931640625,1.762811051788926,-0.2222168100193143,-1.5382520625576377
1744402031461154000,3.648154052734375,0.04506020795404911,-0.5799100119769572,0.4868963588453829
1744402031471127000,3.658126953125,-2.6921798136025665,-0.9707391753390431,3.010969868931174
1744402031481101000,3.66810107421875,-6.557384585168958,-2.1160908212184903,4.5286949840277435
1744402031491074000,3.678073974609375,-10.510666868638992,-2.7275854735046625,4.231173926699161
1744402031501048000,3.688048095703125,-13.992476718497276,-1.2804016290992497,2.647870131754875
1744402031511021000,3.69802099609375,-16.38081445505619,0.8611144330158829,1.3478876038730143
1744402031520995000,3.7079951171875,-17.07463024767637,2.2095362898960706,0.5362295314108952
1744402031530968000,3.717968017578125,-15.932563322556017,2.651926421408355,-0.09128463738188147
1744402031540942000,3.727942138671875,-13.599929353040457,2.156719476465881,-0.5855080511797219
1744402031550915000,3.7379150390625,-10.640129114854336,1.0059437597110867,-0.8716544586654752
1744402031560889000,3.74788916015625,-7.95682468162477,0.05726999344676733,-0.7138594866089523
1744402031570862000,3.757862060546875,-5.290011364468932,-0.7526791927382349,-0.6291137494765222
1744402031580836000,3.767836181640625,-2.794724242275953,-1.2678121966391802,-0.4698112224012613
1744402031590809000,3.77780908203125,-0.5756424176603555,-1.4647016731783746,0.042208544849976895
1744402031600783000,3.787783203125,1.228035482046008,-1.6826067574784158,0.7801452918127179
1744402031610755800,3.797755859375,2.607946117645502,-2.0229691776677967,1.3028614443190396
1744402031620729900,3.807729736328125,3.6476930704981085,-2.2567513377964494,1.5506794363237917
1744402031630702800,3.817702880859375,4.334190064537525,-2.1474518819049,1.6070781998939812
1744402031640676900,3.8276767578125,4.5224259867608545,-1.9046666233703493,1.276816464088857
1744402031650650000,3.837650146484375,4.389201173141599,-1.5107584909543395,0.6954764193087816
1744402031660624100,3.8476240234375,4.232289194464683,-1.0258002605646848,-0.006174195122905075
1744402031670597000,3.85759716796875,4.00049294745624,-0.6510781823948025,-0.6927377150598913
1744402031680570000,3.867570068359375,3.718140817686915,-0.4039166084721684,-1.2230340204969048
1744402031690544000,3.877544189453125,3.598419044241309,-0.1898012718439102,-1.6141940232485532
1744402031700516900,3.887516845703125,3.7151153323858974,-0.013775135113298892,-2.005703570090234
1744402031710491000,3.897490966796875,3.936339916497469,0.13421645500510931,-2.250233772595972
1744402031720464000,3.9074638671875,4.179038081270456,0.2834279423072934,-2.436908290721476
1744402031730438000,3.91743798828125,4.247424219754338,0.4145145748540759,-2.7053423697754737
1744402031740412000,3.927411865234375,4.03160237146914,0.5923638353586197,-3.1220231827527285
1744402031750385200,3.93738525390625,3.464961006388068,0.8884083903938531,-3.6127880535945294
1744402031760358100,3.947358154296875,2.8491052362829445,1.3031892149686812,-4.083913573464751
1744402031770332200,3.957332275390625,2.325082531222701,1.7227827005222438,-4.488234671084583
1744402031780305200,3.96730517578125,2.0083628524273633,2.087303410412371,-4.656123094066977
1744402031790279000,3.97727880859375,1.6658458845525979,2.24956084177047,-4.600420788328349
1744402031800252000,3.987251953125,1.0291893184810876,2.2194123717442156,-4.423612269048393
1744402031810226000,3.997225830078125,0.017993921852111815,2.1348490054413674,-4.253031245981156
1744402031820199000,4.007198974609375,-0.9350473919719458,2.122848771046102,-3.8851980505421757
1744402031830173000,4.0171728515625,-1.7298235589444637,2.2013889315366746,-3.5661367770567534
1744402031840146200,4.027146240234375,-2.315001866713166,2.219348366597295,-3.5442154526278373
1744402031850120200,4.0371201171875,-2.794793800380826,2.3085186421737074,-3.8106931369170542
1744402031860093200,4.04709326171875,-2.956926144054532,2.5425425021037458,-4.114465071333944
1744402031870067200,4.057067138671875,-2.843597286516428,2.7101903943285346,-4.293683282104134
1744402031880040000,4.0670400390625,-2.535709148952365,2.6178382738456127,-4.322956722861528
1744402031890014000,4.077013916015625,-2.1941507969766856,2.381700198240578,-4.219762013585865
1744402031899987000,4.086987060546875,-1.9058464808046818,2.0415634035006165,-4.109655040703713
1744402031909961000,4.0969609375,-1.6355255650907754,1.6886998136565088,-3.9072821643173694
1744402031919934000,4.106933837890625,-1.4116963514387606,1.3919944566249847,-3.4898730370655655
1744402031929908000,4.116907958984375,-1.3418845640659331,1.2948591935187577,-2.9543939952284095
1744402031939881000,4.126880859375,-1.5387152961552142,1.459284908826649,-2.459144380187988
1744402031949855000,4.13685498046875,-1.9212299278974532,1.7786007415950298,-2.0457174544401466
1744402031959828200,4.146828125,-2.2037311107486484,2.1104203743666408,-1.9385981190666555
1744402031969802200,4.15680224609375,-2.277704109454155,2.430197394905984,-2.0952220745824275
1744402031979775000,4.16677490234375,-2.200388230061531,2.776951269698143,-2.326647880843282
1744402031989749000,4.1767490234375,-1.9426134921878575,2.9746003324329853,-2.541037065976858
1744402031999722000,4.186721923828125,-1.6352584385871887,2.9429040484428404,-2.5389491537868976
1744402032009696000,4.196696044921875,-1.4089537747323513,2.7435049271702763,-2.244212904871255
1744402032019669000,4.2066689453125,-1.4626023628115654,2.593805948612094,-1.8267033859848976
1744402032029643000,4.21664306640625,-1.7308341972917318,2.633452022562921,-1.38649205981642
1744402032039616000,4.226615966796875,-2.0950456951022147,2.6993694328457116,-1.0552569489344954
1744402032049590000,4.236590087890625,-2.2650988949030637,2.777555080810189,-0.9701381407059728
1744402032059563000,4.24656298828125,-2.2710557574808594,2.837556252786517,-0.994311920236796
1744402032069537000,4.256537109375,-2.138039618176222,2.924383180107176,-1.1096963951304555
1744402032079510000,4.266510009765625,-1.946242204079032,2.9091271587863563,-1.3448228094749153
1744402032089484000,4.276484130859375,-1.5201257464975118,2.868953261569142,-1.5812690742462872
1744402032099457000,4.28645703125,-0.8985627046614885,2.7888264164090155,-1.7258812510594725
1744402032109431000,4.29643115234375,-0.14408230772018432,2.5604291641891,-1.8073587801761923
1744402032119404000,4.306404052734375,0.5185299528628587,2.241174852349609,-1.734050821250677
1744402032129378000,4.3163779296875,0.971496423447132,2.002831814046204,-1.5142559776812792
1744402032139351000,4.32635107421875,1.087304238319397,1.8812097599372266,-1.4253954987064004
1744402032149325000,4.336324951171875,0.7968284233272075,1.90321057934314,-1.4915608924008905
1744402032159298300,4.34629833984375,0.17716800024211404,2.223285267654806,-1.6225417264856397
1744402032169272000,4.35627197265625,-0.556657731205225,2.452173372131586,-2.0918181113578376
1744402032179245300,4.366245361328125,-1.343015029400587,2.6077362742871046,-2.3395960636131465
1744402032189219300,4.37621923828125,-2.1101941643953324,2.541730893459916,-2.1296743792824446
1744402032199192300,4.3861923828125,-2.6592817526072263,2.1594947863981124,-1.5771251063093543
1744402032209166300,4.396166259765625,-2.5626369033664465,1.5720345051720737,-1.0680468724027274
1744402032219139000,4.40613916015625,-1.930458359491825,1.4163307332411408,-0.4002701051959768
1744402032229113000,4.416113037109375,-1.2579729396700858,1.3637785620965064,0.19284557144325226
1744402032239086000,4.426086181640625,-0.7681897733420133,1.1969538228228687,0.46117841861248016
1744402032249060000,4.43606005859375,-0.560542463684082,1.0112988570034502,0.5139908846611156
1744402032259033000,4.446033203125,-0.44372459498643874,0.7876391546994447,0.3725649001359939
1744402032269007000,4.456007080078125,-0.24551263767182827,0.6147808343499899,0.10191522739175707
1744402032278980400,4.46598046875,0.07667465887963772,0.6096884796470403,-0.2670307150620967
1744402032288954400,4.475954345703125,0.30275895798206326,0.5671300253808498,-0.6631040626879781
1744402032298927400,4.48592724609375,0.3816115454226732,0.5805424646615982,-0.8358101881504059
1744402032308901400,4.4959013671875,0.4656541027218103,0.6144938341021537,-0.7156973695605993
1744402032318874000,4.5058740234375,0.5883703818082809,0.4446244664356112,-0.4267196476390585
1744402032328848100,4.51584814453125,0.7563707407325506,0.1830436142772436,-0.1250933104161173
1744402032338821000,4.525821044921875,0.9945447060793637,-0.03597293839603662,0.10654416583403944
1744402032348795100,4.535795166015625,1.2327636796116828,-0.1878320175975561,0.31685539747159924
1744402032358768000,4.54576806640625,1.4060983853012323,-0.26238106262534855,0.5512197414023802
1744402032368742100,4.5557421875,1.52538819707036,-0.13865268388688565,0.5837278166994452
1744402032378715400,4.56571533203125,1.301346801972389,0.228562087392807,0.42648112617544826
1744402032388689200,4.575689208984375,0.8551976101875305,0.43437224475145336,0.0507052646363154
1744402032398662100,4.585662109375,0.4618915353178978,0.38357816932052374,-0.17561514477692544
1744402032408636200,4.59563623046875,0.24024492640197276,0.20581454127281903,-0.10189188304878771
1744402032418609200,4.605609130859375,0.026630817294120788,-0.08321195169389248,0.1736787333542481
1744402032428583200,4.615583251953125,-0.17339081979095936,-0.2758198053911328,0.6635971799671649
1744402032438556200,4.62555615234375,-0.1840022301763296,-0.4539525590121746,1.471881355549395
1744402032448530200,4.6355302734375,-1.124566924265027,-0.2706491247549653,1.5737201201714575
1744402032458503200,4.645503173828125,-1.9453712664633989,-0.22493834393769502,1.2039360829256474
1744402032468477200,4.655477294921875,-2.474534257021546,0.25439561682939527,0.6240449217796326
1744402032478450200,4.6654501953125,-2.8587843342542647,0.7904086194127797,-0.28524385088915005
1744402032488424200,4.675424072265625,-3.0919325803935527,1.123261102363467,-1.2988932713404298
1744402032498397200,4.685397216796875,-3.0560780076801777,1.3737731557577848,-2.0298647824004292
1744402032508371200,4.69537109375,-2.8203450057446955,1.6566501861840486,-2.2550288979180158
1744402032518344200,4.70534423828125,-2.4598060589671134,1.9468121129214762,-1.9246154786825178
1744402032528318200,4.715318115234375,-2.0161586208701134,2.160974795822799,-1.240935880151391
1744402032538291200,4.725291259765625,-1.4344967967897653,2.132960707476735,-0.5503549412665888
1744402032548265200,4.73526513671875,-0.8059820361196994,1.9476862654075024,-0.009451353630051016
1744402032558238200,4.74523828125,-0.18789865309298037,1.752773641899228,0.49014440085589883
1744402032568212200,4.755212158203125,0.25845161422193047,1.551433323431015,0.9451783253639936
1744402032578185000,4.76518505859375,0.5012321965813636,1.409444773119688,1.1749771149449049
1744402032588159000,4.775158935546875,0.6260626913428307,1.2750427324146032,1.2738853790730238
1744402032598132200,4.78513232421875,0.786072051513195,1.1717065688416362,1.3533289181441068
1744402032608106200,4.795106201171875,0.9380348833501339,0.9990703668102622,1.3635890308737755
1744402032618079200,4.805079345703125,1.0821510933399199,0.7493702143207192,1.1498720459133387
1744402032628053200,4.81505322265625,1.3192431086689234,0.6211643979072571,0.8046255069442093
1744402032638026200,4.825026123046875,1.591200685673952,0.5445283174723387,0.4826567485142499
1744402032648000300,4.835000244140625,1.7876292667031286,0.4136567889809608,0.24189894068669526
1744402032657973200,4.84497314453125,1.8423621428877115,0.1644610788822174,0.0034590909453108905
1744402032667947300,4.854947265625,1.762980563136935,0.02577186237722635,-0.15722586693167687
1744402032677920000,4.864919921875,1.7232698995172977,-0.0055332303382456295,-0.25362861451227214
1744402032687894000,4.87489404296875,1.7204647789686918,-0.026617519421130418,-0.4471414542252198
1744402032697867300,4.8848671875,1.5821709915220736,-0.029024726693332194,-0.6923949660368264
1744402032707841300,4.89484130859375,1.338231302255392,0.10320829940959811,-0.8801572793990373
1744402032717814300,4.904814208984375,1.0320125592082738,0.2317236201636493,-0.9732324534595012
1744402032727788300,4.914788330078125,0.6329840150386095,0.25248437638059257,-1.0013276442177592
1744402032737761300,4.92476123046875,0.2724795550525188,0.14311565464511514,-0.9206281137362122
1744402032747735300,4.9347353515625,0.04314882137477398,-0.005833236198127269,-0.7339696699626743
1744402032757708300,4.944708251953125,-0.07031564524173736,-0.18966317854747175,-0.6121553081519902
1744402032767682300,4.954682373046875,-0.09058043463528155,-0.3336993090383708,-0.5372117108486593
1744402032777655000,4.964655029296875,0.05583002377152443,-0.36607159259393807,-0.6293946122445165
1744402032787629000,4.974629150390625,0.25979543004631994,-0.3715127607345581,-0.8814170702017843
1744402032797602300,4.984602294921875,0.4062245931535959,-0.29365590633302924,-1.1743800258345902
1744402032807576000,4.994576171875,0.4128559939920902,-0.21583426937535405,-1.4035463627308606
1744402032817549300,5.00454931640625,0.3554471765965223,-0.24343816948533056,-1.5762120831176638
1744402032827523300,5.0145234375,0.19653613305687903,-0.3164585436411202,-1.5996981726452708
1744402032837496300,5.024496337890625,0.05080898073911667,-0.4332032009720802,-1.391791481398791
1744402032847470300,5.03447021484375,-0.15499065522551536,-0.6557192861989141,-1.0809750352978706
1744402032857443000,5.044443115234375,-0.4184790945708751,-0.9403284011147915,-0.5164934785991907
1744402032867417000,5.0544169921875,-0.6034902095288038,-1.1312541469439863,0.23206286205537616
1744402032877390000,5.06439013671875,-0.5904109477251768,-1.3358106509797274,0.9633083677511661
1744402032887364000,5.074364013671875,-0.42060909233689303,-1.5113517806723713,1.534991307196021
1744402032897337000,5.084337158203125,-0.01652794095277786,-1.5514400454327464,1.932975895270705
1744402032907311000,5.09431103515625,0.424423097667098,-1.5151229697741566,2.0934267155982553
1744402032917284400,5.104284423828125,0.8022977946490049,-1.4033696909897029,1.9146587328135967
1744402032927258400,5.11425830078125,1.0164426496326924,-1.1872718022421003,1.3820010320074856
1744402032937231400,5.1242314453125,1.1492612205386161,-0.9367705625027417,0.5981497252836823
1744402032947205400,5.134205322265625,1.0979209094017743,-0.7719333437845111,-0.2600301155850291
1744402032957178000,5.14417822265625,0.9057996701776981,-0.6179601950384677,-0.81439907826595
1744402032967152000,5.154152099609375,0.6559463729530572,-0.5715194925114512,-1.0885220166113228
1744402032977125000,5.164125,0.4065180231422186,-0.7091309967823326,-1.0569767584644258
1744402032987099100,5.17409912109375,0.19677754059731958,-0.6140126264564693,-0.4667237777799368
1744402032997072100,5.184072021484375,-0.10809446401596069,-0.13306494688242673,0.46949821092933414
1744402033007046100,5.194046142578125,-0.8077379398763179,0.3059277972765267,0.9354427479650824
1744402033017019400,5.204019287109375,-2.050365426376462,0.655817339745909,0.5993430267214774
1744402033026993200,5.2139931640625,-3.546566107407212,1.3048501339182257,-0.05166062913239002
1744402033036966100,5.223966064453125,-4.51456299830079,2.1320317560635504,-0.6947061655886471
1744402033046940200,5.233940185546875,-4.736769579187035,2.68519828415215,-1.366026341023296
1744402033056913200,5.2439130859375,-4.411161076015234,3.0053192958235737,-2.0894540125750005
1744402033066887200,5.25388720703125,-3.660963470959663,3.1353631413191554,-2.6143203288525343
1744402033076860200,5.263860107421875,-2.557794139510393,3.1024624499753117,-2.9050103711172937
1744402033086834200,5.273834228515625,-1.4221943645775317,2.8669325693964955,-2.97926277128607
1744402033096807200,5.28380712890625,-0.5762982512205839,2.4366858801424502,-2.7385625023320315
1744402033106781200,5.29378125,0.031818449065089224,1.9281946523435414,-2.3220235820434985
1744402033116754200,5.303754150390625,0.44000002150535583,1.6345274939641357,-1.7920330546200274
1744402033126728200,5.313728271484375,0.6299813260912894,1.659321012828499,-1.3284975514873862
1744402033136701200,5.323701171875,0.6316530586957931,1.8535329407215118,-1.0414632552511989
1744402033146675200,5.33367529296875,0.47904257660508154,2.0232151152528823,-1.0369444626525044
1744402033156647700,5.343647705078125,0.44030397288799283,1.9829260672233997,-1.3176760054826735
1744402033166621700,5.35362158203125,0.6063865154922008,1.9505575830601154,-1.669521358194947
1744402033176594700,5.3635947265625,0.8358511046826839,1.9810094199471175,-1.895709409932792
1744402033186568700,5.373568603515625,1.2003741526603697,2.009760152004659,-2.005854522868246
1744402033196541400,5.38354150390625,1.6799737786263227,1.947197751238197,-2.03623227160573
1744402033206515500,5.393515380859375,2.0719383757591245,1.745775015183538,-2.0053682006560263
1744402033216488700,5.40348876953125,2.3813842641592022,1.4440836864329873,-1.8015242288038134
1744402033226462700,5.413462646484375,2.522405430743098,1.1408430824138223,-1.5065816436611115
1744402033236435700,5.423435791015625,2.4745430248498916,0.8573163559071719,-1.4562043323375284
1744402033246409700,5.43340966796875,2.251754260161519,0.7015802891418338,-1.6094325079351663
1744402033256382700,5.4433828125,1.9770166970491407,0.6718833622753619,-1.7832259171776472
1744402033266356700,5.453356689453125,1.673719978928566,0.6934254781283438,-1.8079793962925672
1744402033276329700,5.463329833984375,1.3436954128801821,0.7264006960131227,-1.6651703233785926
1744402033286303700,5.4733037109375,0.9874614698201417,0.7774928776077926,-1.457635241923481
1744402033296276500,5.4832763671875,0.6716489689975976,0.8123131388373672,-1.244363516512513
1744402033306250500,5.49325048828125,0.4599643666476011,0.7834750207573175,-0.9673083241075277
1744402033316223700,5.5032236328125,0.25756898616850377,0.6986041959404945,-0.7340177468881011
1744402033326197500,5.513197509765625,0.07639993359148502,0.5812384841017425,-0.5340525161653756
1744402033336170800,5.523170654296875,0.04268880264759063,0.5055037364207208,-0.42139951206222176
1744402033346144800,5.533144775390625,0.2140922480136156,0.49473479738608,-0.35784327795282006
1744402033356117800,5.54311767578125,0.6282400353819132,0.49147696463391183,-0.32848259730339047
1744402033366091800,5.553091796875,1.1727321124970913,0.49681920244470235,-0.24306232191026209
1744402033376064500,5.563064453125,1.6823405077576636,0.49490927717015143,-0.12355857512950896
1744402033386038500,5.57303857421875,2.0298469544827937,0.4771703529924154,0.020213351467251776
1744402033396011500,5.583011474609375,2.2681109362006184,0.46222193631604314,0.19024770043715833
1744402033405985500,5.592985595703125,2.3440426677584645,0.493691279682517,0.3184678376369178
1744402033415958500,5.60295849609375,2.3351550124257803,0.5231013524316251,0.33911475821584464
1744402033425932500,5.6129326171875,2.3631086027562618,0.5716724911160767,0.36301673506796356
1744402033435905800,5.62290576171875,2.4613924513757226,0.6687308895938098,0.4709802661806345
1744402033445879800,5.6328798828125,2.575478264760971,0.6540525220304727,0.6604065672323107
1744402033455852800,5.642852783203125,2.579103469520807,0.5682172360956669,0.8244301314800977
1744402033465826800,5.652826904296875,2.481623338499665,0.5016122819401323,0.9276844619885086
1744402033475799600,5.662799560546875,2.275303478053212,0.46219241796061394,0.855738439065963
1744402033485773600,5.672773681640625,2.0797417429864407,0.45050592568963765,0.7276216161102056
1744402033495746600,5.68274658203125,1.8537725946962833,0.464132884503901,0.6138618198089302
1744402033505720600,5.692720458984375,1.7062720029652119,0.46906361890435216,0.45660205060765147
1744402033515693600,5.702693603515625,1.5446271505475044,0.4072331856742501,0.273753958902508
1744402033525667600,5.71266748046875,1.3332178580075502,0.3175868170186877,0.1122159278601408
1744402033535640800,5.722640869140625,1.0676216327279806,0.22516016999483107,-0.01612199050039053
1744402033545614600,5.732614501953125,0.8310697156250476,0.1649202208265662,-0.1629718632377684
1744402033555587800,5.742587890625,0.6691255879998207,0.16324571174308658,-0.34142171998396514
1744402033565561900,5.752561767578125,0.6143558869361877,0.31333032861799,-0.5560384302631021
1744402033575534600,5.76253466796875,0.7182061375111342,0.3598965572208166,-0.7320427935533225
1744402033585508600,5.772508544921875,0.5606266348361969,0.3376119524374604,-0.9142859051026403
1744402033595481600,5.782481689453125,-0.053013212785124775,0.24502719224244354,-1.4100734264120458
1744402033605455600,5.79245556640625,-1.1878151153385639,-0.006879822641611099,-2.097248904234916
1744402033615428600,5.8024287109375,-2.024441296046972,-0.3811389594748616,-2.605363115414977
1744402033625402600,5.812402587890625,-1.9583353774547576,-0.5159520651988685,-2.364810145977139
1744402033635375600,5.822375732421875,-1.2621306438714266,-0.3396453579612076,-1.6577831357367336
1744402033645349600,5.832349609375,-0.6931961994171142,-0.30915538102090356,-0.9030737523451446
1744402033655322600,5.842322509765625,-0.659473378035426,-0.2448851534232497,-0.13727028961777687
1744402033665296600,5.852296630859375,-1.6618781499654054,-0.00927417043223977,0.5179974534213543
1744402033675269600,5.86226953125,-3.434246719172597,0.22425766819715498,0.7483470087528228
1744402033685243600,5.87224365234375,-5.282399135899543,0.2933827884800732,0.42104266144856806
1744402033695216600,5.882216552734375,-6.340900473582744,0.14588029705286026,-0.20684490723386406
1744402033705190700,5.892190673828125,-6.364252707597613,-0.11534487353563308,-0.6470875053234398
1744402033715163600,5.90216357421875,-5.503877402511239,-0.4053890191122889,-0.6017901276126504
1744402033725137700,5.9121376953125,-3.9699399882823228,-0.6481294155918061,-0.09031769204586744
1744402033735110700,5.922110595703125,-2.2673931433200836,-1.0569606841124595,0.6296968100614846
1744402033745084700,5.932084716796875,-0.8318009525090455,-1.5623447396762669,1.2671826665639876
1744402033755057700,5.9420576171875,0.1601911464780569,-2.0223383324183524,1.8013354282334446
1744402033765031700,5.95203173828125,0.9523030626773834,-2.3323452157020568,2.205549412216991
1744402033775004700,5.962004638671875,1.5595061552494764,-2.414335808907449,2.309834693208337
1744402033784978700,5.971978759765625,1.999741154554486,-2.3575977303802964,2.1173329302340744
1744402033794951700,5.98195166015625,2.2251544225275515,-2.1350923126779495,1.6747893617257474
1744402033804925700,5.99192578125,2.188036698010564,-1.9064226732574403,1.015493313018605
1744402033814898700,6.001898681640625,2.0779034216433763,-1.697373533977568,0.3338315571159124
1744402033824872700,6.011872802734375,2.0662825419545174,-1.5225773774333298,-0.27982188063934443
1744402033834845400,6.021845458984375,2.1950480380773545,-1.4611048177301882,-0.8170455741867423
1744402033844819500,6.0318193359375,2.209215679639578,-1.3399528653509913,-1.2239714474774896
1744402033854792700,6.041792724609375,2.0627385857373475,-1.1890034483402967,-1.3965566499739885
1744402033864766700,6.0517666015625,1.837149961197376,-0.9959354297854006,-1.3369535374045372
1744402033874739700,6.06173974609375,1.5183879629194736,-0.7169122983083128,-1.114256761848554
1744402033884713700,6.071713623046875,1.0656763438791037,-0.5062850960567593,-0.9136356975656003
1744402033894686700,6.081686767578125,0.5093529591947794,-0.28769977440759537,-0.7373592393357307
1744402033904660700,6.09166064453125,0.02236731463074684,-0.0030769232273101803,-0.6860509307723492
1744402033914633700,6.1016337890625,-0.3234066092133522,0.30166838626638054,-0.6987704193528741
1744402033924607700,6.111607666015625,-0.3086871789872646,0.5989632336236537,-0.7637974566671997
1744402033934580500,6.12158056640625,0.09943360317647457,0.9885463424474,-0.8314807806439697
1744402033944554500,6.131554443359375,0.7576496746271848,1.2778637811847031,-0.770373766317591
1744402033954527700,6.14152783203125,1.3358978908717631,1.4190379463732241,-0.5019594879426061
1744402033964501500,6.15150146484375,1.8363339686393736,1.2843705327302217,0.0549684385061264
1744402033974474800,6.161474853515625,2.1622604517191646,0.8495395844258368,0.46697439154013987
1744402033984448800,6.17144873046875,1.9491461088269948,0.38364845807775855,0.6881736220147461
1744402033994421800,6.181421875,1.2479752772688866,0.5967898351073265,1.0357678200885654
1744402034004395800,6.191395751953125,0.07348959910273552,1.369707221493125,1.4144545641057193
1744402034014368800,6.20136865234375,-1.3665823674708604,2.0283315814837812,1.7841333874113856
1744402034024342500,6.211342529296875,-2.8906594819426537,2.679918882444501,2.0500972769595682
1744402034034315500,6.2213154296875,-4.190521013793349,3.222007990071177,2.190181016562879
1744402034044289500,6.23128955078125,-5.010203658485413,3.6045740597397087,2.1629043025806545
1744402034054262500,6.241262451171875,-4.928122756648063,3.6724808902740476,1.8055194359198212
1744402034064236500,6.251236572265625,-4.028675085845589,3.2741268843650815,0.9187925688721239
1744402034074209800,6.261209716796875,-2.580237441986799,2.7249346667349337,-0.08833250957801937
1744402034084183800,6.271183837890625,-0.7262550039321184,2.039066764379293,-0.9056519322700798
1744402034094156800,6.28115673828125,1.2536077301979065,1.2357517555117605,-1.5128085553519426
1744402034104130800,6.291130859375,2.8870453830987213,0.2892188006684184,-1.9242960374698042
1744402034114103600,6.301103515625,4.212130788055062,-0.5946995848298072,-2.028928378333151
1744402034124077600,6.31107763671875,5.118468802893162,-1.2600288492865859,-1.7859912902377544
1744402034134050600,6.321050537109375,5.094370134425163,-1.6520467840418218,-1.49036364544034
1744402034144024600,6.331024658203125,4.352347652518749,-1.7456078419230878,-1.1773603568196296
1744402034153998800,6.340998779296875,3.2641046720445153,-1.629532169894874,-0.6332084714442491
1744402034163972900,6.350972900390625,2.0337802022784945,-1.528603944246471,-0.026532033094763756
1744402034173945900,6.36094580078125,0.8699439284205436,-1.4712389659926295,0.4815029753692448
1744402034183919900,6.370919921875,-0.11030629484653472,-1.354222067591548,0.8143298854872584
1744402034193892900,6.380892822265625,-1.0867530341774225,-1.1180243707537652,0.9894345234587788
1744402034203866000,6.3908662109375,-1.9038029922783373,-0.8627655612237751,0.8847663806296885
1744402034213840100,6.400840087890625,-2.2720576279997826,-0.7187446283020079,0.5726153249241411
1744402034223814000,6.41081396484375,-2.063437089395523,-0.48467429888173935,0.16059344366863368
1744402034233787000,6.420786865234375,-1.5035785163223743,-0.16232231328785418,-0.295234115435183
1744402034243761000,6.430760986328125,-0.6980407168388366,0.16341040078550575,-0.709892190413177
1744402034253734000,6.44073388671875,0.1332517016261816,0.43614889903515575,-1.0620561075553296
1744402034263708000,6.4507080078125,0.6918442002862691,0.6553305791422724,-1.2093329735331237
1744402034273681000,6.460680908203125,-0.07372866855561733,0.6625020782068372,-0.7221430385686457
1744402034283655000,6.470655029296875,-2.592863699325919,0.4184926847048104,1.0384998754009604
1744402034293628000,6.4806279296875,-6.270078632384538,0.489616285328567,4.4598944195240735
1744402034303602000,6.490601806640625,-9.222014128544926,0.3404311015114188,6.840015531879663
1744402034313575000,6.500574951171875,-10.47670731589198,-0.9069315968170761,6.262104584765434
1744402034323548700,6.510548583984375,-10.152045153659582,-1.9799924979895351,4.316792355012893
1744402034333522000,6.52052197265625,-8.176667455989122,-1.1717156289309263,2.9608915405541656
1744402034343496000,6.530495849609375,-5.958822479692101,0.5629752437889576,2.1556686522386967
1744402034353469000,6.540468994140625,-4.18067065090835,1.7440113665118813,1.167253827216476
1744402034363443000,6.55044287109375,-2.6799305728822946,2.109148454734683,0.08483385380730032
1744402034373416000,6.560416015625,-1.1862199551016093,1.9420801159635186,-0.9773068632915616
1744402034383390000,6.570389892578125,0.4902314946174621,1.5975681748792527,-1.948807232261449
1744402034393363000,6.580363037109375,1.9392957459419964,1.4874778608709573,-2.692156432726979
1744402034403337000,6.5903369140625,2.468456398412585,1.9810557433068752,-2.830038424502313
1744402034413309700,6.600309814453125,2.061797505494952,2.523599608963728,-2.422333237402141
1744402034423283700,6.61028369140625,1.0646978542357683,2.252818966783583,-1.858747898890823
1744402034433257000,6.620257080078125,0.1182546235024929,1.4933023292407392,-1.1204966060861945
1744402034443231000,6.63023095703125,-0.16628770978748797,0.7454755449697374,-0.10526267465613781
1744402034453204000,6.640203857421875,0.5930968258082866,0.11982611060291529,0.7602054965898394
1744402034463178000,6.650177978515625,2.1953508204162118,-0.4502241861388087,1.1046293209992348
1744402034473151000,6.66015087890625,3.93029479111433,-0.9790294493004679,1.0683382565647364
1744402034483125000,6.670125,5.337418427810072,-1.5398443001851438,0.7457800808742642
1744402034493098000,6.680097900390625,6.129309979256988,-1.9498910819754003,0.3248627993710339
1744402034503072000,6.690072021484375,6.160587745574117,-2.14935450065583,0.01150061431005597
1744402034513044700,6.700044677734375,5.413940526476502,-1.936364660926163,-0.2298008354075253
1744402034523018800,6.710018798828125,4.381640967020392,-1.4255448440492153,-0.39996465597599745
1744402034532992000,6.719991943359375,3.3659570268005132,-0.9791700268149376,-0.5394929536536336
1744402034542966000,6.729966064453125,2.3683149392277003,-0.6406470970124006,-0.7968738699041307
1744402034552939000,6.73993896484375,1.647803447383642,-0.3094558252722025,-1.1280299242004752
1744402034562913000,6.7499130859375,1.4123685516119002,0.023830957442522047,-1.4963264993675052
1744402034572886000,6.759885986328125,1.7027292157918215,0.23635317966043948,-1.8105381408646701
1744402034582860000,6.769860107421875,2.3053829744964838,0.43211335990875954,-1.9413821968272327
1744402034592832800,6.779832763671875,3.0600054102569816,0.5736103273108601,-1.9167218028232453
1744402034602806800,6.789806884765625,3.6405823617100714,0.7114335746362805,-1.7244111785069107
1744402034612779800,6.79977978515625,3.863622470811009,0.867419962900877,-1.3210915130145846
1744402034622753800,6.80975390625,3.7558062392145395,1.0676333231657742,-0.7774622632738203
1744402034632726800,6.819726806640625,3.2800761481583116,1.2605042117133736,-0.1828140433050692
1744402034642700800,6.82970068359375,2.3908996960014104,1.460601836644113,0.3487671873759478
1744402034652674000,6.839674072265625,1.3863380382984876,1.6594444930776953,0.7545137877542525
1744402034662648000,6.84964794921875,0.6161749190568924,1.965684571173787,1.0405386877521872
1744402034672621000,6.85962109375,0.14806640892028808,2.2565350646972653,1.115896784140542
1744402034682595000,6.869594970703125,0.05612228471636772,2.5696748391792177,0.9542501050919294
1744402034692567800,6.87956787109375,0.451040470957756,2.7736548585012555,0.6902472134184092
1744402034702541800,6.889541748046875,1.1710603798925876,2.424390754453838,0.12121299838405102
1744402034712514800,6.899514892578125,1.6104653581142425,1.9545278018653391,-0.2203321653164923
1744402034722488800,6.90948876953125,2.109160145172477,1.6071321220383048,0.0790923692795448
1744402034732461800,6.9194619140625,2.6124077732294797,0.820574625095725,0.47497127204556017
1744402034742435800,6.929435791015625,2.4910674586713313,-0.2264119236215949,0.28684719443256035
1744402034752409000,6.9394091796875,1.408857328620553,-0.4348272950425744,0.17570695124622435
1744402034762383000,6.949383056640625,-0.203382637950778,0.5102753347367048,0.8552604462906718
1744402034772355800,6.95935595703125,-1.8002607847392558,1.2738377405390142,1.7638184752658008
1744402034782329900,6.969329833984375,-3.075275460103154,1.3051134610295294,2.48571674529314
1744402034792302800,6.979302734375,-3.6601971627622842,0.8228226962834596,3.0026155898228284
1744402034802276900,6.98927685546875,-3.331077436599135,0.5455620444342494,3.381971757534146
1744402034812249900,6.999249755859375,-2.234424939697981,0.829008399181068,3.532643965038657
1744402034822224000,7.009223876953125,-1.2329992419332265,1.1314541995607317,3.156071582826972
1744402034832196900,7.01919677734375,-0.9365092812180519,1.2312372006967662,2.278389753630757
1744402034842171000,7.0291708984375,-1.7029934196859597,1.1144925433658062,1.126668572719395
1744402034852144000,7.03914404296875,-2.9933506256103515,0.7513558351799845,-0.05676119454125873
1744402034862118000,7.049117919921875,-3.961880015945434,0.2514550333328545,-1.13581422140114
1744402034872091000,7.0590908203125,-4.302958475449681,-0.2931592088572681,-1.917420014220476
1744402034882065000,7.06906494140625,-3.852426538535952,-0.7808399230133741,-2.3136355467960237
1744402034892038000,7.079037841796875,-2.6547096223860978,-1.2337027140274643,-2.2916996093198656
1744402034902012000,7.089011962890625,-0.9835077637583016,-1.7125146967470646,-1.7960650866150856
1744402034911985000,7.09898486328125,0.6352700801491737,-2.1506433714225888,-1.0532964625164867
1744402034921959000,7.108958984375,1.7458663467288016,-2.5299033852830526,-0.4027337188305333
1744402034931932000,7.118931884765625,2.240929499286413,-2.793719449147582,0.0036061712658032774
1744402034941906000,7.128906005859375,2.187340532439947,-2.848423976020515,0.2975156505011022
1744402034951879000,7.13887890625,1.7987784372270106,-2.5702976472526786,0.3871268747780472
1744402034961852700,7.148852783203125,1.2869786694020031,-2.188790877378732,0.20917269259430468
1744402034971826000,7.158825927734375,0.6554793399631976,-1.702170412865281,-0.3204810771554708
1744402034981800000,7.168800048828125,0.0008756137907505035,-1.1276314994674175,-1.0516047100372612
1744402034991773000,7.17877294921875,-0.6153197635322809,-0.620960253637284,-1.7548592160016296
1744402035001747000,7.188746826171875,-1.1341314559459685,-0.2765689797906205,-2.210822822575271
1744402035011720000,7.198719970703125,-1.5785323427587747,-0.16937150114700197,-2.0928563683643935
1744402035021694000,7.20869384765625,-1.7703899626106023,-0.21027352997567503,-1.3933634068906307
1744402035031667000,7.2186669921875,-1.6278385177195072,-0.2760204059971496,-0.7164325519673526
1744402035041641000,7.228640869140625,-0.9612480011552572,-0.36252076824456453,-0.35939065352529287
1744402035051613700,7.23861376953125,-0.040755204236507414,-0.33092772543318566,-0.28731004443764685
1744402035061587700,7.248587646484375,0.6771364604979753,-0.09663980773948132,-0.4536193815350532
1744402035071561000,7.25856103515625,1.0319377404063939,0.2984702478121966,-0.7845682228215038
1744402035081535000,7.268534912109375,1.1372557254463433,0.6139850808624178,-1.3078161441169678
1744402035091508000,7.278508056640625,1.3932342275530099,0.7578725235976278,-1.938247552063316
1744402035101482000,7.28848193359375,1.853956134569645,0.7491643895503133,-2.4504068008504807
1744402035111455000,7.298455078125,2.452344637045264,0.6589684241879731,-2.700719093888998
1744402035121429000,7.308428955078125,3.015662410661578,0.46166116062812507,-2.5644883764520285
1744402035131402000,7.318402099609375,3.513755724695325,0.28820531277693806,-2.3247563680082557
1744402035141376000,7.3283759765625,3.9493315000176428,0.24266177828535437,-2.02181080141291
1744402035151348700,7.3383486328125,4.235867637473344,0.11475450642704962,-1.9611364063501358
1744402035161322500,7.348322509765625,4.209135697892308,-0.08076499693319202,-2.205179263730347
1744402035171295700,7.358295654296875,3.71371189532876,0.08585749776661396,-2.4713763775125144
1744402035181269800,7.368269775390625,2.929599745711684,0.6814006207484752,-2.664850784911215
1744402035191242500,7.378242431640625,1.9700790067404508,1.402840844810009,-2.559539814133942
1744402035201216500,7.388216552734375,0.8131576268374919,1.9963418675050137,-1.8771644300691783
1744402035211189500,7.398189453125,-0.20040099179148674,2.40301361990422,-1.075211430269852
1744402035221163500,7.40816357421875,-1.0444359874516724,2.732677243685722,-0.6504203030079603
1744402035231136500,7.418136474609375,-2.091364960762858,2.9032386852696535,-0.06742284640967845
1744402035241110500,7.428110595703125,-3.1441064197450874,2.9524314629837867,1.1395857027638703
1744402035251083500,7.43808349609375,-3.66783277220726,2.626605517669022,1.4800833667054771
1744402035261057500,7.4480576171875,-3.4249849698305126,2.1584924774877727,0.7616257386513053
1744402035271030500,7.458030517578125,-2.4209692555725573,1.6088096998617052,-0.33882731957659123
1744402035281004500,7.468004638671875,-1.4555173729866742,1.1077158157724887,-1.3629853658922015
1744402035290977500,7.4779775390625,-1.0390683229386806,0.6814524970661848,-1.706245407219231
1744402035300951600,7.48795166015625,-1.0795809505909681,0.3979419545093551,-1.1233313180554658
1744402035310924500,7.497924560546875,-1.6155536211639643,0.10696682995921,0.17614282191284
1744402035320898600,7.507898681640625,-2.5443466289162635,-0.492484168915078,1.6946382637947797
1744402035330871600,7.51787158203125,-3.5469916393429037,-1.299417733605951,3.252734552246332
1744402035340845600,7.527845458984375,-3.852852654993534,-2.1135265236884355,4.1939898589476945
1744402035350819600,7.537819580078125,-3.2848201278150078,-2.743436830370128,3.974773692049086
1744402035360792600,7.54779248046875,-2.2487404652982947,-2.9738726026803253,2.859675145614147
1744402035370766600,7.5577666015625,-1.0549082816272974,-2.633322550964355,1.6166384937912224
1744402035380739300,7.5677392578125,0.01713058302104473,-2.096277867245674,0.4996405800083652
1744402035390713300,7.57771337890625,0.7248042206019163,-1.7823621399551628,-0.6675476711586117
1744402035400686600,7.5876865234375,0.9726613755732774,-1.5547586684614418,-1.542226665277034
1744402035410660600,7.59766064453125,0.9161626587599515,-1.345307231990993,-1.847730391922593
1744402035420633600,7.607633544921875,0.6911176395773887,-1.1649763838037848,-1.611943321712315
1744402035430607600,7.617607666015625,0.48883624086678024,-0.9936628817435353,-1.0092059033121914
1744402035440580600,7.62758056640625,0.4500029446035623,-0.8736451940912753,-0.37915257143061604
1744402035450554600,7.6375546875,0.45227907284200186,-0.8305202650487422,0.16413036735681816
1744402035460527400,7.64752734375,0.49133390290141105,-0.861184137251228,0.6193332369573414
1744402035470501400,7.65750146484375,0.7159580663233995,-0.7268962244451046,1.1648492502927779
1744402035480474400,7.667474365234375,1.2901806803137064,-0.36165487213023007,1.6408530437238513
1744402035490448400,7.677448486328125,2.138428325232863,0.16807974430341271,1.690452794803679
1744402035500421600,7.687421630859375,2.6200959896445273,0.9280627937816083,1.6253794341295957
1744402035510395600,7.697395751953125,2.1980723543345926,1.7807446217559277,1.3199106326669454
1744402035520368600,7.70736865234375,0.8967699760258198,2.2484562415294347,0.5303080689400435
1744402035530342700,7.7173427734375,-0.6626835722535849,2.730819925381243,-0.1929720838997513
1744402035540315600,7.727315673828125,-1.468030233079195,3.7345556536540387,-0.24176190683618187
1744402035550289700,7.73728955078125,-1.6676315989255903,4.652065927630662,0.8401715982303023
1744402035560262400,7.747262451171875,-2.0542250244140625,4.5729836230874055,2.451112464901805
1744402035570236400,7.757236328125,-2.993461684769392,3.6838840355589983,3.6192554960429666
1744402035580209400,7.76720947265625,-3.6364831096976995,2.765898253025114,4.2079561327189205
1744402035590183400,7.777183349609375,-3.697079909479618,2.0833014812946318,3.863264158892631
1744402035600156700,7.78715673828125,-3.868651112627983,1.6077191281460224,2.384604833640903
1744402035610130400,7.79713037109375,-4.099305203863978,1.6141814560279248,0.7421558259624987
1744402035620103700,7.807103759765625,-3.985541462039947,1.5966861313477159,-0.6966294618014246
1744402035630077700,7.81707763671875,-3.401035938966274,1.0368863027244806,-1.781084667365253
1744402035640050400,7.827050537109375,-2.529133277693391,0.24504691985622046,-2.282719745659083
1744402035650024400,7.8370244140625,-1.5856833835572004,-0.5666831583961844,-2.20290751940608
1744402035659997400,7.84699755859375,-0.8327344339668751,-1.3633072913229465,-1.7112920230843125
1744402035669971500,7.856971435546875,-0.5199982718497514,-2.1424137416072186,-0.8998775135871022
1744402035679944400,7.8669443359375,-0.5472831691384316,-2.9275568417072293,-0.02790587873123586
1744402035689918500,7.87691845703125,-0.6115174486398697,-3.5544635826587676,0.7162544919867068
1744402035699891500,7.886891357421875,-0.457946597084403,-3.960008376854658,1.0406550076082348
1744402035709865500,7.896865478515625,-0.19143033435046672,-4.0179765816986555,0.9986257648479193
1744402035719838700,7.906838623046875,0.22997078514695166,-3.826382581219077,0.7024733655240386
1744402035729812700,7.916812744140625,0.8020879512906074,-3.5546076673045754,0.24277283744439482
1744402035739785500,7.926785400390625,1.419319685924053,-3.248945096835494,-0.1453127993632108
1744402035749759500,7.936759521484375,1.8910294354230164,-2.8724308745518323,-0.40787864397093654
1744402035759732500,7.946732421875,2.1366694988667962,-2.469122168844938,-0.6829138748556375
1744402035769706500,7.95670654296875,2.166526292470097,-2.1741130943372844,-0.9691526367999612
1744402035779679500,7.966679443359375,2.0462556529700753,-2.040741565723717,-1.1491770493865012
1744402035789653500,7.976653564453125,1.871020666617155,-1.8817659325152634,-1.1554068836867808
1744402035799626500,7.98662646484375,1.78199447568655,-1.7927999473392962,-1.0761813712805508
1744402035809600500,7.9966005859375,1.80541919041574,-1.6701526418358086,-1.0399074041113257
1744402035819573800,8.00657373046875,1.9833616821616886,-1.5343454105079173,-0.9895965821526944
1744402035829547500,8.016547607421876,2.1855507264137266,-1.4150503380417823,-0.9906742943868041
1744402035839520500,8.0265205078125,2.340242690953612,-1.282524466472119,-1.1795115435041486
1744402035849494500,8.03649462890625,2.4100696758955715,-1.0964444801736621,-1.5385725266836583
1744402035859467500,8.046467529296875,2.31969499296546,-0.8230199724212288,-2.0588675895228983
1744402035869441500,8.056441650390624,2.1639450438052417,-0.5647538343014196,-2.5423417188346384
1744402035879414500,8.06641455078125,1.8213824832230805,-0.3808690199596807,-2.79445974612087
1744402035889388500,8.076388427734376,1.2497235822409392,-0.18550525515042243,-2.7286498878657817
1744402035899362600,8.086362548828125,0.5142565133273601,-0.07165422776858323,-2.402499679032713
1744402035909335600,8.09633544921875,-0.011745382851362228,0.08701288747997023,-1.926388187443465
1744402035919309600,8.1063095703125,-0.30740941413640976,0.43297187643423674,-1.5180210293032228
1744402035929282300,8.1162822265625,-0.49840018802583214,0.9167496648676693,-1.3090855795308947
1744402035939256300,8.12625634765625,-0.9134130677908658,1.3618718516923487,-1.2255088861778378
1744402035949229600,8.1362294921875,-1.6444769333094358,1.5997579400084911,-1.2847197845593095
1744402035959203600,8.14620361328125,-2.6954823622792956,2.197677363667637,-1.0231675739735364
1744402035969176600,8.156176513671875,-3.7430806131541727,3.0680276809319853,-0.44722383527904747
1744402035979150600,8.166150634765625,-4.496031316310167,3.641290509979427,0.014432283847779035
1744402035989123600,8.17612353515625,-4.72633469441235,3.875791632032394,0.30353841792196035
1744402035999097600,8.18609765625,-4.624392323285341,3.856248727172613,0.4877348554961383
1744402036009070600,8.196070556640626,-4.428767459854483,3.6959970826789736,0.4277946199268102
1744402036019044600,8.206044677734376,-4.405432761496305,3.433087904526293,0.09275193345546721
1744402036029017300,8.216017333984375,-4.448586259046197,3.0018662327602503,-0.25499782050624487
1744402036038991400,8.225991455078125,-4.068800760006904,2.426912528016418,-0.3142383833736181
1744402036048964600,8.235964599609375,-3.1676258270204065,1.8649675040580331,-0.09530512506961822
1744402036058938600,8.245938720703125,-1.811752485090494,1.1596209211852402,0.3669214874215424
1744402036068911600,8.25591162109375,-0.26291736145913597,0.30030813076384366,0.8921639435350894
1744402036078885600,8.2658857421875,1.2595944033920765,-0.5575846367917955,1.404025086158514
1744402036088858600,8.275858642578125,2.5581273169875143,-1.3442891409896314,1.7046309577599166
1744402036098832600,8.28583251953125,3.533953294071555,-1.987388307329267,1.736639668700099
1744402036108805400,8.295805419921875,4.023531877738237,-2.398535597707331,1.5342999639309942
1744402036118779400,8.305779296875,3.9826913333058354,-2.545939451065659,1.2032796648435293
1744402036128752400,8.31575244140625,3.612924539455771,-2.499222415815294,0.918873671284318
1744402036138726400,8.325726318359376,3.095790424865484,-2.345133531735092,0.6309853885672986
1744402036148699600,8.33569970703125,2.636277309116721,-2.1145504599086937,0.32126623618379235
1744402036158673200,8.345673095703125,2.2678660215288398,-1.8660346948981283,-0.12486468929201364
1744402036168646100,8.355646240234375,1.990097712418437,-1.675432043543458,-0.5465248981170356
1744402036178620200,8.3656201171875,1.8494857111573217,-1.5296629517801106,-0.735159318138659
1744402036188593200,8.37559326171875,1.8718997875392436,-1.238726825799793,-0.8003622965417801
1744402036198567000,8.38556689453125,1.8726228411167858,-0.8967747983314096,-0.8127382323816418
1744402036208540000,8.395539794921875,1.729796670937538,-0.554145090797171,-0.9007434097014367
1744402036218514000,8.405513916015625,1.2546440875083207,-0.10127591570806689,-1.2296138372786343
1744402036228487000,8.41548681640625,0.3976736224293709,0.3407004930373281,-2.0161274950794876
1744402036238461000,8.4254609375,-0.598840337896347,0.612664718978852,-2.9119711500406265
1744402036248434200,8.43543408203125,-1.292454470464587,0.8744812795892357,-3.4040465189591047
1744402036258408200,8.445408203125,-1.5762304955571889,1.1618672388073057,-3.3100749805808065
1744402036268381200,8.455381103515625,-1.389162448069453,1.445838567276299,-2.745602776232362
1744402036278355200,8.465355224609375,-1.2513643351852892,1.78040925232172,-1.9798089581161735
1744402036288328000,8.475327880859375,-1.8394822035372256,1.9878077017851172,-1.3410757319010793
1744402036298302000,8.485302001953125,-3.828929927614331,1.9786505818612872,-0.4468707840576768
1744402036308276000,8.49527587890625,-6.269307648012042,1.8561888620577751,0.4285942458719015
1744402036318249000,8.5052490234375,-7.779875877091288,1.7301701804250478,0.8963475128300488
1744402036328223000,8.515222900390626,-7.8918439676702015,1.8691781074903904,1.0052113537833094
1744402036338196000,8.525196044921875,-6.94606475380361,2.251265599861741,0.8600177238203585
1744402036348170000,8.535169921875,-5.824577675375342,2.441158641642332,0.39751287890970705
1744402036358143000,8.54514306640625,-5.033866858145594,2.3826354332640767,-0.21168416395857928
1744402036368117000,8.555116943359375,-4.5992070286244155,2.171628730175644,-0.7142429329685867
1744402036378090200,8.56509033203125,-4.099327415695786,1.7304079347036778,-1.0870788320656866
1744402036388064300,8.575064208984376,-3.3187188902854916,1.170448531604558,-1.3392667827829718
1744402036398037000,8.585037109375,-2.2069886512398718,0.602999211141467,-1.4600436182394623
1744402036408011000,8.595010986328125,-0.8856266507208347,0.07648585830926895,-1.550042891985923
1744402036417984000,8.60498388671875,0.4790595277398824,-0.38886849428098647,-1.527865108577907
1744402036427958000,8.6149580078125,1.6432839241325854,-0.8159422891199588,-1.3606421637669204
1744402036437931000,8.624930908203124,2.5142437515974043,-1.219183701744303,-1.097090742187947
1744402036447905000,8.634905029296876,3.0695249337524175,-1.5829497208096086,-0.7087167899582535
1744402036457878000,8.6448779296875,3.480470710209012,-1.9112584228508174,-0.251006047456339
1744402036467852000,8.65485205078125,3.786967101153731,-2.2116109042130407,0.07803396453410387
1744402036477825000,8.664824951171875,3.981586586934328,-2.5863781366989014,0.23673728360719978
1744402036487799000,8.674799072265625,3.968404449278116,-2.955926027101278,0.4579328608199954
1744402036497772000,8.68477197265625,3.9584365974932907,-3.2558933085381985,0.8886947330545634
1744402036507746000,8.69474609375,3.9498207448393106,-3.553369942203164,1.157030247104913
1744402036517719000,8.704718994140626,3.8203707735836505,-3.799835935077071,1.3484686186313628
1744402036527693000,8.714693115234375,3.87404624966979,-3.8913562809109687,1.321416361054778
1744402036537666000,8.724666015625,3.9122774883866307,-3.763753398826718,0.9550633211709558
1744402036547640000,8.73464013671875,3.7088451660752293,-3.3754099148005245,0.30194749546870586
1744402036557613000,8.744613037109374,3.2850001605570314,-2.826017206162214,-0.5108939050264656
1744402036567587000,8.754587158203124,2.4675778620123863,-2.1829995806261895,-1.4664102306619287
1744402036577560000,8.76456005859375,1.3460720788836478,-1.5224870688013732,-2.318553860106319
1744402036587533800,8.774533935546875,0.21692308752536774,-0.9980660851385443,-2.7819670520335436
1744402036597507000,8.784507080078125,-0.6094488256722689,-0.6797849291801452,-3.018249504545331
1744402036607481000,8.794481201171875,-1.0910580378949641,-0.580388516208902,-3.098149847473204
1744402036617454000,8.8044541015625,-1.225129823732376,-0.6384579894702881,-3.1702982611000534
1744402036627428000,8.814427978515624,-0.7923620915681123,-0.7965611506931484,-3.211835263364017
1744402036637401000,8.824401123046876,0.060654082927107805,-0.7997728792812675,-3.0731857943475243
1744402036647375000,8.834375,0.7589496513098478,-0.7640665559321641,-3.1326568049699066
1744402036657347800,8.844347900390625,0.9784276840150355,-0.5501965723671018,-3.3826220381364225
1744402036667321900,8.85432177734375,0.5829091937929392,-0.09275003375932574,-3.7235844700455663
1744402036677295900,8.8642958984375,-0.062417585468292236,0.4227925738558173,-3.9774522636085745
1744402036687268900,8.874268798828124,-0.6290209566265345,0.8316130287215113,-4.158799595361947
1744402036697243000,8.884242919921874,-1.0702391217499971,1.0922286891095339,-4.265587360693514
1744402036707216100,8.894216064453126,-1.2542752541959286,1.3873932464398442,-4.133026856201887
1744402036717190100,8.904190185546875,-1.3558803561925887,1.7778988769359885,-3.8199119239002464
1744402036727163100,8.9141630859375,-1.3706184911191464,2.309747745577246,-3.136555565974116
1744402036737137200,8.92413720703125,-1.566407020679116,2.854683036415279,-1.6198847822360694
1744402036747110100,8.934110107421875,-2.1340005719184876,3.1844758395344015,0.3026430765174329
1744402036757084200,8.944084228515624,-2.936422285208106,3.5429999393582343,1.9817251670010387
1744402036767057000,8.954056884765626,-3.784458917725086,4.047890073925257,3.5346751786053177
1744402036777031000,8.964031005859376,-4.505716844022274,4.494578487153351,4.8638376237422225
1744402036787004000,8.97400390625,-4.749564763352274,4.793876198765635,5.6977603907108305
1744402036796978000,8.98397802734375,-4.37929469615519,4.902886900843679,5.749750690189003
1744402036806951200,8.993951171875,-3.8320541971147057,4.968177703660726,5.027426595965028
1744402036816925000,9.003925048828124,-3.829485807931423,4.821249358859658,3.570222000543773
1744402036826898200,9.013898193359376,-4.33750021199882,4.151822157564759,1.94407275108546
1744402036836872200,9.0238720703125,-4.458205151262879,3.067899670638144,0.6870423529624938
1744402036846845000,9.033844970703125,-3.9834389368027447,1.6931991709023713,0.014105536111444234
1744402036856819000,9.04381884765625,-3.207133077022433,0.37357173909097907,0.21644977092519402
1744402036866792000,9.0537919921875,-2.254523140352964,-0.7530533598128706,0.9581890519760549
1744402036876766000,9.063765869140624,-1.2919587959021328,-1.8337778544157743,1.5622187752090393
1744402036886739000,9.073739013671876,-0.6530313622891902,-2.869436953432858,1.6486330300755798
1744402036896713000,9.083712890625,-0.5815782374501228,-3.7540453670218583,1.3025287052333354
1744402036906686000,9.09368603515625,-0.8453279580801725,-4.297716190882027,0.7900621440626681
1744402036916660000,9.103659912109375,-0.9978870022445917,-4.564311071810126,0.26329993103593585
1744402036926633200,9.11363330078125,-1.0247826079547404,-4.619677277462184,-0.47347997404187914
1744402036936607200,9.123607177734375,-0.948750923153758,-4.644488185852766,-1.336708184341341
1744402036946580000,9.133580078125,-0.742766578271985,-4.3273003050237895,-2.006329154642671
1744402036956554000,9.143553955078126,-0.5681102685898543,-3.806256615774333,-2.580996735921502
1744402036966528000,9.153528076171876,-0.3758393917620182,-3.2062674001038074,-3.134716660109162
1744402036976501000,9.1635009765625,-0.14723989496827125,-2.514837333576381,-3.6722625713482495
1744402036986475000,9.17347509765625,-0.01968260559141636,-1.8370676897414027,-4.293237291902304
1744402036996448000,9.183447998046875,0.02558627667725086,-1.3653719687677919,-4.8837648517444725
1744402037006422000,9.193422119140624,0.16223171239495277,-1.022740069276467,-5.126581966722012
1744402037016395000,9.20339501953125,0.33087212278842926,-0.772636523617804,-5.181666140562296
1744402037026369000,9.213369140625,0.5122703079462051,-0.6181476804345846,-5.151461556434631
1744402037036342300,9.22334228515625,0.6204945358216762,-0.5036754980802536,-5.056212545466423
1744402037046316000,9.23331591796875,0.6216384451597928,-0.42555948128588494,-4.866539283916354
1744402037056289000,9.2432890625,0.5979314063578843,-0.37337438988797367,-4.5063495889678595
1744402037066263000,9.253262939453125,0.5512345371127129,-0.2907566046949476,-4.104497804071009
1744402037076236000,9.263236083984374,0.544361728733778,-0.2828569009536877,-3.80854706479907
1744402037086210000,9.2732099609375,0.6052379299789666,-0.2360208972324617,-3.5156320399612184
1744402037096183000,9.28318310546875,0.7310626964747905,-0.03940969421195332,-3.183038500207662
1744402037106157000,9.293156982421875,0.6910615254759788,0.13445068388609216,-2.782782752330601
1744402037116130000,9.303130126953125,0.27251754897534847,0.23420933603215963,-2.4019682025045155
1744402037126104000,9.31310400390625,-0.38641865344345566,0.3311958017848432,-2.0962369507133958
1744402037136076800,9.323076904296874,-1.0958908648788928,0.4599048550127074,-1.7083634222865103
1744402037146050800,9.33305078125,-1.5807371593266724,0.631650574477762,-1.1300643526375294
1744402037156024600,9.343024658203126,-1.6918857502162457,0.7525451180297881,-0.4287663875684142
1744402037165998300,9.352998291015625,-1.624931105840206,0.6671179745044559,0.38006928441673515
1744402037175971600,9.3629716796875,-1.4973001667052506,0.3278589855123311,1.3651613947570322
1744402037185945600,9.372945556640625,-1.2642395988494157,-0.10072661126223392,2.3714774949118493
1744402037195918600,9.382918701171874,-1.0140946252018213,-0.5062529108202085,3.0878333283811807
1744402037205892600,9.392892578125,-0.8611480430245398,-0.5090355638086795,3.154556502088904
1744402037215865600,9.402865478515626,-1.113697739726305,0.028643065865407696,2.162909271016717
1744402037225839600,9.412839599609375,-1.562684785285592,0.8340847525972872,0.40859789815619585
1744402037235813600,9.422813720703125,-2.155727250558138,1.7617552591256795,-1.5716298698939382
1744402037245786400,9.432786376953125,-2.7875270242482424,2.5246146312251687,-3.4235751030325887
1744402037255760400,9.442760498046875,-3.107403705769777,2.9796225445091724,-5.0506899826526634
1744402037265733400,9.4527333984375,-2.8328292242646214,3.157143595972657,-6.112794313263893
1744402037275707400,9.462707275390626,-2.41618962008059,3.3818817411631343,-6.324643750786781
1744402037285680600,9.4726806640625,-2.007658503550291,3.4586323878884313,-5.967015723019838
1744402037295654700,9.482654541015625,-1.6478776816636322,3.2502611478701233,-5.260069230669736
1744402037305627600,9.492627685546875,-1.3315449563592672,2.8505770624011753,-4.30018258099556
1744402037315601700,9.5026015625,-0.9756447752982378,2.1845897724270817,-3.442504259908199
1744402037325574700,9.51257470703125,-0.5779898575693369,1.4159673067562282,-2.792796196822822
1744402037335548700,9.522548583984374,-0.1905634883880615,0.7366187231667339,-2.2427931012012063
1744402037345521400,9.532521484375,0.29038170696794985,0.09175846543870866,-1.9294177643977104
1744402037355495400,9.542495361328125,0.6250152281165122,-0.2862383235529065,-2.053378782848269
1744402037365468400,9.552468505859375,0.8514175071269273,0.12632292527630926,-2.1384879464656112
1744402037375442400,9.5624423828125,1.0001239675164222,0.7005031614296138,-2.096459069031477
1744402037385415700,9.572415771484375,0.9605372225373983,0.7970629627354443,-2.1807767900101838
1744402037395389400,9.582389404296874,0.7971364663630723,0.6749645232863724,-2.3197012765757736
1744402037405362700,9.59236279296875,0.665849927330017,0.6338439928688109,-2.397510784704238
1744402037415336700,9.602336669921876,0.6147486856460571,0.6866779035642743,-2.4044233405716717
1744402037425309400,9.612309326171875,0.6511562160670757,0.6937701999127864,-2.410255846117437
1744402037435283500,9.622283447265625,0.6875520560503006,0.6783269123915583,-2.4118461840488017
1744402037445256400,9.63225634765625,0.7102858659058808,0.6806177267424762,-2.3599634365983304
1744402037455230500,9.64223046875,0.6463263116925955,0.7457797886133194,-2.3755969129294154
1744402037465203500,9.652203369140626,0.5499889209657907,0.8401273206971586,-2.402368892259896
1744402037475177500,9.662177490234376,0.3329880920290947,0.9741881467491388,-2.4020725396618245
1744402037485151500,9.6721513671875,0.036731940069794654,1.1760305695205926,-2.359579844108224
1744402037495124500,9.68212451171875,-0.275879134362936,1.3891077952727675,-2.3492812990643084
1744402037505098500,9.692098388671875,-0.6201455762535333,1.505509484384954,-2.2503839947216213
1744402037515071700,9.70207177734375,-1.0313245769441126,1.580473247693479,-1.9817630147933958
1744402037525045800,9.712045654296874,-1.3878560416460037,1.6325519561074673,-1.6356481685571371
1744402037535018500,9.7220185546875,-1.6176456250071525,1.6879162620633839,-1.2688351099461317
1744402037544992500,9.731992431640625,-1.6894471248924732,1.71021533376351,-0.8637500422164798
1744402037554965500,9.741965576171875,-1.610482893770933,1.6888744395710527,-0.6059634677745401
1744402037564939500,9.751939453125,-1.4444734164029358,1.6671636891528963,-0.5914987429618835
1744402037574912500,9.76191259765625,-1.1730582757115364,1.7618419144958257,-0.7509031229764223
1744402037584886500,9.771886474609374,-0.9881424378216266,1.876486092416197,-0.9296044702656566
1744402037594859500,9.781859619140626,-0.925841172209382,1.9582719568297267,-1.092842875485122
1744402037604833500,9.79183349609375,-0.9569184475183486,2.0014298382937907,-1.2245089153550563
1744402037614806500,9.801806640625,-1.0254162296831608,1.9977806681364774,-1.2429125870518385
1744402037624780500,9.811780517578125,-1.0486398688822984,1.975710144495219,-1.0646458317875862
1744402037634753500,9.82175341796875,-0.9551923543781041,1.942718998388946,-0.7293779582582414
1744402037644727600,9.8317275390625,-0.7171271101027726,1.8551513357035814,-0.29273937601000066
1744402037654700500,9.841700439453126,-0.4109299943655729,1.719316047324985,0.11009294435679912
1744402037664674600,9.851674560546876,-0.10753098491430282,1.5348137586720287,0.436373209310323
1744402037674647600,9.8616474609375,0.15228081174492836,1.2873995251625776,0.6587624532870948
1744402037684621600,9.87162158203125,0.282354467856884,1.2261891235269606,0.9275587897822261
1744402037694594600,9.881594482421875,0.25987843215465545,1.4294576335787772,1.1960361234560608
1744402037704568600,9.891568603515625,0.051956981730461115,1.6250822047486901,1.4250174591742455
1744402037714542600,9.90154248046875,-0.117348030051589,1.8688905227206647,1.5289961584344505
1744402037724515300,9.911515380859376,-0.388754987436533,1.9678809121742844,1.4338039922200143
1744402037734489300,9.9214892578125,-0.6763789201289415,1.9646290707714855,0.9158901254288851
1744402037744462600,9.931462646484375,-0.8632119898170232,2.0273910857632753,0.25054683244675396
1744402037754436600,9.9414365234375,-0.8149977017462253,2.0874501254066824,-0.39938846352323887
1744402037764409600,9.95140966796875,-0.7570791812628507,1.9695551289968192,-0.8254147586032747
1744402037774383600,9.961383544921874,-0.9708481886714696,1.643372186937928,-1.0916448978722095
1744402037784356600,9.971356689453126,-1.1386199995368718,1.5265890972927212,-0.8778655152000486
1744402037794330600,9.98133056640625,-0.9937368968278169,1.7312762419708072,-0.13081439147666096
1744402037804303600,9.9913037109375,-0.5286936194807291,1.8236878375560044,0.6828193284399807
1744402037814277600,10.001277587890625,0.22585867365300655,1.6661306928433477,1.3497031288623809
1744402037824250400,10.01125048828125,0.9073229342222213,1.4182245841637253,1.887609690107405
1744402037834224400,10.021224365234374,1.3236293609291314,1.092675117702782,2.1259050898768006
1744402037844197600,10.03119775390625,1.5652724636912345,0.6591961685292422,2.081322582437098
1744402037854171400,10.04117138671875,1.6072405508488417,0.3264797695809975,1.7981021454006432
1744402037864144600,10.05114453125,1.4545722010910511,0.12738931239880621,1.3118446689806877
1744402037874118700,10.06111865234375,1.2236784558802842,0.06693440530560911,0.7189807751454412
1744402037884091600,10.071091552734375,0.99518592659235,0.06347980787232518,0.15563786708787083
1744402037894065700,10.081065673828125,0.866079069685936,0.00020936843436211348,-0.35884602525457737
1744402037904039700,10.091039794921874,0.9130003953367472,-0.13756236789952964,-0.8609934369847178
1744402037914012400,10.101012451171876,1.0367015938073396,-0.17418328534290192,-1.2004627077266574
1744402037923986400,10.110986328125,1.1168827995032071,-0.17920082124397158,-1.3835960461139678
1744402037933959400,10.12095947265625,1.1759709482878447,-0.182984139174968,-1.4349702595204115
1744402037943933400,10.130933349609375,1.1266448995828628,-0.253767182732746,-1.4294586564920841
1744402037953906400,10.140906494140625,0.962710474923253,-0.282384278473258,-1.3545695658549666
1744402037963880400,10.15088037109375,0.7402817757189274,-0.33351460012122985,-1.1717616600297391
1744402037973853700,10.160853759765626,0.4084498679876327,-0.41658159038648007,-0.9681897831171751
1744402037983827700,10.17082763671875,0.047723874205350875,-0.5190899248331785,-0.7680811984010041
1744402037993800700,10.18080078125,-0.14162731578350066,-0.566001313611865,-0.5779810897409916
1744402038003774700,10.190774658203125,-0.28821371527910233,-0.6642459261994809,-0.41881124913468953
1744402038013747500,10.20074755859375,-0.31144319969713685,-0.7824142596580088,-0.1948692227579653
1744402038023721500,10.210721435546875,-0.1996791072577238,-0.8770010073252021,-0.026279665768891573
1744402038033694500,10.220694580078124,-0.0801478879481554,-0.938150326423347,-0.016153554682433603
1744402038043668500,10.23066845703125,0.0018003274202346802,-0.9544082182630896,-0.04025806836932897
1744402038053641500,10.240641357421875,-0.05065642052590847,-0.9748318514801562,-0.11647460821792482
1744402038063615500,10.250615478515625,-0.25542671344280243,-1.0348994397561997,-0.3048728813961148
1744402038073588700,10.260588623046875,-0.5570037681639194,-1.0194770488925278,-0.5418566140450537
1744402038083562500,10.2705625,-0.8663046951353549,-0.8765845354788004,-0.7669130314044654
1744402038093536500,10.28053662109375,-1.143990586659312,-0.7752195989135652,-0.9202917213886975
1744402038103509500,10.290509521484376,-1.287988138705492,-0.6761839090134948,-0.9133082922421395
1744402038113483500,10.3004833984375,-1.3288362819224595,-0.6362120371744037,-0.7367169228442013
1744402038123456500,10.31045654296875,-1.2346493472278117,-0.6924134515415876,-0.4902284258775413
1744402038133430500,10.320430419921875,-0.9824275673061609,-0.6735351480703801,-0.2643418413043022
1744402038143403500,10.330403564453125,-0.7475035436660051,-0.5708345059219747,-0.012959580946713685
1744402038153377500,10.34037744140625,-0.47768239416778085,-0.4458052371853962,0.12257204831019043
1744402038163349800,10.350349853515626,-0.3379845851421356,-0.19222305563073605,0.1239773850634694
1744402038173323800,10.36032373046875,-0.29370646747648715,-0.03263867940679192,0.12458324200212954
1744402038183297000,10.370297119140625,-0.17987024493813514,0.3370292937112972,0.32989056440517306
1744402038193271000,10.38027099609375,-0.09251812469959259,0.5226719480384141,0.33272198843881484
1744402038203244000,10.390244140625,-0.039249475848674775,0.6097607046330348,0.43084816227853295
1744402038213218000,10.400218017578124,-0.08770400241613388,1.192074161022529,0.8842001250490545
1744402038223191000,10.41019091796875,-0.22812661858499048,1.6373467891685665,0.9930668886117636
1744402038233165000,10.4201650390625,-0.5218208111017942,1.8638706487320362,0.7789213029757142
1744402038243137800,10.4301376953125,-0.9278829071700573,2.079286254303902,0.5199557478822767
1744402038253111800,10.44011181640625,-1.2813982389211653,2.3018973243378102,0.12542524578422307
1744402038263084800,10.450084716796875,-1.3880132780343293,2.3921603635869917,-0.41517391554564237
1744402038273058800,10.460058837890625,-1.07955873875916,2.3732851288557053,-1.0906523797035217
1744402038283032800,10.47003271484375,-0.42040860132873054,2.239624408037215,-1.667783574616909
1744402038293005800,10.480005859375,0.301321618655324,1.9355992295116184,-2.0887851734027265
1744402038302979800,10.489979736328126,1.0063730910390616,1.5318813584819435,-2.2740620996899903
1744402038312953000,10.499953125,1.6736486672580242,1.2056103728134184,-2.1460275481902062
1744402038322927000,10.509927001953125,2.210763493603468,0.9624149991080164,-1.7003038883410393
1744402038332900000,10.519900146484375,2.6153759753853083,0.7891822924882174,-1.0495923473015427
1744402038342874000,10.5298740234375,2.8278794929027558,0.7493632000580429,-0.4260515756517648
1744402038352846800,10.539846923828126,2.7440479480057953,0.879706613022089,0.11084829276874661
1744402038362820900,10.54982080078125,2.3351725480824705,0.9853837136980146,0.4686892326340079
1744402038372793900,10.5597939453125,1.7462568073511122,1.195143120139092,0.6665006463237106
1744402038382767900,10.569767822265625,1.256784606668353,1.5670317284487187,0.588717003288865
1744402038392740900,10.579740966796875,0.6602350100576877,1.6501223918505012,0.17876462178379296
1744402038402715000,10.58971484375,0.10408639741837977,1.4874771302185952,-0.3088729108177125
1744402038412688100,10.599688232421874,-0.18980828610658645,1.2181041628792881,-0.6975717841528356
1744402038422662100,10.609662109375,-0.18347206882238387,0.9438380166709422,-0.9749231830254197
1744402038432635000,10.619634765625,-0.03060088996887207,0.7483465703614056,-1.200434212284535
1744402038442609000,10.62960888671875,0.02466039400398731,0.5303776270449161,-1.4027563813969492
1744402038452583000,10.6395830078125,-0.11345920591950416,0.25503851784281434,-1.575432038655877
1744402038462556000,10.649555908203125,-0.331795667374134,0.03910816768184304,-1.6893536013901234
1744402038472530000,10.659530029296874,-0.44885202100276944,-0.09694324766546487,-1.6530841642655432
1744402038482503000,10.6695029296875,-0.3912923969596624,-0.16946816645450888,-1.498524009411782
1744402038492477000,10.679476806640626,-0.07434183201789855,-0.1950824636498466,-1.3228347034201025
1744402038502450000,10.689449951171875,0.5310825604438781,-0.33836642406657336,-1.1802169152945279
1744402038512424000,10.699423828125,1.3510329161614179,-0.4998762884603813,-1.103475620919466
1744402038522397000,10.70939697265625,2.002460350385308,-0.7177990180149674,-1.1037564836874603
1744402038532371000,10.719370849609374,2.367175706064701,-0.9227137609038502,-1.14057683269307
1744402038542344000,10.729343994140624,2.485001290500164,-1.1172321974627673,-1.1663222454547881
1744402038552318000,10.73931787109375,2.3797674766123293,-1.1518789287563413,-1.0573451533854008
1744402038562291000,10.749291015625,2.2740695523440837,-1.1381509207203984,-0.919022724366188
1744402038572265000,10.759264892578125,2.228871981745958,-1.0927966251906007,-0.8024947785258293
1744402038582238000,10.769238037109375,2.22773099501729,-1.0456534734826535,-0.7169475157521664
1744402038592212000,10.7792119140625,2.306440374594927,-0.9989265744253992,-0.5844366956211626
1744402038602186000,10.78918603515625,2.5742215426981447,-0.8360266073800623,-0.40289807907938957
1744402038612159000,10.799158935546876,2.806023050403595,-0.7164550560601055,-0.2404633914582431
1744402038622133000,10.809133056640626,2.8916438168048857,-0.691977909668535,-0.1515513284265995
1744402038632106000,10.81910595703125,2.8922143101692197,-0.6316548122614621,0.08978139321208
1744402038642079700,10.829079833984375,2.9887288110285994,-0.3963992916446179,0.32063100702017544
1744402038652053000,10.839052978515625,2.872394926455617,-0.05612356335800141,0.3370157401099801
1744402038662027000,10.849027099609375,2.4688830993920563,0.33875337755754586,0.1482422038786113
1744402038672000000,10.859,1.8905746773928402,0.7409044376619159,-0.20117811364382504
1744402038681974000,10.86897412109375,1.3455103533476591,1.007326665436849,-0.7253047174699604
1744402038691947000,10.878947021484375,0.9124123663157224,1.0865306235983967,-1.2495691223315895
1744402038701921000,10.888921142578125,0.8716267669409513,1.0709701394382865,-1.5817260242335498
1744402038711894000,10.89889404296875,1.288989424702525,1.0421010416980832,-1.6933159291498363
1744402038721868000,10.908867919921875,1.9466227278292179,0.913493877942115,-1.4469824766144155
1744402038731840800,10.9188408203125,2.625877495655417,0.5204146340982988,-0.8914433741755783
1744402038741814800,10.928814697265626,3.3421301610112186,0.09475446891691536,-0.17629384775608778
1744402038751788800,10.938788818359376,4.069062041291594,-0.4300356403192505,0.2714065189935267
1744402038761761800,10.94876171875,4.431581932753324,-1.0142006428595631,0.3890016556739807
1744402038771735800,10.95873583984375,4.161338758450746,-1.304228494888544,0.08872107050418854
1744402038781709000,10.968708984375,3.2941233782112596,-1.0651321539998053,-0.4368332280375063
1744402038791683000,10.97868310546875,1.9070511804193258,-0.6366746862500906,-1.0609249115683137
1744402038801656000,10.988656005859376,0.4463455911397934,-0.6661043404825031,-1.5321365022867917
1744402038811630000,10.998630126953126,-1.2295815424442291,-0.7563211294371635,-1.3403722598068415
1744402038821603000,11.00860302734375,-2.762021411591768,-0.3966227982021868,-0.1744166557073593
1744402038831577000,11.0185771484375,-3.8118507825195787,0.4112108206009492,1.6128518148593605
1744402038841549800,11.0285498046875,-4.073952735942602,0.7840919836118817,2.8975884044229985
1744402038851523800,11.03852392578125,-3.452154131785035,0.8052122938562184,3.0688667621046304
1744402038861496800,11.048496826171874,-2.8213761023581028,0.9060185736253857,2.585789815416932
1744402038871470800,11.058470947265626,-2.8336855488330124,1.203112126256898,1.89061690909937
1744402038881444000,11.068444091796875,-3.0904075627833603,1.4742334716334937,1.1028437527567148
1744402038891417900,11.07841796875,-2.8939398187875747,1.3159579495184124,0.16882862644195556
1744402038901392000,11.088391845703125,-2.029510269874334,1.000211645799875,-0.5855031558088958
1744402038911365000,11.098365234375,-0.9728075060456991,0.5997019962269813,-0.9142181005634367
1744402038921339100,11.108339111328124,-0.3070423343896866,0.27516652911417183,-0.8071778217755258
1744402038931311900,11.118311767578126,-0.37279461723864077,-0.07063238304071127,-0.272075504296273
1744402038941286000,11.128285888671876,-0.914347133770585,-0.48457653759568925,0.5523110803030431
1744402038951259000,11.1382587890625,-1.4863894811123608,-0.8264257622767239,1.1663060249723494
1744402038961233000,11.14823291015625,-1.7224328641712665,-1.0293070996418594,1.3682203439362346
1744402038971206000,11.158205810546875,-1.4575216985464094,-1.0562842461556197,1.262644730873406
1744402038981180000,11.168179931640625,-0.9269394888401031,-0.9534421497099101,0.9957925141833722
1744402038991153000,11.17815283203125,-0.34332653069198127,-0.8873905185882002,0.4342231916695833
1744402039001127000,11.188126953125,0.22827333357930182,-0.8122348859693854,-0.20940131371840834
1744402039011100200,11.19810009765625,0.6958791548907757,-0.6697684159480035,-0.6568494592726231
1744402039021074200,11.20807421875,0.9803256265908479,-0.6573061169989407,-0.9089220399819314
1744402039031048000,11.2180478515625,1.0867354985207318,-0.8158350293532013,-1.0008721555352211
1744402039041021000,11.22802099609375,1.2194441793113946,-1.03481497634314,-0.8918637915447354
1744402039050995000,11.237994873046874,1.5993308006376028,-1.1848697826016694,-0.6801353500530123
1744402039060968000,11.247968017578126,2.2244921592265365,-1.0176282061554491,-0.24924042602330446
1744402039070942000,11.25794189453125,2.80286137150228,-0.6066797993503511,-0.03533719777576625
1744402039080915000,11.2679150390625,2.9343074850112196,0.10014145918488503,-0.20976612844280898
1744402039090889000,11.277888916015625,2.4601935969799755,1.4469465285182,-0.5341335455123335
1744402039100862000,11.287862060546875,1.4276532145053147,2.9794354975044723,-1.2920505658388137
1744402039110836000,11.2978359375,0.06687924105226993,3.9385523318499325,-2.18913413785845
1744402039120809000,11.30780908203125,-1.6242121439158916,3.857226340033114,-2.003570941975713
1744402039130782700,11.31778271484375,-3.4267204153209923,3.226687087798118,0.0003682487905025482
1744402039140756000,11.327755859375,-5.387905921509861,2.5119357669159768,2.635830149871111
1744402039150730000,11.33772998046875,-6.593335019472241,1.405609578870982,4.608096729783713
1744402039160704500,11.34770458984375,-6.469819698962569,0.25142029081303624,5.399367226722836
1744402039170677800,11.357677734375,-5.156875982698798,-0.5795158980928361,4.983816586819291
1744402039180651800,11.36765185546875,-3.251791133916378,-0.7829846799571066,3.7408483240574597
1744402039190624500,11.37762451171875,-1.77763043525815,-0.3546923031086102,2.2185069473370906
1744402039200598500,11.3875986328125,-1.2337030062884091,0.24861889659147707,0.8836711327388882
1744402039210571500,11.397571533203125,-1.5976064610630274,0.978548095524311,-0.036572950115799904
1744402039220545500,11.407545654296875,-2.6555887433081864,1.7337879325307906,-0.7624087057225406
1744402039230518500,11.4175185546875,-3.6151749487310645,1.8784478940084575,-1.6241168668478727
1744402039240492500,11.427492431640625,-3.7994811302900313,1.4361097849443554,-2.29666190790236
1744402039250465500,11.437465576171874,-3.1069425179988146,0.5039491639224812,-2.645689865106344
1744402039260439600,11.447439453125,-1.8661615361481905,-0.32887798982914535,-2.719723361827433
1744402039270412800,11.457412841796875,-0.41307109804749487,-0.8023568313598632,-2.5339123286634684
1744402039280386600,11.467386474609375,0.8068570653885603,-1.1307983660005032,-2.255843867562711
1744402039290360600,11.477360595703125,1.750486992266774,-1.3886407622829078,-1.9853559247188268
1744402039300333600,11.48733349609375,2.600066178050637,-1.6371343154616653,-1.7513390790514647
1744402039310307600,11.4973076171875,3.203596719589829,-1.8323140654735266,-1.5840271407827733
1744402039320280600,11.507280517578126,3.5084430052399633,-1.9182231472969054,-1.3745815495312212
1744402039330254600,11.517254638671876,3.545305878213048,-1.8927495372138916,-1.0776591156829147
1744402039340227600,11.5272275390625,3.3677947636216876,-1.7759930433146653,-0.7065302396994084
1744402039350201600,11.53720166015625,3.0938574109762906,-1.5755845988690853,-0.08740596931762992
1744402039360174600,11.547174560546875,2.929108747324347,-1.4016744313791394,0.44292949908599255
1744402039370148600,11.557148681640625,3.2725042515993117,-1.117647573330626,0.6122432056311518
1744402039380121300,11.567121337890624,4.072521241834759,-0.767063326595351,0.5196267351236195
1744402039390095400,11.577095458984376,5.24909600123465,-0.7132311255775392,0.30307686482481655
1744402039400068600,11.587068603515625,6.277143163943291,-0.8515951287161558,-0.15755597566887736
1744402039410042600,11.597042724609375,6.7757683928966514,-0.9963581852421164,-1.0922848032109438
1744402039420016600,11.6070166015625,6.661532357385754,-1.0731106585983186,-2.128374840991199
1744402039429989600,11.61698974609375,5.863465916696191,-0.6641716188542545,-2.4982713987007736
1744402039439963600,11.626963623046874,4.833810149747133,-0.20275836857259272,-2.234145976626128
1744402039449936600,11.6369365234375,3.9949727227300404,-0.2897369793236255,-1.6994386498138307
1744402039459910700,11.64691064453125,2.5860569419205186,-0.5481485172634945,-1.151952359318733
1744402039469883600,11.656883544921875,0.4469593391239643,-0.2597928727630526,-0.8522340111415833
1744402039479857700,11.666857666015625,-1.8867671018034218,0.4663629085782915,-0.5459859324021265
1744402039489830400,11.676830322265625,-3.829582838565111,1.302844639314711,0.041842707212269306
1744402039499804400,11.686804443359375,-4.961321846416593,2.0573815887488425,0.7624529101904481
1744402039509777700,11.696777587890624,-5.10159482498169,2.5404452375635502,1.4770631421014666
1744402039519751400,11.70675146484375,-4.8723874254226684,2.645326584751904,2.083054082404822
1744402039529724700,11.716724609375,-4.8879690254360435,2.530873399358988,2.21372950380221
1744402039539698700,11.72669873046875,-5.2072091626197095,2.440328328298032,1.8551741320572792
1744402039549672700,11.736672607421875,-5.084133402571082,2.2512772902995346,1.2647682988986373
1744402039559645700,11.746645751953125,-4.422439425876736,1.6327360805027187,0.5764453315410762
1744402039569619700,11.75661962890625,-3.411899278286099,0.7733573121730237,0.10506781880431808
1744402039579592400,11.766592529296876,-2.1153490629404783,-0.036861155940033495,0.1410019686930813
1744402039589566500,11.77656640625,-0.7378723764896392,-0.8026376941278577,0.3830976192619651
1744402039599539500,11.78653955078125,0.49418929233253,-1.4372143851853907,0.7361056590780616
1744402039609513500,11.796513427734375,1.4704437239617107,-1.9085455106303095,1.236582945638895
1744402039619486500,11.806486572265625,2.2159353432834146,-2.2346596252366897,1.6746715805649757
1744402039629460500,11.81646044921875,2.6594021641165018,-2.5027435756787657,1.7211249964430928
1744402039639433700,11.826433837890624,2.6339409751236436,-2.4266721433892844,1.524260800475627
1744402039649407700,11.83640771484375,2.07636671359539,-2.073846401337534,1.1397749417256564
1744402039659380700,11.846380615234375,1.3786433921426533,-1.6625352986998856,0.4920750035922974
1744402039669354800,11.856354736328125,0.8541647600084543,-1.17543632995449,-0.2203038160048425
1744402039679328800,11.866328857421875,0.624021540904045,-0.6845625919107348,-0.8584636993113904
1744402039689301500,11.876301513671875,0.51175768224895,-0.3231704258373007,-1.3213786593928933
1744402039699275500,11.886275634765624,0.4683610235929489,0.009982501364685594,-1.5432748591557144
1744402039709248500,11.89624853515625,0.35705870344638824,0.22431955445222554,-1.6519360171437263
1744402039719222500,11.906222412109376,0.1383317813694477,0.5032504410685971,-1.7605008751504123
1744402039729195500,11.916195556640625,0.017515198424458502,0.811237326299399,-1.8768023187585174
1744402039739169500,11.92616943359375,-0.09206102858185768,1.1384966654181479,-2.192638492717594
1744402039749142500,11.936142578125,-0.22377660668194294,1.5423755722284316,-2.601196643385291
1744402039759116500,11.946116455078124,0.0016050971090793608,1.9145789455756543,-2.6994799074828624
1744402039769089500,11.956089599609374,0.5724094270884991,2.393497749670595,-2.2847739017099142
1744402039779063600,11.9660634765625,1.3350976804047823,2.924239095461368,-1.6166482845328747
1744402039789037600,11.97603759765625,1.6250696375280618,3.2085470354735848,-1.1064840089552104
1744402039799010600,11.986010498046875,0.8927122250676155,2.659198165977001,-0.9282773133151233
1744402039808984600,11.995984619140625,-0.7346808869719504,1.514485402522981,-0.958065717857331
1744402039818957600,12.00595751953125,-3.048734659180045,0.8904576510738581,-0.7187934358797967
1744402039828931600,12.015931640625,-4.96091677274704,1.4126248644605277,-0.3181733482023701
1744402039838904600,12.025904541015626,-5.618172474732995,2.4061152391813696,-0.021979849683120844
1744402039848878600,12.035878662109376,-5.230253938120604,2.9136563266485926,0.15592709582541137
1744402039858851600,12.0458515625,-4.372050716376305,2.7466116610139606,0.273924127837643
1744402039868825600,12.05582568359375,-3.3889147085398434,2.2816972707435488,0.4450393308468163
1744402039878798600,12.065798583984375,-2.6288065348446366,1.7215978746518492,0.962388841753453
1744402039888772600,12.075772705078125,-1.9328893860310314,1.0755982376303523,1.410174694829434
1744402039898745600,12.08574560546875,-1.2923656231373548,0.4912482704445719,1.500881093931943
1744402039908719600,12.0957197265625,-0.7274912677288055,-0.045080131930648346,1.3117153435125946
1744402039918693600,12.105693603515626,-0.3179717246830463,-0.3406871951643377,1.0572453462727367
1744402039928666600,12.11566650390625,-0.10239596011340618,-0.45313473982326685,0.6132680916994809
1744402039938640600,12.125640625,0.029189269605278966,-0.5371216214124113,0.06997099652253091
1744402039948613600,12.135613525390625,0.17028817760050297,-0.6764158911384641,-0.2812906380176544
1744402039958587600,12.145587646484374,0.5729173766106367,-0.8418249183952808,-0.2919369005206972
1744402039968560400,12.155560302734376,1.1185755748957396,-1.1643679695818572,-0.024863223099708554
1744402039978534400,12.165534423828126,1.795825432640314,-1.6267552525274454,0.31402240253537894
1744402039988507400,12.17550732421875,2.499137367880344,-2.140904798348993,0.7941840462982654
1744402039998481400,12.1854814453125,3.07559986975193,-2.521381640653312,1.3318589907445013
1744402040008454700,12.19545458984375,3.4781717856168743,-2.8122125526934862,1.7009233354136346
1744402040018428700,12.2054287109375,3.6141157950669527,-2.9276094486773014,1.9875382371939718
1744402040028402700,12.215402587890624,3.2223177866727113,-2.792646851480007,1.9151077917553483
1744402040038375700,12.225375732421876,2.5540631362885233,-2.526986328792572,1.4535076405994594
1744402040048349700,12.235349609375,1.7981962534248828,-2.259844627636671,0.8133703928053378
1744402040058322700,12.24532275390625,1.123205572783947,-2.0013345612257716,0.2798084183695726
1744402040068296700,12.255296630859375,0.7564017203927039,-1.6312926036961375,-0.10805453386437147
1744402040078269400,12.26526953125,0.6011988837212324,-1.205469503038004,-0.4692668133262545
1744402040088243500,12.275243408203124,0.667942515695095,-0.7988073952499777,-0.8169438673779368
1744402040098216400,12.285216552734376,1.034022729986906,-0.2009440856922418,-0.9903791838977485
1744402040108190500,12.2951904296875,1.556964654073119,0.4703581887595355,-1.1464727588638663
1744402040118163700,12.305163818359375,1.8582465252399443,1.313582452558726,-1.5588320553801953
1744402040128137500,12.315137451171875,1.6336065797269343,2.200446828380972,-2.6092466788500546
1744402040138111500,12.325111572265625,-0.07901566904783248,2.7929253761604427,-4.303021603813767
1744402040148084700,12.335084716796874,-3.6495945202052593,2.31141348683238,-6.109747200652957
1744402040158058500,12.34505859375,-7.334315883371233,1.4431044661372898,-6.876061243250966
1744402040168031500,12.355031494140626,-8.533211195650697,1.4294669859290121,-5.931660332000256
1744402040178005500,12.365005615234375,-6.649568363347649,1.8919423124842345,-3.9028354140415784
1744402040187978500,12.374978515625,-3.118665104496479,1.943910546261072,-2.0245242981553075
1744402040197952500,12.384952392578125,-0.0273491946965456,1.6998133283451198,-0.3478798831474036
1744402040207925200,12.39492529296875,1.631277844518423,1.2832456203535199,0.7828425680726766
1744402040217899300,12.404899169921874,2.081046395844221,0.9488149283006787,1.1795413541205226
1744402040227872300,12.414872314453126,1.9204203650802372,0.8008646931059658,1.0782980711735783
1744402040237846300,12.42484619140625,1.7213637736350298,0.8539375271238386,0.8755291812069713
1744402040247820300,12.4348203125,1.7156792982578277,1.0288506611112505,0.7397817172423005
1744402040257793500,12.44479345703125,1.5399837086558341,1.2219281050816178,0.6503875697821379
1744402040267767600,12.454767578125,1.046952938708663,1.5003502019256352,0.7052155769042671
1744402040277740500,12.464740478515624,0.0665402183562517,1.8432827648639678,0.9872099792771041
1744402040287714600,12.474714599609374,-2.0109680664896965,2.0724824195079505,0.8547820151239633
1744402040297687300,12.484687255859376,-3.3648166245937348,1.8495479627385734,0.4809730332110077
1744402040307661300,12.494661376953125,-3.2415941495507954,1.353774323824048,0.6256473885402083
1744402040317634300,12.50463427734375,-1.4968664514631032,0.7627092961043119,1.2619377516478298
1744402040327608300,12.5146083984375,0.5054126971364021,0.1627834279935807,1.850280807057768
1744402040337581300,12.524581298828124,1.9114877015620468,-0.40303083861358463,2.2096963027633727
1744402040347555300,12.534555419921874,2.636976981818676,-0.9962016064409166,2.2399717601701616
1744402040357528600,12.544528564453126,2.9972616615742442,-1.484432794086635,2.01811413885206
1744402040367502300,12.55450244140625,3.089641839107871,-1.667730967646837,1.6198554100111127
1744402040377476400,12.564476318359375,3.001704027935862,-1.699711475405842,1.1673491773497313
