time,seconds_elapsed,z,y,x
1745340296343289600,0.02628955078125,0.5718582229465246,0.007549976988136768,-0.13677896243687718
1745340296353262600,0.0362626953125,0.53331718762815,-0.06475158137381076,-0.1247017903478816
1745340296363235800,0.04623583984375,0.37972295519709587,-0.09494564410746097,-0.09911438115946948
1745340296373208600,0.05620849609375,0.13215689212679863,-0.09030249447673559,-0.09207730386322363
1745340296383181600,0.066181640625,-0.10926526136100291,-0.0599397971779108,-0.11645604964792727
1745340296393154600,0.076154541015625,-0.2561597038924694,-0.02266834340393543,-0.18214604438301174
1745340296403127600,0.08612744140625,-0.2551578333735466,0.02100917802006006,-0.21090300525194033
1745340296413100800,0.096100830078125,-0.15019699120819568,0.03722176941335201,-0.25607798042576757
1745340296423074800,0.10607470703125,0.048096214649081225,0.01618774921298027,-0.290669766661711
1745340296433047600,0.116047607421875,0.1945768156826496,-0.023088614642620086,-0.3200034131737426
1745340296443020500,0.1260205078125,0.219141932618618,-0.08504881173223257,-0.29856304066218436
1745340296452994300,0.135994384765625,0.17921558042168617,-0.10793518180102109,-0.2340641188751906
1745340296462967000,0.145967041015625,0.053956046593189234,-0.07867050887197255,-0.1601878220098093
1745340296472940300,0.155940185546875,-0.07737783871293068,-0.06118570558577775,-0.09477985908649861
1745340296482913300,0.165913330078125,-0.1583656846165657,-0.0531929532662034,-0.0623637181228958
1745340296492886300,0.17588623046875,-0.13608254113793372,-0.06464695195555686,-0.0974753817807883
1745340296502859300,0.185859375,-0.00639700756072998,-0.0669134355828166,-0.14115209948718546
1745340296512832300,0.195832275390625,0.1590840620189905,-0.08968903875350952,-0.21196727348258718
1745340296522805200,0.20580517578125,0.23557050485014913,-0.11828881803303956,-0.2657927524986677
1745340296532778200,0.2157783203125,0.2708522461116314,-0.10317688135802745,-0.2847445413311943
1745340296542752300,0.225752197265625,0.17585984025299548,-0.10056114590167999,-0.293600011427328
1745340296552725200,0.235725341796875,0.014651625686883926,-0.09074877693951129,-0.2415596987949684
1745340296562698200,0.2456982421875,-0.12557517564892767,-0.08402823651283979,-0.11558925848444923
1745340296572671200,0.255671142578125,-0.21272797392308712,-0.08633885154277086,-0.01254106327369809
1745340296582644200,0.265644287109375,-0.24273148252069948,-0.09993366165310144,0.027984350794926283
1745340296592617200,0.2756171875,-0.17680735023617744,-0.14333528874516485,-0.039379477170202876
1745340296602590200,0.285590087890625,-0.009362287107110023,-0.10995704301744699,-0.17338762318687512
1745340296612563200,0.295563232421875,0.007421089911460876,-0.04909282447099685,-0.26479334793146697
1745340296622536200,0.3055361328125,0.055713119393587106,0.022283435739576814,-0.3292841594772413
1745340296632509200,0.31550927734375,0.05311608863770961,0.08964286152422428,-0.3292386763677001
1745340296642482200,0.325482177734375,0.047769466912746424,0.5021221311584114,-0.5541814772848039
1745340296652455400,0.335455322265625,-0.03950841904580593,1.6688570490673182,-1.2108914550215004
1745340296662429400,0.345429443359375,-0.22254092740714548,0.9793979903519153,0.08218487366847693
1745340296672402200,0.355402099609375,-0.5140829103261232,-0.9641405077263713,1.493840089379251
1745340296682375200,0.365375244140625,-0.39574703828096386,-1.5249863382712006,1.740101937983185
1745340296692348200,0.37534814453125,-0.014674422040581702,-0.5694035232707858,1.7938152618616818
1745340296702321400,0.3853212890625,0.1433463946610689,-0.3808271170467138,1.3424835528723895
1745340296712294400,0.39529443359375,0.06326689577400683,-0.41196050645709037,0.6925370048560202
1745340296722267100,0.40526708984375,-0.20734102018773554,-0.11522738463580608,0.1661571604766883
1745340296732240100,0.415240234375,-0.5768623148441314,0.04784399345368147,-0.19373280260656028
1745340296742213400,0.42521337890625,-0.5442933396726847,-0.027024492786824703,-0.6299060688979924
1745340296752186400,0.435186279296875,-0.23355682694017885,0.07984802821874618,-1.0308210844013839
1745340296762159400,0.445159423828125,-0.12916238648593426,0.11426643064916134,-1.1011467395804821
1745340296772133400,0.45513330078125,-0.3997872535824775,-0.042590602970123285,-0.564701336929202
1745340296782106000,0.465106201171875,-0.30076456929445267,-0.4008274102851748,0.20456552759241312
1745340296792079000,0.4750791015625,-0.09268471343815327,-0.3198436560347676,0.39806386385597287
1745340296802052400,0.48505224609375,0.08882043922543525,-0.043531390951573844,0.231907543629501
1745340296812025300,0.495025390625,0.2568476861566305,0.017284020017087457,0.1643227298574522
1745340296821998300,0.504998291015625,0.33303368473649025,-0.008377367722988128,-0.037653224199754184
1745340296831971000,0.51497119140625,0.33717443780302997,0.01391162097454071,-0.1620861664444208
1745340296841944300,0.5249443359375,0.30023440794050693,0.06411562155783176,-0.4220196897871792
1745340296851917300,0.534917236328125,0.2253770276159048,0.09597352585047483,-0.5151788158040493
1745340296861890300,0.544890380859375,0.17820728016197682,0.09711597388386725,-0.4204047654038295
1745340296871863000,0.554863037109375,0.10392565389871597,0.09443126484453677,-0.1575421663392335
1745340296881837000,0.564837158203125,0.07465805836021899,0.055012569908797736,0.16436539995539934
1745340296891810300,0.574810302734375,0.09550912320911883,0.016218728873133657,0.3685041900357231
1745340296901783300,0.584783203125,0.13680033401846886,0.009708031804859638,0.4133089619239792
1745340296911756300,0.59475634765625,0.1890092446833849,-0.0385597400188446,0.329623328303732
1745340296921729300,0.604729248046875,0.19990356366336345,-0.028614100065827368,0.18410534349093213
1745340296931702000,0.614701904296875,0.18397066599428652,0.02209989586621523,0.037384800788224676
1745340296941675300,0.62467529296875,0.08687631942033767,0.03656330550462007,-0.03354568613293813
1745340296951648300,0.634648193359375,0.0811719702988863,0.05155073901712894,-0.11525500329509376
1745340296961621200,0.644621337890625,0.08949088583290576,0.09819412450939416,-0.07390817157467827
1745340296971594200,0.65459423828125,0.0737690005660057,0.059148062278330325,0.04864851476959884
1745340296981567200,0.664567138671875,0.11748422365188597,-0.0013619360029697416,0.1596693145610392
1745340296991541200,0.674541259765625,0.17369477117359639,-0.020288462530076504,0.18029628833048045
1745340297001514200,0.68451416015625,0.18567279373705387,-0.01450637199729681,0.0819893602295313
1745340297011487200,0.6944873046875,0.1365712014377117,-0.016754443185031415,-0.05331499504356179
1745340297021460200,0.704460205078125,0.05555763657093048,0.010558511154353618,-0.11525984386699273
1745340297031433200,0.71443310546875,0.07321721190214156,0.03116904524564743,-0.13695606343629768
1745340297041406200,0.72440625,0.1078974801391363,0.02163490870296955,-0.12937277783360332
1745340297051379200,0.734379150390625,0.18324702789485453,0.0033329438149929044,-0.12568575075077823
1745340297061352200,0.744352294921875,0.26226152789890766,-0.025455928295850753,-0.05250376542564481
1745340297071325200,0.7543251953125,0.28392566269636155,-0.03310059783011675,0.0392261954377871
1745340297081298400,0.76429833984375,0.2728255920112133,-0.051723172974586486,0.18499451088299973
1745340297091272400,0.7742724609375,0.1709270600259304,-0.05202887792289257,0.24684114632923154
1745340297101245200,0.7842451171875,0.03796177412569523,-0.07370119602680206,0.1355313735285774
1745340297111218200,0.79421826171875,-0.02335457210242748,-0.07300473819524049,-0.06685969610158354
1745340297121191200,0.804191162109375,-0.054125557941198346,-0.07458323955833912,-0.20252549139847978
1745340297131164400,0.814164306640625,-0.04048340155780315,-0.026566519886255264,-0.25231552261970935
1745340297141137400,0.824137451171875,-0.04400105428993702,-0.059900341950356956,-0.20085494610406457
1745340297151110100,0.834110107421875,-0.044347675770521164,-0.05214227516949176,-0.0964678304397501
1745340297161083100,0.844083251953125,0.0535959811091423,-0.04212503128498792,-0.020831040407600813
1745340297171056400,0.854056396484375,0.12060907767415047,-0.04106412405520677,0.09442573015289381
1745340297181029400,0.864029296875,0.1571060399442911,-0.09602876316905021,0.066026697609853
1745340297191003400,0.87400341796875,0.24951369000673293,-0.13005085975825786,0.05848715068418532
1745340297200976100,0.88397607421875,0.07276011578440665,-0.17147417251467703,0.11160000618519261
1745340297210949000,0.89394921875,-0.25826222912967206,-0.20370967794805764,0.18068729694206268
1745340297220922000,0.903922119140625,-0.4812625907421112,-0.10021920059621334,0.24572310208473352
1745340297230895400,0.913895263671875,-0.6505261014699936,0.03591360942423343,0.28885436953650784
1745340297240868400,0.923868408203125,-0.8322323296636343,0.09449614677429198,0.21504724718350915
1745340297250841000,0.933841064453125,-0.8213648986905813,0.09012626112699508,0.05211494877114892
1745340297260814000,0.94381396484375,-0.6245411808639765,0.12710253134667873,-0.03917535116653889
1745340297270787300,0.953787353515625,-0.3731850778609514,0.10348083274066448,-0.10588780255084856
1745340297280760300,0.96376025390625,-0.12744038499891758,0.0385468805372715,-0.18157774297576396
1745340297290733300,0.9737333984375,0.02025368347764015,-0.0075534841194748875,-0.2590436252983287
1745340297300707300,0.983707275390625,0.01805471212863922,-0.11653116071075201,-0.26024511004257944
1745340297310680000,0.99368017578125,-0.018093290573358536,-0.21499182720184326,-0.17460973059404641
1745340297320653300,1.0036533203125,0.01583528251349926,-0.18368571157306432,-0.13632965689995324
1745340297330626300,1.013626220703125,0.06474456711113452,-0.14029869752824306,-0.17382694618590175
1745340297340599300,1.023599365234375,0.15585808570981025,-0.12011223406791686,-0.17084314460214226
1745340297350572300,1.033572265625,0.19954583626687525,-0.04292787210047245,-0.14597733681970276
1745340297360545300,1.043545166015625,0.22632395307719705,0.030511165858805176,-0.16009174122419206
1745340297370518300,1.053518310546875,0.23630700243115424,0.04267068246901035,-0.15069476639619095
1745340297380491300,1.0634912109375,0.24281974532604217,0.04201455664783716,-0.215731667517405
1745340297390464300,1.07346435546875,0.26845278375446796,0.0069940966710448265,-0.20877919976469128
1745340297400438300,1.083438232421875,0.36968437626361844,-0.012826163825392723,-0.11197770779062993
1745340297410411300,1.093411376953125,0.38932548080086704,-0.06920709947794676,0.006940905179083347
1745340297420384300,1.10338427734375,0.3485778753489256,-0.12284428938031196,0.1042922678545583
1745340297430357200,1.113357177734375,0.3061994538247585,-0.12982640335261822,0.16265896136369556
1745340297440330200,1.123330322265625,0.23299802401363848,-0.08702391119748354,0.14296094814059324
1745340297450303200,1.13330322265625,0.09799684837162494,-0.043512686251103876,0.07614684474640525
1745340297460275500,1.143275390625,-0.0619832857042551,0.024766776987910268,0.025850115245208142
1745340297470248400,1.15324853515625,-0.15976503002047537,0.11378215426355599,0.03966434939303435
1745340297480221400,1.163221435546875,-0.16540917338728903,0.14214520217776297,0.05260385566609911
1745340297490194400,1.1731943359375,-0.19363924257159232,0.15540128185302018,0.03604730054019019
1745340297500168400,1.18316845703125,-0.13488719387352466,0.13804916503578424,-0.011101385859400034
1745340297510141400,1.193141357421875,-0.096120533105731,0.11201163745969533,-0.01986948819933459
1745340297520114400,1.203114501953125,-0.08364508241415024,0.07793401129096746,-0.02882927718646824
1745340297530087400,1.21308740234375,-0.07966799547672271,0.020908347994089124,-0.04408595609441399
1745340297540060400,1.223060302734375,-0.08512041566371917,-0.014406418754160403,-0.10629519604165107
1745340297550033700,1.23303369140625,-0.024698972448706627,-0.01774842265844345,-0.15210311709046362
1745340297560006400,1.24300634765625,0.028100305324792862,-0.01811491788327694,-0.11692106421063654
1745340297569979400,1.2529794921875,0.08786123880445956,-0.03317366306632757,-0.08099884222168476
1745340297579952400,1.262952392578125,0.11590426098406315,-0.05202507853060961,-0.09898667225972749
1745340297589925600,1.272925537109375,0.04779518587589263,-0.059060676255822175,-0.13196399077004753
1745340297599899600,1.282899658203125,0.0013180968612432479,-0.05847732340991497,-0.1417771177840419
1745340297609872400,1.292872314453125,0.004176408901810646,-0.04357786044180393,-0.11201855125767178
1745340297619845400,1.302845458984375,0.02908113305568695,-0.04403758690804243,-0.07386599466707557
1745340297629818400,1.312818359375,0.0494090508133173,-0.04700871167331934,-0.030238641660893333
1745340297639791600,1.32279150390625,0.05346037203073501,-0.04092003940939903,0.0022543821975123134
1745340297649764600,1.3327646484375,0.03235270207226276,-0.013693886570632457,0.06842249757205136
1745340297659737300,1.3427373046875,-0.00623100334405899,-0.02663724703490734,0.08133550856383517
1745340297669710300,1.35271044921875,-0.05867664537429809,-0.008153495839238167,0.09318563043130561
1745340297679683300,1.362683349609375,-0.10396832399666309,0.06465308943539858,0.05373559050923213
1745340297689656600,1.372656494140625,-0.10096212791800499,0.15735358496457338,0.07605767775876447
1745340297699630600,1.382630615234375,-0.246581728208065,0.1585156144812703,0.09938758121081627
1745340297709603600,1.392603515625,-0.2998655746281147,0.11243541582971811,0.003976630279701203
1745340297719576300,1.402576416015625,-0.1372170981258154,0.0843605372071266,-0.13620957418424076
1745340297729549300,1.41254931640625,-0.0037970541954040525,0.06536532935798167,-0.28519436745792626
1745340297739522600,1.4225224609375,0.03056172700226307,-0.0941574163392186,-0.23725807434460147
1745340297749495600,1.43249560546875,-0.015663433077931402,-0.13496201267540453,-0.16466586247300727
1745340297759468500,1.442468505859375,-0.06571604249179362,-0.20594167478382586,-0.08264821686390787
1745340297769441300,1.452441162109375,-0.037434535381197925,-0.2921244589820504,0.15078012485839426
1745340297779414500,1.46241455078125,0.0836333919763565,-0.3209878576338291,0.5164824457485229
1745340297789387500,1.472387451171875,0.2866945428878069,-0.282369373165071,0.5060903772022575
1745340297799361500,1.482361572265625,0.5007809456825256,-0.25605478221327066,0.30127295720800756
1745340297809334500,1.49233447265625,0.6747136172652244,-0.23717618648111818,-0.011415292380470782
1745340297819307500,1.5023076171875,0.7159446223199367,-0.19779343964159488,-0.1923918545926921
1745340297829280300,1.5122802734375,0.5140004927396774,-0.14661504106819628,-0.22896303287651387
1745340297839253500,1.52225341796875,0.17403087126016617,-0.1069941015586257,-0.20936085384385658
1745340297849226500,1.5322265625,-0.15880641412138938,-0.011532909144461154,-0.19949054414937273
1745340297859199500,1.542199462890625,-0.4294534930497408,0.04429857593178749,-0.17532045441297814
1745340297869172200,1.552172119140625,-0.5190794034391641,0.07795359277427195,-0.12088570265844463
1745340297879145500,1.5621455078125,-0.4980477213263511,0.1062616956308484,-0.04221536731640808
1745340297889119500,1.572119384765625,-0.4207476240247488,0.10305208593457936,0.0291513670139946
1745340297899092500,1.582092529296875,-0.29974048694372174,0.1093096850246191,-0.00013860475309193133
1745340297909065500,1.5920654296875,-0.26877953149080275,0.11008885270357131,-0.05341578397033736
1745340297919038500,1.60203857421875,-0.23571780436635015,0.10505348888486624,-0.10218913069600238
1745340297929011500,1.612011474609375,-0.215865102905035,0.12290975583195686,-0.18149200092107057
1745340297938984400,1.621984375,-0.1695493419319391,0.09595394436717034,-0.20152119146045297
1745340297948957400,1.63195751953125,-0.10160860912799835,0.086049513207376,-0.1893469522051513
1745340297958930400,1.641930419921875,-0.06062310326695442,0.06612666911929846,-0.12513176099667325
1745340297968903400,1.6519033203125,-0.054587914755940437,0.04734978019595146,-0.068282531978935
1745340297978876400,1.66187646484375,-0.06870002673864364,0.020623101311922073,0.007968257199134677
1745340297988850400,1.671850341796875,-0.008730418944358826,0.004018003469705582,-0.02711589739732444
1745340297998823400,1.681823486328125,0.08146949194073677,0.022533903369307516,-0.029821192566957325
1745340298008796400,1.69179638671875,0.11682839009165763,0.007246902388334274,-0.012843425487447529
1745340298018769400,1.701769287109375,0.1993441762149334,-0.01832037732750177,-0.014317571426928043
1745340298028742700,1.71174267578125,0.26574235575199123,-0.034895372292399404,-0.052686574646644294
1745340298038715400,1.72171533203125,0.3094020492583513,-0.05438128626793623,-0.06130323101822287
1745340298048688400,1.7316884765625,0.3135626760691404,-0.08085457491278648,-0.06261586625305936
1745340298058661400,1.741661376953125,0.265450094807148,-0.10076397499740124,-0.07613803125228732
1745340298068634600,1.751634521484375,0.2030161427259445,-0.076213471108675,-0.06352976622758433
1745340298078607600,1.761607666015625,0.07626315546929836,-0.03712503104060888,-0.0233590838807635
1745340298088581600,1.77158154296875,-0.012671265524625778,-0.004727028521895408,-0.02084660786949098
1745340298098554400,1.781554443359375,-0.01738718813061714,0.01232347500026226,-0.07078423086786642
1745340298108527400,1.79152734375,0.0754986008375883,0.03319061420112848,-0.1127914809920825
1745340298118500400,1.801500244140625,0.1270171911507845,0.0529971384331584,-0.06402821726901456
1745340298128473600,1.8114736328125,0.13147650864720345,0.02720569457262754,-0.03735023636491969
1745340298138446600,1.821446533203125,0.10989712952375412,0.02763151876926422,0.047198060232959686
1745340298148419300,1.83141943359375,0.0515741198927164,0.04809387656152248,0.03574924917537719
1745340298158392300,1.841392333984375,-0.032465514796972274,0.05541413644701242,0.06075204514255747
1745340298168365600,1.851365478515625,-0.08050035464763641,0.08710749782770871,0.08443009531199931
1745340298178339600,1.861339599609375,-0.24062661919593809,0.13875877460986374,0.028541436688415703
1745340298188312600,1.8713125,-0.4380833742290735,0.16547405531704426,-0.07720399824967607
1745340298198285300,1.881285400390625,-0.5770803415089846,0.15106822108477352,-0.14567695650048554
1745340298208258300,1.89125830078125,-0.4947773213535547,0.12753420076221228,-0.18907248264532536
1745340298218231600,1.9012314453125,-0.25755963381826874,0.06645487816035747,-0.1691759055096656
1745340298228204500,1.91120458984375,-0.021404022556543348,-0.01412292563766241,-0.15703934964993968
1745340298238177500,1.921177490234375,0.21439035417735575,-0.034410219123959536,-0.11628469340270385
1745340298248150300,1.931150390625,0.36877310663759705,-0.10486585735827683,0.02774270579246804
1745340298258123500,1.94112353515625,0.4177326601177454,-0.1684481026917696,0.08065782849797978
1745340298268097300,1.95109716796875,0.44510231308043,-0.08619476689696312,0.1302414504269138
1745340298278070500,1.961070556640625,0.35921792730689045,-0.08737228624373673,0.2677445441535674
1745340298288043500,1.97104345703125,0.3079477587968111,-0.13021540267020462,0.24401847185762598
1745340298298016500,1.9810166015625,0.3543243100464344,-0.09341390449553727,0.142358004678227
1745340298307989200,1.9909892578125,0.3507797693073749,-0.10491320363134145,-0.0064767034671269355
1745340298317962500,2.00096240234375,0.26149171257019044,-0.11430237874537706,-0.09932296414254232
1745340298327935500,2.010935546875,0.15618366440236567,-0.0779167678952217,-0.128920047363732
1745340298337908500,2.020908447265625,0.11128186188042163,-0.04114391129314899,-0.08682827902752906
1745340298347881500,2.030881591796875,0.13479308584928512,-0.04487199190557003,-0.06604920170260593
1745340298357855500,2.04085546875,0.22162439708411694,-0.016066460920870305,-0.050681938559655096
1745340298367828500,2.050828369140625,0.2832084543377161,-0.0022819734573364257,-0.052347698081098494
1745340298377801500,2.060801513671875,0.2193506069332361,-0.004558978478610515,0.004860920567251742
1745340298387774500,2.0707744140625,0.060849897760152816,-0.03507686633914709,0.07250637848535552
1745340298397747500,2.08074755859375,-0.10223638563752174,-0.01947773066908121,0.03563484728178009
1745340298407720400,2.090720458984375,-0.23205811281502245,0.005215396560728549,0.006721362410578876
1745340298417693400,2.100693359375,-0.295433729660511,0.03471475502848625,0.007646295235771685
1745340298427666400,2.11066650390625,-0.3111977005034685,0.028672552254796025,-0.0419834125909023
1745340298437639400,2.120639404296875,-0.29964813248515126,0.022130583265423772,-0.11542626820877194
1745340298447613400,2.130613525390625,-0.21907880425453186,0.010853986969590187,-0.1354851780329831
1745340298457586700,2.140586669921875,-0.09946458283662796,0.023579613029956818,-0.1283543763049878
1745340298467560000,2.150559814453125,0.02667641000151634,-0.00104307931214571,-0.026808986872620878
1745340298477533000,2.160532958984375,0.09649462711513042,-0.030482524286210535,0.07626890935664996
1745340298487506000,2.170505859375,0.09171966779828071,-0.006608896745741367,0.1797785298003815
1745340298497478700,2.180478759765625,0.001637245813012123,0.01822597704231739,0.2428755489001982
1745340298507451600,2.19045166015625,-0.19109774139523505,0.012029460489749908,0.13249786931788549
1745340298517425000,2.2004248046875,-0.4774550151526928,0.006209083773195743,0.053446635766327376
1745340298527398000,2.21039794921875,-0.6726070003747939,0.030137948632240293,-0.02464872183250263
1745340298537372000,2.220371826171875,-0.6795435216397047,-0.01312339320629835,-0.11541764651089906
1745340298547345000,2.230344970703125,-0.6283809051573276,-0.029631168153882025,-0.1494605666924268
1745340298557317600,2.240317626953125,-0.47003977046012874,-0.09920242476910351,-0.09110895202141255
1745340298567291000,2.250290771484375,-0.16406535756289958,-0.1456362591639161,-0.12663838443364947
1745340298577263900,2.260263916015625,0.09736498020887374,-0.18838994374126194,0.0067759969409555195
1745340298587236900,2.27023681640625,0.15178864431381225,-0.20192484035789965,0.21097619835231451
1745340298597209900,2.2802099609375,0.32317864567637444,-0.20002514421641826,0.16795443742331118
1745340298607182800,2.290182861328125,0.4293436029344797,-0.13017974683493375,0.10570727661848067
1745340298617155800,2.30015576171875,0.33978725064992904,-0.11490794342309237,0.044815147151798004
1745340298627129900,2.3101298828125,0.12654840459525585,-0.10103899254649877,-0.02792651966046542
1745340298637102800,2.320102783203125,-0.001900280663371086,-0.07083937685489654,-0.07495656638275831
1745340298647075800,2.330075927734375,0.041730186748504636,-0.050562897023558616,-0.15298903307951986
1745340298657048800,2.340048828125,0.15097265175580976,-0.04495440949201584,-0.2417552578996867
1745340298667021800,2.350021728515625,0.2107809315085411,-0.06698737760186195,-0.3256102932700887
1745340298676994800,2.359994873046875,0.2745674672424793,-0.04933744688183069,-0.36638179105427116
1745340298686967800,2.3699677734375,0.3051227645039558,-0.013932371501624583,-0.3256007582567632
1745340298696940800,2.37994091796875,0.3381231168299913,0.03276011382937431,-0.24961185315158216
1745340298706913800,2.389913818359375,0.3890969327419996,0.07469605228304863,-0.14593571703452615
1745340298716887800,2.3998876953125,0.376822557580471,0.09408522788584232,-0.10109145338609814
1745340298726860800,2.40986083984375,0.3188970228344202,0.12177782919257879,-0.13162990911062805
1745340298736833800,2.419833740234375,0.17119477105140685,0.14540011232048272,-0.15501838348265737
1745340298746806800,2.429806884765625,0.042431028494238854,0.1446674141317606,-0.153814962509647
1745340298756780000,2.439780029296875,0.015185294172167777,0.12281477102488278,-0.1352905139774084
1745340298766752800,2.449752685546875,0.04316811059713364,0.12003887657076119,-0.11075002002604305
1745340298776725800,2.459725830078125,0.0675385817438364,0.1102636247485876,-0.08046986817782745
1745340298786698800,2.46969873046875,0.10873276191949843,0.061031391806900495,-0.07641693952521308
1745340298796672800,2.4796728515625,0.19275719904005525,0.016425941883027553,-0.07781385551001876
1745340298806645800,2.489645751953125,0.23483400726914405,0.003827449333667755,-0.06523355620447546
1745340298816619000,2.499618896484375,0.25568390307426453,-0.025841420482099055,-0.014630107974819838
1745340298826591700,2.509591796875,0.21736498607397078,-0.0381546663492918,0.042785595819260926
1745340298836564700,2.519564697265625,0.14425415715575218,-0.03127250562012195,0.1045564626155421
1745340298846537700,2.529537841796875,0.06574702215194701,-0.06099105979651212,0.14941932136658578
1745340298856511000,2.539510986328125,0.028019641304016112,-0.054659226426482195,0.1422509458408691
1745340298866484000,2.54948388671875,-0.03990881654024124,-0.05189531467109918,0.07918306150399149
1745340298876456700,2.559456787109375,-0.08620353472530841,-0.06946136649996042,0.0055881936621852216
1745340298886430700,2.5694306640625,-0.06022212125062942,-0.07790040128231047,-0.04466538168387487
1745340298896403700,2.57940380859375,0.030978491109609603,-0.08535597798526287,-0.09384789373232051
1745340298906377000,2.589376953125,0.11182196010649204,-0.10600421373844146,-0.09559130333354696
1745340298916350000,2.599349853515625,0.18195114286541939,-0.1410571146801114,-0.06849051217380911
1745340298926323000,2.609322998046875,0.21545710662603376,-0.15464754087626933,-0.031198106943350283
1745340298936295700,2.619295654296875,0.17104513344764707,-0.18070874158889055,-0.011655403012968598
1745340298946268700,2.6292685546875,0.0209399121761322,-0.1582394278883934,-0.09484004657482728
1745340298956242000,2.639241943359375,-0.07449848388433455,-0.14823212087601423,-0.22226896033165974
1745340298966215000,2.64921484375,-0.07691139024496078,-0.13673428304493426,-0.2210823078303598
1745340298976189000,2.65918896484375,-0.1465706174045801,-0.12585808424353598,-0.34145686436258255
1745340298986161700,2.66916162109375,-0.23361878626048563,0.08052987300306558,0.09709924194477498
1745340298996134700,2.679134765625,-0.36205753464698787,0.0661661243468523,0.30256202890416606
1745340299006108000,2.68910791015625,-0.3922323081582784,0.171502229565382,0.26451237556561824
1745340299016081000,2.699080810546875,-0.2831903341591358,0.2817489031791687,0.352935120710358
1745340299026054000,2.709053955078125,-0.19549860670268535,0.18955840299874543,0.28336194613268595
1745340299036026600,2.719026611328125,-0.06659925506711006,0.11913812833875417,0.11619593740701675
1745340299045999900,2.728999755859375,0.07675707646608353,0.10587152726948261,-0.031178982117772102
1745340299055974000,2.738973876953125,0.11364157674908637,0.05657616596370935,-0.06593598711909726
1745340299065947000,2.74894677734375,0.12423837408721446,-0.016085165621340273,-0.03638661549715325
1745340299075920000,2.758919921875,0.18572481618523595,-0.06282119783312082,0.04521116073206067
1745340299085892900,2.768892822265625,0.28155484191179275,-0.06535042404979467,0.09219026271840557
1745340299095865600,2.778865478515625,0.37692952508628363,-0.0799541189417243,0.07092163004456088
1745340299105838800,2.7888388671875,0.42760172770321364,-0.07439619255363941,0.08891474817907437
1745340299115811800,2.798811767578125,0.40709202363789077,-0.06715367407947778,0.12654526279009878
1745340299125784800,2.808784912109375,0.2732984702199697,-0.06191869603544473,0.0944540429319255
1745340299135758800,2.8187587890625,0.089537063062191,-0.0319634104937315,0.04311566802384332
1745340299145731800,2.82873193359375,-0.030541268736124037,0.017627134366333484,-0.008294329082034528
1745340299155704800,2.838704833984375,-0.052881695359945295,0.024485914219915864,0.0048679165636189275
1745340299165677800,2.848677734375,-0.10114800587892532,0.03496259230971336,0.006550134029518813
1745340299175650800,2.85865087890625,-0.13821721507906912,0.011425357116758822,-0.03857649022424593
1745340299185623800,2.868623779296875,-0.13671791643202305,-0.015672493167221545,-0.013373568575084208
1745340299195597000,2.87859716796875,-0.03942307884991169,-0.0004918751701712608,0.0549539533230476
1745340299205569800,2.88856982421875,0.062003159448504444,-0.0050832946136593815,0.0820246416054666
1745340299215542800,2.898542724609375,0.13919336663484572,-0.020139409448206424,0.04727992983013391
1745340299225516800,2.908516845703125,0.16265841337442397,0.002830547250807285,0.00963735945513472
1745340299235489800,2.91848974609375,0.08185761447548866,-0.00032382512688636776,-0.01613408279698342
1745340299245462800,2.928462890625,-0.05603226834535598,-0.006795359228551387,-0.06820674506267532
1745340299255436000,2.93843603515625,-0.13451894508302212,0.00886485897898674,-0.0845191618349403
1745340299265408800,2.94840869140625,-0.11380991905331611,-0.00265606746673584,-0.09255683100847527
1745340299275381800,2.9583818359375,-0.04471007934212684,-0.022188158671557903,-0.092009846383892
1745340299285354800,2.968354736328125,0.04756546877324581,-0.04630582410097122,-0.09047306527066976
1745340299295328000,2.978327880859375,0.10417758283317088,-0.08080547507405281,-0.0638400742857717
1745340299305302000,2.988302001953125,0.14109130921065807,-0.07909487176388502,-0.08236603892166167
1745340299315274800,2.998274658203125,0.09258709828257561,-0.07062135019004344,-0.14930316590731962
1745340299325247700,3.008247802734375,-0.0067775313109159465,-0.056558630307018756,-0.1922767951119691
1745340299335220700,3.018220703125,-0.07475333542823791,-0.02191986312419176,-0.20748665746981276
1745340299345194000,3.028194091796875,-0.08360124327242374,0.02333323705345392,-0.20065032691005616
1745340299355167000,3.0381669921875,-0.04612053066194057,0.029823768116533755,-0.2509016007011756
1745340299365139700,3.0481396484375,-0.012377835536003112,-0.017843115204572678,-0.27264068216467274
1745340299375112700,3.05811279296875,-0.03275894478559494,-0.009654548051953316,-0.3012615955637768
1745340299385086700,3.068086669921875,-0.07709200750887393,0.003162555684149265,-0.2682386660797521
1745340299395059700,3.078059814453125,-0.19067162493765352,-0.007929039433598517,-0.18591763534359632
1745340299405033000,3.088032958984375,-0.2172685399621725,-0.013288228379189967,-0.12755787389874457
1745340299415006000,3.098005859375,-0.1843248862594366,-0.03644523208290338,-0.09532516321064904
1745340299424978700,3.107978759765625,-0.0942214214861393,-0.08576572782993316,-0.15141572848134674
1745340299434951700,3.11795166015625,0.11690905411243438,-0.10073884055614471,-0.15332169909998775
1745340299444925000,3.127925048828125,0.3611871815532446,-0.10046645335555077,-0.08834394428748638
1745340299454897200,3.137897216796875,0.48381578235626216,-0.09231120395064353,-0.11891087718782946
1745340299464871200,3.14787109375,0.3998416141182184,-0.07175064648091793,-0.13477513920064083
1745340299474844000,3.157843994140625,0.1262193187713623,-0.0446618562862277,-0.01928055499601178
1745340299484817200,3.167817138671875,-0.11420213324129581,-0.02260258469134569,0.04467506282767281
1745340299494790100,3.1777900390625,-0.27495792786478995,0.017771219012141227,0.02535832227342762
1745340299504763100,3.18776318359375,-0.3832908768117428,0.018165771287679672,0.000785688751284033
1745340299514736000,3.197736083984375,-0.3700356739193201,-0.01308335345685482,-0.049336314370669425
1745340299524708900,3.207708984375,-0.26555180161595343,-0.0031631402060389516,-0.08009677881542593
1745340299534682000,3.21768212890625,-0.13897358640432356,0.010345745186507702,-0.021509510491322725
1745340299544656100,3.22765625,0.01727086827456951,-0.08681874401420354,-0.01169516876777634
1745340299554629000,3.237629150390625,0.29864743101000785,-0.04150017738491296,0.02830223937137052
1745340299564602000,3.24760205078125,0.5376566781371832,0.0025546529188752174,0.11206845481400378
1745340299574575000,3.2575751953125,0.5309107110083103,-0.08820464541465044,0.06836521442686207
1745340299584548000,3.267548095703125,0.2121487127304077,-0.0691290658056736,-0.014471273284452035
1745340299594521000,3.27752099609375,-0.26572189748585223,-0.04680909744799137,-0.004543223787052557
1745340299604494000,3.287494140625,-0.5601093329638243,-0.021528817979991434,0.017109942091815173
1745340299614467000,3.297467041015625,-0.6308528482288122,0.005976444061100482,0.003991042397543788
1745340299624441000,3.307441162109375,-0.503191513955593,-0.021742168469727038,0.015868545462284236
1745340299634414000,3.3174140625,-0.2570657128214836,0.09339256944656371,0.1565602608961053
1745340299644387000,3.327386962890625,-0.07856500267088412,-0.02345014143139124,0.17411228419961408
1745340299654360000,3.337360107421875,-0.05977554652690887,-0.12871288915276527,0.10795637071952223
1745340299664333000,3.3473330078125,-0.12358897026777267,-0.0701443803280592,-0.015575699995551258
1745340299674306000,3.35730615234375,-0.27035774059295653,-0.07861264120489359,-0.13223777534328401
1745340299684279000,3.367279052734375,-0.3377969536155462,-0.06983633729219436,-0.12986934744520112
1745340299694253000,3.377253173828125,-0.293281520062685,-0.04559679904878139,-0.045140999838989226
1745340299704226000,3.38722607421875,-0.20439035368859768,-0.04822188685536384,0.01974027232909575
1745340299714199000,3.397198974609375,-0.0785579884082079,-0.045540977208316326,0.04411326422644779
1745340299724172000,3.407172119140625,0.03657937985658646,-0.054738136881589884,0.03357446241956204
1745340299734145300,3.417145263671875,0.06304945363104343,-0.0698433515548706,-0.005333287319354713
1745340299744118000,3.427117919921875,0.07827215720415115,-0.08106850992441177,-0.015405494527798146
1745340299754091000,3.437091064453125,0.052826750302314755,-0.0792237588405609,-0.02431218335451558
1745340299764064000,3.44706396484375,0.010648819786310196,-0.07651683796942234,-0.02178155063204467
1745340299774038000,3.4570380859375,0.01055588080585003,-0.04990092598348856,-0.03717076987847685
1745340299784011000,3.467010986328125,0.05586626412868499,-0.028776304890215394,-0.04765506501914933
1745340299793984300,3.476984375,0.09321955096721649,-0.006115852531790733,-0.05894400933990255
1745340299803957000,3.48695703125,0.09622399348020554,-0.004856500120460986,-0.0547031386334449
1745340299813930000,3.496929931640625,0.1527881767451763,0.007504384280741214,-0.02683993000015616
1745340299823903000,3.506903076171875,0.19109715687334536,-0.0018497195199131964,0.0009739961313083767
1745340299833876200,3.516876220703125,0.2168845090806484,-0.01731763002574444,-0.001238510552700609
1745340299843849200,3.52684912109375,0.21770167068243026,-0.014152736254036426,-0.001734459109790623
1745340299853823200,3.5368232421875,0.13531740198433398,0.0017269699230790137,-0.0039135201819241044
1745340299863796000,3.5467958984375,0.03606850772500038,-0.0013227730363607406,-0.01706535403141752
1745340299873769000,3.55676904296875,-0.029776714104413984,0.012164777307212353,-0.04675952268522233
1745340299883742200,3.5667421875,-0.054776130804419516,0.021201193460822103,-0.09141363405641167
1745340299893715200,3.576715087890625,0.041184243303537364,0.03133680302798748,-0.11980187121080234
1745340299903688200,3.586688232421875,0.1503577347278595,0.0012426935374736784,-0.1643399184542708
1745340299913661000,3.596660888671875,0.28313305101394654,-0.02338379819691181,-0.1379104872174561
1745340299923634200,3.60663427734375,0.2978255932331085,-0.018755553874373436,-0.11641885944269596
1745340299933608000,3.61660791015625,0.22724866670668123,-0.03151742029190063,-0.12717687522452323
1745340299943581200,3.626581298828125,0.14912030188739298,-0.02096913827061653,-0.11889965254091657
1745340299953554200,3.63655419921875,0.08700900588929653,-0.0008919804036617279,-0.05964685124647803
1745340299963527000,3.64652685546875,0.0031529110729694365,-0.00078209028840065,-0.03562153114248067
1745340299973500000,3.6565,-0.030853403425216672,0.0026139818906784056,-0.0614750713206362
1745340299983473200,3.66647314453125,0.0325865108281374,-0.010946925950050354,-0.13991568956002592
1745340299993446100,3.676446044921875,0.061116439741849896,-0.04881254622489214,-0.20318826615614816
1745340300003420200,3.686420166015625,0.0769412008613348,-0.05065174435079097,-0.21201193460822104
1745340300013393200,3.69639306640625,0.08782090679407119,-0.0506985061019659,-0.14145665365802124
1745340300023366000,3.706365966796875,0.12951952936053276,-0.061384735289216036,-0.10172927636560052
1745340300033339100,3.716339111328125,0.1104769752383232,-0.04369008864462375,-0.027572555123642085
1745340300043312000,3.72631201171875,0.05500234077572822,-0.03226794639825821,-0.03152318331240676
1745340300053285000,3.73628515625,-0.0009539397239685058,-0.04451747937947512,-0.09241520318123511
1745340300063258000,3.746258056640625,-0.02171148107051849,-0.03537643380761146,-0.09834944293526932
1745340300073231000,3.756231201171875,-0.013435235634446143,-0.059875207509100435,-0.14133816011119632
1745340300083204900,3.766204833984375,-0.006117606097459793,-0.06450578991919756,-0.14864215384847485
1745340300093178000,3.77617822265625,-0.03164250797629356,-0.05615764829069376,-0.14103460145420393
1745340300103151000,3.786151123046875,-0.10531973860561847,-0.05046878899931907,-0.12999286422701553
1745340300113124000,3.7961240234375,-0.18440145862698554,-0.034471886183321476,-0.1425711085727904
1745340300123097000,3.80609716796875,-0.22677461945414543,-0.009735212072730063,-0.13471359087228774
1745340300133070000,3.816070068359375,-0.1977227124929428,-0.01411503459215164,-0.11971388240009545
1745340300143043000,3.82604296875,-0.08499357441365718,-0.03308043182492256,-0.17940805252017453
1745340300153016000,3.83601611328125,0.04221884704828262,-0.032979017277061935,-0.19052180467080324
1745340300162990000,3.845989990234375,0.13672902234792708,-0.04946399587094784,-0.1449046478205826
1745340300172963000,3.855963134765625,0.15539748246073723,-0.07555500719994306,-0.09309696576716378
1745340300182936000,3.86593603515625,0.13968904119729994,-0.06128945822119713,-0.028380218244716524
1745340300192909000,3.875908935546875,0.13978899444043635,-0.04301525812298059,0.010639787096483633
1745340300202882000,3.885882080078125,0.11034370424747467,-0.0011348492488265037,0.05216896224701777
1745340300212855000,3.89585498046875,0.06128770465552807,0.0060106385916471475,0.03791409905906767
1745340300222828000,3.905828125,0.03942600145936012,0.04387304399609566,0.042941690563270817
1745340300232802000,3.915802001953125,0.019462240839004514,0.04035685256868601,0.02445174708883278
1745340300242775000,3.925775146484375,0.007801613661646842,0.015437223106622695,0.009475519956927745
1745340300252748000,3.935748046875,0.08189093222320079,0.00918634601831436,-0.048306441599968816
1745340300262721000,3.945720947265625,0.17490590052902696,-0.02416121231019497,-0.05245716807125136
1745340300272694000,3.955694091796875,0.24271453138589857,-0.05691314283311367,0.014622180396690963
1745340300282667300,3.965667236328125,0.26895254997015,-0.08160013258308171,0.05985580868888646
1745340300292640000,3.975639892578125,0.2931663692504167,-0.062111880519986146,0.09137135668410919
1745340300302613000,3.985613037109375,0.3254150264263153,-0.05289338579773903,0.1087915611683391
1745340300312587000,3.9955869140625,0.39420565405786034,-0.09442834223508834,0.11066174808754585
1745340300322560000,4.00556005859375,0.4743599717468023,-0.17520488347560167,0.06984758933857083
1745340300332533200,4.015533203125,0.43970600699484347,-0.16711948443651198,0.056365126162068915
1745340300342506200,4.02550634765625,0.28311785344481466,-0.1802475538179278,0.0020783771766349672
1745340300352479000,4.03547900390625,-0.09226210411190987,-0.10827654258459805,-0.02241409464823082
1745340300362452000,4.045451904296875,-0.3313824103981256,-0.12373714656680822,0.00461143018505536
1745340300372425000,4.055425048828125,-0.4354629625976085,-0.029490882900357243,0.04615956576438621
1745340300382399000,4.06539892578125,-0.45988311810493465,0.025908932760357856,0.024668504245206713
1745340300392372200,4.075372314453125,-0.34327158563435073,0.021283611047267913,0.004380936764273792
1745340300402345200,4.08534521484375,-0.1945902596861124,0.05329290650933981,0.009333462871424853
1745340300412318000,4.09531787109375,-0.16966098561286924,0.014840426257252692,0.014400610067881642
1745340300422291000,4.105291015625,-0.24169220260083674,-0.012573358108103274,0.1149848263178952
1745340300432264200,4.11526416015625,-0.4017594304382801,0.004501403072476387,0.16313545630164444
1745340300442237200,4.1252373046875,-0.4531073403596878,-0.007851298022270203,0.11367924187835306
1745340300452211200,4.135211181640625,-0.4372475079268217,-0.013002981697022914,0.043112174592236985
1745340300462184700,4.145184814453125,-0.33438743743300436,-0.009584989947080612,-0.027674901253264397
1745340300472157700,4.15515771484375,-0.1549538303464651,-0.009622107087075709,-0.08920985866812989
1745340300482130400,4.16513037109375,0.014373977789282798,0.01990472390949726,-0.1315588440352585
1745340300492103700,4.175103759765625,0.14241232868134976,-0.003992869028449059,-0.12728521270351484
1745340300502076700,4.18507666015625,0.15973112775087356,0.012691723790764808,-0.07644803791637532
1745340300512049700,4.195049560546875,0.08698562501370906,0.018077216221392155,-0.033220390568173025
1745340300522022700,4.205022705078125,0.012215922972559929,0.011503098528087138,-0.008622725352761335
1745340300531996700,4.21499658203125,0.015433131453394889,0.0008639233529567718,-0.0013474850692204198
1745340300541969700,4.2249697265625,0.03925941272079944,-0.017178806076943873,-0.049832372525613754
1745340300551942700,4.234942626953125,0.015775076758861542,-0.03322860812395811,-0.1074567780337762
1745340300561915600,4.24491552734375,0.018890578430891036,-0.028260464322566986,-0.11429804049697703
1745340300571888600,4.254888671875,0.027392449316382406,-0.028347265823185443,-0.0824898114318028
1745340300581861600,4.264861572265625,-0.009870236629247665,-0.03087152360379696,-0.11418145577944815
1745340300591834600,4.274834716796875,0.020100538742542265,-0.008356617195904255,-0.12777003707839174
1745340300601808600,4.28480859375,0.041030514046549796,0.025929098765552043,-0.07257097728732041
1745340300611781600,4.29478173828125,0.04824000703394413,0.018619944795966147,-0.05172536949825007
1745340300621754600,4.304754638671875,-0.004185176730155945,0.009052490505576133,-0.07971649252725764
1745340300631727600,4.3147275390625,-0.02566635617613792,0.014198328961431979,-0.06614019075457472
1745340300641700600,4.32470068359375,-0.04220832565426826,-0.02285743623524904,-0.059731606920482586
1745340300651673600,4.334673583984375,-0.018180968856811523,-0.0635480508029461,-0.010251483040285529
1745340300661646600,4.344646484375,-0.018407763350009917,-0.03671586571782827,0.06889394187554716
1745340300671619600,4.35461962890625,-0.05125497094094753,-0.05680909793674945,0.1226265184437856
1745340300681593600,4.364593505859375,-0.030430209577083586,-0.058201136817038056,0.09133281477200798
1745340300691566600,4.374566650390625,0.13821663055717945,-0.039359658224880696,-0.05310745324010495
1745340300701539600,4.38453955078125,0.3463286351174116,-0.06488163749426602,-0.18860325769837943
1745340300711512600,4.3945126953125,0.5796785413086414,-0.09798749602138995,-0.1126775631556753
1745340300721485600,4.404485595703125,0.594487403383851,-0.014207096789777277,0.03541479533991078
1745340300731458600,4.41445849609375,0.274969033780694,0.049072950726747507,0.10615776033233851
1745340300741431800,4.424431884765625,-0.10768237608373164,0.025319734695553778,0.15404661584105342
1745340300751405800,4.43440576171875,-0.41135085012614725,0.13923749803751706,0.2330028463192284
1745340300761378600,4.444378662109375,-0.5676344677716493,0.08190086909532547,0.2737506709668785
1745340300771351600,4.4543515625,-0.5939572420299053,0.03943944546282291,0.1884089224363677
1745340300781324500,4.464324462890625,-0.4928080671072006,0.02601210087388754,0.004499343546130694
1745340300791297800,4.4742978515625,-0.26928748101294037,0.053744157408177846,-0.11361277077971026
1745340300801270800,4.484270751953125,-0.04542962578833103,0.03543020982146263,-0.1644620469965972
1745340300811243500,4.494243408203125,0.11952888122200965,-0.01272913319170475,-0.15351546810641883
1745340300821217500,4.504217529296875,0.21133973443508147,-0.01794569879621267,-0.15007544718775898
1745340300831190500,4.5141904296875,0.2267880634576082,-0.02928279310762882,-0.08402706746906041
1745340300841163500,4.52416357421875,0.17963468261659143,-0.07018442007750272,-0.07606198860770091
1745340300851136800,4.53413671875,0.12055354809463023,-0.0622404753357172,0.0036384638169198293
1745340300861109800,4.54410986328125,0.03223813578188419,-0.08823650185763836,-0.004284926760604139
1745340300871082500,4.55408251953125,-0.021841244930028914,-0.058872460207343096,-0.09378991646738723
1745340300881055500,4.564055419921875,-0.02528524790406227,-0.0007040566161274909,-0.13433144142059608
1745340300891029500,4.574029541015625,-0.01552022521495819,0.03809212250709534,-0.11645561125651001
1745340300901002800,4.584002685546875,0.019357611420750615,0.03861614638119936,-0.022777069041994398
1745340300910975700,4.593975830078125,0.05089724354445934,0.06836071178168059,0.044858260207739656
1745340300920948500,4.603948486328125,0.0520014053940773,0.08830927483290434,0.10420070798043161
1745340300930921500,4.61392138671875,0.026382980012893676,0.05978782148659229,0.14428335585077293
1745340300940894700,4.623894775390625,0.004822890111804009,0.02601063956916332,0.13140878630639052
1745340300950867700,4.63386767578125,0.008352233281731606,-0.0009250058904290199,0.028458767940220422
1745340300960841700,4.643841796875,0.03758768011629581,0.0019493805021047592,-0.06995774431531317
1745340300970814700,4.653814697265625,0.03558569264411926,-0.024605156685411928,-0.05797626485286746
1745340300980787500,4.663787353515625,-0.03647475043833256,-0.046753567868471145,-0.06780028315363451
1745340300990760400,4.673760498046875,-0.017526888862252236,-0.017909458439052103,-0.03635029294160194
1745340301000733700,4.683733642578125,0.04282324268221855,-0.00035714287459850307,-0.013019992197328247
1745340301010706700,4.693706787109375,0.13225626084804534,0.005818915411829948,0.002228674650809262
1745340301020679700,4.7036796875,0.19334873519241808,-0.019669746109843254,-0.016922004604549148
1745340301030652400,4.71365234375,0.24203999312520025,-0.029547581523656843,-0.04560912880739197
1745340301040626400,4.72362646484375,0.2579495099186897,-0.03707271633148193,-0.055958860615850425
1745340301050599700,4.733599609375,0.19596505517065524,-0.03818564600944519,-0.0189840014685411
1745340301060572700,4.74357275390625,0.03290682882368565,-0.008594809865951538,0.007613966152037028
1745340301070545700,4.753545654296875,-0.12313655032515525,0.009035539370775222,0.0835342333176639
1745340301080518700,4.7635185546875,-0.1859025108397007,0.003496317683160305,0.07519943522792309
1745340301090491600,4.77349169921875,-0.19866496177911758,0.020597382348775863,-0.011538687006343388
1745340301100464600,4.783464599609375,-0.2623521287918091,0.05059007729142904,-0.09340203139465302
1745340301110438700,4.793438720703125,-0.2515279524385929,0.0893067614376545,-0.04286390348616987
1745340301120411600,4.80341162109375,-0.02925707414448261,0.13499153103083372,-0.044704763846192506
1745340301130384600,4.813384521484375,-0.03520224628448486,-0.060549745769798755,-0.09787371518230065
1745340301140357600,4.823357666015625,-0.05826631100773811,-0.027968495638668534,-0.1560748885319568
1745340301150330600,4.83333056640625,0.1309416711181402,0.015894611485302447,-0.034905681340571024
1745340301160303600,4.8433037109375,0.1894914752423763,-0.03288841638416052,-0.0015330970270151737
1745340301170276600,4.853276611328125,0.13191957623958586,-0.16983429635316133,-0.014846595703135243
1745340301180250600,4.863250732421875,0.09283493556380272,-0.1294832890033722,0.007877268147165887
1745340301190223600,4.8732236328125,0.11183715767562388,-0.19543986225277185,-0.02883808839729754
1745340301200196600,4.883196533203125,0.07225625791549682,-0.14214812478721142,-0.08111781069254502
1745340301210169600,4.893169677734375,0.02250292370915413,-0.08963000204265117,-0.14128759896773843
1745340301220142600,4.903142578125,0.030130934369564055,-0.0809627114623785,-0.13033399668172932
1745340301230115600,4.913115478515625,0.00192015440762043,-0.0010693827971816063,-0.1557845638158731
1745340301240088600,4.923088623046875,-0.034109774872660634,0.0373114935234189,-0.20408563512098044
1745340301250062600,4.9330625,-0.08176058384180068,0.051363692012429234,-0.1926147035631351
1745340301260035600,4.94303564453125,-0.07405541629195213,0.08175649218857288,-0.11860139111354946
1745340301270008600,4.953008544921875,-0.04159633123576641,0.08105828079134225,-0.08288151416312903
1745340301279981600,4.962981689453125,-0.03591127133667469,0.10607435636520385,-0.015625219959393144
1745340301289954600,4.97295458984375,-0.0207744924813509,0.1374737032353878,0.04915532721399795
1745340301299927800,4.982927734375,-0.014321370819211005,0.12385346642285584,0.029781675690610427
1745340301309900500,4.992900634765625,0.030096447578072547,0.14383973113596438,-0.04757984435847029
1745340301319874600,5.00287451171875,0.0646364305615425,0.13345190037339924,-0.13334204679075629
1745340301329847600,5.01284765625,0.09276362389326095,0.0966828431636095,-0.18066362380553036
1745340301339820500,5.022820556640625,0.153864866065979,0.09031973787248133,-0.23698309332812204
1745340301349793800,5.032793701171875,0.22757541444301604,0.07352174780666827,-0.17243271534852683
1745340301359766800,5.042766845703125,0.24354805960059164,0.03434329136759043,-0.10118842008770443
1745340301369739500,5.052739501953125,0.25810966891646386,0.013498948520421982,0.007186641834769397
1745340301379712500,5.06271240234375,0.25253625269830227,-0.0417906847640872,0.09520719025363214
1745340301389686500,5.0726865234375,0.18988076682090757,-0.1110413311228156,0.09304598449859768
1745340301399659500,5.082659423828125,0.11347381896674633,-0.11913637477308511,0.09560009856135585
1745340301409632800,5.0926328125,0.00627893413901329,-0.14046119461357592,0.07556853340179659
1745340301419605800,5.102605712890625,-0.08279518758654594,-0.1652341090813279,0.1050809248810634
1745340301429578500,5.11257861328125,-0.16604162607192993,-0.15105156221091745,0.1246877526893746
1745340301439551500,5.122551513671875,-0.20833470740020274,-0.13628273988515138,0.1461389297227375
1745340301449524700,5.132524658203125,-0.2070692175090313,-0.13018851466327905,0.13088025978710502
1745340301459498500,5.14249853515625,-0.18392215067744255,-0.1337087977439165,0.04214315146356821
1745340301469471500,5.152471435546875,-0.13266250356137751,-0.13478227219432592,-0.019500883215805516
1745340301479444200,5.1624443359375,-0.07099135254621505,-0.11808511215448379,-0.0630306941316463
1745340301489417200,5.172417236328125,-0.0965086556404829,-0.09551730651557445,-0.06893309114242438
1745340301499390500,5.182390380859375,-0.10640870288610457,-0.08665829275548458,-0.05270622462860774
1745340301509363500,5.192363525390625,-0.12785539554059505,-0.05916150628179311,-0.04426189718320966
1745340301519336400,5.20233642578125,-0.15278057796061037,-0.028409517404437062,-0.012277201872854493
1745340301529310500,5.212310546875,-0.10877017132043838,-0.019969313578307626,-0.0021297055050730706
1745340301539283200,5.222283203125,-0.06220423497855663,0.01346416946798563,-0.01184852356542833
1745340301549256400,5.23225634765625,-0.013808745121955871,0.02963876693844795,-0.013118141642445697
1745340301559229400,5.2422294921875,0.038245267242193216,0.056285950845479965,-0.0010637567739933728
1745340301569202400,5.252202392578125,0.0762438662469387,0.007448854701220989,-0.05808916434254497
1745340301579175400,5.262175537109375,0.09763912097513675,-0.010628946042060852,-0.0825294219229836
1745340301589148200,5.272148193359375,0.09786825355589389,-0.000495090040564537,-0.13924405564246697
1745340301599122200,5.2821220703125,0.04749006544947624,0.012969079427421093,-0.18059547220645472
1745340301609095400,5.292095458984375,-0.034034371548891065,0.019154782325029374,-0.19462513007009402
1745340301619068400,5.302068359375,-0.07283435006439685,0.0765685681566596,-0.21577830140441656
1745340301629041400,5.31204150390625,-0.09155366358160973,0.14895342088788746,-0.3398337201401591
1745340301639014400,5.322014404296875,-0.08387363047301769,0.22574995258152483,-0.4142472656873986
1745340301648987400,5.3319873046875,-0.013214286360144614,0.3444432597622275,-0.24171993085797874
1745340301658960400,5.34196044921875,-0.14602876561284064,0.30525106705874205,-0.04713420578308869
1745340301668934400,5.351934326171875,-0.27639234458208084,0.24836335092782974,0.11431276314207352
1745340301678907400,5.361907470703125,-0.3168102796882391,0.22211276512295006,0.27359111475730313
1745340301688880400,5.37188037109375,-0.2536497668981552,0.12922200771868228,0.3337663829252124
1745340301698853400,5.381853271484375,-0.2073030262649059,0.023311317482590674,0.3386792163427919
1745340301708826400,5.391826416015625,-0.11964929273128509,-0.19119681785553694,0.31200419458076356
1745340301718799400,5.40179931640625,-0.030832945159077644,-0.2409565818026662,0.016313494484499095
1745340301728772400,5.4117724609375,0.14993570992350577,-0.19308394677639007,-0.22469394072256982
1745340301738746400,5.421746337890625,0.30352234356999397,-0.14590806184262037,-0.2811886389479041
1745340301748719400,5.43171923828125,0.447879376578331,-0.12820786224007605,-0.288383427556511
1745340301758692400,5.4416923828125,0.4778542436033487,-0.09804887081980705,-0.14476205187896266
1745340301768665300,5.451665283203125,0.37236499364972114,-0.10642039332389831,-0.0512219134881394
1745340301778638300,5.461638427734375,0.3101005529165268,-0.17789777582138774,-0.01964009989025071
1745340301788611300,5.471611328125,0.42625557379126544,-0.21197832459956406,-0.022361544760374816
1745340301798585300,5.48158544921875,0.48930853455364703,-0.2531818571254611,-0.03721261570922797
1745340301808558600,5.49155859375,0.42397009320259094,-0.30324732602089643,-0.06423047554257791
1745340301818531300,5.50153125,0.27008652243614195,-0.3291401844292879,-0.05956939296294003
1745340301828504300,5.51150439453125,0.06118249071538448,-0.2796528076827526,-0.031071893597661982
1745340301838477300,5.521477294921875,-0.07849544456601143,-0.2588707164168358,-0.03893872026591561
1745340301848450300,5.5314501953125,-0.14402444005310536,-0.20782968048751352,-0.06212800967087969
1745340301858423600,5.541423583984375,-0.11438684215843677,-0.1849149611070752,-0.032758650241361466
1745340301868397600,5.5513974609375,-0.05189209980070591,-0.18285364466309548,-0.04064007169054821
1745340301878370300,5.561370361328125,-0.027255671194195745,-0.14852467408180237,0.011872090529039269
1745340301888343300,5.57134326171875,-0.04757715921103954,-0.13161445581316947,0.043695696401502934
1745340301898316300,5.58131640625,-0.09553951834738254,-0.11211422105133532,0.026556761110643853
1745340301908289500,5.59128955078125,-0.16570786407291888,-0.13558862014114856,-0.014622536589717492
1745340301918262500,5.601262451171875,-0.23557342745959758,-0.13243424776345492,-0.10306602312838659
1745340301928235300,5.6112353515625,-0.27275486486256123,-0.06234393571019172,-0.17472484487369655
1745340301938209300,5.621209228515625,-0.3080482965618372,-0.010939034904539584,-0.20695048650018869
1745340301948182300,5.631182373046875,-0.2702116101205349,0.031019407641887663,-0.19452289353832602
1745340301958155500,5.641155517578125,-0.17083587461113928,0.06845628111064433,-0.14827613354767671
1745340301968128500,5.65112841796875,-0.05898878006339073,0.11089724647700785,-0.1366492807757575
1745340301978101200,5.661101318359375,-0.0007709843724966049,0.15776391933113335,-0.11081250906931235
1745340301988074200,5.67107421875,-0.034460488006472584,0.22164748569875956,-0.1255785092503298
1745340301998047200,5.681047119140625,-0.16427286283373832,0.228362473167479,-0.1536265637980774
1745340302008021200,5.691021240234375,-0.37326866449117657,0.13636106581836938,-0.035458451818546746
1745340302017994500,5.700994384765625,-0.5690940189301967,0.0520493361890316,-0.02153805616579484
1745340302027967500,5.710967529296875,-0.5845996310979128,-0.06308803207576275,0.13440174844413996
1745340302037940200,5.720940185546875,-0.48953708261251444,-0.19202070145905017,0.18258571444191038
1745340302047913200,5.730913330078125,-0.2085936505973339,-0.21085399674475191,0.06868359619365073
1745340302057886500,5.740886474609375,0.20490064129829405,-0.15333733506053684,0.0006493124878965317
1745340302067859500,5.750859375,0.512382536149025,-0.08167378234118222,-0.09715595883438363
1745340302077833500,5.76083349609375,0.5576140090167522,0.0136550158649683,-0.09973196506854146
1745340302087806500,5.770806396484375,0.5512298609375953,-0.02187368589490652,-0.17933559007216243
1745340302097779200,5.780779296875,0.5441951399952173,-0.010775076514482498,-0.12169042490376158
1745340302107752400,5.79075244140625,0.5177554613590241,-0.04976677820980548,-0.06935417066528461
1745340302117725400,5.800725341796875,0.477961795631051,-0.07808861733078956,0.008228554386424365
1745340302127698400,5.810698486328125,0.305411518317461,-0.05446165802776813,0.05184205924705602
1745340302137671400,5.82067138671875,0.043241175833344456,-0.07890665571540594,0.07789414507145993
1745340302147645400,5.8306455078125,-0.08573533269166946,-0.005516133072972297,0.05755125807356089
1745340302157618200,5.8406181640625,-0.049349429580569266,0.0744251263871789,0.04636992971259169
1745340302167591400,5.85059130859375,0.038515316355228424,0.1414823543548584,-0.010325926241185515
1745340302177564400,5.860564453125,0.11861819611787795,0.1877078066959977,-0.0498852078245487
1745340302187537400,5.870537353515625,0.08943068007826804,0.16088965013623235,-0.0539983148323372
1745340302197510400,5.880510498046875,0.04839315176904201,0.11365268266499041,-0.023903027164889498
1745340302207484400,5.890484375,0.07408814951777458,0.07451806536763907,0.038349905793601646
1745340302217457400,5.90045751953125,0.04374328013658523,0.019515432330965993,0.13505180071755313
1745340302227430400,5.910430419921875,-0.05087210910320282,-0.009765607210993767,0.2243504427808337
1745340302237403400,5.9204033203125,-0.11562602856457233,-0.03398760979771614,0.2596113787163049
1745340302247376400,5.93037646484375,-0.15803133809566497,-0.029577099879086015,0.1767083285748027
1745340302257349400,5.940349365234375,-0.1461737270414829,-0.023078093248605727,-0.0009769233073340729
1745340302267322400,5.950322265625,-0.10367430948615074,-0.019312895496189593,-0.16035696803163735
1745340302277296400,5.96029638671875,-0.08524784143567085,0.010482523308694362,-0.312871807728149
1745340302287269400,5.970269287109375,-0.1630278312087059,0.0015007599517703055,-0.4172655905952677
1745340302297242400,5.980242431640625,-0.35384324853122234,-0.011860825924575328,-0.4159282410442829
1745340302307215400,5.99021533203125,-0.5429693975925445,-0.04325257401019335,-0.28381639363560823
1745340302317188400,6.000188232421875,-0.6508733074724674,-0.0913233619570732,-0.006531520660594105
1745340302327161300,6.010161376953125,-0.5932283432334661,-0.12171528535038233,0.14182090212684123
1745340302337134300,6.02013427734375,-0.4916881231665611,-0.13269465226531027,0.19984476441452279
1745340302347108400,6.0301083984375,-0.3071884648621082,-0.16814795070141553,0.22418518748283384
1745340302357081300,6.040081298828125,-0.01730827767550945,-0.1472039468720555,0.10858105108966119
1745340302367054300,6.050054443359375,0.26396599372923374,-0.1169996550053358,-0.013657454417226836
1745340302377027300,6.06002734375,0.4915308867782354,-0.1040960420295596,-0.11401604521782137
1745340302387000300,6.070000244140625,0.5970353343009949,-0.07036299151480198,-0.017180532243149353
1745340302396973300,6.079973388671875,0.558869562035799,-0.056552492827177045,0.09346260247547179
1745340302406946300,6.0899462890625,0.547649664363265,-0.08864391361474991,0.0919248349815607
1745340302416920300,6.09992041015625,0.5232938062638044,-0.09530921672284602,0.11588720025140792
1745340302426893600,6.1098935546875,0.49826399442553515,-0.0747471979483962,0.11829152144677936
1745340302436866300,6.1198662109375,0.45658115395009513,-0.015079495710134505,0.1577635540049523
1745340302446839300,6.12983935546875,0.3721440443754196,0.00034369887113571166,0.1811460370276123
1745340302456812300,6.139812255859375,0.2308329549342394,0.018759061005711553,0.231080974878557
1745340302466785500,6.14978564453125,0.11428162821829319,0.08209113097041845,0.25522551004858685
1745340302476758500,6.159758544921875,0.06512625990509986,0.1374102826103568,0.19187259822525082
1745340302486732500,6.169732666015625,-0.030495676028728484,0.1098646885588765,0.1345326265485026
1745340302496705500,6.17970556640625,0.01052314758002758,0.10921703830510378,0.0430282409021398
1745340302506678500,6.189678466796875,0.058901101779937744,0.1205965104535222,0.0028839762047864494
1745340302516651300,6.1996513671875,0.04050210625827312,0.13139409106075764,-0.017806294892099686
1745340302526624500,6.20962451171875,-0.01815875702500343,0.09022504532635212,-0.04866863510902039
1745340302536597500,6.219597412109375,-0.09806231482326984,0.08026508458703756,-0.06714547250671311
1745340302546570500,6.229570556640625,-0.14473931032419204,0.10285977823287248,-0.08666189121836795
1745340302556544500,6.23954443359375,-0.16800912675261495,0.103144148132205,-0.0429992477030959
1745340302566517500,6.249517578125,-0.08162322119772433,0.11039484991282224,0.027893521573161703
1745340302576490500,6.259490478515625,-0.013022563180327415,0.16455606368929146,0.13055381344486958
1745340302586463500,6.26946337890625,-0.046887423381209374,0.19527035090476275,0.10865304774679244
1745340302596436500,6.2794365234375,-0.14310790973007678,0.14484744687378406,0.07050621764408424
1745340302606409500,6.289409423828125,-0.12060206341147423,0.06767039142996073,0.07326072225030511
1745340302616383500,6.299383544921875,-0.04026245228350162,0.02712298472523689,0.05110428302441723
1745340302626356500,6.3093564453125,-0.05732055459022522,0.002056055746972561,0.038930660257046105
1745340302636329500,6.31932958984375,-0.10209083968698977,-0.05172200393080711,-0.013367828387464396
1745340302646302500,6.329302490234375,-0.049208559805154796,-0.0609767390102148,-0.06590948727123905
1745340302656275500,6.339275390625,0.07976093445718288,-0.04992226103246212,-0.08246581863486208
1745340302666248400,6.34924853515625,0.26677111427783967,-0.08495558049082756,-0.03683862444781698
1745340302676221700,6.3592216796875,0.4088958581894636,-0.11578180364817381,0.023028463686909525
1745340302686195500,6.369195556640625,0.5995382570326327,-0.15081103145331143,0.028752499322942455
1745340302696168400,6.37916845703125,0.6148229199260473,-0.16368687963932751,0.036427043405664154
1745340302706141400,6.389141357421875,0.5109978037923574,-0.2015396404325962,0.014949266059743239
1745340302716114400,6.399114501953125,0.43421091670989986,-0.24439123242646454,-0.03070089344435837
1745340302726087700,6.409087646484375,0.34632162085473533,-0.17797727079838513,-0.008949495921982452
1745340302736060400,6.419060302734375,0.21054887631833552,-0.14332915126532314,0.0343343408761546
1745340302746033400,6.429033447265625,-0.01822889965176582,-0.15344722517579792,0.07311802127740812
1745340302756007400,6.43900732421875,-0.15454641858935356,-0.12703969524353742,0.0427546207256848
1745340302765980400,6.44898046875,-0.24141747731268404,-0.12216975111961365,-0.04683562469531316
1745340302775953400,6.458953369140625,-0.2129021614462137,-0.08187485787123441,-0.11937221108926459
1745340302785926700,6.4689267578125,-0.2279565227150917,-0.035082711558043954,-0.10297423492539673
1745340302795899400,6.4788994140625,-0.2755512175828218,-0.015808979028463364,-0.11155311656985431
1745340302805872400,6.488872314453125,-0.2625397603183985,0.007662205190956592,-0.12921963309850543
1745340302815845400,6.498845458984375,-0.2690197699874639,0.04049538425654173,-0.03751687305254163
1745340302825819400,6.5088193359375,-0.26413959673047066,0.05391571458280086,-0.0302401714642765
1745340302835792600,6.518792724609375,-0.2649871534705162,0.058771630181372166,-0.030900704032508653
1745340302845765600,6.528765625,-0.2733966698974371,0.05528904876261949,-0.08089478819216601
1745340302855738400,6.53873828125,-0.23813772498965263,0.049042555588483805,-0.15251062017912045
1745340302865711400,6.54871142578125,-0.11301496928334236,0.06537643527388572,-0.2634494225092232
1745340302875684600,6.5586845703125,0.013701777616143225,0.018503624939918518,-0.27355195179069414
1745340302885658600,6.56865869140625,0.06520633940398693,-0.014124094681441783,-0.26603180368524043
1745340302895631600,6.578631591796875,0.21142156749963759,0.025071897414326666,-0.23259594601877032
1745340302905604600,6.5886044921875,0.30928280679285525,0.05439677609801292,-0.24749038575189186
1745340302915577300,6.598577392578125,0.24283786550462244,-0.014464286421239375,-0.21164344835570081
1745340302925550300,6.60855029296875,0.15602818157970905,-0.01955839468985796,-0.17820702443365008
1745340302935523600,6.618523681640625,0.09768179107308388,-0.009297697438299656,-0.16077464545443654
1745340302945496600,6.62849658203125,0.06336100379824638,-0.04020633818209171,-0.17745949400197714
1745340302955470600,6.638470703125,0.10812953532934189,-0.043618776974081994,-0.1905407468332909
1745340302965443600,6.648443603515625,0.13006430376172065,-0.02308832238167524,-0.13033199652088806
1745340302975416300,6.658416259765625,0.09462766419947147,-0.03356383142769336,-0.05333636205857619
1745340302985389600,6.6683896484375,0.047723289683461186,-0.07913432699143887,-0.017473770435526965
1745340302995362600,6.678362548828125,0.06809387753903866,-0.10913374393582344,-0.02694802545055281
1745340303005335600,6.68833544921875,0.09504092117547988,-0.07265256375670433,-0.050428338257921854
1745340303015308300,6.698308349609375,0.09617956981658934,-0.10783581307977437,0.04647484225863591
1745340303025282300,6.7082822265625,0.16116963612139223,-0.15906944897174835,0.11428402110477909
1745340303035255600,6.718255615234375,0.26553309691548344,-0.13747224193066357,0.12659647238752805
1745340303045228500,6.728228515625,0.36534196314513684,-0.10067074375599622,0.18331746278256178
1745340303055201500,6.738201416015625,0.43205519998073577,-0.10204203210920094,0.23347046383097766
1745340303065174500,6.748174560546875,0.4036480206638574,-0.03175736652761697,0.2471560209646821
1745340303075147300,6.758147216796875,0.2275987953186035,-0.005001753810048103,0.1656730119552463
1745340303085120500,6.76812060546875,0.055607905453443525,-0.022714520633220672,0.055072533634840506
1745340303095094500,6.778094482421875,-0.017166823378205298,-0.02590133397579193,-0.029466453995287883
1745340303105067500,6.788067626953125,-0.07285305476486682,0.013372984053194523,-0.12637650036076084
1745340303115040500,6.79804052734375,-0.16345102505683898,0.011036942321062088,-0.19146160627156494
1745340303125013500,6.808013427734375,-0.2181184347897768,0.08024608762562274,-0.23434867143761365
1745340303134986500,6.817986572265625,-0.15828911224901676,0.18049246848970651,-0.17567832793993873
1745340303144959500,6.82795947265625,-0.09154840288460254,0.1328837450966239,-0.02557537854061229
1745340303154933500,6.83793359375,-0.15826397780776022,0.041706805872917176,-0.08004934121081606
1745340303164906500,6.847906494140625,-0.30068916597068307,0.10987374864816665,-0.18308889645738527
1745340303174879500,6.85787939453125,-0.5299187773615122,0.13070230940431354,-0.24865561187267302
1745340303184852500,6.8678525390625,-0.7943927206128836,0.11671090119183063,-0.37007640778850764
1745340303194825500,6.877825439453125,-0.9221849877893924,0.15255144537985324,-0.42993597933705896
1745340303204798500,6.887798583984375,-1.0054968927264214,0.18419044622480868,-0.4893395142138004
1745340303214771500,6.897771484375,-1.0046820692121983,0.1629664564102888,-0.4449693343505263
1745340303224745500,6.907745361328125,-0.8423843058437108,0.1419821205705404,-0.365978690146096
1745340303234718500,6.917718505859375,-0.4856318918675184,0.04311901075839996,-0.3096023941360414
1745340303244691700,6.927691650390625,-0.03909925372302532,-0.010202829584479331,-0.28052060349322855
1745340303254664400,6.93766455078125,0.34574294418394563,-0.07156038460582494,-0.27718104727435855
1745340303264637400,6.947637451171875,0.6522808361828327,-0.1686418716982007,-0.2691702478414401
1745340303274610400,6.9576103515625,0.8215373326480389,-0.2206783484056592,-0.15802242413684725
1745340303284583700,6.967583740234375,0.8441934010922908,-0.2351326979547739,-0.10580808837814255
1745340303294557700,6.9775576171875,0.7605839745134115,-0.18594605772048234,-0.11207303052442148
1745340303304530400,6.987530517578125,0.6336538771241903,-0.13512071036845444,-0.2198089451599866
1745340303314503400,6.99750341796875,0.5666039556801319,-0.11682575974315404,-0.3166195063564926
1745340303324476400,7.007476318359375,0.6027244858533144,-0.14450900869965552,-0.3023619397548027
1745340303334449400,7.017449462890625,0.7581494408428668,-0.11942805119603872,-0.3266282381409779
1745340303344422700,7.027422607421875,0.8690203838348388,-0.14064853387922047,-0.28951551859267055
1745340303354396700,7.037396728515625,0.950080710452795,-0.16930267369449137,-0.1621387734144926
1745340303364369400,7.047369384765625,0.9467781617760658,-0.132544137878716,-0.025313030960131436
1745340303374342400,7.05734228515625,0.7103507478356361,-0.0845528449088335,0.016220190177857873
1745340303384315400,7.0673154296875,0.3307522958010435,-0.07423515677303075,0.006389481841400265
1745340303394288600,7.07728857421875,-0.017313538372516632,-0.018150281457602977,0.0018943989118561147
1745340303404261600,7.08726171875,-0.25305589265823364,0.06710574328452348,0.01994284569649026
1745340303414234400,7.097234375,-0.4105535622686147,0.1105903724849224,0.07211080329651012
1745340303424208400,7.10720849609375,-0.49364159532189367,0.1210603285729885,0.10642234781896695
1745340303434181400,7.117181396484375,-0.4488350698679685,0.12039981883764267,0.056026879784185434
1745340303444154600,7.127154541015625,-0.4014619087964296,0.13066256191581488,-0.05264279030384496
1745340303454127600,7.137127685546875,-0.4239706777244806,0.11838672544956207,-0.14201852532448248
1745340303464100600,7.1471005859375,-0.4665484212130308,0.13329583302885292,-0.18847110095238312
1745340303474073600,7.157073486328125,-0.515776854762435,0.12783464501351116,-0.15543960456941275
1745340303484046600,7.167046630859375,-0.5195914446145296,0.07479629778712987,-0.12851028838590717
1745340303494020600,7.1770205078125,-0.48120881472826,0.05435118339061737,-0.0864341742765624
1745340303503993600,7.18699365234375,-0.34789573830366133,0.05483925916850566,-0.013517662354046478
1745340303513966600,7.196966552734375,-0.12088731009364127,0.02617284439355135,0.013533791504940017
1745340303523939600,7.206939697265625,0.13256021223068237,0.004606617012619972,-0.013692480064835399
1745340303533912600,7.21691259765625,0.35941023500859737,-0.012192542096972465,-0.009146187537861988
1745340303543885800,7.2268857421875,0.424911757966876,-0.046176937024295324,-0.05635299733285792
1745340303553859600,7.236859619140625,0.42745267462134356,-0.05813128645122051,-0.030737384963268412
1745340303563832600,7.24683251953125,0.38735388846695423,-0.09594342297315597,0.044864603183558206
1745340303573805600,7.2568056640625,0.3972083430051803,-0.148279174888134,0.06844260877831838
1745340303583778600,7.266778564453125,0.41769466619491574,-0.1622299588292837,0.11265142406742087
1745340303593751600,7.27675146484375,0.34371582227051256,-0.17554712104201317,0.1344267550212331
1745340303603724800,7.286724853515625,0.1286065061688423,-0.18547756342589855,0.16129094267981126
1745340303613697500,7.296697509765625,-0.1255611471235752,-0.10586012909263372,0.14985405038888566
1745340303623671600,7.306671630859375,-0.31693478285074234,-0.077421970115602,0.13914814838678574
1745340303633644500,7.31664453125,-0.3603063070654869,-0.07885960170328617,0.1367145462980028
1745340303643617500,7.326617431640625,-0.3368962053835392,-0.06984978129565715,0.11164404625631869
1745340303653590800,7.3365908203125,-0.3378694343298673,-0.07316840432435273,0.0066437853960320346
1745340303663563800,7.346563720703125,-0.38631051689386364,-0.09595072949677705,-0.1012140568524599
1745340303673536500,7.35653662109375,-0.46869069393873214,-0.06675181528031826,-0.14292179430713875
1745340303683509500,7.366509521484375,-0.5457762717068195,-0.05667582694590091,-0.0952599616204854
1745340303693483500,7.3764833984375,-0.6445575484544038,0.04233019846826792,-0.059944272423628715
1745340303703456800,7.386456787109375,-0.6779582982748746,0.05111527020931243,0.07894905181871727
1745340303713429800,7.3964296875,-0.6394084951281547,0.06857055514007807,0.0901397142636124
1745340303723402500,7.406402587890625,-0.467993359324336,0.10976502757668495,0.044104907390056174
1745340303733375500,7.41637548828125,-0.31000001515150066,0.0836813227713108,0.030790722585702313
1745340303743348500,7.426348388671875,-0.1527630423039198,0.04910802204012871,0.08942000342062674
1745340303753321700,7.43632177734375,0.007618073788285255,0.014111235199868679,0.10042095197970047
1745340303763295700,7.446295654296875,0.16485387759208678,0.02540595167428255,0.15038842212706804
1745340303773268700,7.456268798828125,0.27648703712821004,0.02257598894536495,0.14975636216807178
1745340303783241500,7.466241455078125,0.4279892657160759,0.008079553820192813,0.12538909675860777
1745340303793214500,7.47621435546875,0.46955695537924763,-0.04930149878561496,0.10741722234152257
1745340303803187700,7.486187744140625,0.4164648321390152,-0.06322510245889425,0.09554291588086634
1745340303813160700,7.49616064453125,0.38967853202223773,-0.015859540171921253,0.12226468112776055
1745340303823134700,7.506134765625,0.30912147875130175,-0.01696107167303562,0.15188094397345556
1745340303833107700,7.516107666015625,0.13690788604617118,-0.013439911809563635,0.11003479356192983
1745340303843080400,7.52608056640625,0.06277940451800823,0.03563099309056997,0.13063406647369266
1745340303853053700,7.5360537109375,0.08546294549107551,0.03877922798842191,0.11444756850288249
1745340303863026700,7.546026611328125,0.02122282077074051,0.11625117472559213,-0.07974882389428094
1745340303872999700,7.555999755859375,-0.1430465349316597,0.17138707875311374,-0.29601089022764937
1745340303882972700,7.56597265625,-0.2955915505707264,0.1840104134827852,-0.49148606125582006
1745340303892946700,7.57594677734375,-0.29610125365853307,0.1549666898280382,-0.48324046668633813
1745340303902919400,7.58591943359375,-0.22750994799137114,0.13899433693140745,-0.21951018140912054
1745340303912892700,7.595892578125,-0.1936667151004076,0.04365589411407709,0.06779050611171406
1745340303922865700,7.60586572265625,-0.04157236583828926,-0.06516951452493668,0.2768082684392109
1745340303932838700,7.615838623046875,0.18381985934674738,-0.10921820734888314,0.3530165153834969
1745340303942811600,7.625811767578125,0.3671159870803356,-0.09670797760486602,0.34471813118085265
1745340303952785700,7.63578564453125,0.3480067974627018,0.045750528305768964,0.11631397429611533
1745340303962758700,7.645758544921875,0.11237784042358398,0.19771365240365266,-0.2345834848404862
1745340303972731600,7.655731689453125,-0.10810323184430598,0.2507347562342882,-0.4399707588782534
1745340303982704600,7.66570458984375,-0.16999708569943903,0.24111235688626764,-0.41518801713623105
1745340303992677600,7.675677734375,-0.05168927070498466,0.1803776099383831,-0.26416496863374483
1745340304002650600,7.685650634765625,0.12184300338327884,0.04055675905495882,-0.0690915513734566
1745340304012623600,7.69562353515625,0.38119419679343697,-0.05697159502208233,0.11583702270044013
1745340304022597600,7.70559765625,0.740771020540595,-0.1948994717657566,0.32566644390411675
1745340304032570600,7.715570556640625,0.6913982100844382,-0.22770810091197488,0.35501481306124477
1745340304042543600,7.725543701171875,0.6571604249179362,-0.18523995527774095,0.5240168233087286
1745340304052516600,7.7355166015625,0.48548050069808957,-0.2421981062963605,0.5181387250555679
1745340304062489600,7.745489501953125,0.4619996718674898,-0.2348383911833167,0.34766631346195936
1745340304072462600,7.755462646484375,0.3747714702695608,-0.16586042428612707,0.10272927458784542
1745340304082435600,7.765435546875,0.3353887234300375,-0.12425532522201538,-0.04053749723206274
1745340304092409600,7.77540966796875,0.1386275494456291,-0.12310294031649827,-0.29850804080562665
1745340304102382600,7.785382568359375,0.005077741655707359,-0.041023499783873554,-0.28551161671355363
1745340304112355600,7.79535546875,0.01322889940738678,0.06660919193923473,-0.1276934555776883
1745340304122328600,7.80532861328125,-0.029803602111339568,0.06467910065948963,-0.11013094741278327
1745340304132301600,7.815301513671875,-0.21058277858793734,0.049584699641168115,-0.0758693612455856
1745340304142274600,7.825274658203125,-0.12786474789083002,0.03721738549917936,-0.03784352945733117
1745340304152247600,7.83524755859375,-0.13471768252551555,0.027381051139533517,-0.1993510808797553
1745340304162221600,7.8452216796875,-0.28398996010422706,0.09632423898428678,-0.27129661061195653
1745340304172194800,7.85519482421875,-0.37045126898288727,0.15470014784634112,-0.4457294320028275
1745340304182167600,7.86516748046875,-0.549214429461956,0.20807693324685095,-0.5796620650978759
1745340304192140500,7.875140625,-0.717547965863347,0.2007248169183731,-0.5977338744917884
1745340304202113500,7.885113525390625,-0.7546744582086801,0.14606003753393887,-0.46129550565350796
1745340304212086800,7.895086669921875,-0.6102396837890148,0.08307868070304393,-0.18629266093475744
1745340304222060800,7.905060791015625,-0.38172844980061055,-0.011462766517698763,0.11176124289520084
1745340304232033800,7.91503369140625,-0.12015958034098148,-0.11921353166252374,0.2762584890693426
1745340304242006500,7.925006591796875,0.057409401917457574,-0.19486323140859602,0.2616152293520048
1745340304251979500,7.9349794921875,0.05478256054520607,-0.16721797637492417,0.13639688605042175
1745340304261952500,7.944952392578125,-0.07956219701468945,-0.009051905983686447,-0.09926555313318967
1745340304271925800,7.95492578125,-0.41459670017957684,0.15633885496407746,-0.3611420272372663
1745340304281898500,7.9648984375,-0.7959294286608696,0.280696471516788,-0.5644117063328623
1745340304291872500,7.97487255859375,-0.9397142147392034,0.32163024719059463,-0.524575662767887
1745340304301845500,7.984845458984375,-0.8341957386910915,0.18475071045607327,0.09373877993519418
1745340304311818500,7.994818603515625,-0.7171259410589933,0.11920768644362688,0.5761832100061699
1745340304321791700,8.004791748046875,-0.47681437916159625,0.010561726024746894,0.7213888592004776
1745340304331764700,8.0147646484375,0.20411972005367277,-0.09960077643692493,0.7846163728121668
1745340304341737500,8.024737548828124,0.6950199077129363,-0.2562029585123062,0.6298113032866269
1745340304351711500,8.03471142578125,0.7841916445940732,-0.5025944248452783,0.34152985653355716
1745340304361684500,8.0446845703125,0.9025625879526138,-0.6439709807381033,0.12443952268250286
1745340304371657700,8.05465771484375,0.7206517770975828,-0.4956050043493509,-0.15985378601616249
1745340304381630700,8.064630615234375,0.39504152036011214,-0.35294366934299465,-0.32187446774262934
1745340304391603700,8.074603759765624,0.11822013671100139,-0.26451515204459425,-0.297528765711002
1745340304401576400,8.084576416015626,0.006933598655462264,-0.14383622400462626,-0.200887332270015
1745340304411549700,8.0945498046875,-0.09067921883463859,-0.08051672126054764,-0.09586588249122724
1745340304421523500,8.1045234375,-0.014915245059132574,-0.09417144486457109,0.04962315022172406
1745340304431496700,8.11449658203125,0.15356968251168726,-0.10113806900680064,0.2007494947019033
1745340304441469700,8.1244697265625,0.33057869279980656,-0.110710491733253,0.25634839486498384
1745340304451442700,8.134442626953126,0.3965554320544004,-0.1244113925665617,0.27098299635183065
1745340304461415700,8.144415771484375,0.4647346497893333,-0.14936726238578557,0.27777398993251845
1745340304471389000,8.154388916015625,0.36978783663809295,-0.10752660100013017,0.2134076998155564
1745340304481361700,8.164361572265625,0.22835399760007857,-0.0628743893250823,0.07548636241052299
1745340304491335700,8.174335693359374,0.09598083237409591,0.01695376514941454,-0.00815621751928702
1745340304501308700,8.18430859375,0.002992752075195312,0.05489683457463979,-0.05602493442227132
1745340304511281700,8.19428173828125,-0.023942601123452187,0.0804699595093727,-0.06291077581271529
1745340304521254700,8.204254638671875,-0.023376199412345883,0.0836468359798193,-0.05958144872691482
1745340304531228000,8.214227783203125,-0.005163666373491287,0.07499532749056816,-0.05437897557984106
1745340304541200600,8.22420068359375,-0.035273557955026624,0.0469841617539525,-0.05743984272149391
1745340304551174700,8.234174560546874,-0.04400514594316482,0.004506956030428409,-0.0732027723848354
1745340304561147600,8.244147705078126,-0.03940145153999328,-0.020789105528593064,-0.07195621552299708
1745340304571120600,8.25412060546875,-0.034679683715105054,-0.027919688060879706,-0.10199894188614561
1745340304581094000,8.264093994140625,-0.061084291037917134,-0.04114244998842478,-0.10541302464595063
1745340304591067000,8.27406689453125,-0.08320727551877498,-0.04344955788701772,-0.05671380260242149
1745340304601039600,8.28403955078125,-0.1165817218542099,-0.01752835016697645,-0.08457714823302813
1745340304611012600,8.2940126953125,-0.16384323924481867,0.007196341244876384,-0.0963949113340117
1745340304620986600,8.303986572265625,-0.15796177999079228,-0.03337619990110397,0.08093904745900071
1745340304630959900,8.3139599609375,-0.10175298603475093,-0.1125426755964756,0.37187870797012
1745340304640932900,8.323932861328124,0.056282443714141844,-0.18129969321936368,0.6814259013202041
1745340304650905900,8.33390576171875,0.2800280707359314,-0.18254004866927862,0.5946940318718552
1745340304660878600,8.343878662109375,0.4855845455944538,-0.1552852542579174,0.2929850943993777
1745340304670851600,8.3538515625,0.5878636013299227,-0.1104857430666685,0.045370319649414154
1745340304680824800,8.363824951171875,0.5009136321514844,-0.0561079639300704,-0.2057685832392424
1745340304690798800,8.373798828125,0.25683307310938835,0.07922989632040262,-0.41845403319485486
1745340304700771800,8.383771728515624,0.06297989552617073,0.13029723573476076,-0.5149231240099296
1745340304710744800,8.393744873046876,-0.21726678639650343,0.16851795305758713,-0.5577017238328233
1745340304720717600,8.403717529296875,-0.4335866473317146,0.13675298774540423,-0.46149194154106077
1745340304730690800,8.41369091796875,-0.3852572084486484,0.02305909628719091,-0.445133146610111
1745340304740663800,8.423663818359374,-0.2790361370891333,0.1742202563524246,-0.4339032755328342
1745340304750637800,8.433637939453124,-0.06787117469906806,0.1290419749766588,-0.39697205003127456
1745340304760610800,8.44361083984375,0.060524319067597386,0.06824059253334999,-0.3452282726600766
1745340304770583600,8.45358349609375,0.13079729421138764,0.08216361168473958,-0.3507761891108006
1745340304780556800,8.463556884765625,-0.0242687643378973,-0.004681435814499855,-0.29526805423740293
1745340304790529800,8.47352978515625,-0.3679997841775417,-0.023676059141755103,-0.21030060064569114
1745340304800502800,8.483502685546876,-0.5576905813843012,-0.0395183559179306,-0.2409130349218845
1745340304810475800,8.493475830078125,-0.6415127739310265,-0.04842822308242321,-0.24456965773329137
1745340304820449800,8.50344970703125,-0.5768903718948364,-0.03707593120187521,-0.19877240420896558
1745340304830422500,8.513422607421875,-0.3887093947291374,-0.044893034693598746,-0.17548907071184366
1745340304840395800,8.523395751953124,-0.19767711978554725,-0.023507424576580522,-0.11008114432115107
1745340304850368800,8.53336865234375,-0.06338730728328228,-0.028985855987668036,-0.007678809265885502
1745340304860341800,8.543341796875,0.05104921923577785,-0.037647009088099,0.054283433650340884
1745340304870314800,8.553314697265625,0.09517536121010779,-0.045641514973342415,0.09878019903535022
1745340304880287700,8.563287841796875,0.06368132179379463,-0.030137364110350607,0.10061203583870082
1745340304890261800,8.57326171875,0.009136661657691001,0.0005225625693798065,0.03194876091387123
1745340304900234800,8.58323486328125,-0.07147767475843429,0.014700141003727912,0.06519609200460835
1745340304910207700,8.593207763671876,-0.11899112108349799,0.01612140597850084,0.13707952541918492
1745340304920180700,8.6031806640625,-0.08601531867682934,0.0041524435043334956,0.14721462352969683
1745340304930153700,8.61315380859375,-0.031066753914952276,0.004886602997779846,0.09543358288803137
1745340304940126700,8.623126708984374,0.01759235531389713,0.017666005071997642,0.04917339716022834
1745340304950100700,8.633100830078124,0.06698328594863415,0.012870587489008902,0.007530203708587214
1745340304960073700,8.64307373046875,0.08279284949898719,0.04871873046159744,-0.04503167597930878
1745340304970046700,8.653046630859375,0.06625438715219498,0.040404491102695464,-0.07694320102217607
1745340304980019700,8.663019775390625,0.07438567115962505,0.06398468865454196,-0.09459708639811724
1745340304989993000,8.672992919921874,0.11280512592494488,0.08718728506565093,-0.07963207477997057
1745340304999965700,8.682965576171876,0.18384265570044517,0.05729512788802385,-0.10363210517908446
1745340305009938700,8.692938720703125,0.2853121486186981,0.04077273989319801,-0.12759984074379316
1745340305019912700,8.70291259765625,0.3192103265672922,0.01506488266289234,-0.04979145599333569
1745340305029885700,8.7128857421875,0.3209685684114694,-0.013757014934718608,-0.11912744254795833
1745340305039859000,8.72285888671875,0.24257073900103568,-0.004238660483062267,-0.1684063824418932
1745340305049831700,8.732831787109374,0.1818061814367771,0.007598492304980754,-0.12949157277452758
1745340305059804700,8.7428046875,0.10885083534121513,0.012053133626282214,-0.05363251372724771
1745340305069777700,8.752777587890625,-0.0019464578926563262,0.004796294365823269,0.0011498458885587752
1745340305079750700,8.762750732421875,-0.11110533626973629,-0.0144806530341506,0.023506922253081573
1745340305089724700,8.772724609375,-0.1665261947184801,-0.027536826223134993,-0.010366486580437049
1745340305099698000,8.782697998046874,-0.20921090571284293,-0.06009937165379524,-0.01811910086805001
1745340305109670700,8.792670654296876,-0.299943316039443,-0.09776917709559202,0.023904369738604873
1745340305119643600,8.8026435546875,-0.37611996226906774,-0.1933960814654827,0.04348889438356272
1745340305129616600,8.81261669921875,-0.4346761961340904,-0.2593000477448106,-0.02102054879744537
1745340305139590000,8.82258984375,-0.38186347435712814,-0.21821254281401634,0.02380308305490762
1745340305149564000,8.83256396484375,-0.1197661971092224,-0.12932517583221195,0.1127958831725642
1745340305159537000,8.842536865234376,0.05214987395405769,-0.0452194901689887,0.16829780750088394
1745340305169509600,8.852509521484375,0.09892331556677818,-0.18294190746843814,0.14025886784135363
1745340305179482600,8.862482666015625,0.06370704075694084,-0.11455459994077682,0.16838320249570532
1745340305189456000,8.872455810546874,-0.07194821487963199,0.05933160215169191,0.1443313140451908
1745340305199428900,8.882428955078124,-0.22513035937845705,0.06059767656475305,0.07254043145200703
1745340305209401900,8.89240185546875,-0.32092998996675015,0.05338233835846185,0.03877686250139959
1745340305219375900,8.9023759765625,-0.4343289901316166,0.09385171139091253,0.0074134591608541085
1745340305229348600,8.9123486328125,-0.39378187568783757,0.11260492717772722,-0.07178759465755429
1745340305239321600,8.922321533203124,-0.22785247781872747,0.14291794011592865,-0.10313859517425299
1745340305249294800,8.932294921875,-0.008230068206787108,0.12383914563655853,-0.018641076632251497
1745340305259267800,8.942267822265626,0.24472937833964822,0.07205430560261011,0.07848833897178992
1745340305269240800,8.95224072265625,0.3973141414672136,0.030012860947847365,0.0967796089358162
1745340305279213600,8.962213623046875,0.4702420150339603,-0.005400689999759197,0.03763847415519413
1745340305289187600,8.9721875,0.49609950986802576,-0.004308218587934971,-0.018998080226243472
1745340305299160800,8.982160888671874,0.41396015584170814,-0.019544658425450324,-0.030151209972612558
1745340305309133800,8.9921337890625,0.3087567370921373,0.001225157880783081,0.013020259342098143
1745340305319106800,9.00210693359375,0.21638883451819418,0.026979776862263678,0.08847382687800563
1745340305329079600,9.01207958984375,0.1629799004137516,0.01090659393966198,0.12482803794289939
1745340305339052800,9.022052734375,0.14713994172513484,-0.003543663956224918,0.13597766512450762
1745340305349025800,9.03202587890625,0.18346797716915605,-0.03137859634310007,0.13852342235087417
1745340305358999800,9.041999755859376,0.23584873726963995,-0.049687867754697794,0.11050928833903745
1745340305368972800,9.051972900390625,0.23765374086499214,-0.047270285218954086,0.09116087400489487
1745340305378945800,9.06194580078125,0.20556758077442644,-0.04808364742845297,0.05829246379572432
1745340305388918500,9.07191845703125,0.1902162823855877,-0.06731938603520393,0.0301814201644971
1745340305398891800,9.081891845703124,0.18048691553175447,-0.05438683922588825,0.010460063740069744
1745340305408864800,9.09186474609375,0.10114391422569752,-0.04770575402677059,-0.022349093987466765
1745340305418838800,9.1018388671875,0.06505144110321998,-0.024286007733643054,-0.04859641468960326
1745340305428811800,9.111811767578125,0.04247019146084785,-0.02076309430450201,-0.036636320508481
1745340305438784800,9.12178466796875,-0.05162964947223663,-0.0073953709483146664,-0.04768975274004042
1745340305448757800,9.1317578125,-0.09222235662341118,-0.004240414048731327,-0.009448403621139004
1745340305458730200,9.141730224609375,-0.02174947499334812,-0.07497019304931163,0.050848705394729035
1745340305468703200,9.151703125,0.1675847638607025,-0.08563011875152587,0.05746369395453948
1745340305478676200,9.16167626953125,0.30515374416410923,-0.019251812958717345,-0.03920738113946281
1745340305488650000,9.17164990234375,0.26348317864835263,0.011317805089056492,-0.07383460858154575
1745340305498623200,9.181623291015624,0.06223696820437908,0.05947334870994091,-0.1592837127769366
1745340305508596200,9.19159619140625,-0.2005892078399658,0.04977963769137859,-0.1638380516130477
1745340305518569200,9.2015693359375,-0.22328853090405462,0.06337210971415043,-0.008790816495241598
1745340305528542200,9.211542236328125,-0.1583393811315298,0.08777356052100659,0.06534025884880684
1745340305538515200,9.22151513671875,-0.06589958236515521,0.12322422860860824,0.10260622359691188
1745340305548489200,9.2314892578125,0.0048895256072282785,0.10855857439637183,0.07337489581503905
1745340305558462200,9.241462158203126,0.1354477503657341,0.02298427748531103,0.013638941513001919
1745340305568435200,9.251435302734375,0.2685632583916187,-0.10344400786161422,-0.030896347517799586
1745340305578408200,9.261408203125,0.33915947414040565,-0.0813306679919362,0.008891372526576742
1745340305588381200,9.271381103515624,0.3780313488483429,-0.12059212653934955,0.016309393698116764
1745340305598354200,9.281354248046876,0.40413025122284885,-0.141867262019217,-0.005381227247463539
1745340305608327200,9.2913271484375,0.35972412326335906,-0.13092033606916664,0.10357972653787582
1745340305618301200,9.30130126953125,0.07724865937530993,-0.08953501723557711,0.20079083135928957
1745340305628274200,9.311274169921875,0.01179974338710308,-0.04998422035276889,-0.029912318616244007
1745340305638247200,9.3212470703125,0.0400672219723463,-0.07394289582818746,-0.1527450956552755
1745340305648220400,9.331220458984374,0.06093406891226768,-0.11282470740824938,-0.2520557026397437
1745340305658193200,9.341193115234375,0.02190028164088726,-0.11198007327765226,-0.17105368208028376
1745340305668166100,9.351166259765625,-0.09211363555192947,-0.07035042429417371,-0.009445366847258992
1745340305678139100,9.36113916015625,-0.22683424068689345,-0.15966770712584255,-0.04683856557107065
1745340305688113200,9.371113037109374,-0.2601145789980888,-0.13751783463805914,-0.013340410657576284
1745340305698086100,9.381086181640624,-0.2086842514902353,-0.0670922992810607,0.05616697324146516
1745340305708059400,9.391059326171876,-0.16227204440534113,-0.10966390528976917,0.0109274129654048
1745340305718032100,9.4010322265625,0.018700608816742896,-0.09347118764072657,-0.09850233194204047
1745340305728005000,9.411005126953125,0.11476795043051242,-0.007070084516704082,-0.17891968448134138
1745340305737978000,9.42097802734375,0.0839297445744276,-0.0035077158600091934,-0.25333536718674005
1745340305747951400,9.430951416015626,-0.010664017355442047,-0.010916823072731494,-0.29734641314772886
1745340305757925400,9.44092529296875,-0.08498656015098094,0.023091537252068518,-0.2660618882962502
1745340305767898000,9.450898193359375,-0.06764087307453155,-0.01393032567501068,-0.23221271885484457
1745340305777871000,9.46087109375,-0.037543840974569316,-0.05259498737305402,-0.2101424144092947
1745340305787844000,9.470843994140624,-0.03902735753059387,-0.05146393751651048,-0.20359284663535654
1745340305797817300,9.4808173828125,-0.03457096264362335,-0.0507376690685749,-0.21975774469571188
1745340305807790300,9.490790283203125,0.01330547177493572,-0.0435486343473196,-0.15865440189745275
1745340305817763000,9.50076318359375,0.10060147791206836,-0.0352592371687293,-0.1427466204033233
1745340305827737000,9.510737060546875,0.19837913057506082,-0.03645721478164196,-0.18280441696019842
1745340305837710000,9.5207099609375,0.2846680054962635,0.005514964029192924,-0.2265820925567299
1745340305847683000,9.53068310546875,0.3260305279761553,0.01683218459635973,-0.2352295641916804
1745340305857656300,9.54065625,0.3104571112692356,0.021594868953526018,-0.18355556412106377
1745340305867629300,9.55062939453125,0.23348259266018867,0.011512158617377281,-0.12145383966891095
1745340305877602000,9.56060205078125,0.1545662923336029,0.009469546873867512,-0.07037392846734729
1745340305887576000,9.570576171875,0.10053191980719565,-0.034085809475183484,-0.03994113420753274
1745340305897549000,9.580549072265624,-0.03855447932183742,-0.08582651810646057,-0.11588745597973465
1745340305907522300,9.590522216796876,-0.1846463732987642,-0.11231646562516688,-0.22069959212308748
1745340305917495300,9.600495361328125,-0.2644657599449158,-0.0747188486367464,-0.285436195123475
1745340305927468300,9.61046826171875,-0.39368250696659085,-0.008532558284699916,-0.27231972484830763
1745340305937441000,9.62044091796875,-0.25201485917270183,0.08882803801000118,-0.12723154628751798
1745340305947414300,9.630414306640626,-0.1416997964978218,0.13533990607708693,-0.08273079884713515
1745340305957388300,9.64038818359375,-0.1302577805072069,0.17844108891785143,0.017192172448593192
1745340305967361300,9.650361328125,-0.231956406006217,0.13702566720694304,0.1860383025811985
1745340305977334300,9.660334228515625,-0.36444238395690914,0.08084405351877212,0.14827103724745103
1745340305987307300,9.670307373046874,-0.4011749085485935,0.10184300240576266,0.051794986968627194
1745340305997280000,9.680280029296876,-0.3587678454518318,0.01805909604281187,0.05287806949759833
1745340306007253200,9.690253173828125,-0.30512685615718366,-0.05973316868990659,-0.026379043623292818
1745340306017226200,9.700226318359375,-0.16147943272292614,-0.06284867036193609,-0.055448878966830664
1745340306027200300,9.7102001953125,-0.016806173372268675,-0.10291939946562051,-0.06722845634873956
1745340306037173200,9.72017333984375,0.0157376673579216,-0.14302315405607222,-0.07499854236096143
1745340306047146000,9.73014599609375,0.1395785665601492,-0.1743923980489373,-0.06339460467374883
1745340306057119200,9.740119140625,0.16764789222478865,-0.19295973587483167,-0.019200219768797978
1745340306067092200,9.75009228515625,0.24278584305644033,-0.20971622488647698,-0.01013264129194431
1745340306077065200,9.760065185546875,0.2212690077751875,-0.21995091091394423,0.04951958024939522
1745340306087038200,9.7700380859375,0.21496610823869705,-0.20446867962181567,0.10033445187318138
1745340306097012200,9.78001220703125,0.2517985860735178,-0.18454525101184843,0.06787452656677924
1745340306106985200,9.789985107421876,0.2555167298138141,-0.15067249976545571,-0.01996247284556739
1745340306116958200,9.799958251953125,0.2441512861907482,-0.08442161974459886,-0.12831208066637628
1745340306126931200,9.80993115234375,0.1334346569776535,-0.024862054055929183,-0.19807733461689203
1745340306136904200,9.819904296875,-0.04493804287910461,-0.006147416713833808,-0.25888300964282823
1745340306146877200,9.829877197265626,-0.2051642606705427,0.04857143094539642,-0.23148480643909422
1745340306156851200,9.839851318359376,-0.34321137987971306,0.07727817773073911,-0.20075966903604567
1745340306166824200,9.84982421875,-0.5041051216691732,0.05121931510567665,-0.23440084001626818
1745340306176797200,9.859797119140625,-0.5304483541935682,0.07541033803224563,-0.23067456776844336
1745340306186770200,9.869770263671874,-0.4959142164289951,0.07140110239088535,-0.21468122688271105
1745340306196743200,9.8797431640625,-0.4309346715182066,0.03823679167479276,-0.27351872537452726
1745340306206716400,9.88971630859375,-0.3098404406756162,0.04049479973465204,-0.23216942770238963
1745340306216689200,9.899689208984375,-0.029673838251829145,0.13719810116440057,0.01696177492593415
1745340306226663200,9.9096630859375,0.013522913917899131,0.2100412190571427,0.24894706909991798
1745340306236636200,9.91963623046875,0.03377718191742897,0.08327098840475082,0.32208252100273965
1745340306246609200,9.929609130859374,0.11085574542284012,0.0854939251512289,0.2404470248453319
1745340306256582100,9.93958203125,0.09091770376563071,0.0934518984183669,0.1384468499833252
1745340306266555400,9.949555419921875,0.0437099623888731,0.03651858958005905,0.10022852554698475
1745340306276528000,9.959528076171875,-0.015509703820943832,-0.027606384328007695,0.01655676518846303
1745340306286501000,9.969501220703124,0.058846156722307204,-0.08372194704264402,-0.01032065641102381
1745340306296475100,9.97947509765625,0.13133622339367865,-0.06131576170623302,0.0701321145015303
1745340306306448100,9.9894482421875,0.15132161132395267,-0.12119096921533346,0.07224088681642897
1745340306316421400,9.99942138671875,0.32079671897590156,-0.09805646960437298,0.16837523838495835
1745340306326394400,10.009394287109375,0.37759237290918823,-0.12085720721632241,0.11539226547447033
1745340306336367000,10.0193671875,0.5009416892021894,-0.12240531344115733,0.010249947528680785
1745340306346340000,10.029340087890626,0.5157061276137829,-0.07845394351184368,-0.06990782249267212
1745340306356313300,10.039313232421875,0.4495855959743261,-0.06829027689397335,-0.1090270595578011
1745340306366287000,10.049287109375,0.3401683589220047,-0.03375029391050339,-0.11744982819193973
1745340306376260400,10.05926025390625,0.2127846725463867,-0.02401303601115942,-0.14593910543485544
1745340306386233000,10.069233154296874,0.12722878807485102,-0.04297989454865456,-0.12682406146517022
1745340306396206000,10.0792060546875,0.1112789392709732,-0.061599254822731014,-0.10028547076545655
1745340306406179000,10.089178955078125,0.09522446104884147,-0.08085515943467617,-0.05312033555456437
1745340306416152300,10.09915234375,0.08263736667633056,-0.09571019873917103,-0.028829697311576453
1745340306426125300,10.109125244140625,0.11915595625638961,-0.08098959946930408,-0.008832363215181976
1745340306436099300,10.119099365234375,0.11854805349111557,-0.043076925182342525,-0.09471751617370172
1745340306446072000,10.129072021484374,0.05900397763252258,0.00928834508806467,-0.22444793007224798
1745340306456045000,10.139045166015626,-0.10275134942233562,0.11598667857050896,-0.3573412467148155
1745340306466018600,10.1490185546875,-0.3352905237525701,0.19707915389239786,-0.5277402642786503
1745340306475991800,10.15899169921875,-0.5745797568649054,0.164077632522583,-0.6208706756576895
1745340306485964800,10.16896484375,-0.7574228801339864,0.11858575515300035,-0.6250418969277292
1745340306495937800,10.178937744140624,-1.0134458059042692,0.045510874330997465,-0.5707961466729641
1745340306505911800,10.188911865234376,-1.1969225509017705,0.058408934348821634,-0.3900180296422913
1745340306515884500,10.198884521484375,-1.2119149528503417,0.11022329273819922,-0.18401355528794228
1745340306525857800,10.20885791015625,-0.9434855499714613,0.12175532509982585,-0.002801969610294327
1745340306535830800,10.218830810546875,-0.4807862054020166,0.11601853501349686,0.08182833358207717
1745340306545803800,10.2288037109375,0.23366730157732962,0.06567746404707431,0.2704438845064491
1745340306555776800,10.23877685546875,0.6791121444851159,-0.03866173908859491,0.31892902540788054
1745340306565749800,10.248749755859375,0.8062941708087921,-0.18234160348773001,0.2652344427624717
1745340306575723800,10.258723876953125,0.7044207732647657,-0.2480067925751209,0.3403772158997133
1745340306585696800,10.26869677734375,0.5262210918873548,-0.2868801285877824,0.2693599069283344
1745340306595669800,10.278669677734374,0.38896833792626856,-0.2828229621514678,0.20462162342751397
1745340306605642800,10.288642822265626,0.37371348564922807,-0.2329787347912788,0.1865836980368942
1745340306615615700,10.29861572265625,0.34202070879042146,-0.1824804274365306,0.171443320718687
1745340306625588700,10.308588623046875,0.4458645296245813,-0.1466772926494479,0.22583529277741907
1745340306635561700,10.318561767578124,0.5969932487249374,-0.12925532546639443,0.2559016192118637
1745340306645535700,10.32853564453125,0.48912967085540293,-0.1331032330662012,0.2037910726211965
1745340306655508700,10.3385087890625,0.4052840974330902,-0.10099281531721353,0.30170548514006656
1745340306665481700,10.348481689453125,0.3140010674864053,-0.07593699225485324,0.3309054770687595
1745340306675455000,10.358455078125,0.23032442089021204,-0.06612637685835361,0.20772466747676951
1745340306685427700,10.368427734375,0.192241066211462,-0.04339490509033203,0.04094316455665976
1745340306695400700,10.378400634765624,0.16014672281444073,0.022526304584741592,-0.0741828192310175
1745340306705374700,10.388374755859376,0.0411959337413311,0.08556874395310879,-0.1685325295722112
1745340306715347700,10.39834765625,-0.07786006927192211,0.12176526197195052,-0.22980784967020151
1745340306725320700,10.40832080078125,-0.17527414931952953,0.14830635515600443,-0.27383891550591216
1745340306735293700,10.418293701171875,-0.24721184280514716,0.16096563798189162,-0.254742786299251
1745340306745266700,10.4282666015625,-0.25979133839309215,0.14343494972735643,-0.22185170303396878
1745340306755239700,10.43823974609375,-0.20319675998985767,0.1348483231678605,-0.1581935794526711
1745340306765212700,10.448212646484375,-0.07411386848092079,0.10141279429495334,-0.06851920397875365
1745340306775186700,10.458186767578125,0.023103812211751937,0.08452361881434917,-0.04841132674654945
1745340306785160000,10.468159912109375,0.06798983264267444,0.03308130860775709,-0.05175548150872346
1745340306795132700,10.478132568359374,0.06073065529465675,0.018975334104895592,-0.07309363118824548
1745340306805105700,10.488105712890626,0.021743045252561568,0.02012567318379879,-0.05415061931721866
1745340306815078700,10.49807861328125,-0.012023030748963355,0.029680852514505383,-0.09706357697634957
1745340306825052000,10.508052001953125,-0.06441197415590286,0.05469897391498089,-0.11191428716559894
1745340306835025000,10.51802490234375,-0.07681202152371407,0.046347909677028655,-0.12148181452122517
1745340306844999000,10.5279990234375,-0.05715747298300266,0.044264381401240824,-0.08242560535548255
1745340306854971600,10.5379716796875,0.009881927067041397,0.03962649246752262,-0.05445928340759128
1745340306864944600,10.547944580078125,0.04587152433693409,0.008043897984921932,-0.004115801288373768
1745340306874917600,10.557917724609375,0.0898684869736433,-0.02373246550410986,0.05090356368739157
1745340306884891000,10.567890869140625,0.12777005534470082,-0.052801031339168546,0.08991733108405023
1745340306894864000,10.57786376953125,0.14772621718049048,-0.10639438209980726,0.10098412968725896
1745340306904836600,10.587836669921876,0.1923848585963249,-0.14172317737340925,0.12511676435694097
1745340306914810600,10.597810546875,0.19128478839993476,-0.15794892050921916,0.11220171667169779
1745340306924783600,10.60778369140625,0.19147125088274478,-0.16086334665119648,0.11696002624784596
1745340306934756900,10.6177568359375,0.12649579762518406,-0.16444734261780977,0.07950835706875659
1745340306944729900,10.627729736328124,0.03920680575072765,-0.1285147362321615,0.04268598963599652
1745340306954702800,10.637702880859376,-0.017723872739076614,-0.09490998827219009,0.0451823364963755
1745340306964675600,10.647675537109375,-0.09910568639636039,-0.022835224403440952,0.037978506064787504
1745340306974648800,10.65764892578125,-0.18674422236084937,0.03161123605519533,0.010558447222271934
1745340306984622600,10.66762255859375,-0.3047422407537699,0.05388005874752998,-0.05382486709472723
1745340306994595800,10.677595947265624,-0.4068669827103615,0.09254735079407692,-0.03496237311400473
1745340307004568800,10.68756884765625,-0.40115503480434417,0.102224695199728,-0.06409470663396641
1745340307014541600,10.69754150390625,-0.3142868986904621,0.04953881467282772,-0.08151304795467294
1745340307024514600,10.7075146484375,-0.18688041596114635,0.027296295465528964,-0.06620589923481457
1745340307034487800,10.71748779296875,-0.09469897587001323,-0.012520166616141795,-0.03589202778008766
1745340307044460800,10.727460693359374,-0.04476502439975738,-0.05197656321376562,0.026126831561047583
1745340307054434800,10.737434814453126,-0.02337912202179432,-0.029718846437335012,0.005443990285368636
1745340307064407800,10.74740771484375,0.003832710030674934,0.004528583340346813,0.02774759203013964
1745340307074380500,10.757380615234375,-0.004452303233742714,0.020269465568661688,0.06700574437561445
1745340307084353800,10.767353759765625,-0.038052959540486334,0.05734364320486784,0.01973663733359426
1745340307094326800,10.777326904296874,-0.028912206229567528,0.08889934968054294,-0.025030633822176605
1745340307104299800,10.7872998046875,0.005861000987887382,0.07969517574459314,-0.05787981417449191
1745340307114272800,10.797272705078125,0.056711482781171794,0.05660100814402103,-0.08048368664062582
1745340307124246800,10.807246826171875,0.07913549603521823,0.04876783030033111,-0.06062793470569886
1745340307134219500,10.817219482421875,0.11171148546934127,0.056385904088616365,-0.04517196123283356
1745340307144192800,10.82719287109375,0.15477496664822102,0.04444441414326429,-0.022941041131783274
1745340307154165800,10.837165771484376,0.198022572222352,0.02944616697579622,0.023940582696301862
1745340307164138800,10.847138671875,0.24791560716032982,0.0014440613284707068,0.032666288932925086
1745340307174111700,10.85711181640625,0.24721418089270591,-0.019197452422976494,0.05449604435455985
1745340307184084700,10.867084716796874,0.2442506549119949,-0.029339783991873262,0.09022499966057948
1745340307194057700,10.8770576171875,0.1662292575985193,-0.011431786857545374,0.10912666574106551
1745340307204031700,10.88703173828125,0.06813011789619922,-0.0018237082958221435,0.11490727670281194
1745340307214004700,10.897004638671875,-0.06434884579181671,0.028352234259247776,0.06805304320515133
1745340307223977700,10.906977783203125,-0.1661860029786825,0.04961100312620401,0.0035777854215353726
1745340307233951000,10.916950927734375,-0.1731879906952381,0.07467237914651632,-0.06646575574739835
1745340307243923700,10.926923828125,-0.16871172206401824,0.07435030758529901,-0.10568367654718458
1745340307253896700,10.936896728515626,-0.1181061549425125,0.02806669531613588,-0.10304217646191827
1745340307263870700,10.94687060546875,-0.0372615169018507,0.009740472769737243,-0.09441890768646262
1745340307273843700,10.95684375,0.023214286848902702,-0.0194148945659399,-0.049510118301305917
1745340307283816700,10.966816650390625,0.07175298456847667,-0.05454875178933143,0.0030383082499727604
1745340307293789700,10.976789794921874,0.09931085357964038,-0.06922638870030641,0.06454998525395057
1745340307303762700,10.9867626953125,0.08657821325659751,-0.06916501390188932,0.11999327473021111
1745340307313735700,10.996735595703125,0.0214279879540205,-0.08198240989893675,0.12054775767466053
1745340307323708700,11.006708740234375,-0.0704535924077034,-0.07872311584204435,0.07790699541987851
1745340307333682000,11.016681884765624,-0.1708656852275133,-0.060549745769798755,0.032422808166407045
1745340307343656000,11.026656005859374,-0.2367044773161411,-0.026358722354471682,-0.008796186790103092
1745340307353628700,11.036628662109376,-0.2535977444499731,-0.012922902198135851,-0.029026032734429462
1745340307363601700,11.0466015625,-0.24083704707622527,-0.028385844267904758,-0.04620062842713669
1745340307373574700,11.05657470703125,-0.179758601257205,-0.025452421164512632,-0.09777437386051752
1745340307383548000,11.0665478515625,-0.07034720942378044,-0.015002046559751034,-0.14869977492038158
1745340307393521000,11.07652099609375,0.03355506359934807,-0.029929274317622184,-0.21051603349465875
1745340307403495000,11.086494873046876,0.12319558703601359,-0.03966945482641458,-0.26063732423055913
1745340307413467600,11.096467529296875,0.17959961130321025,-0.04192863193005323,-0.22373693225868044
1745340307423440600,11.106440673828125,0.16520225263833999,-0.04609627300351858,-0.16439157557627185
1745340307433413600,11.11641357421875,0.08892916029691696,-0.023119594302773473,-0.08253716683802194
1745340307443387000,11.126386962890624,-0.0055956280499696726,0.02901215947270393,-0.06013405937468633
1745340307453359900,11.13635986328125,-0.13593816423118113,0.06832330238074064,-0.025411203238135203
1745340307463332400,11.146332275390625,-0.2542009710401296,0.07634732662141322,-0.008961113294539972
1745340307473305300,11.156305419921875,-0.31303894445598124,0.11812222929447888,-0.00021762480605393646
1745340307483279400,11.166279296875,-0.3069026336580515,0.11553601219356059,0.0004874181907624006
1745340307493252400,11.17625244140625,-0.23875965628027915,0.09941519073694943,-0.009433525712415576
1745340307503225300,11.186225341796876,-0.06164367848634719,0.04940320559442043,-0.03945572074418887
1745340307513198300,11.1961982421875,0.16098200459480286,0.004723229129612446,-0.0492428730667103
1745340307523171300,11.20617138671875,0.34124446372091766,-0.04169131604284048,-0.07185336706987581
1745340307533144600,11.21614453125,0.44780105064511294,-0.039808278775215145,-0.0570514005263336
1745340307543117300,11.226117431640626,0.42171150062084195,-0.05037672680169344,-0.04649739201716147
1745340307553091300,11.23609130859375,0.32201544711589813,-0.0690069007307291,-0.0038920664019417017
1745340307563064300,11.246064208984375,0.1994821233808994,-0.11450345427542924,0.07465091623337938
1745340307573037300,11.256037353515625,0.0724707774490118,-0.11287409950792789,0.10103231621054
1745340307583010600,11.266010498046874,-0.08341244270205497,-0.0050499768659472465,0.02244121098401956
1745340307592983600,11.275983642578124,-0.1443096867352724,-0.08427841188162565,0.030143711652746423
1745340307602956300,11.285956298828125,-0.1986369047284126,-0.07709288429170846,-0.0068728357783984385
1745340307612929300,11.29592919921875,-0.20266952124536036,-0.03506868303269148,-0.03993058084747754
1745340307622903300,11.3059033203125,-0.17820026589930058,-0.062217386721074575,-0.07277182448850944
1745340307632876300,11.315876220703124,-0.12022621583640575,-0.07269611063748598,-0.12093995359633117
1745340307642849500,11.325849609375,-0.05881050088703632,-0.06929360871762037,-0.13243465875540858
1745340307652822300,11.335822265625,-0.03237491390407085,-0.06357289298325777,-0.14510315693421288
1745340307662795300,11.345795166015625,-0.005554126995801926,-0.06612929946780205,-0.1411784121053759
1745340307672768300,11.355768310546875,0.025845804396271703,-0.07953443222492933,-0.12793409593314864
1745340307682741500,11.365741455078124,0.04461071062088012,-0.08059913884699345,-0.07208273711265065
1745340307692715500,11.375715576171874,0.023091537252068518,-0.08957739507257938,-0.02151818698812276
1745340307702688500,11.3856884765625,-0.052991585475206375,-0.06616963147819042,0.028333036368433383
1745340307712661200,11.3956611328125,-0.1211345628529787,-0.05852993037998676,0.05281188152674585
1745340307722634200,11.40563427734375,-0.17832886071503162,-0.01729658723771572,0.0367589194082655
1745340307732607500,11.415607421875,-0.17787702529430388,0.004133738803863525,0.007472929696552455
1745340307742580500,11.42558056640625,-0.13852934976816175,0.02776625106483698,-0.0007674681080039591
1745340307752553500,11.435553466796875,-0.07871288670897483,0.04566606489270925,0.033389031983213496
1745340307762526200,11.445526123046875,0.026906711626052855,0.03504500989615917,0.05942449546637944
1745340307772500200,11.455500244140625,0.11233633936941623,0.023092706295847892,0.06811578797674737
1745340307782473200,11.46547314453125,0.13162965338230131,0.02041355021446943,0.029198621955513954
1745340307792446500,11.475446533203124,0.13797230040729044,0.0037681203618645668,-0.008761508202366531
1745340307802419500,11.48541943359375,0.14386194296777247,-0.013526713310182095,-0.06835245540998876
1745340307812392400,11.495392333984375,0.09269581935405731,-0.028210779961943624,-0.08238752010110766
1745340307822365200,11.505365234375,0.06758943514823913,-0.026065000104904174,-0.02958563024541363
1745340307832338400,11.51533837890625,0.0032861820638179777,0.0072957099661231034,-0.03848764289701357
1745340307842312400,11.5253125,-0.11638766058683395,-0.02125321590900421,-0.05844420659160241
1745340307852285400,11.535285400390626,-0.13833821111023425,-0.05370119504928589,-0.056517859905213116
1745340307862258400,11.545258544921875,-0.03935761239826679,-0.0832850169301033,-0.04602704369220882
1745340307872231400,11.5552314453125,0.03914659999608993,-0.11684183409512042,-0.08909593169856816
1745340307882204400,11.565204345703124,0.07087620173394679,-0.10675737019330263,-0.09751522060083224
1745340307892177400,11.575177490234376,0.10356792650222778,-0.0912254545405507,-0.0176066578338854
1745340307902150400,11.585150390625,0.04358253661692142,-0.06413520304113626,-0.015181750508211552
1745340307912124400,11.59512451171875,-0.05316518847644329,-0.008961305090785026,0.05000877027213573
1745340307922097400,11.605097412109375,-0.08884323557913303,0.067076809450984,0.04483271934110671
1745340307932070100,11.615070068359374,-0.2422030747324228,0.09275982450097799,-0.08569953072592616
1745340307942043400,11.62504345703125,-0.3787450500756502,0.09451134434342384,-0.15769746649879962
1745340307952016400,11.635016357421875,-0.4267161770403385,0.08678864113688468,-0.12860232318406925
1745340307961989400,11.6449892578125,-0.46606794421970843,-0.02697188581675291,-0.06107791609605774
1745340307971962400,11.65496240234375,-0.21932313440442083,-0.10635872626453638,-0.033497378595359624
1745340307981936400,11.664936279296874,0.08868716823458671,0.01284282269924879,-0.08865066301594487
1745340307991909400,11.674909423828124,0.22609774310588834,-0.03505056285411119,-0.05435965895801782
1745340308001882400,11.68488232421875,0.38697570280432697,-0.10044424152374266,-0.02376454114280641
1745340308011855400,11.69485546875,0.5152478624522686,-0.02723901232033968,-0.03830933632119558
1745340308021828400,11.704828369140625,0.5431096828460693,0.036328035444021224,-0.06812904018396511
1745340308031801300,11.71480126953125,0.45975744589865203,0.052555824406445024,-0.11176097803371958
1745340308041774300,11.7247744140625,0.2947521771371364,0.03820931914597749,-0.1181013691695407
1745340308051748400,11.734748291015626,0.11868073996007442,0.06893675810396671,-0.11303153682565316
1745340308061721300,11.744721435546875,-0.02708031462728977,0.09201339004784823,-0.13470289594833737
1745340308071694300,11.7546943359375,-0.09088847767114638,0.07793956424891949,-0.14818563311947508
1745340308081667300,11.764667236328124,-0.07737608514726162,0.0754445325627923,-0.1704105984037742
1745340308091640600,11.774640625,0.0034451720178127285,0.04832563949078321,-0.1544238151229918
1745340308101613300,11.78461328125,0.13542670757770536,0.036413375639915466,-0.11766220143414102
1745340308111586300,11.79458642578125,0.21497136893570423,0.0005269464835524559,-0.09264813515427522
1745340308121559300,11.804559326171875,0.23346739509105682,-0.004731120175123215,-0.03660024911467917
1745340308131533300,11.814533203125,0.1584656378597021,-0.02395107669085264,-0.0015431286556180565
1745340308141506600,11.824506591796874,0.00046411038041114806,0.010985212133824824,-0.04257394409626722
1745340308151479600,11.8344794921875,-0.22744506606161594,0.0632619273379445,-0.16086254293359814
1745340308161452300,11.844452392578125,-0.4404834211081266,0.09651976155638695,-0.251307569419872
1745340308171425300,11.85442529296875,-0.606470102122426,0.09458616314530371,-0.3348137730862945
1745340308181398300,11.864398193359374,-0.6947264777243137,0.06562222672849893,-0.44093258964773263
1745340308191371500,11.87437158203125,-0.6736129625469446,-0.001810264292359352,-0.3580664191842079
1745340308201345500,11.884345458984376,-0.5448135641545057,-0.1652799940496683,-0.13870548265320248
1745340308211318300,11.894318359375,-0.36610593325495716,-0.20012860459089277,-0.04579888379240874
1745340308221291300,11.904291259765625,-0.14131518109440802,-0.1905930067434907,-0.03188277387241833
1745340308231264300,11.91426416015625,0.09232932412922382,-0.1936620389252901,-0.03478104346403852
1745340308241237500,11.924237548828126,0.2811725645959377,-0.18117109840363263,-0.02367252004437614
1745340308251210500,11.93421044921875,0.39458734685182567,-0.12534282819777726,-0.013691224256088026
1745340308261183200,11.944183349609375,0.4125087879896164,-0.07142331422269343,0.00767716758135939
1745340308271157200,11.9541572265625,0.3329313934057951,-0.039863808354735374,-0.030674475794890892
1745340308281130200,11.964130126953124,0.19108488191366194,-0.016221943743526934,-0.03407672883629566
1745340308291103500,11.974103515625,0.11984393852055072,0.002243395012617111,0.02660761908162385
1745340308301076500,11.984076416015625,0.08468670042157173,-0.012360299879312515,0.02722521212385036
1745340308311049500,11.994049560546875,0.07157996608912945,-0.01925502782911062,-0.05131046398784965
1745340308321022200,12.004022216796875,0.08096914120316505,0.07013064406365156,0.026223273106268607
1745340308330995200,12.0139951171875,0.1518646321594715,-0.011844751572608947,0.03666817238489166
1745340308340968400,12.023968505859376,0.22709727553725242,-0.009307342049479484,-0.0011322417332092299
1745340308350942500,12.0339423828125,0.3381342227458954,0.04260930767059326,-0.023816773653542622
1745340308360915500,12.04391552734375,0.4067348807632923,0.07022416756600142,-0.07512209110881667
1745340308370888400,12.053888427734375,0.38130993212759495,0.09665595515668392,-0.11263207091297954
1745340308380861200,12.063861083984374,0.31802257808744905,0.12316431511491537,-0.158407386600133
1745340308390834400,12.07383447265625,0.23279110326468944,0.11180763932019472,-0.19036834940845146
1745340308400807400,12.083807373046875,0.11307517503798008,0.11674158859103917,-0.19301216018181294
1745340308410780400,12.093780517578125,-0.026835399955511093,0.1309773269534111,-0.2482527118938975
1745340308420754400,12.10375439453125,-0.1612462084889412,0.1325084820434451,-0.3697077206065878
1745340308430727400,12.1137275390625,-0.2532218968749046,0.09886106398552656,-0.3129388450823724
1745340308440700400,12.123700439453126,-0.20546704300940036,0.07167319733053445,-0.19965123287010936
