time,seconds_elapsed,z,y,x
1745340213470868200,0.0648681640625,0.639426615306735,0.05869505781382322,-0.4312535282090306
1745340213480840200,0.074840087890625,0.22017302923202514,0.04184972147494554,-0.35776228513848035
1745340213490813200,0.084813232421875,-0.1465221020877361,0.051588148418068885,-0.1848907765138894
1745340213500785400,0.094785400390625,-0.32312545418441296,0.03192015587389469,-0.11964026917461305
1745340213510757000,0.104757080078125,-0.1414426068663597,-0.07287848146706818,-0.15015790130682288
1745340213520730400,0.11473046875,0.2240045702189207,-0.2006567201182246,-0.20400880702510474
1745340213530702300,0.124702392578125,0.3618716566860676,-0.36347909188270566,-0.20179673873251303
1745340213540674300,0.13467431640625,0.3910825536012649,-0.379047540153563,-0.22645495904572308
1745340213550646300,0.144646240234375,0.3518424301028251,-0.28635961184501646,-0.19789839785341173
1745340213560619300,0.154619384765625,0.2793383349061012,-0.3437847958534956,0.10581959615284577
1745340213570591200,0.16459130859375,-0.0639478637754917,-0.3500619764268398,0.44428763569667934
1745340213580563200,0.174563232421875,-0.04031213664412498,-0.2059641788765788,0.507968299903348
1745340213590536400,0.184536376953125,0.038107904598116873,-0.24127923788577316,0.34631866171266884
1745340213600508200,0.194508056640625,0.013554478099942207,-0.25242694710493085,0.08450677727740258
1745340213610480400,0.20448046875,-0.08884966531991959,-0.1431871124461293,-0.1304143227757886
1745340213620452400,0.214452392578125,-0.23923721066415307,-0.0007446808874607086,-0.2187901965714991
1745340213630425000,0.224425048828125,-0.31647476412355896,0.10298223556876182,-0.1754539080669172
1745340213640397300,0.234397216796875,-0.3989928883343935,0.1024339540362358,0.00747667428990826
1745340213650369300,0.244369384765625,-0.36909284011125565,0.05475158088505268,0.14519523739814758
1745340213660342300,0.25434228515625,-0.2558715346008539,0.0510015807017684,0.23041089359726755
1745340213670314200,0.264314208984375,-0.18376023811399936,0.034492052188515664,0.29979957845350724
1745340213680286500,0.274286376953125,-0.14570435596406459,-0.013927987587451934,0.13329736739881337
1745340213690258200,0.284258056640625,0.04217793051600456,-0.014810615640878676,-0.08735761839756742
1745340213700231400,0.2942314453125,0.27324937038123603,-0.051552492582798,-0.23306628521056844
1745340213710203400,0.304203369140625,0.37311493523418904,-0.14172522320002318,-0.2575889695106074
1745340213720175400,0.31417529296875,0.28306115482151506,-0.22489362801313398,-0.1254827846577391
1745340213730148400,0.3241484375,0.08922200576364994,-0.25385814895182846,-0.05549078187979758
1745340213740120300,0.334120361328125,-0.05754150386452674,-0.1999868580326438,-0.05154430927634239
1745340213750092300,0.34409228515625,-0.2105062062203884,-0.046130175273120404,-0.15129439452346413
1745340213760064300,0.354064208984375,-0.25668460454940795,-0.03833206874281168,-0.07534004927501083
1745340213770037500,0.36403759765625,-0.19660101498663424,-0.21468495320975778,0.10691975768078119
1745340213780009200,0.37400927734375,-0.0765010558784008,-0.2661749019503593,0.05230842551663518
1745340213789981400,0.3839814453125,0.08208557801246642,-0.1657546258240938,-0.10270378395356237
1745340213799954400,0.393954345703125,0.15590893911421297,-0.11786796227246522,-0.269630449231714
1745340213809926100,0.403926025390625,0.11589081698060034,-0.045699090379476545,-0.41551951411291954
1745340213819898400,0.4138984375,-0.034059505990147586,0.03121259212642908,-0.34735900107845663
1745340213829871400,0.423871337890625,-0.21529753215014932,0.03197597771435976,-0.16263656686879693
1745340213839843300,0.43384326171875,-0.27386487193107606,-0.03259469413459301,-0.06772979346700013
1745340213849815300,0.443815185546875,-0.19716566313207148,-0.0755593911141157,-0.02099416311401874
1745340213859787300,0.453787353515625,-0.046588148173689836,-0.09259060541391372,-0.034459136299602684
1745340213869760300,0.46376025390625,0.061631988048553465,-0.062268824647366994,-0.16762553426250815
1745340213879732500,0.473732421875,0.031416298004984855,0.02739624870866537,-0.3083181995444
1745340213889704200,0.4837041015625,-0.1398135443598032,0.12739157742112875,-0.31315716400817034
1745340213899677200,0.49367724609375,-0.2907756747215986,0.1872662004083395,-0.19881682787258176
1745340213909649400,0.5036494140625,-0.4107996459841728,0.31074703412652016,0.09211659469399601
1745340213919621000,0.51362109375,-0.3236281430095434,0.14928192218989134,0.09591098200827837
1745340213929594400,0.523594482421875,0.029665070423483847,-0.20508681152015923,0.2874489049190655
1745340213939566300,0.53356640625,0.2696411167562008,-0.15749299343526363,0.467377492448315
1745340213949538300,0.543538330078125,0.3034329117208719,-0.15767331843823193,0.3113670291883871
1745340213959510300,0.55351025390625,0.19852526104748247,-0.17413345485180615,0.17654446151629088
1745340213969483300,0.563483154296875,0.07809387802779674,-0.13140110532343388,0.13852021661363542
1745340213979455200,0.573455322265625,-0.011410451808571816,-0.08560673787593841,0.10917239544577896
1745340213989427500,0.583427490234375,-0.041017070043087,-0.08555354638397693,0.15026114248558878
1745340213999400400,0.593400390625,-0.04602992976903915,-0.09162292942553758,0.24014161215797064
1745340214009372200,0.6033720703125,-0.009058920246362685,-0.14723434201031924,0.3619163360780105
1745340214019344400,0.613344482421875,0.1006084921747446,-0.1939022774219513,0.3976551369246095
1745340214029317400,0.6233173828125,0.23771745375096798,-0.2254100531026721,0.3501050483835861
1745340214039289300,0.633289306640625,0.2439467035293579,-0.21004414166659116,0.2522827163286507
1745340214049261300,0.64326123046875,0.12670096480846404,-0.14864596237391234,0.18154325618427244
1745340214059233500,0.653233642578125,-0.05067570974826813,-0.11980594459772109,0.16437493496872485
1745340214069206300,0.663206298828125,-0.12784195153713226,-0.1041898577928543,0.16886165192872285
1745340214079178200,0.67317822265625,-0.11467208884060383,-0.0858794173374772,0.15759835350587964
1745340214089150500,0.683150390625,-0.02387012040913105,-0.08594371474534272,0.20629980403911322
1745340214099123200,0.693123291015625,0.036570027506351466,-0.14265315169990062,0.3255165871046483
1745340214109095400,0.703095458984375,0.14491992758810518,-0.15792583189457654,0.504299109871313
1745340214119067400,0.7130673828125,0.15429858130812643,-0.18657851040512322,0.43924134862516073
1745340214129040100,0.7230400390625,0.12287059286534785,-0.1457356278851628,0.12215071762558072
1745340214139012400,0.733012451171875,0.09878419935703277,-0.025035657057166098,-0.1390486974671483
1745340214148984300,0.742984375,-0.007210077509284019,0.0027510522738099096,-0.0770864180183038
1745340214158956300,0.752956298828125,-0.07562427304387093,-0.06314589974284171,0.11033771289810537
1745340214168929300,0.76292919921875,-0.04317980103492736,-0.13933511319309472,0.2812831122983247
1745340214178901500,0.772901611328125,-0.0765180070132017,-0.15153291598707436,0.4536876609982922
1745340214188873200,0.782873291015625,-0.04309446083903312,-0.16701806988865137,0.5038172446385025
1745340214198846500,0.792846435546875,-0.02368307340443134,-0.1070198205217719,0.3300732640283182
1745340214208818400,0.802818359375,-0.07137538342773914,0.0047381344377994536,0.1546391749067232
1745340214218790400,0.812790283203125,-0.11755787340998648,0.07173749473839998,0.08158175667617469
1745340214228763400,0.822763427734375,-0.18514087881743907,0.029250352142751214,0.10326879742518066
1745340214238735000,0.832735107421875,-0.17783143258690834,-0.011184826359152793,0.21881916693765668
1745340214248707300,0.842707275390625,-0.1717412990182638,-0.0165936996653676,0.32719369000401344
1745340214258679300,0.85267919921875,-0.20662673443853855,0.006713526163995265,0.31411789879910645
1745340214268652300,0.86265234375,-0.28197978932559487,0.07450812849551439,0.23211601701471954
1745340214278624300,0.872624267578125,-0.33536943420767784,0.09417787460535765,0.1444412772256881
1745340214288596500,0.882596435546875,-0.25110768119990823,0.11080489201843738,-0.008393222879245876
1745340214298569200,0.8925693359375,-0.12676175508499143,0.14666823256015776,-0.12744031193368136
1745340214308541200,0.902541259765625,0.03337093920409679,0.15845190159529446,-0.2521273431038484
1745340214318513400,0.912513427734375,0.13747487227916716,0.13577362131923437,-0.3110302349820733
1745340214328486100,0.922486083984375,0.12318389659821986,0.1030509168908,-0.2852419694593176
1745340214338458400,0.932458251953125,0.05151099152863026,0.07039864735007285,-0.20049970292560754
1745340214348430300,0.942430419921875,0.014715338572859763,0.015014613780379294,-0.04677373387366533
1745340214358403300,0.9524033203125,0.030873861691355704,-0.03733545892089605,0.03944576560575515
1745340214368375300,0.962375244140625,0.10484276874363421,-0.07788695727884769,-0.0027262831587344404
1745340214378347500,0.972347412109375,0.23003566707670686,-0.10476765768080949,-0.06651658175233752
1745340214388319200,0.9823193359375,0.31066169393062587,-0.08383768237680196,-0.18988394515868276
1745340214398292200,0.992292236328125,0.3701929103076458,-0.07066168220043181,-0.2999756839390844
1745340214408264400,1.002264404296875,0.2887193267136812,-0.03237988234013319,-0.32588384951446203
1745340214418236200,1.012236083984375,0.19875147101879118,-0.008944353955984115,-0.2648819029977545
1745340214428209400,1.02220947265625,0.1688227812230587,-0.04045388320237398,-0.1524762977844104
1745340214438181400,1.032181396484375,0.09856441912651061,-0.07829319999217986,0.01602243911605328
1745340214448153300,1.0421533203125,0.01813128449618816,-0.06825315975397825,0.15612897507306187
1745340214458126300,1.052126220703125,-0.06386836879849433,-0.0705468236491084,0.12494038487672805
1745340214468098300,1.062098388671875,-0.035602059257030486,-0.04419102390408516,0.03330167336016893
1745340214478070300,1.0720703125,0.023182722666859626,-0.016930384273827075,-0.09349343600515275
1745340214488042200,1.082042236328125,0.07390110251307487,-0.009392974506318569,-0.2266893157908693
1745340214498015500,1.092015380859375,0.1603425376474857,0.024075872114300727,-0.28122075111921874
1745340214507987200,1.1019873046875,0.157464351862669,0.07675503063946962,-0.25843579559829083
1745340214517959400,1.11195947265625,0.09106675684750079,0.09946984353363514,-0.11400898528937249
1745340214527932400,1.121932373046875,-0.016156185030937194,-0.13134616026580334,0.30339334689546377
1745340214537904400,1.131904296875,-0.098800565969944,-0.29068273574113845,0.4137645602043718
1745340214547876400,1.14187646484375,-0.11038754338920116,-0.1017176224604249,0.22101813828665762
1745340214557849300,1.151849365234375,-0.16622750403285025,0.03175093678683042,0.0736420131854713
1745340214567821300,1.1618212890625,-0.21613222940862178,0.01729834080338478,-0.043042474923469125
1745340214577793300,1.171793212890625,-0.18641396749317646,0.04457593156844377,-0.0750813252735883
1745340214587766500,1.1817666015625,-0.10885258890688419,0.04395809193104505,-0.07696312043219804
1745340214597738200,1.19173828125,-0.003810498198866844,-0.03242372148185968,-0.008941942803189157
1745340214607710500,1.20171044921875,0.06430909830331802,-0.09416355381906032,0.045338659569248554
1745340214617682200,1.21168212890625,0.10767185468971728,-0.03591711655557155,0.13150346971936522
1745340214627655200,1.2216552734375,0.19705694206058977,-0.09687719669193029,0.15835315392855553
1745340214637627400,1.23162744140625,0.2626870598345995,-0.09998305375277995,0.1528036300426349
1745340214647599000,1.24159912109375,0.3711521107286215,-0.09621785600036382,0.17786661349814384
1745340214657572400,1.251572265625,0.4284674046218395,-0.12477496518194675,0.21904848218150436
1745340214667544300,1.26154443359375,0.38641631535589693,-0.05850976437479257,0.14120079746711997
1745340214677516300,1.271516357421875,0.2959258970916271,0.05813099419027567,-0.06905139745958148
1745340214687489300,1.2814892578125,0.15817513048052786,0.15395459017604587,-0.13582827411592005
1745340214697461200,1.291461181640625,0.07253741294443607,0.21204612913876772,-0.12395002213250846
1745340214707433200,1.30143310546875,0.05896423014402389,0.15635639062076806,-0.027373890746384858
1745340214717406200,1.31140625,0.1250724868237972,0.07887012309730053,0.09502429883424192
1745340214727378400,1.32137841796875,0.27808511997461316,-0.014397943186759948,0.16275979138966648
1745340214737350100,1.33135009765625,0.49110477032065386,-0.09655775547921656,0.0936368265312165
1745340214747323400,1.341323486328125,0.610371785736084,-0.15494477025717496,-0.033878559932671484
1745340214757295400,1.35129541015625,0.6615946079730988,-0.11719634662121534,-0.17774327937941997
1745340214767267300,1.361267333984375,0.6639537383198738,-0.06566080517321825,-0.2683511134782806
1745340214777239300,1.3712392578125,0.44534430514276024,0.033950200396776195,-0.2155220250884071
1745340214787212300,1.38121240234375,0.1826777035742998,0.03976619319915771,-0.1431146682644263
1745340214797184300,1.391184326171875,-0.046913142344355584,0.036602468471229076,-0.10184376959074289
1745340214807156200,1.40115625,-0.21834172215163705,0.05524316379427909,-0.03281367064751684
1745340214817129500,1.41112939453125,-0.38856735590994357,0.04632628236711025,0.008115940307825803
1745340214827101200,1.42110107421875,-0.41006256388127804,0.014487667296826838,-0.017083492476306854
1745340214837073400,1.431073486328125,-0.31867139738500116,-0.02111673004776239,-0.069681986980699
1745340214847046400,1.44104638671875,-0.2662088042199611,-0.04298544750660658,-0.18451218899246305
1745340214857018000,1.45101806640625,-0.1801455547481775,-0.06060907474160194,-0.23283296964503825
1745340214866990300,1.460990234375,-0.14417057052552698,-0.09855915842950344,-0.26146135396454484
1745340214876963300,1.47096337890625,-0.19989070418179034,-0.0997092052474618,-0.18748265617061405
1745340214886935300,1.480935302734375,-0.27014322105944155,-0.0690764588356018,-0.13644600415546446
1745340214896907300,1.4909072265625,-0.3311655527770519,-0.08979308364987373,-0.11039948955532163
1745340214906880300,1.50088037109375,-0.32076632383763787,-0.09063976360708474,-0.16493381096050141
1745340214916852200,1.510852294921875,-0.31326164729595185,0.0023582535639405247,-0.2330015676775947
1745340214926824400,1.520824462890625,-0.25941958247125146,-0.03150689889788628,-0.13683841927284374
1745340214936796400,1.53079638671875,-0.19199030632078645,-0.17613719588965177,-0.0002868175847455859
1745340214946769200,1.54076904296875,-0.09433306516706944,-0.28235885177105663,0.25281877770042044
1745340214956741400,1.550741455078125,0.06568155570030212,-0.43646834024786946,0.4581098613547161
1745340214966713300,1.56071337890625,0.1558171691775322,-0.45520665072649713,0.4235293636977672
1745340214976686300,1.570686279296875,0.15254676920473575,-0.3649497489571571,0.230845650019031
1745340214986658300,1.580658203125,0.03263034996986389,-0.22560557567477224,0.0018770276519469915
1745340214996630500,1.590630615234375,-0.0920166049182415,-0.17288783870488406,-0.13768668839894235
1745340215006603300,1.600603271484375,-0.2173603098988533,-0.1694175322458148,-0.08918161895433441
1745340215016575200,1.6105751953125,-0.36541853551268577,-0.17307985414564608,0.07187927782926708
1745340215026547500,1.62054736328125,-0.4071908078372478,-0.13683891246318816,0.142914944441244
1745340215036520200,1.630520263671875,-0.39926001483798024,-0.053905485449731345,0.08977742942301556
1745340215046492400,1.640492431640625,-0.39512452246844765,0.024216157367825508,0.0147027713522315
1745340215056464400,1.65046435546875,-0.322343948417902,0.07454436885267496,0.06911505554663017
1745340215066437000,1.66043701171875,-0.20749474944472313,0.13995090700387955,0.20441914139166473
1745340215076409300,1.670409423828125,-0.11558745011985301,0.12900398105382918,0.15979562608813866
1745340215086381300,1.68038134765625,0.11112930166721344,0.08882219279110432,0.08639051779792643
1745340215096354300,1.690354248046875,0.3881155204892158,0.05881605384498834,0.0674305547920987
1745340215106326300,1.700326171875,0.5866676695436239,-0.007611351786553859,0.09267468523448333
1745340215116298200,1.71029833984375,0.5768675755411387,-0.059387423992156976,0.09033464318066835
1745340215126271200,1.720271240234375,0.44613691682517526,-0.10879559802263974,0.14369272388070822
1745340215136243500,1.730243408203125,0.29327450580000874,-0.10411386994719504,0.0775325908832252
1745340215146215200,1.740215087890625,0.09081658147871494,-0.018512392768263816,-0.028550003587361424
1745340215156187400,1.7501875,-0.06177285782396793,0.04273994831293821,-0.029642420200258493
1745340215166160400,1.760160400390625,-0.05443710810840129,0.02568652218133211,0.034014251209469513
1745340215176132000,1.770132080078125,0.04068798421919346,0.005546820472180843,0.11265433754371479
1745340215186104300,1.780104248046875,0.1678986521154642,-0.0457379610851407,0.12395659800376742
1745340215196077300,1.790077392578125,0.33199791194796563,-0.09207827197760343,0.09963243195051327
1745340215206049300,1.80004931640625,0.40915480138659477,-0.1485331496492028,0.12670433494248426
1745340215216021200,1.810021240234375,0.4021417077541351,-0.1843769087076187,0.1358619754561223
1745340215225994200,1.819994140625,0.40772096919119355,-0.1973123781263828,0.056195459550432855
1745340215235966200,1.82996630859375,0.3722311381369829,-0.1555965121641755,-0.08986359160281718
1745340215245938200,1.839938232421875,0.2319213346928358,-0.07678747160434722,-0.19189393327422438
1745340215255911400,1.849911376953125,0.11696166108250618,-0.01913169371038675,-0.20138841365994883
1745340215265883100,1.859883056640625,0.07660510077476501,-0.02905570635348558,-0.18741059558140113
1745340215275855400,1.86985546875,0.1114402673125267,-0.06445347521007061,-0.10578258861070498
1745340215285828400,1.879828369140625,0.12461363714039325,-0.16696750874519348,0.05620013572555035
1745340215295800300,1.88980029296875,0.18507950401902198,-0.26043548151552676,0.20495111111020667
1745340215305772300,1.899772216796875,0.2727162864178419,-0.2996528086602688,0.30233932606419545
1745340215315745300,1.909745361328125,0.3180167328685522,-0.2545978614032268,0.2112680391720496
1745340215325717200,1.91971728515625,0.2245581124484539,-0.1378551037684083,-0.034866548056714235
1745340215335689200,1.929689208984375,-0.09504325926303862,0.02124795521199703,-0.23951431057248262
1745340215345662500,1.939662353515625,-0.4893833533555269,0.1366752463340759,-0.3761916027331725
1745340215355634200,1.94963427734375,-0.798662653017044,0.17512772658616305,-0.37256957631111143
1745340215365606400,1.9596064453125,-0.8348036414563655,0.15944821915626525,-0.25662512944713234
1745340215375579400,1.969579345703125,-0.629545857283473,0.07322130355536938,-0.14113299292791634
1745340215385551000,1.979551025390625,-0.37855975663661956,-0.07249708093404769,-0.09930179349035025
1745340215395523000,1.989523193359375,-0.19388591080904005,-0.17304302926659584,-0.05394271218758076
1745340215405496000,1.99949609375,-0.03701894031763077,-0.22498042951375244,-0.039793336934410034
1745340215415468300,2.00946826171875,0.042753100055456156,-0.2580190680235624,-0.10594583461470901
1745340215425440000,2.01943994140625,-0.022604045996069907,-0.24367431632876393,-0.16413316210210321
1745340215435413200,2.029413330078125,-0.05294131659269333,-0.15409282960295675,-0.2971661429436877
1745340215445385200,2.03938525390625,-0.1900549543440342,-0.014658055427670479,-0.37349754134360696
1745340215455357200,2.049357177734375,-0.12839900089800357,-0.12662380791902542,-0.08100961934402584
1745340215465330200,2.059330078125,-0.030744682353734967,-0.14020225141644477,-0.040285979289561506
1745340215475302100,2.06930224609375,0.09047697426080703,-0.11299655684381722,-0.11602704711351543
1745340215485274000,2.079274169921875,0.1730833612769842,-0.09900631767511367,-0.0723958855818957
1745340215495247000,2.0892470703125,0.20677754108607768,-0.17834610411077736,-0.0739931281780824
1745340215505219300,2.09921923828125,0.21810382174253462,-0.2041664818048477,-0.08932963085658847
1745340215515191000,2.10919091796875,0.12365619028508662,-0.18941665644049643,-0.21318656787816434
1745340215525164000,2.1191640625,0.002187280911207199,-0.16688450663685797,-0.28069069936312735
1745340215535136300,2.12913623046875,-0.09077975659966468,-0.12127046419233083,-0.2744770124800503
1745340215545108000,2.13910791015625,-0.17096797655820845,-0.10204144758731126,-0.2532758555518463
1745340215555081200,2.149081298828125,-0.18197452374100684,-0.10552695161551237,-0.22610976233724503
1745340215565053200,2.15905322265625,-0.11490239046514034,-0.112045831990242,-0.1552825508441776
1745340215575025200,2.169025146484375,-0.05288227988183498,-0.08718523923903704,-0.08192494409065693
1745340215584998100,2.178998046875,-0.07574234646558761,-0.047425183519721026,-0.07973762664683162
1745340215594970000,2.18897021484375,-0.19142974982857702,-0.020713994465768337,-0.13865279348473994
1745340215604942000,2.198942138671875,-0.28411738587617874,0.06840045927017926,-0.17571049491018056
1745340215614915000,2.2089150390625,-0.30811025588214397,-0.007594108390808105,0.061517823616974054
1745340215624887300,2.21888720703125,-0.25881577135920525,-0.020590660347044466,0.006095686526596546
1745340215634859000,2.22885888671875,-0.20667934140861033,0.020864801113307473,-0.0352342123253271
1745340215644831200,2.238831298828125,-0.17168167778551577,0.027092881847918034,0.012856010974384843
1745340215654804200,2.24880419921875,-0.08868424562513828,0.00004325461983680725,0.08153905004560946
1745340215664776200,2.258776123046875,-0.05515314742326736,-0.05947919392883777,0.1708157451385632
1745340215674749200,2.268749267578125,0.06469663631618022,-0.047807168574631215,0.17733396792616693
1745340215684721200,2.27872119140625,0.18189970493912697,0.030937282316386698,0.11625015181228518
1745340215694693000,2.288693115234375,0.24608605364561079,0.02833557538539171,0.07605718456842005
1745340215704666000,2.298666015625,0.2665367210000753,0.04873597385734319,0.15781601484455168
1745340215714638300,2.308638427734375,0.24408581973910332,0.030906010395288466,0.1890353837716393
1745340215724610000,2.318610107421875,0.24612638565599917,0.021432371868193148,0.13435772663932294
1745340215734583000,2.3285830078125,0.2623404383540153,0.02918956186622381,0.12044142948966473
1745340215744555300,2.33855517578125,0.28066519959568975,-0.03488718898594379,0.12488412464484572
1745340215754527000,2.34852685546875,0.29543723679184913,-0.052851884743571276,0.09369853012319654
1745340215764500200,2.358500244140625,0.27594635438024995,-0.04355272600054741,0.07172527457764372
1745340215774472200,2.36847216796875,0.2863409071445465,-0.05127922859936952,0.07954279819447546
1745340215784444200,2.378444091796875,0.3068137863308191,-0.046264907568693156,0.10234037573495879
1745340215794417200,2.388417236328125,0.2677747383624315,-0.036247371423244475,0.10010708199124782
1745340215804389000,2.39838916015625,0.1416255622178316,-0.009285714739561081,0.050700698059052224
1745340215814361000,2.408361083984375,0.061840662363171574,0.006367781466245651,0.04694952883198857
1745340215824334000,2.418333984375,0.09819967746734619,-0.040244624365866184,0.0823686144712381
1745340215834306300,2.428306396484375,0.2190595150321722,-0.08876900129914284,0.14099533802289516
1745340215844278000,2.438278076171875,0.2951812162041664,-0.12875146759748457,0.04494600698985159
1745340215854251300,2.448251220703125,0.400310400673747,-0.05210837289988994,0.047314581018406895
1745340215864223200,2.45822314453125,0.42518356064558027,-0.06432663396000862,0.02176209701290354
1745340215874195200,2.4681953125,0.3708013975948095,-0.03840133458673954,0.012295217020157723
1745340215884168200,2.478168212890625,0.18724457309842107,-0.022082067948579788,0.055585638822708276
1745340215894140200,2.48814013671875,-0.08081307385861873,0.04831131870448589,0.0053060887851752335
1745340215904112000,2.498112060546875,-0.3845248025208711,0.08365063537210225,-0.013013831884600221
1745340215914085000,2.508085205078125,-0.5732172363400458,0.061515083670616144,0.05982276493581012
1745340215924057300,2.518057373046875,-0.574324905321002,0.019230477909743783,0.14376228198558091
1745340215934029000,2.528029052734375,-0.4800467852115631,-0.030324411115050316,0.11317872674399986
1745340215944002000,2.538001953125,-0.33880934552848335,-0.036975101175904274,-0.0051217451942153274
1745340215953974300,2.547974365234375,-0.16525485960841177,-0.06904752500206232,-0.024731705674529075
1745340215963946000,2.557946044921875,-0.0005740004956722259,-0.10572539679706096,-0.04522142639774829
1745340215973919200,2.567919189453125,0.12018179217278957,-0.0917573694601655,-0.03488273200653493
1745340215983891200,2.57789111328125,0.14414777417182922,-0.07304653151035309,-0.05125650531090796
1745340215993863200,2.58786328125,0.11168109033107756,-0.0701046328395605,-0.03707587640294805
1745340216003836200,2.597836181640625,0.0347691155642271,-0.05726531727164983,-0.058516011452488595
1745340216013808000,2.60780810546875,-0.023694179320335386,-0.05159136328846216,-0.06369608097150921
1745340216023780000,2.617780029296875,-0.029283377629518506,-0.03680822017639875,-0.06832560393568128
1745340216033753000,2.627753173828125,0.0672901599407196,-0.04746639231294393,-0.03607479133531451
1745340216043725300,2.637725341796875,0.2504693832963705,-0.1224549978017807,0.03336940483413636
1745340216053697000,2.647697021484375,0.47132922574877734,-0.1417652629494667,0.07499328166395425
1745340216063670300,2.657670166015625,0.6055740300655365,-0.1187231177970767,-0.023436368634365497
1745340216073642200,2.667642333984375,0.6191325998187065,-0.04887275197952985,-0.13039799269549548
1745340216083614200,2.6776142578125,0.5135679465413093,-0.010351882666349411,-0.08697002558577806
1745340216093587200,2.687587158203125,0.3234802589714527,0.01748188067674637,-0.10373813196998088
1745340216103559200,2.69755908203125,0.14604045605063437,0.06657704323530196,-0.008069726545922458
1745340216113531100,2.70753125,-0.10213935500383377,0.10907266139835119,-0.010403466723114251
1745340216123504000,2.717504150390625,-0.4101677778214216,0.18023498659729956,-0.13818521250560878
1745340216133476400,2.727476318359375,-0.5327496168732643,0.16647300322651862,0.05066102363578975
1745340216143448000,2.737447998046875,-0.5200666609108447,0.02629530172944069,0.17875855736918747
1745340216153421000,2.747421142578125,-0.45199908685684204,0.028311025466024875,0.07789678455311805
1745340216163393300,2.757393310546875,-0.36087913851737974,0.015209844091534613,-0.08966547521483152
1745340216173366000,2.767365966796875,-0.19536767379939554,0.024817045870423316,-0.12182349496521055
1745340216183338200,2.777338134765625,-0.029554011264443396,0.006375380250811576,-0.09739190474841743
1745340216193310200,2.787310302734375,0.16745266191363334,-0.021190379805862903,-0.14226957747610286
1745340216203283000,2.797282958984375,0.3246668384075165,-0.012341887439787386,-0.0350195466613397
1745340216213255200,2.807255126953125,0.4089432044625282,-0.05878390514105558,0.07132376283835619
1745340216223227100,2.81722705078125,0.3689198216319084,-0.10286766927838326,0.1579860559155233
1745340216233200000,2.8272001953125,0.2838648724198341,-0.11237082616090774,0.21781066574854774
1745340216243172000,2.837172119140625,0.17620003199279308,-0.06518880374729633,0.1417776657733135
1745340216253144300,2.847144287109375,0.08530454005897045,-0.03742752111852169,0.0493769934409298
1745340216263117000,2.857116943359375,0.06593173106908798,-0.03433861519247293,-0.013590389663539827
1745340216273089300,2.86708935546875,0.13466215294599532,-0.05252250665873289,-0.027245332463271914
1745340216283061200,2.877061279296875,0.19203940615952014,-0.04289747696220875,-0.034345373726822434
1745340216293034000,2.887033935546875,0.19749065730273724,-0.047853638064861294,-0.044956601449102164
1745340216303006200,2.897006103515625,0.20710662690997123,-0.07133855854868888,-0.0032953882835805412
1745340216312978200,2.906978271484375,0.15806582488715648,-0.08659516439139843,-0.020924495411291717
1745340216322951200,2.916951171875,0.0877507641673088,-0.07874328184723854,0.062286981358565384
1745340216332923100,2.926923095703125,-0.03358779682517052,-0.09565905307382344,0.15604690454648806
1745340216342895400,2.936895263671875,-0.14880466006696225,-0.12933540496528148,0.06006298516616225
1745340216352868000,2.9468681640625,-0.1603653340011835,-0.11398410657644271,0.019553773313667623
1745340216362840000,2.956840087890625,-0.16890987498462198,-0.10131517913937568,-0.07372085057534276
1745340216372813300,2.966813232421875,-0.1750099454253912,-0.0834457604497671,-0.1563605918718502
1745340216382785800,2.976785888671875,-0.14275310494303703,-0.04736205515563488,-0.17115884122150019
1745340216392757800,2.9867578125,-0.11045710149407387,-0.05557049605250358,-0.15566353125208987
1745340216402730800,2.996730712890625,-0.10260171181857586,-0.08099632147103547,-0.10059373299703002
1745340216412702700,3.00670263671875,-0.06315934374630451,-0.10437661253660917,-0.036832751829456535
1745340216422675700,3.01667578125,-0.06908230405449867,-0.10971651225984096,-0.018115520671475677
1745340216432648700,3.026648681640625,-0.06858662949204444,-0.11457301238030194,0.008404401860386133
1745340216442620700,3.03662060546875,-0.051564183020591736,-0.10246990213245152,-0.004814743337966502
1745340216452592600,3.046592529296875,-0.023846739533543587,-0.09783347450345754,-0.013049487719871102
1745340216462565600,3.056565673828125,0.0076852938055992125,-0.08794511769562958,-0.03772233934663236
1745340216472537900,3.066537841796875,0.07382803727686404,-0.07047872684895992,-0.033957452121470125
1745340216482509600,3.076509521484375,0.10800152503550052,-0.03984481139332056,-0.04988463243581354
1745340216492482600,3.086482666015625,0.18992869761586187,-0.029750118358433244,-0.057082453251723196
1745340216502454800,3.096454833984375,0.27776363293528555,-0.024743103851377964,0.007535089946258813
1745340216512427800,3.106427734375,0.2985392944604158,-0.023605624254047868,0.04524635990960523
1745340216522399700,3.116399658203125,0.29279402880668637,-0.042241643401980396,0.08485396501356736
1745340216532371700,3.126371826171875,0.21639994043409824,-0.050825055091083045,0.19599703947780653
1745340216542344700,3.1363447265625,0.08340133678615093,-0.06340075128674506,0.1867556753366254
1745340216552316700,3.146316650390625,-0.07008417457342148,-0.041643092986941334,0.17629629544150083
1745340216562288600,3.15628857421875,-0.19955343505144119,-0.015691782389581202,0.13725808772332965
1745340216572262000,3.166261962890625,-0.19161621231138706,0.012860066094994545,0.10371604800233616
1745340216582233600,3.176233642578125,-0.1310246732264757,0.020355390286445618,0.10563780984515324
1745340216592205800,3.186205810546875,-0.03997720560133457,0.0027250410497188567,0.08381362564777955
1745340216602178600,3.196178466796875,0.07402209854424,0.0013116671204566955,0.11373131912546232
1745340216612150800,3.20615087890625,0.16098668076992034,-0.0018655016109347343,0.10692677194345741
1745340216622122800,3.216122802734375,0.1885159082084894,-0.035137948876619335,0.08583051842814311
1745340216632095500,3.226095458984375,0.14529343707561493,-0.031328619721531864,0.0936337760576047
1745340216642067700,3.236067626953125,0.023305472263693807,-0.038705870491266246,0.09551564428145065
1745340216652040700,3.246040771484375,-0.09447802659571171,-0.023496026399731636,0.042625217625778165
1745340216662012700,3.2560126953125,-0.20447978553771973,-0.006329787543416023,-0.03132074694233015
1745340216671984600,3.265984619140625,-0.22839549865424633,-0.0003705868780612945,-0.047414296799525614
1745340216681957600,3.27595751953125,-0.14597031342387198,-0.020825638146698473,-0.08590053319074213
1745340216691929600,3.2859296875,-0.034793080961704255,-0.0707519908323884,-0.08634023978225887
1745340216701901600,3.295901611328125,0.08046645237803458,-0.09710866736024618,-0.03333804158149287
1745340216711874800,3.305874755859375,0.17221417722702026,-0.09934241776168345,-0.02260832031238824
1745340216721846500,3.315846435546875,0.21008885759115217,-0.12703443454653024,-0.014043887318391353
1745340216731818800,3.32581884765625,0.2026677676796913,-0.10910364105850458,-0.09070311116687953
1745340216741791700,3.335791748046875,0.13294599667787552,-0.08028203572183847,-0.05666618233472109
1745340216751763500,3.345763427734375,-0.007384849554300308,-0.10970715990960597,-0.019295633834134785
1745340216761735700,3.355735595703125,-0.11231880371272564,-0.07958002493232488,-0.10577603100575506
1745340216771708700,3.365708740234375,-0.14687047713398932,-0.04400310011655092,-0.10292360071670263
1745340216781680600,3.3756806640625,-0.12351532050967216,-0.05283902526199817,-0.0777108700595796
1745340216791653600,3.385653564453125,-0.05515022481381893,-0.06191314307749271,-0.08683045271830633
1745340216801625900,3.3956259765625,0.07807458880543708,-0.06125847856104374,-0.0670022281111218
1745340216811597600,3.40559765625,0.19818799191713332,-0.03982376860529184,-0.048595231946092096
1745340216821570600,3.415570556640625,0.27554537236392496,-0.04920154554247856,-0.07001874465439469
1745340216831542800,3.425542724609375,0.36180034501552577,-0.0738452806726098,0.029338523616548626
1745340216841514500,3.435514404296875,0.4089806138634681,-0.1507236454308033,0.08900529427304864
1745340216851487700,3.44548779296875,0.41203123360574245,-0.156408705329895,-0.035049375544022765
1745340216861459700,3.455459716796875,0.3122796505212784,-0.11384937428086996,-0.08824441116945818
1745340216871431700,3.465431640625,0.13186287761628626,-0.041411330057680606,-0.14403653234969824
1745340216881404700,3.47540478515625,-0.042019525083899494,-0.010272972211241722,-0.07905340724233538
1745340216891376600,3.485376708984375,-0.07096037288606166,-0.009048983374238014,-0.06034963835412636
1745340216901350000,3.495349853515625,-0.040241409495472905,0.044759763702750206,-0.17700650780377908
1745340216911321600,3.505321533203125,0.03250935393869877,0.06673954032063484,-0.10485341800181194
1745340216921293800,3.5152939453125,0.04271569065451622,-0.02012567318379879,-0.02935165709275752
1745340216931266800,3.525266845703125,-0.01990998460650444,-0.07275047117322683,0.01804384367475286
1745340216941238500,3.535238525390625,-0.11665361804664134,-0.04568739994168281,0.05164780618343502
1745340216951210800,3.545210693359375,-0.24548048896789548,-0.027858021001517772,-0.008400164076685906
1745340216961183700,3.555183837890625,-0.38663726463019843,-0.025415596285462378,-0.09204243347924203
1745340216971155700,3.56515576171875,-0.477989852681756,-0.015844927124679088,-0.1401143356709741
1745340216981128700,3.575128662109375,-0.4511275647193193,-0.011768763726949691,-0.15203370511606334
1745340216991100700,3.5851005859375,-0.3556932603120804,-0.01288899992853403,-0.17455509606366976
1745340217001072600,3.59507275390625,-0.19429449160993098,-0.010480769743025302,-0.2099452113367617
1745340217011045600,3.605045654296875,-0.054089317584037774,-0.02999941694438457,-0.15081094012176616
1745340217021017900,3.615017822265625,0.02772036609649658,-0.06678805563747882,-0.08938231089189648
1745340217030989600,3.624989501953125,0.07302548872232437,-0.062302142395079134,-0.0692837083781138
1745340217040962800,3.634962890625,0.08749766618907451,-0.057094052357971666,0.0018219729964621364
1745340217050934800,3.644934814453125,0.08825812916755675,-0.06691518914848565,0.039554504943545905
1745340217060906800,3.65490673828125,0.07546469856798649,-0.06008797347694635,0.03646309653315693
1745340217070879700,3.664879638671875,0.11709785468280315,-0.03186228820681572,0.03162100853053853
1745340217080851700,3.674851806640625,0.10895371119379997,-0.04305412882864475,0.026585151521489023
1745340217090824700,3.68482470703125,0.08163140450417995,-0.051586687113344666,0.02248268463872373
1745340217100796700,3.694796630859375,0.12455576947331427,-0.07123626721799373,0.031293511875532566
1745340217110769000,3.704768798828125,0.22864508950114248,-0.08264291963428258,0.03117903691669926
1745340217120741600,3.71474169921875,0.35023616394996643,-0.09453823235034942,-0.006550773350335657
1745340217130713600,3.724713623046875,0.4178805441558361,-0.0937502968430519,0.006957454455085098
1745340217140685800,3.734685791015625,0.38919805502891536,-0.11993833880573511,0.08410791415292769
1745340217150658600,3.744658447265625,0.2890992659419775,-0.08829349274188279,0.09937814666219055
1745340217160630800,3.754630859375,0.11135843424797058,-0.015533376957476138,0.09625135641116649
1745340217170603800,3.764603759765625,-0.11979542320370673,0.01364712481945753,0.04012081532310694
1745340217180575500,3.774575439453125,-0.32998364951610565,0.05699117650538683,0.063951772765629
1745340217190547700,3.784547607421875,-0.5684335091948509,0.08535802381187677,0.1535577728781849
1745340217200520700,3.794520751953125,-0.6968979765444994,0.03993395098149776,0.1434896025240421
1745340217210492700,3.80449267578125,-0.49930970408618447,0.024138708217442035,-0.054885217202082275
1745340217220464600,3.814464599609375,-0.11957330488562583,-0.018446634055674076,-0.12577478987425564
1745340217230437600,3.824437744140625,0.11528232969343662,-0.12940467080920934,-0.09538845597151667
1745340217240409600,3.83440966796875,0.21126725372076033,-0.19927783298045396,-0.0677532108752057
1745340217250381800,3.8443818359375,0.15962883642017842,-0.1367825061008334,-0.03312817995678633
1745340217260354800,3.854354736328125,0.05148936421871185,-0.11486848819553852,0.035253465015068645
1745340217270326500,3.864326416015625,-0.022833763098716736,-0.10571545992493629,0.06411558502521365
1745340217280299800,3.8742998046875,-0.06438333258330822,-0.06626929246038198,0.07253255410622805
1745340217290271700,3.884271728515625,-0.0761176095187664,-0.025916823805868624,0.04975169023852795
1745340217300243700,3.89424365234375,-0.06152735863029957,-0.018330314199626444,0.047842568681575354
1745340217310216700,3.904216796875,-0.033137714970111844,-0.028157296209037303,0.006122866794466972
1745340217320188700,3.914188720703125,0.0052186114311218255,-0.008047697377204895,-0.017995675417780875
1745340217330160600,3.92416064453125,0.09403963517844677,-0.008249941951036453,0.014468670335412024
1745340217340133600,3.934133544921875,0.17677344796657563,-0.02397884148061275,0.048707478415220974
1745340217350105900,3.94410595703125,0.2227542778968811,-0.022855974930524825,0.09081398766282946
1745340217360078600,3.95407861328125,0.2227460945904255,-0.026424773328006267,0.1200362462222576
1745340217370050600,3.964050537109375,0.13851824385225772,-0.04502747472822666,0.15248020677454768
1745340217380022300,3.974022216796875,0.07805296149551869,-0.04330225837081671,0.1177699452580884
1745340217389995300,3.983995361328125,0.027442133677005768,-0.06523907262980938,0.05200666609108448
1745340217399967200,3.99396728515625,-0.01078501338660717,-0.07240618778020143,0.03632511283457279
1745340217409940200,4.003940185546875,-0.03487432950437069,-0.12026070262789726,0.09297649945896118
1745340217419912400,4.013912353515625,0.057138183760643,-0.12218494868874549,0.16700809648390857
1745340217429884200,4.02388427734375,0.14540391171276568,-0.10240005176663398,0.11006558142583817
1745340217439857200,4.033857177734375,0.09007423867881298,-0.04539776934534311,0.09104030723199248
1745340217449829400,4.043829345703125,-0.009383914417028426,-0.029685236428678034,0.039601029232703144
1745340217459801000,4.053801025390625,-0.10060323147773742,-0.03070318129956722,0.11314509846903383
1745340217469774300,4.0637744140625,-0.16501462111175058,-0.03637216684669256,0.16268720107749104
1745340217479746300,4.073746337890625,-0.2063444103658199,-0.030088264271616934,0.16867117085792124
1745340217489719300,4.08371923828125,-0.26140987950563427,0.03963350673019886,0.1399048028398305
1745340217499691300,4.093691162109375,-0.23453122493028639,0.05530833798497915,0.06713255822621285
1745340217509663200,4.103663330078125,-0.166513335236907,0.05291881249994039,0.040215106010437006
1745340217519636500,4.113636474609375,-0.0555956304937601,0.027525428046286105,0.029980785309150812
1745340217529608200,4.123608154296875,0.016694529691338538,-0.014285130462050438,0.013549728859588503
1745340217539580400,4.133580322265625,0.12118892338871955,-0.020810440577566622,-0.02749218336381018
1745340217549553400,4.143553466796875,0.2291331652790308,-0.011162030005455017,0.025403467456251383
1745340217559525400,4.153525390625,0.309011004114151,-0.03380816157758236,0.12504486816450952
1745340217569498400,4.163498291015625,0.3684533731639385,-0.06027063656747341,0.14821633878499268
1745340217579470000,4.173469970703125,0.3344061421334743,-0.07505962489843368,0.11580094674006104
1745340217589442300,4.1834423828125,0.3556663723051548,0.016443769800662995,0.09680690793469547
1745340217599415300,4.193415283203125,0.3188362325578928,0.024838965441286564,0.11849391215108335
1745340217609387300,4.20338720703125,0.18467092321813106,-0.041161154688894745,0.12268573781773447
1745340217619359200,4.213359130859375,0.08839724537730216,-0.02582242352068424,0.18304660995192826
1745340217629332200,4.223332275390625,-0.05119885683953762,0.015246376709640025,0.20458982178345322
1745340217639304200,4.23330419921875,-0.18818740690648555,0.03861147020608186,0.15461203117147088
1745340217649277200,4.243277099609375,-0.23123861312568186,0.046770811264216894,0.09630655719712376
1745340217659249400,4.25324951171875,-0.27639526719152924,0.06852876182496548,0.10503222690112889
1745340217669221000,4.26322119140625,-0.3721136492371559,0.08042407454103231,0.0854614841863513
1745340217679194000,4.273194091796875,-0.33346798450052734,0.024948563295602796,-0.039255686393752695
1745340217689166300,4.283166259765625,-0.19245441670119762,-0.01648614763766527,-0.030504443857073783
1745340217699139300,4.293139404296875,-0.04098784394860267,-0.01678074667006731,-0.0009166033882647752
1745340217709111300,4.303111328125,0.0392132354915142,-0.06159224056005477,0.08189904246442019
1745340217719083300,4.313083251953125,0.04629588722884655,-0.1451224644228816,0.015689590432494877
1745340217729056300,4.32305615234375,0.08513912036418915,-0.08728343891650438,-0.0019778028789907694
1745340217739028200,4.3330283203125,0.05990414134263992,-0.12090864514261483,-0.04224953444749117
1745340217749000200,4.343000244140625,0.045748190218210215,-0.11777765364050864,-0.09046353025734424
1745340217758973400,4.352973388671875,0.0530862780213356,-0.07726911764144898,-0.12362915614768862
1745340217768945200,4.362945068359375,0.06665595369040965,-0.04825169747173786,-0.12910627238452435
1745340217778918100,4.372918212890625,0.10621347257494926,-0.07342121004164219,-0.07494396262951195
1745340217788890400,4.382890380859375,0.16861527595221995,-0.07688625580370426,-0.00792575149796903
1745340217798862300,4.3928623046875,0.17138766327500343,-0.0984670962318778,0.02989792933128774
1745340217808835300,4.40283544921875,0.14065759396851063,-0.07026742218583822,-0.02524878835119307
1745340217818807300,4.412807373046875,0.11852408809363842,-0.06845160493552685,-0.01878543755598366
1745340217828780300,4.4227802734375,0.12668167558610438,-0.063281508821249,-0.01587451854534447
1745340217838752300,4.432752197265625,0.06798048029243946,-0.05921411325186491,-0.05926584343910217
1745340217848724500,4.442724365234375,0.04787468085289001,-0.05265636217147111,-0.09831614345386623
1745340217858697200,4.452697265625,-0.019283961662650107,-0.012018939095735549,-0.12600319180265068
1745340217868669200,4.462669189453125,-0.040489831298589705,-0.0030289924323558806,-0.0898907718706876
1745340217878641400,4.472641357421875,-0.0906874021410942,0.022818565529584882,-0.047537777048721905
1745340217888614100,4.4826142578125,-0.05750526350736618,-0.004366670776903629,-0.01934811294004321
1745340217898586400,4.49258642578125,-0.016102993538975714,-0.02631605225652456,0.007815276860818267
1745340217908559400,4.502559326171875,0.06491349393725394,-0.10002133993655443,0.01999802821613848
1745340217918531000,4.512531005859375,0.11611585790812969,-0.10555179379582405,0.0726882195919752
1745340217928503300,4.52250341796875,0.046214638686180115,-0.11095920579731464,-0.0010264204382896423
1745340217938476300,4.532476318359375,-0.06534428656995296,-0.0822547970995307,-0.15960158308707176
1745340217948448300,4.5424482421875,-0.1565051514416933,-0.007167115150392055,-0.20109306570887564
1745340217958421200,4.552421142578125,-0.19175123686790466,0.06361731664687395,-0.19743264350518583
1745340217968393200,4.562393310546875,-0.10844809975922107,0.029988018767535686,-0.0825276226915419
1745340217978365200,4.572365234375,0.017164485290646552,-0.014965806202590465,0.022329868697188792
1745340217988338200,4.582338134765625,0.0999503205269575,-0.014096037630736828,0.04838445700593293
1745340217998310400,4.592310302734375,0.10756956335902214,-0.0490863947302103,-0.0023282237518578767
1745340218008283400,4.602283447265625,0.12559388034939764,-0.061497255752980706,0.01103215654809028
1745340218018255400,4.61225537109375,0.10827040510475634,-0.05751344681382179,0.040599209957197305
1745340218028227300,4.622227294921875,0.0544587354183197,-0.09131167151927948,-0.010333835553005337
1745340218038200300,4.632200439453125,0.0405073669552803,-0.05088964475989342,-0.03497209079042077
1745340218048172300,4.64217236328125,0.0985258406817913,-0.045263913832604884,-0.04368183227293193
1745340218058144300,4.652144287109375,0.20369477263987062,-0.046401977951824665,-0.028823139706626533
1745340218068117500,4.662117431640625,0.2154331412285566,-0.005551496647298336,-0.032662863999977705
1745340218078089200,4.672089111328125,0.17991876025497913,0.005334054504334927,-0.019796002838015556
1745340218088062200,4.682062255859375,0.15450141040384768,0.0074514850497245785,-0.03828654910065234
1745340218098034400,4.692034423828125,0.09872457812428474,0.002453530631959438,-0.008211144310608506
1745340218108007200,4.702007080078125,0.026357261049747466,-0.0077723875671625135,0.07098002743460237
1745340218117979400,4.7119794921875,-0.06838204683065414,0.0012497078001499175,0.023351064971089363
1745340218127951400,4.721951416015625,-0.1417874747812748,0.003512392035126686,-0.055078693947568536
1745340218137924000,4.731924072265625,-0.18643150314986703,0.01845773997157812,-0.06544292463883757
1745340218147896300,4.741896240234375,-0.2005857007086277,0.03064619041532278,-0.08615180453807116
1745340218157868300,4.751868408203125,-0.11453589524030684,0.012184358790516853,-0.06621456659846008
1745340218167841300,4.76184130859375,0.014921090278029441,-0.006716448773443699,-0.05516308429539203
1745340218177813200,4.771813232421875,0.09235095143914222,-0.02347615265548229,-0.012582272066920995
1745340218187786200,4.7817861328125,0.09923720382153987,-0.033709377378225325,0.032833325196057556
1745340218197758200,4.79175830078125,0.019071780216693878,-0.05666589007377624,0.026570465409010646
1745340218207730200,4.801730224609375,-0.09228431594371796,-0.049745735421776766,0.06890599763952195
1745340218217703400,4.811703369140625,-0.173135968247056,-0.037680911357700825,0.032347295244783164
1745340218227675100,4.821675048828125,-0.20504034202992916,-0.042570729225873946,-0.029801848545670508
1745340218237648100,4.831648193359375,-0.1755108806848526,-0.04033697882443666,-0.06905088600292801
1745340218247620400,4.841620361328125,-0.0782522834599018,-0.053204059182107445,-0.0740335697863251
1745340218257592300,4.85159228515625,0.025364742881059645,-0.03723345985114574,-0.025871523359417913
1745340218267565300,4.8615654296875,0.1117190842539072,-0.029465456198155878,-0.011305749325081705
1745340218277537300,4.871537353515625,0.18482815960645674,-0.021019407153129575,0.0666406830560416
1745340218287510300,4.88151025390625,0.2273164712458849,-0.04520429259985685,0.11740407108776271
1745340218297482200,4.891482177734375,0.2829056719988584,-0.08505874860435723,0.10327683460116385
1745340218307454500,4.901454345703125,0.3001256868690252,-0.10722089605182408,0.13969525174237787
1745340218317427200,4.91142724609375,0.2465998483866453,-0.11342968756407498,0.11157273458577692
1745340218327399200,4.921399169921875,0.15399872157871722,-0.0970838251799345,0.037729134413599964
1745340218337372400,4.931372314453125,0.0394487978130579,-0.07526011590659618,-0.003953340735659003
1745340218347344100,4.94134423828125,-0.07051730529367924,-0.05938391686081886,-0.015755787536501885
1745340218357316400,4.95131640625,-0.11562193691134452,-0.08392068448513745,-0.030461773759126662
1745340218367289300,4.961289306640625,0.0022860651105642317,-0.08601619545966387,-0.001988251207768917
1745340218377261000,4.971260986328125,0.11645254251658915,-0.09503945987075567,0.03993716585189104
1745340218387234600,4.981234619140625,0.16759411621093748,-0.1530643633380532,0.0489182716216892
1745340218397206500,4.99120654296875,0.1464969676464796,-0.15200550193488596,0.041438948716968294
1745340218407178500,5.001178466796875,0.03250643132925033,-0.1268655077204108,0.056032487541064616
1745340218417151500,5.0111513671875,-0.05442950932383537,-0.12385668129324913,0.002364464109018445
1745340218427123500,5.02112353515625,-0.1383843883395195,-0.15771978792846203,-0.039662002172321076
1745340218437096400,5.031096435546875,-0.30684301242530343,-0.18125117790251968,-0.06595167787857353
1745340218447068400,5.041068359375,-0.3871908068597317,-0.28989889188706874,-0.161132811242342
1745340218457040600,5.05104052734375,-0.48012628018856046,-0.28791180972307917,-0.2165554963219911
1745340218467013400,5.061013427734375,-0.44803369035720825,-0.24000001173019408,-0.20643596110679208
1745340218476985300,5.0709853515625,-0.348541634991765,-0.1963821115389466,-0.15714607969373465
1745340218486958600,5.08095849609375,-0.27531974691450595,-0.1501437997162342,-0.10187887743674218
1745340218496930300,5.090930419921875,-0.2520674661427736,-0.07915800012797117,-0.10659224275946616
1745340218506902500,5.100902587890625,-0.28079204084575177,-0.01756546730697155,-0.07847728785481303
1745340218516875500,5.11087548828125,-0.3002034282803535,0.03408551721423864,-0.01610945981238037
1745340218526847500,5.120847412109375,-0.2215437330633402,0.047964989484846586,-0.008219327617064117
1745340218536820500,5.130820556640625,-0.05137655149400234,0.03450871106237173,0.006096417178958654
1745340218546792400,5.14079248046875,0.15502981819212436,0.005479308193922043,0.002920307893492281
1745340218556765400,5.150765380859375,0.34038755463063713,0.006105038876831531,0.001838577071391046
1745340218566737400,5.1607373046875,0.3914858737051487,0.05618862795084715,0.005793086850829422
1745340218576709600,5.170709716796875,0.31389351545870303,0.06234890414625406,0.025391082898713647
1745340218586682600,5.1806826171875,0.2311462586671114,0.08625088099837303,0.03391202381085604
1745340218596654300,5.190654296875,0.24261691623032092,0.1021793947532773,0.04071165735572576
1745340218606627600,5.200627685546875,0.3401706970095634,0.0849254776135087,0.03676664605699479
1745340218616599600,5.210599609375,0.42646600167155263,0.07348083127439022,0.04812924013584852
1745340218626571500,5.220571533203125,0.45390988891422746,0.029344460166990754,0.049311216462031
1745340218636544500,5.23054443359375,0.40030864710807795,0.024951193644106386,0.015617219316028058
1745340218646516500,5.2405166015625,0.2899012299746275,0.05053893162608147,0.028847360832430422
1745340218656489500,5.250489501953125,0.18654899204969405,0.05521802935302257,0.02516954910252243
1745340218666461400,5.26046142578125,0.10417758283317088,0.039025311703979965,-0.002821998618170619
1745340218676433400,5.270433349609375,0.06447802512943744,0.029483868637681005,-0.012438333551585674
1745340218686406400,5.280406494140625,0.08194587728083133,-0.004320785808563233,-0.021963008146174252
1745340218696378400,5.29037841796875,0.09742518596351146,-0.02605418644994497,-0.03876994870342314
1745340218706351600,5.3003515625,0.11114040758311748,-0.05030395382642746,-0.03455463256333023
1745340218716323300,5.3103232421875,0.13324059571027755,-0.05824322239309549,-0.06266505742333829
1745340218726295600,5.320295654296875,0.11517711575329304,-0.0504088755056262,-0.04593162049371749
1745340218736268500,5.3302685546875,0.07723404632806778,-0.03714519704580307,-0.04045929002985358
1745340218746240300,5.340240234375,-0.0003074585139751434,-0.018319500544667244,-0.07610657666809856
1745340218756213500,5.350213623046875,-0.06633037499785423,-0.013478782515227794,-0.07907127169258892
1745340218766185500,5.360185546875,-0.03416121279895305,-0.05107961437404156,-0.08549998956583439
1745340218776158200,5.370158203125,0.03669336162507534,-0.07660130138248204,-0.08750051573328674
1745340218786130400,5.38013037109375,0.08334639172852039,-0.08506634738892316,-0.09550488542541861
1745340218796102400,5.390102294921875,0.08409691783487797,-0.08910100973248482,-0.08516326842475681
1745340218806075400,5.400075439453125,0.09363046985566616,-0.088940266212821,-0.04224800007753074
1745340218816047400,5.41004736328125,0.08726151934564114,-0.07583645448982715,-0.05679696910753846
1745340218826020400,5.420020263671875,0.03494564117491245,-0.06413198817074299,-0.0807852360036224
1745340218835992300,5.429992431640625,-0.07882511491179466,-0.053398412710428236,-0.040801308400556444
1745340218845964500,5.439964599609375,-0.14595336228907108,-0.06921177565306424,-0.028544615026190875
1745340218855937500,5.4499375,-0.16400515180826186,-0.0620703794658184,-0.020157164300605653
1745340218865909200,5.4599091796875,-0.13073708845674992,-0.04777092821747064,-0.027388869119808076
1745340218875882500,5.469882568359375,-0.06312544147670268,-0.06463818412721156,-0.025578531762212513
1745340218885854500,5.4798544921875,0.05626315449178219,-0.08455401395261287,0.010672639053314923
1745340218895826400,5.489826416015625,0.12357085008919239,-0.07511924613118172,0.007762012303620576
1745340218905799400,5.49979931640625,0.14469196405112741,-0.08227554762661457,0.00037497079223394394
1745340218915771400,5.509771484375,0.100346626368165,-0.0861412831440568,-0.0067720514182001345
1745340218925744600,5.51974462890625,0.05592120918631553,-0.1012640334740281,0.027609160806983706
1745340218935716400,5.52971630859375,0.03258417274057865,-0.07265431732237339,0.04598989001959562
1745340218945689300,5.539689453125,-0.013628127858042717,-0.05891308447867632,0.03668510525338352
1745340218955661600,5.54966162109375,-0.19308511582016943,-0.05550181473046541,0.047565834099426864
1745340218965633300,5.55963330078125,-0.37747897566258903,-0.046534956681728364,0.10098156327083706
1745340218975606500,5.5696064453125,-0.41637072411477566,-0.033577567692101,0.07212086803279817
1745340218985578500,5.57957861328125,-0.3095189536362886,-0.08683920228034257,-0.04686776883266866
1745340218995551200,5.58955126953125,-0.5905699376791715,-0.06457973193824292,0.1581598233135417
1745340219005523500,5.5995234375,-0.9266893134713172,0.008214578376710415,0.11802527172602713
1745340219015495400,5.609495361328125,-0.9663847795218229,0.09350187503993511,0.06473784510940313
1745340219025468400,5.619468505859375,-0.8503875795572996,0.1471612767741084,0.04079893378037959
1745340219035440400,5.6294404296875,-0.5232862074792385,0.11881284190714358,0.06274703661836684
1745340219045413400,5.639413330078125,-0.09784662624597548,-0.09572919570058584,0.06285382146108895
1745340219055385300,5.64938525390625,0.4533329658091068,0.007867080113291739,0.12400193498283624
1745340219065358300,5.6593583984375,0.8145785995513201,-0.17061814020723104,0.013348214938119054
1745340219075330600,5.66933056640625,0.8547580497264862,-0.2534709031999111,-0.032724896385520695
1745340219085302300,5.67930224609375,0.7430728677421807,-0.2153507236421108,0.046770445938035844
1745340219095275500,5.689275634765625,0.5098422040164471,-0.15191022486686706,0.04530461116917431
1745340219105247500,5.69924755859375,0.33573359134495256,-0.05856500169336795,-0.0003998860377818346
1745340219115220500,5.709220458984375,0.23722119466662406,0.005099953487515449,-0.01598535850867629
1745340219125192400,5.7191923828125,0.29626375074386596,0.03143178783506155,-0.01715104128718376
1745340219135165400,5.72916552734375,0.3384551252633333,0.05172112714797258,-0.007172595043107867
1745340219145137700,5.7391376953125,0.38503742821812625,-0.003746493051946163,0.06473251134715974
1745340219155109400,5.749109375,0.4736024313777685,-0.04212941519916057,0.04478161020837724
1745340219165082400,5.759082275390625,0.6107382809609174,-0.03983165965080261,0.04269391721412539
1745340219175054600,5.7690546875,0.6170832660734653,-0.06295417656302452,0.05952467703837901
1745340219185027300,5.77902734375,0.5377361731141805,-0.1038002739533782,0.06149356595855206
1745340219194999600,5.78899951171875,0.4728922372817993,-0.13486819691210986,-0.016388130623288453
1745340219204971500,5.798971435546875,0.2501940734863281,-0.10934826346933842,-0.0197922399783507
1745340219214944300,5.8089443359375,0.014673837518692015,-0.04379384128004312,-0.04617109180539846
1745340219224916500,5.81891650390625,-0.18638766400814055,-0.0018497195199131964,-0.0451709017869085
1745340219234889500,5.828889404296875,-0.28283552937209605,0.03651508244872093,0.012150566118769347
1745340219244861400,5.838861328125,-0.2656312965929508,0.03458879056125879,0.06800663764700293
1745340219254834400,5.84883447265625,-0.24652093793153762,-0.004763853400945663,0.09035382280517369
1745340219264806400,5.858806396484375,-0.22703005551993846,-0.030466742195189,0.1506338117228821
1745340219274778400,5.8687783203125,-0.21921733594238757,-0.05878770453333854,0.17659739727992563
1745340219284751400,5.87875146484375,-0.2009948660314083,-0.06911416049748659,0.09123517221696674
1745340219294723600,5.8887236328125,-0.1803898848980665,-0.07011106258034706,-0.05094670870937407
1745340219304696600,5.898696533203125,-0.12391337991654872,-0.04836246436983346,-0.12312248526718467
1745340219314668500,5.90866845703125,-0.04700432775914669,-0.012656067955493927,-0.20202493973150848
1745340219324641500,5.9186416015625,0.02568564539849758,0.007166822889447212,-0.23679303238242863
1745340219334613200,5.92861328125,0.06880933233201503,0.011356091272830963,-0.180900903160125
1745340219344585500,5.93858544921875,0.11602350344955921,-0.026408991236984727,-0.14098383024819194
1745340219354558500,5.948558349609375,0.17522095782756805,-0.08417027533203363,-0.05456252458635717
1745340219364530400,5.958530517578125,0.17797405592799187,-0.09374737423360348,-0.04086060083974152
1745340219374503400,5.96850341796875,0.14537877727150916,-0.06633008273690938,-0.038559886149317026
1745340219384475100,5.97847509765625,0.0864005186021328,-0.052447103334963316,-0.06524349307660013
1745340219394448100,5.9884482421875,0.11830021620988845,-0.03496259230971336,-0.0927592399790883
1745340219404420000,5.998420166015625,0.1158405480980873,-0.07436550515443086,-0.0139986416708678
1745340219414392300,6.008392333984375,0.1083767880886793,-0.09142769911438225,0.058819378313235936
1745340219424365000,6.018364990234375,0.15797054781913755,-0.07900047147870064,0.09957231752742081
1745340219434337000,6.0283369140625,0.23567571879029273,-0.05656593683063984,0.03918729733265936
1745340219444310300,6.038310302734375,0.21821897255480288,-0.04685030624121427,0.05264054354783147
1745340219454282000,6.048281982421875,0.12614800710082053,-0.04812339491695165,0.11838555640578269
1745340219464255000,6.0582548828125,0.04625146356523037,-0.04400222333371639,0.15677443336974828
1745340219474227200,6.068227294921875,0.011889175236225128,-0.040572541145980356,0.13641374585367738
1745340219484199200,6.07819921875,0.031823125240206716,-0.015211889918148517,0.11152115052901208
1745340219494172200,6.088172119140625,0.054820554468035694,-0.019090192656219005,0.12090459002200514
1745340219504144100,6.09814404296875,0.034356443110108374,-0.027709844702482223,0.09789517809543757
1745340219514117000,6.1081171875,0.04230126463472843,-0.017132921108603476,0.08761321886014192
1745340219524089000,6.118089111328125,0.11377192513048648,-0.016408406226336957,0.09241060920450836
1745340219534062000,6.12806201171875,0.1412684193432331,-0.019693126985430718,0.06794237677175552
1745340219544034300,6.138034423828125,0.12592355069518088,-0.03740384798198938,0.08231785239838063
1745340219554006000,6.148006103515625,0.08987082506120204,-0.06488309879899025,0.12608882425948978
1745340219563979300,6.157979248046875,0.016609774017333982,-0.09303542657196522,0.1448450357209891
1745340219573951200,6.167951171875,-0.03540390633642673,-0.10404635766893625,0.09312726957388222
1745340219583924000,6.177924072265625,-0.06324000776708126,-0.02625643102377653,0.07597871250472962
1745340219593896200,6.187896240234375,-0.1521563085824251,0.05799246250241995,0.02146284007169306
1745340219603869200,6.197869140625,-0.12950316274762153,0.10156389320343732,-0.16189217824228108
1745340219613841200,6.207841064453125,0.14287877714931965,0.12567542115300892,-0.5248603249281645
1745340219623813000,6.217813232421875,0.11509294460117817,0.2039779734954238,-0.27868045551925896
1745340219633786000,6.2277861328125,-0.1362707571864128,0.21237755305022,-0.18724256380442528
1745340219643758000,6.237758056640625,-0.1620341439962387,0.17642887231260537,-0.04950001703239977
1745340219653731000,6.24773095703125,-0.18080255735218523,0.14048311418443918,0.15043244393188507
1745340219663703300,6.257703369140625,-0.06657762775719166,0.09089607645571231,0.13283910223729908
1745340219673676300,6.26767626953125,0.08611234931051731,0.001313128425180912,0.017357706307806073
1745340219683648000,6.27764794921875,0.24323943204283713,0.073000062020123,-0.02151062473617494
1745340219693621200,6.287621337890625,0.33481530745625493,0.07950666743516921,-0.04226893326770514
1745340219703593200,6.29759326171875,0.36194179931282994,0.07631517791748046,-0.056082171901687974
1745340219713565200,6.307565185546875,0.36430268322527404,0.07253039868175983,0.05366780423633754
1745340219723538200,6.3175380859375,0.27529578151702877,0.03961509429067373,0.10392178144119679
1745340219733510100,6.32751025390625,0.23187632650732992,0.06295826821625232,0.032116262967884536
1745340219743483100,6.337483154296875,0.09552899695336818,0.07173252630233765,0.041566520619392394
1745340219753455000,6.347455078125,-0.03162906397283077,0.00897942526936531,0.05381192541476339
1745340219763428000,6.357427978515625,0.057525721773505206,-0.07224164486825466,0.09298976079933345
1745340219773400000,6.367400146484375,0.07128302896916866,-0.09555091652423142,0.06591667963042855
1745340219783372300,6.377372314453125,0.07635024923086166,-0.16970891640782354,0.08293444992676377
1745340219793345300,6.38734521484375,0.06952654069066047,-0.1803863777667284,-0.02067106863949448
1745340219803317000,6.39731689453125,0.016855857732892037,-0.18139175541698932,0.005578201991133391
1745340219813290200,6.407290283203125,0.016560089656710623,-0.22289836254268883,0.053654360232874745
1745340219823262200,6.41726220703125,0.07696575078070163,-0.25773528264611956,0.11472498807162046
1745340219833235200,6.427235107421875,0.12587620442211628,-0.3294230930238962,0.18521102144420146
1745340219843207200,6.437207275390625,0.07170622281730174,-0.36672494193613525,0.205544199898839
1745340219853180200,6.44718017578125,-0.04740764786303043,-0.35403175684064625,0.23754132999908179
1745340219863152400,6.45715234375,-0.19765432343184947,-0.3044315673694014,0.25407003813683987
1745340219873124000,6.4671240234375,-0.24403905798792838,-0.23354104484915733,0.16982421335056422
1745340219883097000,6.47709716796875,-0.22433307152092455,-0.17526567375212906,0.08972210077289491
1745340219893069300,6.4870693359375,-0.18519114769995212,-0.135528122125566,0.09665960841849446
1745340219903042000,6.4970419921875,-0.09527648349702357,-0.10623860701620579,0.13305968618541955
1745340219913014300,6.50701416015625,0.028805238723754883,-0.07336480367928742,0.12754695064593105
1745340219922987300,6.5169873046875,0.09871931742727756,-0.04937573306560516,0.06114471598826349
1745340219932959000,6.526958984375,0.13025485789775848,-0.006739537388086319,0.09070033468790352
1745340219942932200,6.53693212890625,0.10283259796500205,0.03301847250461578,0.14561547210421413
1745340219952904200,6.546904296875,0.07506254750788212,0.04339198248088359,0.16088822536412625
1745340219962876200,6.556876220703125,0.014348258826136589,0.05215922630429268,0.07012571216020733
1745340219972849200,6.56684912109375,0.010166004705429077,0.0031450200274586674,-0.08604761351123452
1745340219982821000,6.576821044921875,0.05737140799462795,-0.056793900367617604,-0.10415968185029924
1745340219992794000,6.586794189453125,0.08922668193876743,-0.13670271886289118,-0.0731255880959332
1745340220002766000,6.59676611328125,0.11436638389229774,-0.17624153304696083,-0.1031069944595918
1745340220012739000,6.606739013671875,0.11682839009165763,-0.03477642208784818,-0.2580608978712931
1745340220022711000,6.6167109375,0.05229191277325153,-0.0036681671187281605,-0.30074845840986814
1745340220032684000,6.62668408203125,-0.11721592810451983,-0.0434986577257514,-0.18993136449698358
1745340220042656300,6.63665625,-0.252842542168498,-0.0635933512493968,0.029959925184212623
1745340220052628000,6.6466279296875,-0.2022451583534479,-0.05434153877943754,0.08261657961662858
1745340220062601200,6.656601318359375,-0.10381693282723427,-0.027590017715096473,0.0846628446219489
1745340220072573200,6.6665732421875,0.013893500795960426,0.014411679451167583,0.020676913858391342
1745340220082546200,6.676546142578125,0.12531623245179652,0.007400923906266689,-0.06342369377091527
1745340220092518100,6.68651806640625,0.09035539370775222,0.013586919064819812,-0.11099522695876657
1745340220102491100,6.6964912109375,0.11882394782304763,0.044323125851154326,-0.0711253176568076
1745340220112463400,6.70646337890625,0.18803952286839484,0.02670125218182802,-0.06197539465874433
1745340220122436000,6.71643603515625,0.2626777074843645,0.006031389118731021,-0.04395177178811282
1745340220132408000,6.726407958984375,0.26464929981827734,-0.03280541427582502,0.006437558766826987
1745340220142380300,6.73638037109375,0.2958902412563562,-0.027260931891202926,-0.019531908541731535
1745340220152353000,6.74635302734375,0.3264122207701206,-0.00407645565867424,-0.07907445003036409
1745340220162325200,6.7563251953125,0.2747369785904884,0.009832827228307724,-0.11599953805208206
1745340220172298200,6.76629833984375,0.21895663917958735,0.013944646461308002,-0.12027425622921437
1745340220182270000,6.77627001953125,0.19053133968412875,-0.057333121810853475,-0.07745992750581353
1745340220192243200,6.7862431640625,0.1880488752186298,-0.10169891775995492,-0.18437614152263848
1745340220202215200,6.796215087890625,0.14290040445923805,-0.08070698313564062,-0.2661405247567221
1745340220212188200,6.806188232421875,0.08680033157467841,-0.07316928110718726,-0.3102381712889299
1745340220222160100,6.81616015625,-0.044937458357214924,-0.0524152468919754,-0.32359270636998116
1745340220232132000,6.826132080078125,-0.18055121293962,-0.03272738060355186,-0.22844065297022462
1745340220242105300,6.836105224609375,-0.3233095785796642,-0.051037236537039274,-0.10953980398606508
1745340220252077000,6.8460771484375,-0.4113163633346557,-0.09656097034960985,-0.06812043675240129
1745340220262050000,6.856050048828125,-0.3931698812693357,-0.11576952868849039,-0.08484967243093997
1745340220272022300,6.866022216796875,-0.298164031407237,-0.11343407147824763,-0.08187588078454136
1745340220281995000,6.8759951171875,-0.18031448157429694,-0.13806962330192327,-0.09959230086952447
1745340220291967200,6.88596728515625,-0.12759937495291232,-0.14514584529846905,-0.0943295215031132
1745340220301940200,6.895940185546875,-0.15090543173849583,-0.14025690421313047,-0.04964300569966435
1745340220311912000,6.905911865234375,-0.19353636671900748,-0.11999240708053112,-0.042039800686948
1745340220321885200,6.91588525390625,-0.18666648094952104,-0.048177755452692504,-0.0250916980933398
1745340220331857200,6.925857177734375,-0.18083762866556644,-0.035631285351514816,0.014880831332877277
1745340220341829000,6.9358291015625,-0.12402034742236137,-0.049071781682968135,0.04776924771703779
1745340220351802000,6.945802001953125,-0.02111176161170006,-0.07685498388260603,0.14110530120339243
1745340220361774000,6.955774169921875,0.08031623025238513,-0.09811083014011382,0.22100480388104915
1745340220371747300,6.965747314453125,0.18198796774446963,-0.06181085174679756,0.18596373950764536
1745340220381719800,6.9757197265625,0.2943511951208114,-0.05339782818853855,0.053367981039546424
1745340220391692800,6.98569287109375,0.17935235854387283,-0.12286036373227834,0.03675119275953621
1745340220401665000,6.9956650390625,-0.007832008799910545,-0.009366086499392986,-0.03973714976776391
1745340220411637800,7.0056376953125,-0.05572948600649833,0.05704845965057611,-0.18849270999599246
1745340220421610000,7.01560986328125,-0.1583873119264841,0.14080752383321524,-0.21837050985470413
1745340220431583000,7.0255830078125,-0.24144144271016119,0.1512348098233342,-0.21324673710018396
1745340220441554700,7.0355546875,-0.3611772446811199,0.14421733227670192,-0.13231986413616686
1745340220451527000,7.04552685546875,-0.413427071878314,0.10748568446785212,-0.010510141967982053
1745340220461500000,7.0555,-0.35762218254804606,0.020564941383898257,0.11039024680294096
1745340220471471900,7.065471923828125,-0.22004501893818376,-0.06354249784499406,0.2097042421877384
1745340220481444900,7.07544482421875,-0.04755085572600364,-0.15176087952405212,0.24357684730365872
1745340220491416800,7.085416748046875,0.09934884750247001,-0.15112988814413547,0.20131810663640498
1745340220501390000,7.09539013671875,0.17592179957330226,-0.11211363652944564,0.12292341903112829
1745340220511361800,7.10536181640625,0.2074345436900854,-0.07592676312178373,0.055592452155984934
1745340220521334800,7.115334716796875,0.17831833932101726,-0.010830898354947566,0.004321991384960711
1745340220531307000,7.12530712890625,0.08901742310225963,0.05080810395628214,-0.01787844224628061
1745340220541279700,7.13527978515625,-0.012264438289403915,0.08606792564690112,0.09516447448991239
1745340220551252000,7.145251953125,-0.07839081514775753,0.06657090575546026,0.22631595243383199
1745340220561225000,7.155224853515625,-0.09121756349503994,0.0020925883650779725,0.3823927954608574
1745340220571196700,7.16519677734375,-0.009004559710621833,-0.06658990271687507,0.3796513877982273
1745340220581169000,7.1751689453125,0.11209200921952724,-0.05210369672477245,0.30571799045074727
1745340220591142000,7.185141845703125,0.1537783568263054,-0.08921002306491135,0.25691304301042106
1745340220601113900,7.19511376953125,0.16480828488469124,-0.05000321731418371,0.11106515038982033
1745340220611086800,7.2050869140625,0.14796645567715166,-0.005919160915911197,0.023647125308215618
1745340220621058800,7.215058837890625,0.11094167014062405,0.03125993839949369,-0.008143851228058338
1745340220631032000,7.225031982421875,0.08947393469810486,0.010494506007432937,-0.023692060428485272
1745340220641003800,7.235003662109375,0.049589083555340766,0.014129063117504118,0.026114757530763744
1745340220650977000,7.24497705078125,0.022211831808090207,-0.03757891228795052,0.1460096225209534
1745340220660949000,7.254948974609375,0.03926701150536537,-0.08559563196003436,0.18466292257476596
1745340220670921700,7.264921630859375,0.12711363726258276,-0.08509323539584875,0.15396697473358362
1745340220680894000,7.27489404296875,0.26671383113265035,-0.07848229282349348,-0.008844181517139076
1745340220690866000,7.284865966796875,0.25796938366293903,-0.04800210662484169,-0.10033723748531193
1745340220700839000,7.2948388671875,-0.021086627170443534,0.06958908453285693,-0.006414616282656788
1745340220710811000,7.304810791015625,-0.13964929370880125,0.07916121499836444,-0.21743779558185486
1745340220720784000,7.314783935546875,0.21887889776825903,0.09163198951482772,-0.45565209293905645
1745340220730755800,7.324755859375,0.25018589017987247,0.0782023068383336,-0.16248554102554916
1745340220740728800,7.334728759765625,0.10526946972310543,-0.1007198435947299,0.12241897664032876
1745340220750701000,7.344701171875,0.024079963767528533,-0.14877017327547074,0.22946356627717612
1745340220760674000,7.354674072265625,0.040491584864258766,-0.11302724424302578,0.16128423894438892
1745340220770645800,7.364645751953125,0.06369418127536773,-0.17207798362672327,-0.09129596249349414
1745340220780619000,7.374618896484375,-0.24965105265080928,0.003796469673514366,0.010757321662083267
1745340220790591000,7.384591064453125,-0.0928618235707283,-0.5112807123869657,-0.12002115825098007
1745340220800563700,7.394563720703125,0.4073521358788013,-0.49109921736270185,0.03871862037498504
1745340220810536000,7.404535888671875,0.05151625222563743,-0.2709267726525664,0.2755772288069129
1745340220820509000,7.414509033203125,-0.26735037547051904,-0.5047276374816895,0.2911042125562206
1745340220830481000,7.42448095703125,-0.24732582457363603,-0.4271154054909944,0.3140668627316132
1745340220840452900,7.434452880859375,-0.1545534328520298,-0.13988339472562075,0.2923581581400707
1745340220850425900,7.44442578125,-0.07475684255957603,0.03923690862804651,0.18556264789346605
1745340220860397800,7.454397705078125,-0.13901917911171913,0.18995733918845653,-0.06771119836438447
1745340220870370800,7.464370849609375,-0.10097791000902652,0.319995923987031,-0.29208628239613027
1745340220880343000,7.474343017578125,-0.09047931234836577,0.4640431603938341,-0.4566957567730918
1745340220890316000,7.48431591796875,-0.054902972054481504,0.4746273905113339,-0.48548988958094264
1745340220900287700,7.494287841796875,-0.015009353083372114,0.33765754514485596,-0.3340873585078865
1745340220910261000,7.504260986328125,0.11427110682427882,0.1779068359106779,-0.10354593386612831
1745340220920233000,7.51423291015625,0.28511458021998404,0.0010348960056900977,0.017103950742445886
1745340220930205700,7.524205810546875,0.4702554590374231,-0.11201222198158502,0.11751308442018925
1745340220940178000,7.534177978515625,0.5770686510711908,-0.1816536212235689,0.08973338935188949
1745340220950151000,7.54415087890625,0.5170177947342396,-0.23467355601042508,0.020366240474022922
1745340220960123000,7.554122802734375,0.29154081387519837,-0.23500877931416034,-0.0014995909079909323
1745340220970095900,7.564095947265625,0.045001171243190766,-0.14102379693239928,-0.013553601317107677
1745340220980068000,7.574068115234375,-0.1113046582341194,-0.03980418712198734,-0.09061572514437138
1745340220990041000,7.584041015625,-0.2554004099577665,0.004086392530798912,-0.09995181836429982
1745340221000012800,7.5940126953125,-0.19497955126464367,0.0006616787791252136,-0.06627670858185739
1745340221009985000,7.603985107421875,-0.05094049816429615,-0.010602642557024955,-0.048543994949199254
1745340221019958000,7.6139580078125,0.016792729368805884,-0.0021527941197156905,-0.08046480841021984
1745340221029930000,7.623929931640625,0.037896892195940016,-0.05076368029266595,-0.07132752569802105
1745340221039903000,7.633903076171875,0.030685645642876624,-0.02657937936782837,-0.012169343884475528
1745340221049874700,7.643874755859375,-0.11495792004466056,0.00899725318700075,0.06585552402772009
1745340221059848000,7.653847900390625,-0.2591968796312809,0.010324702398478984,0.02935516422409564
1745340221069820000,7.66381982421875,-0.2751040583372116,0.005270341618359088,0.005156761708669364
1745340221079793000,7.67379296875,-0.17827157756984233,-0.008283844220638275,0.013468297653831542
1745340221089764900,7.683764892578125,-0.09574527005255222,-0.06438713197559118,0.03799476307984441
1745340221099737900,7.69373779296875,0.08930383882820606,-0.14916180294156073,0.056350175188109274
1745340221109710000,7.7037099609375,0.2046855372428894,-0.1056195983350277,0.0398538714826107
1745340221119682800,7.713682861328125,0.206737793597579,-0.08504004390388727,-0.009388407929055393
1745340221129654800,7.72365478515625,0.12794599643349647,-0.04328969115018844,-0.08128266413174569
1745340221139628000,7.7336279296875,-0.06591068828105927,0.014884265398979185,-0.10556911025680601
1745340221149599700,7.743599853515625,-0.211335058259964,0.03219195855259895,-0.05058514538798481
1745340221159572700,7.75357275390625,-0.18933365433216093,0.05158873293995857,-0.018117036775127052
1745340221169545000,7.763544921875,-0.08842997860312461,0.007481880187988281,-0.03955160060040652
1745340221179516700,7.7735166015625,0.09970540585517883,-0.07830401364713907,-0.015528554651886224
1745340221189490000,7.783489990234375,0.21656594465076923,-0.11506927146464585,0.05180800171382725
1745340221199462000,7.7934619140625,0.24316870489418504,-0.1482575475782156,0.03553184356503188
1745340221209435000,7.803434814453125,0.2572387313008308,-0.17175240493416785,-0.0022999109728261825
1745340221219406800,7.81340673828125,0.27084932350218294,-0.13543781349360942,-0.04288553079608828
1745340221229379800,7.8233798828125,0.29319091916978357,-0.09343465502262115,-0.11875004233662038
1745340221239352000,7.83335205078125,0.2622954301685095,-0.10153554389178752,-0.15264653978478163
1745340221249324800,7.84332470703125,0.20741993064284323,-0.09860475113689898,-0.1278246716087684
1745340221259296800,7.853296875,0.17918576980531215,-0.21217384717166424,-0.08435710314102471
1745340221269270000,7.86327001953125,0.29155250431299207,-0.3371250457033515,0.030700185624882578
1745340221279241700,7.87324169921875,0.328507731744647,-0.3482408984795213,0.21754224233701824
1745340221289215000,7.883215087890625,0.3107008568972349,-0.3980734354019165,0.2647033680930734
1745340221299187000,7.89318701171875,0.4190969342082739,-0.37022973518669605,0.10723799331709742
1745340221309160000,7.903159912109375,0.24959026237428186,-0.23839783723056315,0.0413424295399338
1745340221319132000,7.9131318359375,-0.2842658544361591,-0.06356295611113309,-0.009335179904475807
1745340221329105000,7.92310498046875,-0.6890145298182964,0.055119245153665536,-0.14803944784812628
1745340221339077000,7.9330771484375,-0.8697983824700116,0.1398728733316064,-0.1940697429433465
1745340221349049900,7.9430498046875,-0.8993354425996541,0.1708069407775998,-0.16125994475334882
1745340221359021800,7.953021728515625,-0.627511136585474,0.08945318417102098,-0.22656937920562922
1745340221368995000,7.9629951171875,-0.15475217029452323,0.07473200037926435,-0.2166243968397379
1745340221378966800,7.972966796875,0.2125765827536583,0.07684650831520556,-0.16154314560890196
1745340221388938500,7.9829384765625,0.38345921911597247,-0.02277677221447229,-0.11589278974197804
1745340221398911500,7.992911376953125,0.40859775202572346,-0.07734042931199073,-0.05739617710970342
1745340221408883500,8.002883544921875,0.21355098074376583,0.028383798441290853,0.018784779968857763
1745340221418856700,8.012856689453125,0.005621347013115882,0.07007277639657258,0.01503989435210824
1745340221428828400,8.022828369140624,-0.01495206993818283,0.08836275858581065,-0.03920381007604301
1745340221438801400,8.032801513671876,-0.06972820074260234,0.1683583785817027,-0.051510260876268144
1745340221448773600,8.042773681640625,-0.05980301905572414,0.10847294193953275,-0.17809373678490517
1745340221458746400,8.052746337890625,-0.0012175590962171553,0.12846826674193143,-0.1934871938150376
1745340221468718600,8.062718505859374,0.12706103029251098,0.1303314302653074,-0.12018149991184472
1745340221478691600,8.072691650390626,0.20942776333391666,0.0555935846671462,-0.08197524950578808
1745340221488663600,8.08266357421875,0.3019248452454805,0.011924831071496009,-0.018016060618683695
1745340221498636500,8.092636474609375,0.2837614120453596,0.029049568873643874,0.02994936725758016
1745340221508608500,8.1026083984375,0.17511632840931415,0.0634434213846922,0.0338941593606025
1745340221518581500,8.11258154296875,0.07828618572950363,0.06593728402704,0.003884440217912197
1745340221528553500,8.122553466796875,0.08301204520761966,0.06192191090583801,-0.008949030131101607
1745340221538526500,8.1325263671875,0.10673077444732189,0.07352788528650998,-0.01694930817000568
1745340221548498700,8.142498779296876,0.1427548585087061,0.04922609546184539,-0.015628800155967473
1745340221558471400,8.152471435546875,0.1640864003509283,-0.014802432334423065,0.012648615301400422
1745340221568443600,8.162443603515625,0.1564969681352377,-0.047995676884055136,0.09475435931906104
1745340221578416600,8.172416748046874,0.15251637406647203,-0.06632832917124032,0.10858911566510795
1745340221588388400,8.182388427734375,0.09255787218809128,-0.056985039025545116,0.08996076836697757
1745340221598361600,8.192361572265625,0.023104396733641622,-0.03515665357708931,0.11207922280319034
1745340221608333600,8.20233349609375,-0.019925766697525975,-0.02783464012593031,0.16100282818712294
1745340221618306600,8.212306640625,-0.05454349109232425,-0.045591830612719056,0.16258593266010282
1745340221628278500,8.222278564453125,-0.11364099222719669,-0.09928688818216323,0.1983054808169603
1745340221638251500,8.23225146484375,-0.0966045172303915,-0.10493395415842532,0.13841536799967288
1745340221648223700,8.2422236328125,0.12589315555691719,-0.11851853513568639,0.15894947585389016
1745340221658196500,8.252196533203126,0.1731143409371376,-0.040705519875884055,0.16947401167340576
1745340221668168400,8.26216845703125,0.09854279181659222,-0.03542144199311733,0.06501344718039036
1745340221678141700,8.2721416015625,0.0067430445194244385,-0.049447044736146924,0.009620572717115283
1745340221688113400,8.282113525390624,-0.10016951623558998,-0.03015782237648964,0.04141651768945157
1745340221698086400,8.29208642578125,-0.13182313012778757,-0.041130175028741355,0.0782381088040769
1745340221708058600,8.30205859375,-0.13864859223365783,-0.06918839477747678,-0.0864708073593676
1745340221718031600,8.312031494140625,-0.1363929222613573,-0.07653992658406496,-0.1841432460822165
1745340221728003600,8.322003662109376,-0.013469137904047966,-0.11555120976269244,-0.2580094234123826
1745340221737975600,8.3319755859375,0.0629763883948326,-0.0730351333335042,-0.27338381041586396
1745340221747948300,8.3419482421875,0.07334697576165199,-0.07171820551604031,-0.284743043493852
1745340221757920500,8.35192041015625,-0.026263153025507927,-0.11355828237980603,-0.1784733106870204
1745340221767893500,8.3618935546875,-0.05586801769435405,-0.11396657091975211,0.01359568689316511
1745340221777865500,8.371865478515625,-0.012706336838006973,-0.11577128225415945,0.056504927358403796
1745340221787838500,8.38183837890625,0.0018617022186517714,-0.09070902945101261,0.010405585614964366
1745340221797810400,8.391810546875,0.0712292529553175,-0.06933715559840202,-0.08400185996256768
1745340221807783700,8.40178369140625,0.10494915172755717,0.003419745315611362,-0.17619718244858085
1745340221817755400,8.41175537109375,0.10643500637114048,0.05113923560678959,-0.23735161611326036
1745340221827728400,8.421728271484374,0.048828620576858515,0.03313011618554592,-0.21680501410365102
1745340221837700600,8.43170068359375,0.022330489751696585,-0.008362754675745964,-0.12460706126913428
1745340221847673300,8.44167333984375,0.00731762953698635,-0.055424950101971626,-0.029155513466149568
1745340221857645600,8.4516455078125,0.02636193722486496,-0.12426000139713286,0.05639408739507198
1745340221867618600,8.46161865234375,0.07618366049230098,-0.16617197445333004,0.11668247881494462
1745340221877590500,8.471590576171875,0.14882453381121158,-0.2024827665016055,0.16009879201948643
1745340221887563500,8.4815634765625,0.22403204274773597,-0.22126491612195967,0.1624581415619701
1745340221897535500,8.491535400390624,0.2229500927299261,-0.21115239516943693,0.07543218453787266
1745340221907508700,8.5015087890625,0.1609451797157526,-0.11955635375082492,0.03287519157640636
1745340221917480400,8.51148046875,0.08688333368301392,-0.0462456183463335,-0.050319224460795516
1745340221927453400,8.521453369140625,-0.095807229372859,0.007331365801393985,-0.15952311102338135
1745340221937425700,8.53142578125,-0.2745037543565035,0.07785919248908758,-0.08981960633061825
1745340221947398400,8.5413984375,-0.2627390822827816,0.0007265607088804244,0.013342515849694609
1745340221957370600,8.55137060546875,-0.17804829020798205,-0.02239770976901054,0.07234349780753255
1745340221967343600,8.561343505859375,-0.013860767570137976,-0.022584172251820564,0.0580447772115469
1745340221977315300,8.5713154296875,0.14334990179240703,-0.0275800808429718,0.01080101467333734
1745340221987288600,8.58128857421875,0.31281565709412096,-0.037521336881816386,-0.08563990949317812
1745340221997260500,8.591260498046875,0.2771177362471819,-0.005578676915168762,-0.13572634811140596
1745340222007233500,8.601233642578125,0.2577402510821819,0.04772358194440603,-0.17946034896299243
1745340222017205500,8.61120556640625,0.30186405496895313,0.1269713061824441,-0.1875267510406673
1745340222027178500,8.621178466796875,0.3050724956214428,0.21455694291591643,-0.1651496456682682
1745340222037150700,8.631150634765625,0.277943665677309,0.21385347082167863,-0.1105086124856025
1745340222047123500,8.64112353515625,0.17976853812932966,0.15631839669793843,-0.08397687165178358
1745340222057095400,8.651095458984376,0.05086684840619564,0.1098734563872218,-0.031496085242927074
1745340222067068700,8.661068603515625,-0.1303705932319164,0.07735738044679165,-0.029185543278232216
1745340222077040400,8.671040283203125,-0.2748468687057495,0.016238602617383004,0.0753439947977662
1745340222087013400,8.681013427734374,-0.24630875648558137,-0.05169511592388153,0.18768048029765486
1745340222096985600,8.690985595703125,-0.10584463926255702,-0.12176906136423349,0.20070757352262733
1745340222106958600,8.70095849609375,0.024295652344822883,-0.19066022676080463,0.12357348043769598
1745340222116930600,8.7109306640625,0.10877134036421775,-0.21980536496341227,0.12033961308300495
1745340222126903600,8.720903564453126,0.15467735149264333,-0.23586919553577898,0.10710976382754743
1745340222136875500,8.73087548828125,0.12116671155691146,-0.2406879939943552,0.055055678398162125
1745340222146848500,8.7408486328125,0.09042495181262493,-0.2037207838639617,0.08083397051617502
1745340222156820500,8.750820556640624,0.044480362239480015,-0.15905191331505775,0.05598192639760673
1745340222166793500,8.76079345703125,-0.033004443979263304,-0.15987901178896427,0.0021470219660550353
1745340222176765400,8.770765380859375,-0.05550970577597618,-0.12739099289923905,-0.002490720837190747
1745340222186738400,8.780738525390625,-0.10677870524227619,-0.08091331936269998,-0.005325578936934471
1745340222196710700,8.790710693359374,-0.14550503399968145,-0.052503801958262916,-0.050107627536728976
1745340222206683600,8.80068359375,-0.14804478161036969,-0.057958852493762966,-0.06985255777463316
1745340222216655600,8.810655517578125,-0.13726736700832842,-0.08601064250171184,-0.05426021717153489
1745340222226628600,8.820628662109375,-0.0846487064987421,-0.1489490369737148,-0.0381445833466947
1745340222236600600,8.8306005859375,-0.033114918616414066,-0.12390285852253437,0.01703391771353781
1745340222246573600,8.840573486328125,-0.015442483803629874,-0.13229162442237138,0.0712043377097696
1745340222256545500,8.850545654296875,-0.03183949185311794,-0.12049831077605486,0.1297041652124375
1745340222266518500,8.8605185546875,-0.014752163451910019,-0.11215192271322011,0.16345891610234975
1745340222276490500,8.870490478515626,-0.021149171012639998,-0.10448124195486307,0.1352439714219421
1745340222286463500,8.88046337890625,-0.038488428348302836,-0.06580605886280537,0.0429532257374376
1745340222296435700,8.890435791015625,-0.08187456561028957,-0.04685205980688333,-0.060240460624918335
1745340222306408700,8.90040869140625,-0.17275427545309066,-0.028338790255784986,-0.15455511335246264
1745340222316380400,8.91038037109375,-0.15260755948126314,-0.0294426598444581,-0.17421294982880353
1745340222326353700,8.920353759765625,-0.07424070973098278,-0.04304565326124429,-0.06391030824407935
1745340222336325400,8.930325439453124,0.03154664638638496,-0.15772358732074498,0.12628580813631415
1745340222346298400,8.94029833984375,0.15883739378154277,-0.2371937221378088,0.25072299273125825
1745340222356270600,8.9502705078125,0.2930722612261772,-0.23814941542744636,0.28091880903057753
1745340222366243600,8.96024365234375,0.3157178082764149,-0.19582886157035825,0.19609664566107093
1745340222376215600,8.970215576171874,0.3415174354434013,-0.1128761453345418,0.07665463900491595
1745340222386188800,8.980188720703126,0.2962310175180435,-0.0005593874484300613,-0.020061594971641897
1745340222396160500,8.990160400390625,0.20158347957432268,0.07657090624421835,-0.11748824223987757
1745340222406133800,9.0001337890625,0.12636077306866644,0.1554661637827754,-0.18716120566390454
1745340222416105700,9.010105712890624,0.07905366297066212,0.19327917708754538,-0.19979645002707838
1745340222426078500,9.020078369140625,-0.05170680636167526,0.12148995216190814,-0.10733750816881656
1745340222436050700,9.03005078125,-0.15308979004025458,0.047620121569931506,-0.004618745841830968
1745340222446023700,9.040023681640625,-0.18965163424015044,-0.0007283142745494843,0.10889840080998837
1745340222455995600,9.04999560546875,-0.12232172681093215,-0.05129851782172918,0.18565233547091484
1745340222465968600,9.05996875,-0.04150456129908561,-0.046046880903840064,0.12360095296651125
1745340222475940600,9.069940673828125,0.046125206837058064,0.006283025792241096,0.04846716685332358
1745340222485913900,9.079913818359374,0.06172141989767551,-0.018294073842465876,0.026751301868632435
1745340222495885600,9.089885498046876,0.0211012402176857,-0.011870470535755157,-0.010860343645140528
1745340222505858600,9.099858642578125,0.004634674063324928,0.0015393383964896201,-0.03621997195966541
1745340222515830800,9.109830810546875,0.03912438816428184,-0.03129676327854395,-0.010767769990861415
1745340222525803500,9.119803466796874,0.11216273636817932,-0.06611585546433925,0.02768924030587077
1745340222535775700,9.129775634765625,0.1889905399829149,-0.1272407707735896,0.126716893029958
1745340222545748700,9.139748779296875,0.18883271907269952,-0.1529068346887827,0.1649128412377089
1745340222555720400,9.149720458984374,0.1438689572304487,-0.12866641966253517,0.1867383040767163
1745340222565693700,9.159693603515626,0.02595803259909153,-0.0958788333043456,0.12843947903886438
1745340222575665700,9.169665771484375,-0.08725742769241332,-0.04963146139234304,0.04473258343487978
1745340222585638700,9.179638671875,-0.19545944373607635,0.016203531304001807,-0.041428573453426355
1745340222595610600,9.189610595703124,-0.2373720013141632,0.06570376753211021,-0.10026968867443502
1745340222605583600,9.19958349609375,-0.17384908495247364,0.02239128002822399,-0.10458820946067571
1745340222615555800,9.209555908203125,-0.026247955456376076,-0.04058043219149112,-0.07335910459086299
1745340222625528600,9.219528564453125,0.11891454871594904,-0.08609978208988904,0.014918240733817218
1745340222635500500,9.22950048828125,0.20760113242864608,-0.15756225927919149,0.09943294558934866
1745340222645473800,9.239473876953125,0.2160959890514612,-0.13160013502687215,0.12632204849347473
1745340222655445500,9.249445556640625,0.14476678285300731,-0.0718538145944476,0.17368534575812516
1745340222665418800,9.259418701171874,0.018733926564455033,0.011603051771223545,0.184303185884282
1745340222675390700,9.269390625,-0.14542729258835316,0.1295151454463601,0.08986958295218646
1745340222685363700,9.27936376953125,-0.33000936847925183,0.21095599581450222,-0.013527955419197678
1745340222695335700,9.289335693359375,-0.49822716954648494,0.23190087642669677,-0.03444192943647504
1745340222705308700,9.29930859375,-0.5431178661525249,0.08685030819624662,-0.19295001819841562
1745340222715281700,9.30928173828125,-0.35436522657871244,-0.002115092457830906,-0.061513549300655716
1745340222725253600,9.319253662109375,-0.17016776609122752,-0.10905804835110902,0.0964094330497086
1745340222735226600,9.3292265625,0.04017477400004864,-0.26520693370103837,0.1638495228551328
1745340222745198800,9.33919873046875,0.2226800436168909,-0.3298074161663651,0.21720058929249644
1745340222755171600,9.349171630859376,0.4587848014742136,-0.2886155740782618,0.08242927688360213
1745340222765143600,9.3591435546875,0.5476467417538166,-0.23037761238217352,-0.08062873026765882
1745340222775116800,9.36911669921875,0.3845324013054371,-0.11812515190392732,-0.163706461122632
1745340222785088500,9.379088623046876,0.08878945956528186,-0.0006523264288902282,-0.21248167101182042
1745340222795061500,9.3890615234375,-0.1211386545062065,0.06906710648536682,-0.21618878190144894
1745340222805033700,9.39903369140625,-0.2544078917890787,0.10690817684084176,-0.20125176340192555
1745340222815006700,9.4090068359375,-0.19443594590723515,0.0966767056837678,-0.14641922623515127
1745340222824978700,9.418978759765626,-0.031307576933503146,0.03315378932207823,-0.037860871034488076
1745340222834951700,9.42895166015625,0.21723171508312225,-0.08494798170626162,0.007540697703137993
1745340222844923600,9.438923583984375,0.46416707903444765,-0.13693448179215192,0.08064334331490099
1745340222854896600,9.448896728515624,0.5426116701960564,-0.16887597271502017,0.1422330996569246
1745340222864868600,9.45886865234375,0.43563305846750733,-0.13182342238873243,0.12984737307541072
1745340222874841600,9.468841552734375,0.23171382942199706,-0.05413315672576427,0.09707476509064436
1745340222884813600,9.4788134765625,0.07066928098499775,0.016217559829354286,0.06339161813221872
1745340222894786600,9.48878662109375,0.0067167410343885415,0.020621932268142698,0.09145407566465437
1745340222904758800,9.4987587890625,0.001107084459066391,0.039164427913725375,0.09711641227528452
1745340222914731800,9.508731689453125,0.08620937994420527,-0.03389145594686269,0.11497647861465811
1745340222924703500,9.518703369140624,0.18435235878825187,-0.13400719616860152,0.15506211302652953
1745340222934676700,9.5286767578125,0.21795827579200266,-0.2001929019987583,0.1968322664592415
1745340222944648700,9.538648681640625,0.18572423166334628,-0.2125172537818551,0.14492116969712077
1745340222954621400,9.548621337890625,0.11428981152474879,-0.19615560930669307,0.11571516815274953
1745340222964593700,9.55859375,0.04258826488256454,-0.15859978563338517,0.07854213325195014
1745340222974566700,9.568566650390625,-0.0066606269329786295,-0.13511340384483336,0.006463496925681829
1745340222984538600,9.57853857421875,-0.08275602461993693,-0.1057499467164278,-0.044266500293090934
1745340222994511600,9.58851171875,-0.13004150740802287,-0.06077303313165903,-0.056606561101973055
1745340223004483600,9.598483642578126,-0.19570318936407566,-0.02769377035051584,-0.06968830712363124
1745340223014456800,9.608456787109375,-0.22947043440937995,-0.005058744694292545,-0.07231449090875684
1745340223024428500,9.618428466796875,-0.21919629315435885,0.018810498932003972,-0.053650414710119367
1745340223034401500,9.628401611328124,-0.13283084586560726,0.03654167819470167,-0.01102305992618203
1745340223044373800,9.638373779296876,-0.0036550153762102125,0.02717179230302572,-0.03977006565667689
1745340223054346500,9.648346435546875,0.17427227880060672,-0.009622399348020554,-0.016125936023145913
1745340223064318700,9.658318603515625,0.27761107272207736,-0.02191080303490162,-0.047028147026151414
1745340223074291700,9.668291748046874,0.2771504694730043,0.005330255112051963,-0.13083689556941389
1745340223084263700,9.678263671875,0.17792261800169945,0.09473083231300115,-0.20436112759411335
1745340223094236700,9.688236572265625,0.040166006171703336,0.1941846014946699,-0.3123223206192255
1745340223104208600,9.698208740234374,-0.028906945532560346,0.24347031818926332,-0.43380123993046577
1745340223114181600,9.708181640625,-0.02221826154887676,0.23941169044822452,-0.43351730842255054
1745340223124153600,9.718153564453125,-0.010022796842455862,0.15329466496258973,-0.1734809092272073
1745340223134126600,9.728126708984375,-0.08771218572258949,0.027007249391078948,0.13884184978343544
1745340223144098800,9.738098876953124,-0.06398410413265228,-0.12023001522868872,0.20473712129965424
1745340223154071600,9.748071533203126,0.13695464779734612,-0.11705956849902868,0.19306399996690451
1745340223164043800,9.758043701171875,0.23699147756397723,-0.1133791264206171,0.04072466296777129
1745340223174016800,9.768016845703125,0.22479659737944602,-0.14389409167170525,-0.08851312684193254
1745340223183988500,9.777988525390626,0.13267010234594345,-0.11219020889699459,-0.1785487870760262
1745340223193961700,9.787961669921875,0.0023719898283481597,-0.0805468241378665,-0.23364735476784407
1745340223203934700,9.797934814453125,-0.12386135746836661,-0.06029430970400571,-0.251186956981197
1745340223213906700,9.80790673828125,-0.15727555129230023,-0.06752221513092517,-0.2144650268487632
1745340223223879700,9.817879638671876,-0.12455167782008647,-0.10334580818414688,-0.15220248581171034
1745340223233851600,9.8278515625,-0.03520750698149204,-0.10424597189426421,-0.06794789319708942
1745340223243824600,9.83782470703125,0.03527414247691631,-0.12444178770482539,-0.008216551138088106
1745340223253796600,9.847796630859374,0.07580079865455627,-0.13089461710602043,0.031146614218130707
1745340223263769600,9.85776953125,0.1149170035123825,-0.15132073454111813,0.04569485259577632
1745340223273741800,9.867741943359375,0.13576222314238548,-0.1360161979034543,0.004011135337501764
1745340223283714600,9.877714599609375,0.11325111612677574,-0.09638035308569669,-0.023679347077384588
1745340223293686500,9.8876865234375,0.01763327184617519,-0.08977496347129345,-0.023543445738032458
1745340223303659800,9.89765966796875,-0.0861994430720806,-0.11162585301250219,0.032119550903514024
1745340223313631500,9.907631591796875,-0.09560498479902743,-0.1662041231572628,0.1614704456988722
1745340223323604500,9.9176044921875,-0.0640484015405178,-0.1852370326682925,0.23504816147647797
1745340223333576700,9.92757666015625,-0.09556056113541125,-0.18066548696905374,0.17164784858115018
1745340223343549700,9.9375498046875,-0.13695406327545642,-0.1247787645742297,0.09129274762310087
1745340223353521700,9.947521728515625,-0.13522212491631508,-0.09855126738399267,0.1663527378477156
1745340223363494700,9.95749462890625,-0.1381049868762493,-0.16100158607810736,0.24339228451699016
1745340223373466600,9.967466552734376,-0.09335925169885158,-0.1898579704672098,0.2264139694482088
1745340223383439600,9.977439697265625,-0.019546411991119384,-0.11935732404738664,0.12016878656074403
1745340223393411600,9.98741162109375,-0.017187866166234016,-0.08115005072802305,-0.021737126968428493
1745340223403384300,9.99738427734375,-0.042778819018602365,-0.06584259148091078,-0.06774024179577827
1745340223413356500,10.0073564453125,-0.1057324110597372,-0.04305997404754162,-0.07579853363223374
1745340223423329500,10.01732958984375,-0.18918050959706306,-0.02011690535545349,-0.05977627717927098
1745340223433301500,10.027301513671874,-0.16960077985823152,0.002302431723475456,-0.01577938760779798
1745340223443274500,10.0372744140625,-0.06853752965331077,0.022485095791518687,-0.0169656747829169
1745340223453246700,10.047246826171875,0.04647065927386283,0.010203998628258704,-0.08929339049942792
1745340223463219700,10.0572197265625,0.15141338126063347,0.015959493415057657,-0.13908223441056905
1745340223473191400,10.06719140625,0.2083534121006727,0.05582680890113115,-0.1431992412753403
1745340223483164700,10.07716455078125,0.2056435686200857,0.0613993483364582,-0.12218436416685581
1745340223493136600,10.08713671875,0.15402444054186343,0.07141396187245845,-0.09549421790093184
1745340223503109400,10.097109375,0.09178045807480811,0.06560059941858053,-0.04917969903685152
1745340223513081600,10.10708154296875,0.052992754518985746,0.05686404299437999,0.0048224517203867435
1745340223523054600,10.1170546875,0.06217325531840324,0.021433540911972523,0.03023695202730596
1745340223533027300,10.12702734375,0.08459376144111155,-0.0022106617867946625,0.09028612786382437
1745340223542999600,10.13699951171875,0.11669628814458846,-0.028525252738595006,0.1556498497866094
1745340223552972500,10.14697265625,0.1316518652141094,-0.06798544872850179,0.10716164014525711
1745340223562944500,10.156944580078125,0.11476385877728462,-0.03991232367157936,0.013479001710936427
1745340223572917500,10.16691748046875,0.061658876055479046,-0.014261165064573287,-0.04649250577948987
1745340223582889500,10.176889404296874,0.01601473073363304,0.0017693477600812912,-0.08571012518517672
1745340223592862700,10.18686279296875,-0.04919628484547138,0.018885902255773544,-0.08204911845959723
1745340223602834400,10.19683447265625,-0.07723053919672966,0.013424129718542099,-0.06774959414601325
1745340223612807400,10.206807373046875,-0.03706628659069538,0.022637363743782044,-0.04647898871079087
1745340223622779600,10.216779541015624,0.035468788266181946,-0.01616816772967577,-0.03833250713422894
1745340223632752400,10.22675244140625,0.1060720182776451,-0.04083031529933214,-0.018065891109779478
1745340223642724600,10.236724609375,0.14936404751539228,-0.07399491827636957,0.06804061298184097
1745340223652697600,10.246697509765625,0.09722761756479739,-0.06974602866023778,0.113718733638525
1745340223662669300,10.25666943359375,0.034542905592918394,-0.041001287952065466,0.046286461813375354
1745340223672642600,10.266642578125,-0.008285013264417648,-0.003386427567899227,-0.016714476500824093
1745340223682614500,10.276614501953125,-0.05670505304038524,0.05053571675568819,-0.09240527544226497
1745340223692587500,10.28658740234375,-0.3033306203901768,0.09694090957790613,-0.1894084000688046
1745340223702559500,10.2965595703125,-0.4481126008123159,0.07333177819252014,-0.23458310124799608
1745340223712532500,10.306532470703125,-0.572946602705121,0.11396423283219337,-0.22454017493296413
1745340223722504700,10.316504638671875,-0.41756724042296406,0.1275417995467782,-0.22379487299099562
1745340223732477400,10.3264775390625,-0.17465163350701332,0.12851561301499603,-0.08109415582232177
1745340223742450400,10.336450439453126,0.1870820760130882,0.006706511901319026,0.04777637157756835
1745340223752422700,10.346422607421875,0.5265560229301453,-0.16754326280653475,0.19600096673425285
1745340223762395600,10.356395751953125,0.7881973731040954,-0.19719839635789393,0.32114776090327646
1745340223772367400,10.366367431640626,0.8316665124744176,-0.2037944336220622,0.3096273459142074
1745340223782340600,10.376340576171875,0.5760515829831362,-0.1388116738408804,0.1666611462097615
1745340223792312600,10.3863125,0.20119594156146048,-0.010048515805602074,-0.017187683503143487
1745340223802285300,10.396285400390624,-0.09225684341490269,0.0763815211519599,-0.06911474501937627
1745340223812257500,10.406257568359376,-0.2334200488179922,0.09883446823954582,-0.006892243731766939
1745340223822230500,10.41623046875,-0.2912555671930313,0.036921909683942794,0.029832572477497158
1745340223832202500,10.426202392578125,-0.1823988866329193,-0.007015431720018387,0.105254418284446
1745340223842175500,10.436175537109374,-0.04093231436908245,-0.0589507861405611,0.11304996753148734
1745340223852147500,10.4461474609375,0.10825403849184513,-0.08196984267830848,0.0948466041797772
1745340223862120700,10.45612060546875,0.1921539724498987,-0.08166238416433334,0.11899411675818264
1745340223872092400,10.466092529296875,0.21076456489562986,-0.08458908526599407,0.16139942628927528
1745340223882065400,10.4760654296875,0.1851531537771225,-0.09255290375202893,0.17464794371258466
1745340223892037600,10.48603759765625,0.142458505910635,-0.06788724905103445,0.11318933946955949
1745340223902010400,10.49601025390625,0.03868424318134785,-0.031149463762342927,0.04232559535838663
1745340223911982600,10.505982666015624,-0.12304010421335697,-0.0008192074283957481,0.026510003926046192
1745340223921955600,10.51595556640625,-0.1988385647803545,-0.011366028144955635,0.03655987143851817
1745340223931927600,10.525927490234375,-0.17745266240239144,-0.04416355137526989,0.05046740075983107
1745340223941900500,10.535900634765625,-0.09786825355589389,-0.06112286948263645,0.06561028056237846
1745340223951873500,10.54587353515625,0.04281272128820419,-0.09937193611711263,0.041768399867042894
1745340223961845800,10.555845703125,0.1201496434688568,-0.10883446872830391,0.03765986856967211
1745340223971818500,10.565818603515625,0.15306991629600525,-0.0869818256214261,0.032895065320655704
1745340223981790500,10.57579052734375,0.12320669295191763,-0.03882277486920357,0.04587221845667809
1745340223991763700,10.585763671875,0.09045067077577114,-0.05521569126546383,0.04806665976103395
1745340224001735400,10.5957353515625,0.07225976504683494,-0.0020034487769007682,0.07153353313151746
1745340224011708400,10.60570849609375,0.13133330078423022,0.01450198808312416,-0.01161072362102568
1745340224021680600,10.6156806640625,0.1963070004761219,-0.05070581262558698,-0.05720993382260203
1745340224031653600,10.625653564453126,0.1254354749172926,-0.00931231048554182,0.024460049126297234
1745340224041625600,10.63562548828125,0.008787117567658424,-0.04970248080193996,-0.0727793684741482
1745340224051598600,10.6455986328125,-0.09343933119773865,0.02613222012221813,-0.10427603823896497
1745340224061570600,10.655570556640624,-0.1545966874718666,0.017272914101183413,-0.0818329914908856
1745340224071543600,10.66554345703125,-0.1481570098131895,-0.0328869550794363,-0.07139883736856281
1745340224081515500,10.675515625,-0.0674906509488821,-0.09572919570058584,-0.04669873240869492
1745340224091488500,10.685488525390625,0.05708206965923309,-0.08914572565704583,-0.013380034848488867
1745340224101461500,10.69546142578125,0.15995207702517508,-0.10931026954650878,-0.05040540490690618
1745340224111433500,10.70543359375,0.17770108420550823,-0.08899024283438921,-0.09845799960996955
1745340224121406500,10.715406494140625,0.11526420951485633,-0.08766776205897331,-0.06764291890114546
1745340224131378400,10.72537841796875,-0.027339257824420926,-0.04710486552417278,-0.044550943257659674
1745340224141351400,10.735351318359376,-0.1326543202549219,-0.016601590710878373,-0.06574614536911248
1745340224151323600,10.74532373046875,-0.1671188999146223,-0.005954816751182079,-0.05224748910963535
1745340224161296600,10.755296630859375,-0.10442717368006706,-0.01072743798047304,-0.03126720839049667
1745340224171268400,10.765268310546874,-0.04341244074702263,-0.030626608932018278,-0.034720381051674486
1745340224181241600,10.77524169921875,0.026212299621105193,-0.06205868902802467,-0.0250802268512547
1745340224191213600,10.785213623046875,0.07495908713340758,-0.10410422533601522,-0.01622070163451135
1745340224201186300,10.795186279296875,0.06714519851207733,-0.11489040776640176,-0.03155292999669909
1745340224211158500,10.805158447265624,0.006201777249574661,-0.1005436102449894,-0.035195926141552626
1745340224221131500,10.815131591796876,-0.00943476782143116,-0.07402239080518484,-0.0492234285807237
1745340224231103500,10.825103515625,0.03518120349645614,-0.06239332780987024,-0.06886230462826788
1745340224241076500,10.835076416015625,0.041162615993618965,-0.05511398445665836,-0.07001231491360813
1745340224251049500,10.845049560546874,0.11495382839143276,-0.0805550074443221,-0.034776641283556814
1745340224261021700,10.855021728515625,0.1907739162683487,-0.09180705382078885,-0.0605433160290122
1745340224270994400,10.864994384765625,0.1836801586151123,-0.10337620332241058,-0.04173763940259814
1745340224280966400,10.87496630859375,0.10999474467933178,-0.10034954897761345,-0.03069865125492215
1745340224290939600,10.884939697265626,0.007062193471193313,-0.07645838578045368,-0.036700375887751574
1745340224300911400,10.894911376953125,-0.059987143450975416,-0.0794505533337593,-0.08121632089726627
1745340224310884400,10.90488427734375,-0.032145196801424025,-0.08425123161375522,-0.10369794609006494
1745340224320856600,10.914856689453124,-0.0021907880425453183,-0.13457944309860467,-0.12138963359259068
1745340224330829600,10.92482958984375,-0.00015139116942882537,-0.16101093842834233,-0.1357014693984762
1745340224340801500,10.934801513671875,-0.09059387863874435,-0.17619330999106167,-0.1249279272539541
1745340224350774500,10.9447744140625,-0.14939152004420755,-0.1896837829440832,-0.26415249274466185
1745340224360746500,10.95474658203125,-0.19035013789832592,-0.15161065739840268,-0.4150423981204629
1745340224370719500,10.964719482421875,-0.32430209674835203,-0.11276245582699775,-0.3720146093094721
1745340224380691500,10.97469140625,-0.2063765590697527,-0.11342208877950906,-0.47243700432758773
1745340224390664700,10.984664794921875,-0.18079729665517805,-0.11911708555072545,-0.24417704168651252
1745340224400637700,10.9946376953125,-0.44063539679944513,-0.075357438801229,0.06362060458250343
1745340224410609400,11.004609375,-0.5339373653531074,-0.10952011290490626,0.12141443924028426
1745340224420582700,11.014582763671875,-0.3532084577590227,-0.022419337078928948,0.09841021494548767
1745340224430554600,11.0245546875,-0.11903846735656261,0.07470511237233876,0.06047773997951299
1745340224440527600,11.034527587890626,0.10036708463430404,0.09617284781485795,-0.0007191080547869205
1745340224450499600,11.04449951171875,0.21225568023622035,0.07049363215714692,-0.030848617652244864
1745340224460472600,11.05447265625,0.2789776849001646,0.1036585273951292,-0.017847645249217746
1745340224470444800,11.06444482421875,0.30854572468996044,0.10314853204637765,0.046599984741955994
1745340224480417500,11.07441748046875,0.32206688504219055,0.04177607171684503,0.09811634656544774
1745340224490389500,11.084389404296875,0.3415232806622982,0.06371843893378973,0.21045933487135915
1745340224500362800,11.09436279296875,0.33392098896503447,0.0891252673909068,0.2250549925873056
1745340224510334500,11.10433447265625,0.33269115490913387,0.04565349767208099,0.1863853259205818
1745340224520307500,11.114307373046875,0.2868143698751926,0.058392567735910415,0.18285941681675613
1745340224530280700,11.12428076171875,0.26942951983213426,0.059979544666409486,0.20033961699306962
1745340224540252700,11.134252685546874,0.2467442252933979,0.06545271538048983,0.2088414148133248
1745340224550225400,11.144225341796876,0.19256956751346588,0.0527136453166604,0.2361286136569455
1745340224560197600,11.15419775390625,0.12609072395563126,0.07248977441042662,0.2545255998846143
1745340224570170600,11.164170654296875,0.07603168480098248,0.05738572878092527,0.1923880369341001
1745340224580142600,11.174142578125,0.09019231210052966,0.04357376878857613,0.14340765986163168
1745340224590115600,11.184115478515626,0.14539163675308225,0.022723872983455656,0.10535287369024007
1745340224600087600,11.194087646484375,0.16803718380331992,-0.019491174672544,0.04885138039793819
1745340224610060500,11.204060546875,0.15424188268482683,-0.028199966306984424,0.03169650318585336
1745340224620032500,11.214032470703126,0.13770751199126244,-0.030358021123707293,0.011172368736378849
1745340224630005500,11.224005615234375,0.1130173073709011,-0.010383446848392486,-0.03466934498418122
1745340224639978800,11.233978759765625,0.03301204276382923,-0.019805062927305696,-0.02561214177086949
1745340224649950500,11.243950439453124,-0.024593173986673354,-0.034892741943895814,-0.046519722579978405
1745340224659923500,11.25392333984375,-0.11887480122745037,-0.038435529117286205,0.06493954169396311
1745340224669895700,11.263895751953125,-0.09842764100432395,-0.029947102235257622,0.15338237977866082
1745340224679868400,11.273868408203125,-0.03929039238095283,-0.05927227317988872,0.027877346756495534
1745340224689840600,11.283840576171874,-0.015310966378450393,-0.026281565465033054,-0.03512567391693592
1745340224699813600,11.293813720703126,-0.058985857453942296,0.005200783513486385,-0.04504292802568525
1745340224709785300,11.303785400390625,-0.09656827687323093,0.07724924389719963,-0.11925506924930959
1745340224719758600,11.313758544921875,-0.08367547755241393,0.062032677803933615,-0.1883996979502961
1745340224729730600,11.32373046875,-0.05016074596345425,0.05804565399438143,-0.1603395419728011
1745340224739703600,11.33370361328125,-0.012719196319580078,0.03213555219024419,-0.13005400156341493
1745340224749676500,11.343676513671875,-0.011115852776169777,-0.002273205628991127,-0.09951251363158226
1745340224759648500,11.3536484375,0.00865092396736145,-0.016797990065813062,-0.08768482279162854
1745340224769621500,11.36362158203125,0.07422551216185093,-0.011186872185766696,-0.09138411570098251
1745340224779593500,11.373593505859375,0.0847621037453413,-0.046589609478414055,-0.11380820202026516
1745340224789566500,11.38356640625,0.08682780410349368,-0.06880027224272489,-0.11778569081649183
1745340224799538700,11.39353857421875,0.0831803875118494,-0.11299568006098269,-0.1170996447810903
1745340224809511700,11.40351171875,0.11132336293458937,-0.1640399308606982,-0.0814278812887147
1745340224819483400,11.4134833984375,0.13636135807931424,-0.200090902929008,-0.09628142275586724
1745340224829456600,11.42345654296875,0.06448913104534149,-0.18556933336257933,-0.16073153696507214
1745340224839428600,11.4334287109375,-0.07889642658233642,-0.12996230469197034,-0.17308467645123599
1745340224849401600,11.443401611328126,-0.20911504412293433,-0.08985358166545629,-0.19891243373416362
1745340224859374600,11.45337451171875,-0.20983166795969008,-0.06818184808343648,-0.2123322891363874
1745340224869346600,11.4633466796875,-0.13972469703257084,-0.03379588661789894,-0.2026623608522117
1745340224879319600,11.473319580078124,-0.04597615375518799,-0.016007131949067114,-0.17497407039441168
1745340224889291500,11.48329150390625,-0.08120996422171592,-0.061761167386174196,-0.1199619754096493
1745340224899264500,11.493264404296875,-0.09371522552967071,-0.052151335258781906,-0.08225202062055469
1745340224909236700,11.50323681640625,-0.039676761350035665,-0.029476562114059923,-0.0021193302415311336
1745340224919209500,11.51320947265625,-0.0634597879976034,-0.0367410001590848,0.009110650433599949
1745340224929181700,11.523181640625,0.0011965163081884384,-0.05504939478784799,-0.006311557766981423
1745340224939154700,11.53315478515625,0.05468786799907684,-0.046018531592190264,-0.02307637621555477
1745340224949126400,11.54312646484375,0.10014613536000251,-0.03849631939381361,-0.00732018682025373
1745340224959099600,11.553099609375,0.0832324099600315,-0.0463698292478919,0.015121690884046256
1745340224969072600,11.56307275390625,0.008268062129616737,0.008346388062834739,0.006870360693521797
1745340224979044600,11.573044677734375,-0.06205225928723812,0.047718613508343694,0.006698182464390993
1745340224989017600,11.583017578125,-0.057394788870215416,0.07191752748042345,0.013612053506076334
1745340224998989600,11.592989501953125,-0.013362170398235321,0.055090311320126054,0.003479293483123183
1745340225008962600,11.602962646484375,0.06679214729070664,0.03249883254468441,0.013356325179338454
1745340225018934500,11.6129345703125,0.18960370344519614,0.028302842159569262,0.03137614865768701
1745340225028907500,11.622907470703124,0.2863713022828102,-0.024414310288429258,0.037574893699958915
1745340225038879700,11.632879638671875,0.2817559174418449,-0.05322510197013616,0.02670643981359899
1745340225048852700,11.642852783203125,0.22976269535422325,-0.025566110672056674,0.05378427022285759
1745340225058825500,11.652825439453125,0.09088087888658046,0.0003375613912940025,0.036069347975216805
1745340225068797700,11.662797607421876,-0.01871054568886757,0.03388093455284834,0.006276194192655384
1745340225078770700,11.672770751953125,-0.08094634484946728,0.045830315543711184,0.009823036486655473
1745340225088742400,11.682742431640625,-0.06476210276782512,0.03796031282097101,0.036699900963716205
1745340225098715600,11.692715576171874,0.01331248603761196,0.023963936172425745,0.029898111994378265
1745340225108687600,11.7026875,0.09482932425141334,0.00637567251175642,0.005263510018773377
1745340225118660400,11.712660400390625,0.11382570114433765,-0.018409224654734133,0.008030527046695352
1745340225128632600,11.722632568359375,0.10172668254971504,-0.009956161347031593,0.011083704072237015
1745340225138605600,11.73260546875,0.0946393546372652,-0.005967968493700027,-0.02123275764286518
1745340225148577500,11.74257763671875,0.1132265662074089,-0.036604222036898136,-0.007649491839855909
1745340225158550500,11.752550537109375,0.11620061358213424,-0.07470745045989752,-0.010317140146531165
1745340225168523500,11.7625234375,0.07099252158999443,-0.09351853391379117,0.008211144310608506
1745340225178495700,11.772495849609374,-0.032384850776195524,-0.12386018842458724,0.03651906450409442
1745340225188468500,11.782468505859375,-0.1043815809726715,-0.12533435263037682,0.02465977294947952
1745340225198440400,11.7924404296875,-0.10986030464470385,-0.025283786599338054,0.039630730251222844
1745340225208413700,11.80241357421875,-0.11400398032069206,0.0047404725253582,0.07671572154238819
1745340225218385400,11.812385498046876,-0.05321311927139759,-0.03187485542744398,0.08502364075835794
1745340225228358400,11.8223583984375,0.10225450581610203,0.0015454758763313293,0.12215517460498958
1745340225238331600,11.83233154296875,0.24302198989987372,-0.0060714288681745525,0.0714703317021951
1745340225248303600,11.8423037109375,0.2616325823456049,-0.005670446851849555,0.028986257846467196
1745340225258276400,11.8522763671875,0.2178828724682331,0.01698299124389887,0.011000044376775622
1745340225268248600,11.86224853515625,0.1470364813506603,0.03780746034681797,-0.041862763619609174
1745340225278221600,11.8722216796875,0.038111996251344676,0.09938304203301668,-0.08878390660732983
1745340225288193500,11.882193603515624,-0.021786884394288063,0.11531447839736937,-0.13689283460751175
1745340225298166500,11.89216650390625,0.01980360162258148,0.11607055746167898,-0.1599250794203952
1745340225308138500,11.902138427734375,0.025866262662410735,0.05280804560184479,-0.03590137099716812
1745340225318111700,11.91211181640625,0.0416840095192194,-0.043594519315659996,-0.011559577955678104
1745340225328084500,11.92208447265625,0.06930208428502083,-0.08554097916334867,-0.00016213175915181637
1745340225338056400,11.932056396484375,0.0661532648652792,-0.09970160646289586,0.05463745298609137
1745340225348029700,11.94202978515625,0.029273440757393836,-0.13074322593659163,0.07571304730586707
1745340225358001400,11.95200146484375,-0.016034019955992698,-0.12611235126554965,0.09866722191385924
1745340225367974400,11.961974365234376,-0.05615618698596954,-0.09409808736741543,0.05723145153466612
1745340225377946600,11.971946533203125,-0.07252046180963516,-0.10157236877083778,0.04782010112144053
1745340225387920400,11.98192041015625,-0.006718494600057602,-0.08121288683116436,0.08741685603782534
1745340225397892400,11.991892333984374,0.027452070549130438,-0.11488719289600849,0.08802665849924086
1745340225407865300,12.001865234375,0.07645195603966712,-0.15004618456065655,0.09080945761818439
1745340225417838300,12.01183837890625,0.09121814801692962,-0.16257336543947457,0.1484648701859638
1745340225427810300,12.021810302734375,0.09751344876885414,-0.16980828512907029,0.1471180586868897
1745340225437783300,12.031783203125,0.07530746217966079,-0.1608636389121413,0.1007454894926399
1745340225447755300,12.04175537109375,0.029145430463552474,-0.12965572296082972,0.08230283749233931
1745340225457728500,12.051728515625,-0.0670680416226387,-0.1316071492895484,0.08615695563722402
1745340225467700200,12.0617001953125,-0.1095014082044363,-0.11639467484951019,0.09282046864703297
1745340225477673200,12.071673095703124,-0.10543079776465893,-0.10082827240526676,0.08748148223925381
1745340225487645400,12.0816455078125,-0.06893792714774608,-0.09743950674980878,0.04326879449263215
1745340225497618200,12.0916181640625,-0.077974051040411,-0.06982727720290421,0.003118972270749509
1745340225507591200,12.101591064453125,-0.1228729309529066,-0.049259997731447215,0.010343772425130009
1745340225517563400,12.1115634765625,-0.11727613385915756,-0.04098141420781612,-0.0338219343746081
1745340225527536400,12.121536376953125,-0.10273264472186565,-0.046592824348807335,-0.06051124039031565
1745340225537508400,12.13150830078125,-0.05418751726150512,-0.06643266632854938,-0.03533621139507741
1745340225547481300,12.1414814453125,-0.02914250785410404,-0.11695990751683712,-0.012792225023172794
1745340225557453300,12.151453369140626,0.0024029694885015487,-0.11987024200558662,0.004713365322723984
