time,seconds_elapsed,z,y,x
1744402106731375000,0.042375,0.3054910132944584,0.3650482408955693,1.280654727077484
1744402106741348000,0.05234814453125,-0.1848211453437805,0.5854270218327641,1.2762585379451512
1744402106751321000,0.062321044921875,-0.916163827803731,0.9513203352503478,1.3347851073242722
1744402106761294000,0.072294189453125,-1.6159218699544666,1.2828938843064008,1.6888015204653144
1744402106771268000,0.08226806640625,-1.892595369565487,1.3165866028107702,2.0418042265191674
1744402106781240800,0.09224072265625,-1.8116256438404321,1.2467993653573095,2.475668814009428
1744402106791214000,0.102214111328125,-1.5219687440156935,1.0968952196158468,3.036785278189182
1744402106801187000,0.11218701171875,-0.7282610830575227,0.6288382935360074,3.3744419465512037
1744402106811161000,0.1221611328125,0.5052268191754817,0.27118615424111486,3.710166477806866
1744402106821134000,0.132134033203125,1.71962891266644,0.2495782796755433,4.2078269533813
1744402106831107000,0.142107177734375,2.5262206051170826,0.1426759480535984,4.397855896501243
1744402106841080000,0.152080078125,2.7465748361349105,-0.2949623127564788,4.150483602437377
1744402106851053000,0.162052978515625,2.645708569806814,-0.4562713573485613,3.738895144163072
1744402106861027000,0.172027099609375,2.667721079650521,-0.4561851403698325,3.234675748464465
1744402106871000000,0.182,2.2163199586868285,-0.32788156267032026,2.951362664708495
1744402106880973000,0.19197314453125,0.5430863019704818,0.44224970012828707,3.289292304793
1744402106890946000,0.201946044921875,-0.655607350257039,1.1211211677253246,3.4738673664212225
1744402106900920000,0.211920166015625,0.18428046259582043,1.3971188139013946,2.9873467090204358
1744402106910893000,0.22189306640625,0.6427163045018911,0.8204458841495216,2.538734049731493
1744402106920866000,0.231865966796875,0.4822077626377344,0.12913593687042593,2.035796218276024
1744402106930839000,0.241839111328125,0.654853901541233,-0.370737100186944,1.5596514089390634
1744402106940812000,0.25181201171875,1.2078472650200127,-0.14021817963793873,1.9811761548161506
1744402106950786000,0.2617861328125,1.7955957155376672,-0.0580313332080841,1.9816440645888447
1744402106960759000,0.271759033203125,1.794290478157997,-0.6231522107236087,1.4268895366564391
1744402106970732000,0.28173193359375,1.1743974153608083,-0.49122854283079503,2.32296743876487
1744402106980705000,0.291705078125,0.7146195111960172,0.5587487121351062,3.2028578839212654
1744402106990679000,0.301678955078125,-0.3646107262611389,0.7519555546388029,2.1020696023896335
1744402107000652000,0.311652099609375,-1.6226602382987736,0.07172361234351993,0.6999331064566969
1744402107010625000,0.321625,-1.556899772143364,-0.1816616583995521,0.25043263148255646
1744402107020598000,0.331597900390625,-0.7638976291060448,-0.6141701551057398,-0.5800207788750529
1744402107030572000,0.341572021484375,-0.29410277331769463,-1.3049413193330168,-1.404442727048695
1744402107040545000,0.351544921875,0.5021224234193563,-1.5108547909356653,-1.3459125044077633
1744402107050518000,0.36151806640625,0.8596165956735611,-1.3835476769275963,-0.8922985297001897
1744402107060491000,0.371490966796875,0.7043915471702814,-1.2117813895985483,-0.4695326977208256
1744402107070464300,0.38146435546875,-0.13200316286981106,-1.2180047941580414,-0.5685264481753111
1744402107080438000,0.39143798828125,-1.4231938970088958,-1.2352926135674118,-0.9684117553047835
1744402107090411000,0.401410888671875,-2.300202941510081,-1.133126955078542,-0.26252397822737694
1744402107100384000,0.411384033203125,-2.7194214562714096,-1.3255867786072193,0.3918183205299079
1744402107110357000,0.42135693359375,-2.7154385241150854,-1.5153458187445998,0.3498234184306115
1744402107120331000,0.4313310546875,-2.031846019345522,-1.5997801518402992,0.4646110599422827
1744402107130304000,0.441303955078125,-1.2060849315226077,-1.7785513494953513,0.767084077122435
1744402107140277200,0.45127734375,-1.089476906183362,-1.955734547306597,0.7571740930046886
1744402107150250000,0.46125,-1.5265496420651674,-1.7558239693805575,0.5039278654061258
1744402107160224000,0.47122412109375,-1.5645710374236106,-1.1583851688452065,0.42794381913915275
1744402107170197000,0.481197021484375,-1.386585291057825,-0.6322475174576043,0.554623741159588
1744402107180170000,0.491169921875,-1.0005524220615625,-0.5031057353682816,1.4270698616594075
1744402107190143200,0.501143310546875,-0.6953367185771465,-0.5326067012712359,2.181964538490027
1744402107200117000,0.511116943359375,-0.7343933022022247,-0.44761122716143725,2.1097893829867242
1744402107210090200,0.52109033203125,-0.4777151273936033,-0.3353860930815339,2.0143734910190103
1744402107220063000,0.53106298828125,0.4257113839119673,-0.4818408290214836,2.7102932701811193
1744402107230035700,0.54103564453125,0.7038567096412182,0.44730011538565156,1.7066687471978366
1744402107240008700,0.5510087890625,0.4714683419585228,3.17137758076936,-2.643143980015814
1744402107249982700,0.560982666015625,-0.9200123199254274,2.176856986217946,-2.6694208693057297
1744402107259956000,0.5709560546875,-0.9985177013635634,1.6121508269831537,-1.798577946218848
1744402107269928700,0.5809287109375,-0.9451859241485595,1.5697826345920562,-0.2859174575680867
1744402107279901700,0.590901611328125,-4.427815858218073,0.45433191371858117,4.012290937277674
1744402107289875700,0.600875732421875,-4.616180375257134,-0.07680442273914813,6.984960593909025
1744402107299848700,0.6108486328125,-4.966756730946898,0.13569295729845762,5.854556634053588
1744402107309822000,0.620822021484375,-3.4442028805196285,1.1809417224377392,2.500279231391847
1744402107319795000,0.630794921875,-1.6259376525342464,2.479191142916679,0.11048797155637294
1744402107329769000,0.64076904296875,-0.10076631308495998,3.127560650874674,-0.6499321541648357
1744402107339741700,0.65074169921875,1.1642173821300268,2.6537702957093714,-0.4577779625192284
1744402107349714700,0.660714599609375,2.048275176098943,1.68351276640743,0.11047339504174887
1744402107359687700,0.670687744140625,2.2085259438097475,1.0581681602060795,0.8483503015760332
1744402107369661000,0.680660888671875,1.7632979585230348,1.2294301512748003,0.6922858065739274
1744402107379635000,0.690635009765625,1.2866051599144934,1.75884974694252,-0.10343838183842599
1744402107389608000,0.70060791015625,0.9493377831310034,2.199785880254209,-0.6018781712222844
1744402107399580700,0.71058056640625,0.6502244881749153,2.554953363126516,-0.9057445789895952
1744402107409553700,0.7205537109375,0.4908405664265155,2.967506574779749,-1.024486182291433
1744402107419527700,0.730527587890625,0.284202726072073,3.168684103901684,-0.37639614886194467
1744402107429501000,0.7405009765625,0.2601817990154028,2.875145686468482,0.493966443362087
1744402107439474000,0.750473876953125,0.9368892204463481,2.3929645195767284,1.1989846710633485
1744402107449446700,0.76044677734375,2.10645030169189,2.0252067274615166,1.343759125766158
1744402107459419600,0.770419677734375,2.660354350274801,1.6918886728256939,1.2572870032325387
1744402107469393700,0.7803935546875,2.4390309819638727,1.3182479601517318,0.932153277965635
1744402107479366700,0.79036669921875,1.8782097013384103,0.9175690184265375,0.67757755532898
1744402107489340000,0.80033984375,1.2782079184472561,0.5489379506081342,0.6898041458260268
1744402107499313000,0.81031298828125,0.5871095680922269,0.27998744646459817,0.8055148569993674
1744402107509287000,0.820286865234375,-0.20991525458991525,-0.060846682889759536,0.8965699964743107
1744402107519259600,0.830259765625,-0.6853285347819328,-0.38341041153818367,0.8474529143448919
1744402107529232600,0.840232666015625,-0.5352776740461588,-0.6874608706355094,0.35821189206950366
1744402107539206000,0.850205810546875,-0.1115536645591259,-0.7872691523432731,-0.35261125905085355
1744402107549180000,0.860179931640625,0.2584194655179977,-0.7588064434468745,-0.8360172550298273
1744402107559153000,0.87015283203125,0.30104981597661973,-0.7027627769246697,-1.2325351315528155
1744402107569126000,0.8801259765625,0.023857260927557945,-0.6270686535149812,-1.5359601522281765
1744402107579098600,0.8900986328125,-0.45757367211878297,-0.5525827368512749,-1.632000459704548
1744402107589072000,0.90007177734375,-0.8352309269577264,-0.4430012491479516,-1.4792559759706259
1744402107599045600,0.910045654296875,-1.0897796885222195,-0.4461898160561919,-1.1238299882926046
1744402107609019000,0.920018798828125,-1.3101041089236736,-0.5747597896069288,-0.8264609066553413
1744402107618991900,0.929991943359375,-1.4578501998484135,-0.8157245547160505,-0.608764058278501
1744402107628964900,0.93996484375,-0.764589118501544,-1.0197282471746205,-0.7223946752421557
1744402107638939000,0.94993896484375,0.5629086082935333,-1.1155109266281127,-0.8626066443350165
1744402107648911600,0.95991162109375,-0.47132630313932894,-1.3522004986360667,-0.7085190023638308
1744402107658884900,0.969884765625,0.012637947776913643,-1.4175751803442835,-0.772953626742959
1744402107668857900,0.97985791015625,-0.0707978758007288,-1.5211869459882377,-0.6989151615858078
1744402107678831900,0.989831787109375,-0.14308862050771712,-1.5457371576160193,-0.2869595504995435
1744402107688804900,0.999804931640625,-0.5480366178542375,-1.5692334762766957,0.060501486181281504
1744402107698777600,1.009777587890625,-0.9510516013115644,-1.6047168775901197,0.05157996511161327
1744402107708750800,1.019750732421875,-0.7766179944694042,-1.5672753279462457,-0.1878434888396412
1744402107718723800,1.029723876953125,-0.11670505597293376,-1.5515867604270577,-0.4398077138036489
1744402107728697900,1.03969775390625,0.5558148506402969,-1.6261761374652384,-0.7017754463877528
1744402107738670800,1.0496708984375,1.1180308004945516,-1.7127455828934908,-0.8886672605257481
1744402107748643800,1.059643798828125,1.3191431554257869,-1.5832690158918499,-1.045366400169581
1744402107758616600,1.069616455078125,0.6654933689773083,-1.5920461965873836,-1.0531401759762316
1744402107768590600,1.079590576171875,-0.699597298631072,-1.632806953781843,-0.624848420182243
1744402107778563800,1.089563720703125,-1.9880173990130423,-1.6321742088362574,-0.20130402331212535
1744402107788536800,1.099536865234375,-2.8507430666178464,-1.4068836904600261,-0.021599764324352143
1744402107798509800,1.109509765625,-3.0966216149926185,-1.0943933197975158,-0.058811889126524325
1744402107808482800,1.11948291015625,-2.692738032007217,-0.9447758820429444,-0.008640064646629616
1744402107818456800,1.129456787109375,-2.2306378223747014,-0.8894856642365455,0.010388926741108298
1744402107828429800,1.139429931640625,-0.7101368128240108,-0.7000888815402985,-0.24365992247723042
1744402107838402800,1.14940283203125,1.0620710128635167,-0.9641270637229085,0.1967931765578687
1744402107848375800,1.159375732421875,1.289177640751004,-1.220970950487256,0.2827549749491736
1744402107858349800,1.169349853515625,1.2806255009829997,-1.0309946143373847,0.1554905310390517
1744402107868322800,1.17932275390625,0.44788755988478657,-1.1990391046643256,0.5799392746040597
1744402107878295800,1.1892958984375,-0.8639426421791314,-1.271008946853876,0.5233301562188193
1744402107888268800,1.199268798828125,-2.0373200668424367,-0.850573165257275,0.28765547860814256
1744402107898241800,1.20924169921875,-3.1564035912603137,-0.569462852242589,0.11977719342727214
1744402107908215800,1.2192158203125,-3.983602018409967,-0.3243780845940113,-0.09720273885186761
1744402107918188800,1.229188720703125,-3.974800872316956,0.18968465972691773,-0.635700288259983
1744402107928161800,1.239161865234375,-3.5594074688017368,0.3797030814528465,-0.3104639063362032
1744402107938134800,1.249134765625,-3.243535931268334,0.2376528640821576,0.22487399173090233
1744402107948108800,1.25910888671875,-2.8133418489843605,0.16044102958589793,0.46083344109971075
1744402107958081800,1.269081787109375,-2.275458376353979,0.42964054005444047,0.8221223659943788
1744402107968054800,1.2790546875,-2.0007050311505794,0.6276949687197804,1.4563814424701034
1744402107978027800,1.28902783203125,-2.1409119587421417,0.6898138635024428,1.8937832641758023
1744402107988000800,1.299000732421875,-2.533265847453475,0.6332333136245608,2.3521919258140027
1744402107997974800,1.308974853515625,-2.7374562946557996,0.4863333181351423,2.852364822600782
1744402108007947800,1.31894775390625,-2.4104852709591387,0.5401590163469314,2.942219865570962
1744402108017920800,1.328920654296875,-1.4959668722748756,0.6936717079743743,2.338845683637261
1744402108027893800,1.338893798828125,-0.4091957179188728,0.8195131333440542,1.810462883671373
1744402108037867800,1.34886767578125,0.2918213843822479,0.7448799171641468,1.54399630529806
1744402108047840800,1.3588408203125,0.7742039190649986,0.3797667943388223,1.6295406454622745
1744402108057813800,1.368813720703125,0.9817851777493953,0.22842063309550284,1.9984277338683605
1744402108067786800,1.378786865234375,1.0138345129609108,0.3854971546843648,2.1307643664762375
1744402108077760800,1.3887607421875,1.402178581508994,0.7469324657797813,1.991957807201892
1744402108087733800,1.398733642578125,1.7506658559650181,1.0875903617843985,1.6572141036771237
1744402108097706800,1.408706787109375,1.8610896397113799,1.341537942585349,1.6546474680595098
1744402108107679700,1.4186796875,1.7440011373788118,1.5774857563152909,2.6046312940090894
1744402108117653000,1.428653076171875,2.0678075595647094,1.578826357269287,3.2235856146514412
1744402108127627000,1.438626953125,1.026275476861,1.818166443786025,0.11912724161855875
1744402108137599700,1.448599853515625,1.9362293441087006,2.2018737924441694,1.4189403312176465
1744402108147572700,1.45857275390625,2.377093873488903,1.5910799819037318,1.4022826264053583
1744402108157545700,1.468545654296875,2.6667770767986774,1.3792051176786422,1.4210010631397365
1744402108167519700,1.478519775390625,2.725805019828677,1.466383342655003,1.6570713342055678
1744402108177492700,1.48849267578125,2.289282319045067,1.4989119858160613,1.4445200320236384
1744402108187466000,1.498466064453125,1.6572925757408141,1.514008140400052,0.7778068389277905
1744402108197438700,1.508438720703125,1.2928116133391856,1.3653250608861445,0.5122183585632593
1744402108207411700,1.51841162109375,1.191228138652444,1.20323684861511,0.41686427978537977
1744402108217385700,1.5283857421875,1.3698621197938918,1.401031457300484,0.05335778843909502
1744402108227358500,1.5383583984375,1.5529975040078163,1.469380478644371,-0.38191381630487736
1744402108237331500,1.54833154296875,1.8190706991493701,1.298704470770061,-0.4159903464950621
1744402108247304200,1.55830419921875,2.0516957981973887,1.0670514316245914,-0.015274506825581192
1744402108257278200,1.5682783203125,2.347766656717658,0.809134654931724,0.028969050983339545
1744402108267251200,1.578251220703125,2.4724802471011875,0.6455123649612069,0.008282090654969215
1744402108277224200,1.58822412109375,2.202361575961113,0.5914455514699221,0.05969597848467528
1744402108287197400,1.598197509765625,1.4728122066587208,0.5750973509982228,-0.05718772199079394
1744402108297170400,1.60817041015625,0.5464046327382326,0.3750795133054256,-0.08411408816538751
1744402108307144400,1.61814453125,-0.21406243739724157,0.05202829340100288,0.536182660061866
1744402108317117200,1.6281171875,-0.31482933500409127,-0.4285641429945826,1.003939288020879
1744402108327090200,1.638090087890625,-0.08720365167856216,-0.7975459239467978,0.8104856311492621
1744402108337063400,1.6480634765625,0.2622083364069462,-0.6760600634381174,0.5549807379037142
1744402108347037400,1.658037353515625,0.5786679029613733,-0.48918403139114375,0.33796588044166564
1744402108357010400,1.668010498046875,0.6263906081229448,-0.4605786991536617,-0.07804726240709424
1744402108366983400,1.6779833984375,0.5356470918804407,-0.28585575397610663,-0.5745497270528227
1744402108376956200,1.6879560546875,0.35018940219879147,-0.22958090904653072,-0.7790053279973566
1744402108386929200,1.69792919921875,0.08588263220787049,-0.3970379548743367,-0.5234245930366218
1744402108396903200,1.707903076171875,-0.42495676615238187,-0.6228548352122306,-0.2737153804577887
1744402108406876400,1.71787646484375,-0.9141425511091947,-0.5891761452332138,-0.3397593397296965
1744402108416849400,1.727849365234375,-1.2493927428513765,-0.31272944011539217,-0.4786685556609183
1744402108426822100,1.737822265625,-1.626885747039318,-0.1686871721446514,-0.32042182124890384
1744402108436796200,1.747796142578125,-1.5658470487087963,-0.39331951887309546,-0.025858517747372387
1744402108446769200,1.75776904296875,-0.9086725952655077,-0.71144380376935,0.5918930029764771
1744402108456742400,1.767742431640625,-0.2458382163643837,-1.1075286957025527,1.3064533313311635
1744402108466715400,1.77771533203125,0.5607353559076785,-1.2950947558403014,1.4737934727810322
1744402108476688400,1.7876884765625,0.743137749671936,-1.4248948557078838,1.2566162643641232
1744402108486662400,1.797662353515625,0.21331892555356025,-1.4694368850067256,0.8611957546237856
1744402108496635100,1.80763525390625,-0.5418208120793104,-1.283362816992402,0.7263132369253784
1744402108506608000,1.817608154296875,-1.4617027836233376,-0.955403366780281,0.5357190611381083
1744402108516581400,1.827581298828125,-1.663687829735875,-0.7841971975520253,0.30213432327769696
1744402108526555400,1.837555419921875,-2.336629761153459,-0.5908394022703171,0.5619087836012244
1744402108536528400,1.8475283203125,-2.354874442896247,-0.5437739919736981,0.566760972872749
1744402108546501400,1.85750146484375,-2.1278677682518956,-0.1526794556736946,-0.2635309633128345
1744402108556474000,1.86747412109375,-1.1631599820315837,0.19999270325154064,-0.4223050095345825
1744402108566448000,1.8774482421875,0.05224164389073849,0.005528700293600559,-0.3852672914512455
1744402108576421400,1.88742138671875,1.0958622233062982,-0.10744769054502248,-0.3471040034040809
1744402108586394400,1.897394287109375,1.4852210218548774,0.08959230038076639,-0.4364055041447282
1744402108596367400,1.907367431640625,0.35944705988764764,0.6444555493846535,-0.6291692059908062
1744402108606340400,1.91734033203125,-1.909676268225908,1.1196014108121395,-0.6795248900044709
1744402108616314400,1.927314453125,-4.563829425773024,1.3722820404171943,-0.5371722556211054
1744402108626287000,1.937287109375,-6.020698213368654,1.379306239965558,-0.8560635793671011
1744402108636260400,1.94726025390625,-5.756528221499919,1.2629288085117936,-1.0755845013659446
1744402108646233300,1.9572333984375,-4.319108230739832,1.0513424058392644,-0.9394042720071971
1744402108656206300,1.967206298828125,-2.601092598488927,0.7049526881843805,-1.4281326685853302
1744402108666180400,1.977180419921875,-1.3623188648074864,0.5766214918255805,-2.0797490495100615
1744402108676153000,1.987153076171875,-0.7989315330862998,0.6761041948407888,-2.4309169413521885
1744402108686126300,1.997126220703125,-0.1551490606576204,0.4375742556631565,-2.731573081836104
1744402108696099300,2.007099365234375,0.7440081027656793,0.32820904105901716,-2.596410870413482
1744402108706073300,2.0170732421875,0.5171896441698074,0.0048036008894443505,-1.8849822642132639
1744402108716046300,2.02704638671875,-0.10760521919429301,-0.18401684322357176,-1.5365993269145488
1744402108726019300,2.037019287109375,-0.42064767078161236,-0.08743249199837445,-0.9194887344427406
1744402108735992300,2.046992431640625,-0.7455722833424806,-0.15337795933187007,1.4495314304448663
1744402108745965300,2.05696533203125,-0.7354208916842937,-1.4782099740490315,3.421847256326675
1744402108755939300,2.066939208984375,-0.15304302828907965,-2.0571105167225,1.8722893713787196
1744402108765912300,2.076912353515625,0.5277677368074655,-1.3498665027305483,1.4825319289013743
1744402108775885300,2.08688525390625,1.2270628376215695,-0.9029200230881571,0.8047204917512834
1744402108785858300,2.0968583984375,1.6292384476453066,-0.6529544976606965,0.030071313136816023
1744402108795832300,2.106832275390625,1.883583211070299,-0.21285306160748005,-0.6149287914533168
1744402108805805300,2.116805419921875,2.096048734664917,0.2692553323090076,-1.0594358420543373
1744402108815778300,2.1267783203125,2.418389175951481,0.5256938531428575,-1.0974464237578212
1744402108825751300,2.136751220703125,2.6750971613764762,0.6732800773307681,-1.207653934404999
1744402108835724300,2.146724365234375,2.7299352515012023,0.7837988458842039,-1.325364514158666
1744402108845698300,2.1566982421875,2.5551000781208275,0.8976219166800379,-1.627569929911196
1744402108855671300,2.16667138671875,2.1139088010042903,0.9097986766859888,-1.8997345737956464
1744402108865644300,2.176644287109375,0.995333226108551,1.2040844053551554,-1.9896713036999105
1744402108875617300,2.1866171875,0.2614133866369724,1.2851505771920084,-1.8336795086078346
1744402108885591300,2.19659130859375,-0.028674890342354774,0.8618532686844468,-1.285496321889758
1744402108895564300,2.206564208984375,-0.2289402730554342,0.4723758121922612,0.007693769372999668
1744402108905537300,2.216537353515625,0.14728490315377712,-0.08219400682300329,0.5097722440527752
1744402108915510300,2.22651025390625,0.636882776042819,-0.25597178010493515,0.5740583268066868
1744402108925483300,2.236483154296875,1.0231599751889706,-0.17032997091561555,0.26084556015376
1744402108935457300,2.246457275390625,0.6453267792612314,-0.1582043565750122,-0.3159242906339466
1744402108945430300,2.25643017578125,1.3450287073105573,0.2998959697663784,-0.37374187149349597
1744402108955403300,2.2664033203125,1.5654145025104282,0.33790245981663464,-0.8638448078278451
1744402108965376300,2.276376220703125,2.074832343634963,0.4656628705501556,-1.0286031891562044
1744402108975350300,2.286350341796875,2.554625446346402,0.43373774624019856,-0.6273557998932898
1744402108985323300,2.2963232421875,1.0317191292196513,-0.9252136879608035,1.2034657620001583
1744402108995296300,2.306296142578125,1.0243757807195186,-0.909229644626379,1.175170518625155
1744402109005269200,2.316269287109375,0.9949690689712762,-1.6384382376670836,1.952021664263308
1744402109015242200,2.3262421875,1.2860790902137755,-2.0054323519334196,1.683052163158357
1744402109025216300,2.33621630859375,0.8956319119066,-1.813409020125866,1.1609484434619546
1744402109035189500,2.346189453125,0.6536182222664356,-1.4258236609905957,0.9058682053692638
1744402109045162200,2.356162353515625,0.2339291673839092,-1.2425623123094438,0.1161179037347436
1744402109055135200,2.36613525390625,-0.5088017550528049,-1.4309455340489745,-0.3658752663042396
1744402109065109200,2.376109130859375,-1.2553379149913788,-1.2683695382609963,-0.11144556454215199
1744402109075082200,2.386082275390625,-1.5003572161883114,-1.301410514858365,-0.10656433183923363
1744402109085055200,2.39605517578125,-1.64068280172348,-1.3732818651095031,0.13749547667577863
1744402109095028500,2.406028564453125,-2.1113462570399046,-1.5028490330040454,0.5825101480053737
1744402109105001200,2.416001220703125,-2.393606032350659,-1.6886448685988782,0.644211000039056
1744402109114975200,2.425975341796875,-2.590745391997695,-1.723696308235824,0.664111193903908
1744402109124948200,2.4359482421875,-2.661603473553061,-1.7530676564097403,0.7664090274050831
1744402109134921200,2.445921142578125,-2.2094366289138794,-1.802576952727139,0.7130024313881993
1744402109144894500,2.45589453125,-1.4006635007709265,-1.5913880249395966,0.6893317790739237
1744402109154867500,2.465867431640625,-0.6160106684058905,-1.0288421124786138,0.9468753385402262
1744402109164841500,2.475841552734375,-0.3392407226830721,-0.6279036430343985,1.2788077840365468
1744402109174814200,2.485814208984375,-0.5134668242543935,-0.23854776709526776,1.6790055181160568
1744402109184787200,2.495787109375,-1.3604244293630123,0.40384792715013024,2.1546122750535606
1744402109194760400,2.505760498046875,-2.4818694222152233,0.8816633000478148,2.484644732147455
1744402109204734200,2.515734130859375,-3.6100925309002396,1.1950243160650134,2.4314747213654218
1744402109214707500,2.52570751953125,-4.432719996872544,1.4095496947988866,2.2957690507158635
1744402109224681000,2.535680908203125,-4.628232047578692,1.5315861749276518,2.0118362276263535
1744402109234654000,2.545654052734375,-4.350307671123743,1.465648598639667,1.6593695281453429
1744402109244627000,2.555626953125,-3.8020729003489016,1.266314943818748,1.2357821506500244
1744402109254601000,2.56560107421875,-2.7919115229427813,0.9065931586429476,0.8006721662085503
1744402109264573700,2.57557373046875,-1.5085574737787246,0.6389487686619162,0.5521952719036489
1744402109274547000,2.585546875,-0.5342044918566942,0.50959436673522,0.4943198599096387
1744402109284520000,2.59552001953125,0.06635258682966232,0.41534576498121023,0.4178300560776144
1744402109294493000,2.605492919921875,0.5916337675184011,0.4213806612312794,0.6006486294273287
1744402109304467000,2.615467041015625,0.9496323821634054,0.4640770626634359,0.9364217490650713
1744402109314440000,2.62543994140625,1.0640274076282978,0.5364762361809611,0.9744165486775338
1744402109324413000,2.635412841796875,0.9535428336054086,0.5630640911161899,0.8765154888305813
1744402109334386000,2.645385986328125,0.920354265230894,0.6528180117994546,0.8463053517449647
1744402109344360000,2.65535986328125,0.9046382251828908,0.8245014431506394,0.6710632049988955
1744402109354333000,2.6653330078125,1.0844938570737839,0.9999208461597561,0.23639066212661564
1744402109364306000,2.675305908203125,1.4833277554541826,1.1321057953372597,-0.03367196797728538
1744402109374279000,2.68527880859375,1.9019845446795225,1.039351231533289,-0.08069383139312267
1744402109384252000,2.695251953125,2.1701345460951327,0.8376996551588177,0.0610259849794209
1744402109394226000,2.705225830078125,2.086425166273117,0.5700552651777863,0.33484920972585674
1744402109404199000,2.715198974609375,1.7193050875395535,0.2989507978707552,0.6121740128524601
1744402109414172000,2.725171875,1.2705898446589707,0.17238924153298138,0.6357908160876482
1744402109424145000,2.735144775390625,1.0347551359146834,0.21863471374884247,0.5588260151550174
1744402109434118100,2.7451181640625,1.0101210453957319,0.2967291762985289,0.46813810155726965
1744402109444092200,2.755092041015625,1.0364444041758776,0.33265725263953205,0.32732378265708684
1744402109454065000,2.76506494140625,1.2357897494345902,0.3208240453742444,0.2149016647003591
1744402109464038000,2.775037841796875,1.5944471202492714,0.3227228647328913,0.1356814860563725
1744402109474011000,2.785010986328125,1.8247522519171238,0.3264493379101157,-0.10216748511977493
1744402109483985000,2.79498486328125,1.9238345574378966,0.21718612237572668,-0.2971026857860386
1744402109493958000,2.8049580078125,2.0885522414296864,0.03247121388539672,-0.2678497032947838
1744402109503931000,2.814930908203125,2.2392203572809697,-0.11930120994597673,-0.12784553173370658
1744402109513903900,2.82490380859375,2.350228078395128,-0.27820772344097494,-0.018513342616334555
1744402109523876900,2.834876953125,2.4363684847563505,-0.3827537011951208,-0.03936082726866007
1744402109533851000,2.844850830078125,2.452097384285927,-0.3365845090858638,-0.09367774306349455
1744402109543824000,2.854823974609375,2.3135744642585516,-0.24304756273254752,-0.16604403722472488
1744402109553797000,2.864797119140625,1.9663339749932287,-0.11443725717142224,-0.3130988579496741
1744402109563769900,2.874769775390625,1.4486778823554516,0.0160556472659111,-0.5710295170374214
1744402109573742800,2.884742919921875,0.8599088566184043,0.06379208869189024,-0.6993992918409406
1744402109583716900,2.894716796875,0.30067689101099965,0.018348288247734306,-0.5416278467904776
1744402109593689900,2.90468994140625,-0.06506722319424152,-0.07942322693541645,-0.38329628363922236
1744402109603662800,2.914662841796875,-0.23821371283531187,-0.15313479822576045,-0.34070253886394203
1744402109613636000,2.924635986328125,-0.1437467921555042,-0.12301570042446255,-0.33178266176208854
1744402109623608800,2.93460888671875,0.21337854678630827,-0.0711591103285551,-0.5968631926044822
1744402109633582800,2.944582763671875,0.6493225708991289,-0.09037892071381211,-0.816780347379297
1744402109643555800,2.954555908203125,1.0568699370890855,-0.12710253134667873,-0.8364883066076785
1744402109653528800,2.96452880859375,1.0747902091830968,-0.04208163053467869,-0.6901970176011324
1744402109663502000,2.974502197265625,0.5969131692260503,0.18747955089807508,-0.8871829402521252
1744402109673475000,2.98447509765625,-0.5990823299586773,0.5859153898715973,-1.2357402112044393
1744402109683449000,2.994448974609375,-2.41626502340436,0.9006709289871155,-1.4730790409013628
1744402109693421800,3.004421875,-4.144899080303311,1.1151986458085477,-1.3897563223093747
1744402109703394800,3.014394775390625,-5.1923851029753685,1.1520853380486369,-0.7819006110474467
1744402109713368000,3.0243681640625,-5.393153759035468,0.9023976066492497,-0.299265416777879
1744402109723341800,3.034341796875,-4.822522447535396,0.5675100376743824,0.04703026591800153
1744402109733315000,3.044315185546875,-3.623223815152049,0.3361572235845029,0.23248258530478924
1744402109743287800,3.054287841796875,-2.3396488167136904,0.12186718797646462,-0.05801383408401161
1744402109753260800,3.0642607421875,-1.2303402518570423,0.0018351064726710318,-0.44276470044571903
1744402109763233800,3.07423388671875,-0.666301178228855,0.17256138322949408,-0.48288054733276364
1744402109773207800,3.084207763671875,-0.6605050591707229,0.4459415403835475,-0.23580529998671262
1744402109783181000,3.09418115234375,-1.1501268974572418,0.6331839215248822,-0.37768366792183367
1744402109793154000,3.104154052734375,-1.8246219035357236,0.806350284910202,-0.8091637348957359
1744402109803126800,3.114126708984375,-2.442777182754874,1.0212234541684388,-1.172998216087371
1744402109813099800,3.124099853515625,-2.7239783889234066,1.0011648548714815,-1.351131700360775
1744402109823073800,3.13407373046875,-2.5145564708083867,0.7837282648660242,-0.995489877974987
1744402109833047000,3.144047119140625,-1.6425445039421318,0.43753147596735503,-0.17370087212081997
1744402109843020000,3.15402001953125,-0.6208341430395842,-0.024168738029524683,0.5172411186287179
1744402109852993000,3.163992919921875,0.4480547331452369,-0.4901062608025968,0.8059021027512848
1744402109862965800,3.1739658203125,1.561314081454277,-0.8080885068796575,0.836410492131114
1744402109872939800,3.183939697265625,2.5578736344873905,-1.026144105566293,0.8500571785591542
1744402109882912800,3.193912841796875,3.281543298101425,-1.1658603270314634,0.7793620324805378
1744402109892886000,3.203885986328125,3.6414755111575126,-0.9870565422810613,0.6217409556861967
1744402109902859000,3.21385888671875,3.4266514417380094,-0.5899052632253616,0.45831082728691397
1744402109912832000,3.22383203125,2.8776532853752372,-0.13164207447245715,0.2618932060431689
1744402109922806000,3.233805908203125,2.3007547301739453,0.31267632168866694,0.050061541638989
1744402109932778800,3.24377880859375,1.9249357966780662,0.705962084422633,0.07951705183186568
1744402109942752000,3.253751953125,1.8292963250875471,1.1154378613919018,0.5091127206981182
1744402109952725000,3.26372509765625,2.2843927934378385,1.1646399914562702,1.2023422378629445
1744402109962698000,3.273697998046875,3.143303286668658,0.6316350115824491,2.027743406332284
1744402109972672000,3.283672119140625,4.166171000912786,-0.041518955150619145,1.7166760542102157
1744402109982645000,3.29364501953125,5.168520827785134,0.6409319783683866,0.2716573154168203
1744402109992617700,3.30361767578125,6.509172050663828,0.48096656693760304,-0.2379255800763145
1744402110002591000,3.313591064453125,5.252493826979398,-0.17487837320128455,-0.44294754619933663
1744402110012564000,3.32356396484375,4.8579047265619035,-0.15479716021372003,-1.7086119902200996
1744402110022538000,3.3335380859375,4.772378068184852,-0.0675216671416536,-1.6166156974375248
1744402110032511000,3.343510986328125,4.030972256872058,-0.5037656605817378,-0.5817123121585697
1744402110042483700,3.353483642578125,3.3360423655301332,-0.9570793371684849,-0.1671574052941054
1744402110052457000,3.36345703125,2.4749165343374013,-1.0574850002475082,0.12256583776511251
1744402110062430000,3.373429931640625,0.9104787679046392,-1.0363177090562878,0.0045894466821104285
1744402110072404000,3.383404052734375,-2.2198469637691973,-1.4774227691940962,-0.44461869428195055
1744402110082377000,3.393376953125,-3.093537092980742,-1.5756526956692336,-0.16876586340405045
1744402110092350000,3.403349853515625,-4.023270011931658,-1.0102284512929618,-0.4117346983445808
1744402110102323000,3.413322998046875,-3.833583306378126,-0.3870762405693531,-0.7138267533831298
1744402110112296700,3.423296630859375,-3.2654806365728377,0.13694076540246605,-1.1313755813665687
1744402110122270000,3.43327001953125,-2.425752982717752,0.5122651933796704,-1.4221737601809203
1744402110132243000,3.443242919921875,-1.3678554561465979,0.6072139062270522,-1.5360893315657973
1744402110142216000,3.4532158203125,-0.4006342258006334,0.5401448416911065,-1.4344954816155135
1744402110152189000,3.46318896484375,0.23679040203392504,0.336627909836173,-1.074379582555592
1744402110162163000,3.473162841796875,0.18831249459087848,0.10021715476959943,-0.6854638515993953
1744402110172136000,3.483135986328125,-0.38509061971008773,-0.003936462666094303,-0.32435565356649454
1744402110182109000,3.49310888671875,-1.226127602598071,0.0215184427164495,0.03563172374293208
1744402110192082000,3.50308203125,-2.0972779841989277,0.10995675075650214,0.34170890289489175
1744402110202055000,3.513054931640625,-2.6113427743464706,0.1811499094851315,0.43534624088276175
1744402110212029000,3.52302880859375,-2.772301398065686,0.24998386480174958,0.5084366480674595
1744402110222002000,3.533001953125,-2.6263708321303127,0.40647469545714554,0.35172486813776194
1744402110231974700,3.542974609375,-2.3440356534957885,0.5850055815503001,0.034281405112519855
1744402110241947400,3.552947509765625,-1.7949089023172855,0.6484794711384921,-0.23086499404031782
1744402110251920400,3.56292041015625,-1.3951725021392105,0.514933316610381,-0.43750824122224
1744402110261894400,3.572894287109375,-1.2837614609211683,0.3092806148357689,-0.38273930734358724
1744402110271867400,3.582867431640625,-1.258634618449211,0.12368563557527959,-0.003426467317342758
1744402110281840600,3.592840576171875,-1.4887065258830785,0.019774813919514418,0.6344134633198381
1744402110291813600,3.602813720703125,-1.7647575096815824,-0.08227540149614214,1.2445567009970544
1744402110301786400,3.612786376953125,-1.8776929839879273,-0.047114875461533666,1.7719997358947992
1744402110311760400,3.622760498046875,-2.0307617312401534,0.1832447263399139,2.500316640792787
1744402110321733400,3.6327333984375,-1.8867390447527168,0.6170682877000421,3.5271032820463177
1744402110331706600,3.64270654296875,-1.6859435006856918,0.9706940210230648,4.293729459333419
1744402110341679600,3.6526796875,-1.5743874980390071,1.200130260901898,4.529244434604048
1744402110351652400,3.66265234375,-1.144115674343705,1.2312082668632267,4.06469595503658
1744402110361626400,3.67262646484375,-0.45675943312644957,1.0184286358181387,3.0738562409549948
1744402110371599400,3.682599365234375,-0.12687339876592157,0.8498563222248107,2.1583687049776312
1744402110381572600,3.692572509765625,-0.17810265074372292,0.894183612794429,1.5757368668213485
1744402110391545600,3.702545654296875,-0.3888432502418756,0.7925874247565865,1.1293424681037665
1744402110401518600,3.7125185546875,-0.9155728761732578,0.5322489008095115,0.6624605771526694
1744402110411492600,3.72249267578125,-1.7957523674041032,0.48351559383329,0.3164890849098563
1744402110421465300,3.73246533203125,-2.808313207167387,0.5004936166411266,-0.01920855833888054
1744402110431438300,3.742438232421875,-3.849053262710571,0.5751303034197539,-0.38634558820724485
1744402110441411600,3.75241162109375,-4.48888319812119,0.7460335441786795,-0.7872121614590287
1744402110451384600,3.762384521484375,-4.4390854402512305,0.6332658276546747,-0.9249676042452454
1744402110461358600,3.772358642578125,-4.042424794256687,0.23538287332355975,-0.30635610569119454
1744402110471331600,3.78233154296875,-3.2978964670091866,0.0390106986567378,0.6537260665550828
1744402110481304300,3.79230419921875,-2.313956157052517,0.015857275149598716,1.0381003546893597
1744402110491277600,3.802277587890625,-1.370992000606656,-0.11082147782705723,1.0881439040139318
1744402110501250600,3.81225048828125,-0.6901952640354633,-0.2880265952091664,0.7895823977217078
1744402110511224600,3.822224609375,0.05752922890484333,-0.33646132109761234,0.031142741760611534
1744402110521197600,3.832197509765625,0.4827332478165626,-0.07621836647950113,-0.35858138296902176
1744402110531170600,3.842170654296875,0.1023076973080635,0.6858744782269001,-0.2564344291806221
1744402110541143300,3.852143310546875,-0.4207727584660053,1.194355623023212,0.21739187408089636
1744402110551116500,3.862116455078125,-0.7487900763452052,1.0505315278477967,0.6098097679391503
1744402110561090600,3.872090576171875,-1.1129214946568011,0.7299076812207699,0.9461573995292186
1744402110571063600,3.8820634765625,-0.28059154983758927,0.6685157124731689,1.2915773953691123
1744402110581036500,3.89203662109375,0.6348240899473429,0.6850837662406265,1.5397297338947653
1744402110591009500,3.902009521484375,1.6375585322231054,0.5554206636909396,1.7245535095870494
1744402110600982500,3.911982421875,2.6450422148525714,0.5126386298019439,1.7206091558754444
1744402110610956500,3.92195654296875,3.533984273731708,0.36000783557556565,1.4402087446957825
1744402110620929500,3.931929443359375,4.2997535419285295,0.1952889825399965,1.105605618685484
1744402110630902500,3.941902587890625,4.845951253917813,-0.1411043513553217,0.570725419524312
1744402110640875500,3.95187548828125,4.932075878188014,-0.6935621831852943,-0.06325666664093732
1744402110650848500,3.9618486328125,4.326604723975062,-1.2615109045378863,-0.09410685519576072
1744402110660822300,3.971822265625,3.6017747844099994,-1.550814022488892,0.6944710416585207
1744402110670795500,3.98179541015625,3.335436800852418,-1.057621120782569,1.9326853878915309
1744402110680768500,3.9917685546875,2.8943180044502017,-0.410275001055561,2.4629034404605625
1744402110690741500,4.001741455078125,2.601381352302432,-0.1314762894514948,3.1104367898553607
1744402110700714500,4.011714599609375,2.6330384733259677,-0.2933531970594078,3.538358251032233
1744402110710688500,4.0216884765625,3.208940418705344,0.2116490926451981,2.461572484117746
1744402110720661500,4.03166162109375,5.214358449852466,-0.32212241462171076,1.9266677350372075
1744402110730634500,4.041634521484375,6.070506492632627,-0.019239611064270138,1.6531933237284422
1744402110740607500,4.051607421875,4.4431858613073825,0.9988369964458048,0.7133809093117713
1744402110750580500,4.06158056640625,3.33802564830184,1.1683249635793267,0.8869491314962505
1744402110760554500,4.071554443359375,3.0151094529539346,0.7435732184797526,0.5282201567500829
1744402110770527500,4.081527587890625,2.737666722536087,0.4618348366945982,-0.5243401004463434
1744402110780500500,4.09150048828125,2.59685247670114,0.5597219410814345,-1.0138780598416923
1744402110790473500,4.101473388671875,2.5574405037671326,0.5325847086351364,-1.2397349799290298
1744402110800446500,4.111446533203125,1.9523837755739688,0.3785400290228426,-1.6412664468303322
1744402110810420500,4.12142041015625,0.947626303038001,0.3108822778787464,-2.0383315819725394
1744402110820393500,4.1313935546875,-0.1797837356984615,0.14319953353628515,-2.2868846102535723
1744402110830366700,4.14136669921875,-0.974135539779067,-0.20181955335251986,-2.3722031788378954
1744402110840339500,4.15133935546875,-1.470517958241701,-0.5433531362131238,-2.224479884266853
1744402110850312400,4.1613125,-1.9795967766702174,-0.8683098244126886,-2.0311215044632553
1744402110860286500,4.171286376953125,-2.6425796241313217,-1.076722419354692,-1.950233027280867
1744402110870259500,4.181259521484375,-3.3904531701534983,-1.040051707952842,-2.161137585169077
1744402110880232400,4.191232421875,-3.9152959594249723,-1.0081208114892244,-2.670897079338133
1744402110890205700,4.201205810546875,-4.235419893705845,-0.9428031206652522,-3.1128505729988216
1744402110900178400,4.211178466796875,-4.413236713245511,-0.7790031360402703,-3.3647552497953175
1744402110910152400,4.22115234375,-4.179331511259079,-0.7453976574279367,-3.5737972286820407
1744402110920125400,4.23112548828125,-3.9950317594408986,-0.6406841410871594,-3.620526246631145
1744402110930098400,4.241098388671875,-4.049945837411284,-0.7778689443785697,-3.856162217932939
1744402110940071700,4.25107177734375,-4.586660850784182,-0.4848286126606166,-3.378160967074334
1744402110950044400,4.26104443359375,-5.021242354372143,0.21706958332397042,-2.3802982224881646
1744402110960017400,4.271017333984375,-4.671204927864671,0.5402804507695138,-1.9823753014728425
1744402110969991400,4.280991455078125,-3.5289264058202505,0.6666564214073121,-1.9318536132425068
1744402110979964400,4.29096435546875,-2.107538096928596,0.4160347701586783,-2.0849434032827614
1744402110989937700,4.300937744140625,-1.2477309471189975,0.17335881721749902,-1.8321394395589827
1744402110999910700,4.31091064453125,-1.124703117865324,0.4349441994205117,-0.8906292813137173
1744402111009884700,4.320884765625,-1.208891221114993,0.8563432730913162,-0.19418708571270107
1744402111019857400,4.330857421875,-1.0939876616060733,0.9833652865476906,-0.15305807972773908
1744402111029830400,4.340830322265625,-0.8036901257902384,0.9828529531113803,-0.2721028306946158
1744402111039803400,4.350803466796875,-0.13840776921510695,0.7682882652804255,-0.6805141202375292
1744402111049776600,4.360776611328125,0.35296354308724404,0.5755360346764326,-0.9547752980098128
1744402111059749600,4.37074951171875,0.6560001489669084,0.5683420315191149,-0.7401596106439828
1744402111069723600,4.3807236328125,0.7383814950555563,0.4924874568507075,-0.5045166250795126
1744402111079696400,4.3906962890625,0.5356915155440568,0.3539560612559318,-0.4229508331574499
1744402111089669400,4.40066943359375,0.17840484856069086,0.5376677840530872,-0.2550532039552927
1744402111099642600,4.410642578125,0.057740825828909874,0.84016662979424,-0.041128932919725775
1744402111109615600,4.42061572265625,0.08073065627217292,0.9672846509709954,-0.0002446224108338356
1744402111119589600,4.430589599609375,0.31065175705850123,1.07978261064291,-0.04202756225988269
1744402111129562600,4.440562744140625,0.4990986916840076,1.1277975767493247,-0.3015679215665906
1744402111139535400,4.450535400390625,0.6678069066166877,1.2428913981333374,-0.38168219950608906
1744402111149508400,4.46050830078125,0.7002116311371326,1.249000236402452,-0.464998634487763
1744402111159481600,4.470481689453125,0.7351262926518917,1.2740195268467067,-0.30004988168645647
1744402111169455600,4.48045556640625,0.8752648311823606,1.3648819932937621,-0.02361607258282602
1744402111179428600,4.4904287109375,0.9825760358661413,1.378860542024672,-0.0022001038601621985
1744402111189401300,4.5004013671875,1.1087772344589233,1.3066300030723212,-0.03087565178964287
1744402111199374300,4.510374267578125,1.189476326549053,1.173864623658359,0.02324438972622156
1744402111209347600,4.52034765625,1.3596324022024868,1.086884551602602,0.0630250133095309
1744402111219321600,4.530321533203125,1.6263824736922978,1.0877283089503644,0.11201218544896692
1744402111229295400,4.54029541015625,2.047117822757363,1.3153212590500711,0.19722064472232012
1744402111239268400,4.550268310546875,2.55994401102066,1.5475138118997216,0.19369130155239253
1744402111249241300,4.560241455078125,3.25741949519217,1.4797247625261545,0.17162912561437113
1744402111259214000,4.570214111328125,3.9036809249550104,1.2320263052478433,-0.011937946281395852
1744402111269188000,4.58018798828125,4.3869934339642525,0.9076268856048584,-0.29239794216118753
1744402111279161000,4.5901611328125,4.5515427756518125,0.6503142122849822,-0.478252887532115
1744402111289134300,4.60013427734375,4.417734024664759,0.5256757329642773,-0.4965222653247416
1744402111299107300,4.610107421875,4.19585302247107,0.6562026858016848,-0.42497682255972175
1744402111309080300,4.620080322265625,3.7330735984027386,0.7341542327493429,-0.2700060776110738
1744402111319054300,4.630054443359375,2.795029947224259,0.7494897490471601,-0.13111457999963314
1744402111329027000,4.640027099609375,2.4120938751995564,0.9495169390901923,0.25967713742889464
1744402111339000300,4.650000244140625,2.545040456399321,1.2217755448684096,0.5967519507823512
1744402111348973300,4.659973388671875,2.633065361332893,1.1403672815956174,0.5219279247380793
1744402111358946300,4.6699462890625,2.677653860121965,0.8405283027134836,0.1252425096284598
1744402111368920300,4.67992041015625,2.41227332341969,0.44116278167441486,-0.5765685195293277
1744402111378893000,4.68989306640625,1.9559066890031098,0.28604572359025476,-0.8577341429278253
1744402111388866300,4.6998662109375,1.589958576658368,0.6137396547339856,-0.5058060803681612
1744402111398839300,4.70983935546875,0.9618886371463536,0.7838923693865537,-0.5456690850052982
1744402111408812300,4.719812255859375,0.3326677740335464,0.6620724546179175,-0.9218702227517962
1744402111418785300,4.729785400390625,0.1772673689633608,0.3513321424931288,-0.6520421320561319
1744402111428759300,4.73975927734375,0.2539046184420585,0.1497508548758924,-0.4649719656765461
1744402111438732000,4.74973193359375,0.6320885275036097,0.16798063131049273,-0.6669806118603795
1744402111448705300,4.759705322265625,1.0428525176525116,0.15279489874690771,-1.0197092502132057
1744402111458678300,4.76967822265625,1.2350117507994174,-0.17874693999662994,-0.9691241413578391
1744402111468651300,4.7796513671875,1.1387480098307132,-0.5782065690599382,-0.6347414531651884
1744402111478625300,4.789625244140625,0.843503080740571,-0.6281248845696449,-0.7285823509011418
1744402111488598300,4.799598388671875,0.21228315276503562,-0.6417742013461888,-1.0211834144189953
1744402111498571300,4.8095712890625,-0.6652934624910354,-0.7305841191776097,-1.04174572545439
1744402111508544300,4.819544189453125,-1.633120257514715,-0.7081295646548271,-0.7571660558287053
1744402111518517200,4.829517333984375,-2.7154759335160255,-0.8921589750990271,-0.4709739095050841
1744402111528491300,4.8394912109375,-2.778023282843828,-1.206063888734579,0.08500767600424587
1744402111538464300,4.84946435546875,-2.3265496811658144,-1.637238214227557,0.07938026457652449
1744402111548437200,4.859437255859375,-2.2164146512329577,-2.0378172027096153,-0.1959519034281373
1744402111558410200,4.86941015625,-2.035613262924552,-2.1716420280486344,-0.5392399287406355
1744402111568383200,4.87938330078125,-2.180889748865366,-2.1775909995809197,-0.5526080904882401
1744402111578357200,4.889357177734375,-2.5360452490389345,-2.270420528317243,0.4992908532552421
1744402111588330200,4.899330322265625,-3.042811698871851,-2.6162685403108594,1.297762513744831
1744402111598303200,4.90930322265625,-3.0244004283905026,-2.7692881877243516,1.1274437218103557
1744402111608276500,4.9192763671875,-2.576986915758252,-2.5014851000502705,0.492012130956538
1744402111618249200,4.929249267578125,-2.4871505774885416,-1.9131869066953657,-0.2329522486431524
1744402111628223200,4.93922314453125,-2.798526557168364,-1.4880834255486726,-0.606267711418122
1744402111638196200,4.9491962890625,-3.2488656018584963,-1.471101895609498,-0.3553801392422989
1744402111648169200,4.959169189453125,-3.6526883945673703,-1.6325332514069975,0.40925358558595176
1744402111658142200,4.96914208984375,-3.820731423589587,-1.7300255112573504,1.0325013656385242
1744402111668115200,4.979115234375,-3.9132460411578416,-1.7140198406130074,1.2508937950640917
1744402111678089200,4.989089111328125,-3.911460326784849,-1.5191186152815819,0.6912734877262264
1744402111688062200,4.999062255859375,-3.977045436373353,-1.2128780987940728,-0.054439683657977724
1744402111698035200,5.00903515625,-4.251533993160725,-0.8628406722865998,-0.5195053372336551
1744402111708008200,5.01900830078125,-4.765023029246926,-0.488150633222796,-0.8012995043266564
1744402111717981400,5.0289814453125,-5.382014525383711,-0.09149133893512189,-0.7657153460524976
1744402111727955500,5.03895556640625,-5.861036643722653,0.2868909422427416,-0.2585184871793724
1744402111737928200,5.04892822265625,-5.954026477587223,0.461070939650014,0.5185615170449018
1744402111747901200,5.058901123046875,-5.58791119198203,0.477254085753113,1.0805100481346248
1744402111757874200,5.068874267578125,-4.743588611552119,0.4516842487540096,1.4737693612530827
1744402111767847400,5.078847412109375,-3.455255604931712,0.349683936894685,1.643646619965136
1744402111777821200,5.0888212890625,-2.206322880807519,0.3846826234310865,1.7193386975482106
1744402111787794400,5.09879443359375,-1.4985335078924893,0.5710935952495784,1.8254554317504166
1744402111797767200,5.10876708984375,-1.275270695951581,0.9249640971139073,1.9946971690379083
1744402111807740200,5.118740234375,-0.8920850330799818,1.392428171867132,2.0865521536536513
1744402111817713200,5.128713134765625,-0.2378168224722147,1.7275732957996428,2.0001349761776623
1744402111827687200,5.138687255859375,0.4728168339580297,1.8395137677192688,1.7481421827062964
1744402111837660400,5.148660400390625,1.091170266097784,1.9645351088777183,1.532668271075934
1744402111847633400,5.15863330078125,1.609354766523838,1.977229901408404,1.605318935136497
1744402111857606100,5.168606201171875,2.0367460663467645,1.9853464262381195,1.8066871645249425
1744402111867579100,5.1785791015625,2.569151984348893,1.9832769264876842,1.7595497119054198
1744402111877552400,5.188552490234375,2.9804443822860716,1.9486689928345382,1.460549521934986
1744402111887526400,5.1985263671875,3.271329362601042,2.075586523003131,0.9689300800904631
1744402111897499400,5.20849951171875,3.570900922718644,2.2987876678846777,0.4573051939083263
1744402111907472100,5.21847216796875,3.665357906526327,2.0021783185735345,0.47393162679951634
1744402111917445000,5.228445068359375,3.6564608988434073,1.570234908404201,0.7014264137543738
1744402111927418000,5.238418212890625,3.7615783928751942,1.6913129187643527,0.5851682247661054
1744402111937392000,5.24839208984375,3.7551422223478554,1.839944268091023,0.642930093383044
1744402111947365400,5.258365478515625,3.503853923884034,1.723626311739534,0.5617332078386098
1744402111957338400,5.26833837890625,3.3851240840852257,1.5851872706033288,0.3517237721592188
1744402111967311000,5.27831103515625,3.2655420113712545,1.3356238962359726,0.23467918203361332
1744402111977284000,5.2882841796875,3.1588503998905417,1.0765360299371183,0.33113654587827623
1744402111987258000,5.298258056640625,3.2538363760083913,0.8272374439857899,0.42807599415145814
1744402111997231400,5.3082314453125,3.3763884044438597,0.5073512639835477,0.38521073895841834
1744402112007204400,5.318204345703125,3.3783646729528902,0.11074044848009944,0.2491712332446128
1744402112017177300,5.32817724609375,3.2494945474117993,-0.0797286396227777,0.1471066970426589
1744402112027150000,5.338150146484375,3.15303499161005,-0.10064955483749509,-0.037483562154695386
1744402112037124000,5.3481240234375,3.09816709086895,-0.008936316780000925,-0.3053942749217152
1744402112047097000,5.35809716796875,2.9869349133491516,0.07640256393998861,-0.4785191372528672
1744402112057070300,5.3680703125,3.0035172148376703,0.04895107791274786,-0.46165838414914906
1744402112067043300,5.378043212890625,2.876546200916171,0.34617242164239287,-0.3901210516253486
1744402112077016300,5.388016357421875,2.04264798386693,0.6852072464898228,-0.4875626407343894
1744402112086990300,5.397990234375,1.1391852322041989,0.300075710247457,-0.375039437023364
1744402112096963000,5.407963134765625,0.29390695848464965,-0.22222587010860442,-0.8154424498390406
1744402112106936300,5.417936279296875,-1.0544254665464161,-0.31682898438870905,-1.0201799364648758
1744402112116909300,5.427909423828125,-2.0294401272475717,-0.20750790118724108,-1.7533586021803318
1744402112126882300,5.43788232421875,-2.209302773401141,-0.19299539171010255,-2.8648741755619644
1744402112136856300,5.447856201171875,-1.9418407542496918,-0.2978574496760964,-3.7455151468247174
1744402112146829300,5.457829345703125,-1.8468758209198712,-0.6513184208914637,-3.926125980997085
1744402112156802300,5.46780224609375,-1.8970605322808025,-1.3042948381230235,-3.352261094403267
1744402112166775300,5.477775390625,-2.283379232481122,-1.692311866673827,-1.9304193426556884
1744402112176748300,5.487748291015625,-2.75058465629816,-2.0963538550913334,-0.5004945299565792
1744402112186722300,5.497722412109375,-2.9231308419585225,-2.3206614999100563,0.5203080684512853
1744402112196695300,5.5076953125,-3.0326719976514576,-2.312195577120781,1.0790395371906458
1744402112206668000,5.51766796875,-3.2461592655092475,-2.418867899379134,1.1697434520751238
1744402112216641300,5.527641357421875,-3.289159618324041,-2.449777124644816,1.081401151755452
1744402112226614300,5.5376142578125,-3.2205840947479007,-2.4106164961233736,0.9835236919797956
1744402112236587000,5.5475869140625,-3.0217735870182514,-2.245998473113775,0.5533252257816493
1744402112246561000,5.55756103515625,-2.375092470538616,-1.9817858111470936,-0.2016786105118692
1744402112256534000,5.567533935546875,-1.0920008717030285,-1.8625769556596874,-0.9288209186725318
1744402112266507300,5.57750732421875,0.560512653067708,-1.99131381020993,-1.1104224443826824
1744402112276480300,5.587480224609375,2.01484052400887,-2.425778117159009,-0.34159532298520207
1744402112286453000,5.597452880859375,2.1089497172921896,-2.6749492773383854,0.8734467489097267
1744402112296427000,5.607427001953125,0.983593103954196,-2.600569451397657,1.420733644375205
1744402112306400000,5.61739990234375,-0.9876572846531867,-1.7701845031663774,1.2493541644066573
1744402112316373000,5.627373046875,-2.1228695215731856,-0.9653528061255812,1.0762963759623467
1744402112326346200,5.63734619140625,-2.745333896163106,-0.34576807862520215,0.9301067206993698
1744402112336319200,5.6473193359375,-3.2394887017041443,-0.09860504339784383,0.9647595164075493
1744402112346293200,5.657293212890625,-4.343409728303551,0.22979835118949413,0.9351246949918568
1744402112356266000,5.667265869140625,-4.554170201545953,0.4616594801276922,0.8601902308430522
1744402112366239000,5.677239013671875,-3.5712370228052137,0.7031739880740642,0.6293757614135742
1744402112376212200,5.687212158203125,-2.197664942577481,0.7576257092297076,0.20873890428692102
1744402112386185200,5.697185302734375,-1.0715116259038449,0.8275544009804725,0.20196860643438994
1744402112396159200,5.7071591796875,-0.2076660143584013,0.9846996038913727,0.49804070706367487
1744402112406132200,5.71713232421875,0.5996341186225413,1.1325763354584575,0.5977076806046069
1744402112416105000,5.72710498046875,1.5433417869120836,1.224616905774176,0.5425424774173647
1744402112426078200,5.737078125,2.4276935953915117,1.3656974013298748,0.41722149572521444
1744402112436051200,5.74705126953125,3.085243896409869,1.5333037925004958,0.27789259307719766
1744402112446025200,5.757025146484375,3.3050118519723415,1.6553654070705175,0.18521686666309833
1744402112455998200,5.766998291015625,3.226119517043233,1.673708873012662,-0.0021969985876232386
1744402112465971200,5.77697119140625,2.8872318455815313,1.8045543902799486,-0.2987970686137676
1744402112475944000,5.78694384765625,2.488759181728959,1.981667445464432,-0.48371904398351906
1744402112485917200,5.796917236328125,2.0785054791897535,2.0109139982149005,-0.40103922640495
1744402112495891200,5.80689111328125,1.7103718394994736,2.000563576853275,-0.16198453270085156
1744402112505864200,5.8168642578125,1.417827986061573,2.0533333362713453,0.1584796663850546
1744402112515837200,5.826837158203125,1.2571470102399587,2.1617034023582935,0.2314144080840051
1744402112525810200,5.83681005859375,1.1739917571693659,2.2892007782414554,0.16695238424129782
1744402112535783200,5.846783203125,1.3095371226906776,2.3673028395757076,0.30041970137953755
1744402112545757000,5.8567568359375,1.650765219798684,2.42252203797251,0.3431077733747661
1744402112555730200,5.866730224609375,2.0873510489463807,2.2715184065565466,0.10418277046494186
1744402112565703200,5.876703125,2.528716513586044,2.015181592531502,-0.04564714099653065
1744402112575676200,5.88667626953125,2.894296377140283,1.752586887155473,-0.07950907858796417
1744402112585649000,5.89664892578125,3.0342934613734482,1.4544357152298093,-0.15657025256715715
1744402112595622100,5.9066220703125,2.801505280718207,1.2646519790425896,-0.21694537242241202
1744402112605596200,5.91659619140625,2.2752537936925887,1.186277822768688,-0.17655111045278607
1744402112615569200,5.926569091796875,1.807947832110524,1.115949025784433,-0.21418160679750142
1744402112625542100,5.936542236328125,1.5457207910031079,1.080017296181619,-0.38276203063204883
1744402112635515100,5.94651513671875,1.4609341373383997,1.0492144538998602,-0.4824258623678237
1744402112645488000,5.956488037109375,1.5393191072672605,0.8665165843203664,-0.5388123509783298
1744402112655462100,5.966462158203125,1.7320821515262126,0.7040244674235582,-0.4587623704466969
1744402112665435100,5.97643505859375,1.8939859471410512,0.600211041727662,-0.20998159782439468
1744402112675408100,5.986408203125,2.0198340945124627,0.5257680874228478,0.08705226050913334
1744402112685381000,5.996381103515625,2.0374334640890357,0.19858838941156862,0.4015259139433503
1744402112695354000,6.00635400390625,1.9548902054369448,-0.12874445333480833,0.5675393368341028
1744402112705328000,6.016328125,1.834554099485278,-0.2175143314167857,0.5486776922367513
1744402112715301000,6.026301025390625,1.6525217080771921,-0.1416834298849106,0.35858525542654096
1744402112725274000,6.036274169921875,1.0347615656554698,-0.03868015152812004,0.022451924174278975
1744402112735247000,6.0462470703125,0.5876899983286857,-0.028614100065827368,-0.22252733727321028
1744402112745220000,6.05622021484375,0.3269809605687857,-0.03839811971634626,-0.4652678068179637
1744402112755194000,6.066194091796875,0.07063888584673404,-0.10392331581115723,-0.6358176310293376
1744402112765167400,6.07616748046875,-0.23218378502130507,-0.34816315706819295,-0.6097638099055737
1744402112775140000,6.08614013671875,-0.5498229167491198,-0.6752230280920862,-0.49891003724411126
1744402112785113000,6.096113037109375,-1.0767179623752832,-0.9592053894117474,-0.8146661317043006
1744402112795086000,6.106086181640625,-1.4689584538400173,-1.1098618148252368,-1.316349140793085
1744402112805060000,6.11606005859375,-1.8279256212562323,-1.2073071667939423,-1.87753867020905
1744402112815033000,6.126033203125,-2.253091646245122,-1.3185931203275918,-1.9754082389391958
1744402112825006300,6.13600634765625,-2.3105361194759606,-1.4423437108978627,-1.5493807748153805
1744402112834979000,6.14597900390625,-1.990151488432288,-1.7112629431203006,-0.7398561707179993
1744402112844952000,6.1559521484375,-1.7707330769598484,-1.9836735245898365,0.36707192874290046
1744402112854926000,6.165926025390625,-1.8193752350538968,-2.3490192871272564,1.3505873643510042
1744402112864899000,6.175899169921875,-1.8992501512795685,-2.6543019183680414,2.306727082581818
1744402112874872300,6.185872314453125,-2.3075462900102135,-2.839805493018031,2.7175892724081874
1744402112884845000,6.195844970703125,-2.791217695459723,-2.8096880026519298,2.519062257795036
1744402112894818000,6.205818115234375,-3.1263194186419248,-2.5928791891559957,2.1954648021847007
1744402112904791000,6.215791015625,-3.4242227532863616,-2.3409993545398113,1.9619497685596345
1744402112914765000,6.22576513671875,-3.6998932133346796,-2.0379770694464443,1.8445473779723047
1744402112924738000,6.235738037109375,-3.833066004505753,-1.8789061591699718,1.8311330389954148
1744402112934711300,6.245711181640625,-3.855516321244836,-1.6464192995488642,1.9719404166981576
1744402112944684000,6.25568408203125,-3.7234330788761376,-1.337047060906887,2.194390450951457
1744402112954657000,6.265656982421875,-3.405073816180229,-0.9456982575848698,2.222674880671501
1744402112964631000,6.275631103515625,-2.9346330637037754,-0.6279971665367484,2.0039105491936207
1744402112974604000,6.28560400390625,-2.257602401667833,-0.314445596383512,1.8782750216595827
1744402112984577300,6.295577392578125,-1.843442923861742,-0.09547346737384796,1.9469434842161832
1744402112994550300,6.30555029296875,-1.688033750963211,0.18033815471082926,2.125118907935172
1744402113004523000,6.31552294921875,-1.658771416121721,0.5390957710295915,2.5182182081863282
1744402113014497000,6.3254970703125,-1.7809674707263707,0.8372825987905264,2.736855113892257
1744402113024470000,6.335469970703125,-1.8867232626616954,1.0653554413616657,2.749261006478965
1744402113034443300,6.345443359375,-1.9312340200394391,1.2610811348184943,2.748520709505677
1744402113044416300,6.355416259765625,-1.7017589094549417,1.4681751945078372,2.8043682689338922
1744402113054389200,6.36538916015625,-1.2013140638589859,1.623107397544384,2.9701588428542016
1744402113064363300,6.37536328125,-0.5291653286457062,1.7070114231556652,3.1544495345830916
1744402113074336000,6.3853359375,0.2903612487018108,1.8113722536012529,3.2600738090932366
1744402113084309000,6.39530908203125,1.009670963540673,1.893723204551637,3.264428497171402
1744402113094282200,6.4052822265625,1.5668658703625202,2.0383865270301698,3.3260198609486222
1744402113104255200,6.415255126953125,2.142282078051567,2.208931309740245,3.345608066254854
1744402113114229200,6.425229248046875,2.553681443494558,2.3218162229031325,3.202543411144614
1744402113124202000,6.435201904296875,2.827363360074162,2.4811019449740646,2.9429467185407874
1744402113134175000,6.445175048828125,3.0615386111736296,2.632217220070958,2.58697785615772
1744402113144148200,6.455148193359375,3.107162882751226,2.7080399382963773,2.2581122508861124
1744402113154121200,6.465121337890625,3.012989976581931,2.7935782871112225,1.9865597475506365
1744402113164095200,6.47509521484375,2.9490789376854893,2.8353321469962594,1.735815931227058
1744402113174068200,6.485068115234375,2.9210101965427397,2.78668268237859,1.4147548622265458
1744402113184041000,6.495041015625,2.9676977134376763,2.7277143605813383,1.1574427734285593
1744402113194014000,6.505013916015625,2.932099745833874,2.648653391087055,1.0663388994410634
1744402113203987200,6.5149873046875,2.770313439118862,2.550741298389435,1.1146000953935087
1744402113213960200,6.524960205078125,2.70326994741559,2.515772276338935,1.129251136558503
1744402113223934200,6.534934326171875,2.8711475567430256,2.4231550751790403,0.9287988529711961
1744402113233907200,6.5449072265625,3.1786405575096603,2.310811429286003,0.6014601650059223
1744402113243880000,6.5548798828125,3.3551977323770523,2.2887752463057636,0.18513956364318726
1744402113253853200,6.564853271484375,3.3141064280539747,2.242209602224827,-0.07479293678626418
1744402113263826200,6.574826171875,3.104007633590698,2.2109172228604552,-0.10163038256838917
1744402113273800200,6.58480029296875,2.8024779251426457,2.219534829080105,-0.16253201051577926
1744402113283773200,6.594773193359375,2.503223760411143,2.2915090551838277,-0.22935163033530115
1744402113293746200,6.60474609375,2.2543232338666916,2.303131396177411,-0.06700549778044224
1744402113303719200,6.61471923828125,2.1747861712932584,2.2015265864416955,0.1632926196247339
1744402113313692200,6.624692138671875,2.265754728463292,2.1550749241292477,0.3512758822612464
1744402113323666200,6.634666259765625,2.405716741383076,2.0824460335090755,0.40976299641281366
1744402113333639200,6.64463916015625,2.513134913572669,1.9337828277394173,0.3893047302737832
1744402113343612200,6.654612060546875,2.5455618499249217,1.7250640894576905,0.36542306555733084
1744402113353585200,6.664585205078125,2.345270748248696,1.4729273574709891,0.2782334424041211
1744402113363558100,6.67455810546875,1.857066375544667,1.2470306898951529,0.05429126989692449
1744402113373532200,6.6845322265625,1.222768939819932,1.054444755768776,-0.15989771648943424
1744402113383505200,6.694505126953125,0.4544868120193481,0.8726663391217588,-0.32029198432415723
1744402113393478100,6.70447802734375,-0.39506256314814087,0.707715723156929,-0.4812925474889576
1744402113403451100,6.714451171875,-1.0446557676821946,0.4487307327106595,-0.6557219165474176
1744402113413424000,6.724424072265625,-1.480713773563504,0.11368395458608865,-0.7100849365063011
1744402113423398100,6.734398193359375,-1.6782880174964665,-0.16164222206920384,-0.6491949989967047
1744402113433371100,6.74437109375,-1.7680565512269735,-0.41874972820580003,-0.6305183555774391
1744402113443344100,6.75434423828125,-1.707093840742111,-0.7482906023904681,-0.6228567349083721
1744402113453317000,6.764317138671875,-1.5781372059613465,-1.0540163012236357,-0.5100897490367293
1744402113463290000,6.7742900390625,-1.6545424002498388,-1.353498429492116,-0.40851606509163974
1744402113473263000,6.78426318359375,-1.7735411201179025,-1.6474048034548758,-0.38625893283709883
1744402113483237000,6.794237060546875,-1.718261715966463,-1.8704644940391182,-0.48106926012709733
1744402113493210000,6.804210205078125,-1.57096921402812,-2.0209832645475863,-0.6123270114570856
1744402113503183000,6.81418310546875,-1.2822148160010576,-2.1789234172284604,-0.7745084549695253
1744402113513156000,6.824156005859375,-0.929782018789649,-2.3652070363402364,-0.7670340274356305
1744402113523129300,6.83412939453125,-0.5909165591597557,-2.4826667100727557,-0.6584171469807625
1744402113533103000,6.84410302734375,-0.30778409266769885,-2.553881642241776,-0.573543399554491
1744402113543076000,6.854076171875,-0.11720248410105705,-2.671598797866702,-0.4419309895679354
1744402113553049000,6.864049072265625,0.07196750410199165,-2.7281337550371885,-0.24502368511110542
1744402113563022000,6.87402197265625,0.1963940942376852,-2.719014044514298,-0.16964929517507552
1744402113572995000,6.8839951171875,0.09347732512056826,-2.671082080516219,-0.085907766649127
1744402113582969000,6.893968994140625,-0.2558189276307821,-2.4762200181514022,0.15467793601453303
1744402113592942300,6.9039423828125,-0.7440729846954345,-2.280989999257028,0.36312852487936614
1744402113602915000,6.9139150390625,-1.2695891431838273,-1.9684999208554623,0.5154682272046804
1744402113612888000,6.92388818359375,-1.734722436901927,-1.6707006311073898,0.5866844745479524
1744402113622861000,6.933861083984375,-1.9795780719697473,-1.4127411843165754,0.6194906194761395
1744402113632835000,6.9438349609375,-1.7692209188312291,-1.2424220270559192,0.6312357100665569
1744402113642808300,6.953808349609375,-1.2109563369512557,-1.1888082180291413,0.6392440983466804
1744402113652781000,6.963781005859375,-0.5647627117276192,-1.2630688015043734,0.6152800160437822
1744402113662754000,6.973754150390625,-0.06919219416975975,-1.3930097711473703,0.7278551326051353
1744402113672727000,6.98372705078125,0.1834668081253767,-1.298299689361453,0.9657602178826927
1744402113682701000,6.993701171875,0.04769698619842529,-0.8641267665743827,1.4478778180189429
1744402113692674000,7.003674072265625,-0.5354010081648827,-0.15694558868557215,1.9336121473476289
1744402113702647300,7.013647216796875,-1.3217267421782015,0.5727379283905029,2.2489600993983445
1744402113712620000,7.0236201171875,-2.029385766711831,1.3821250967785714,2.0792259024187922
1744402113722593000,7.033593017578125,-2.1829963657557965,1.962500972701609,1.6672390924766658
1744402113732567000,7.043567138671875,-1.9036703058093785,2.187537808577716,1.2205243757635353
1744402113742540000,7.0535400390625,-1.268168754991889,2.2535724154993892,0.8216047718610614
1744402113752513300,7.06351318359375,-0.5953653552621603,2.22415985853225,0.49322768075875933
1744402113762486300,7.073486328125,-0.07387889068126678,2.11817142688483,0.11747070658318698
1744402113772459000,7.083458984375,0.38271921440362927,2.0948788141027093,-0.1558732102137059
1744402113782432000,7.093431884765625,0.610940525534749,2.060018513123691,-0.14268654251284896
1744402113792406000,7.103406005859375,0.6397948640972375,1.996317317585647,-0.006348638374358415
1744402113802379000,7.11337890625,0.7414958276838064,1.9107777997270226,0.1185718727581203
1744402113812352300,7.123352294921875,0.8410159400999545,1.8974743737787008,0.22298472565189004
1744402113822325200,7.1333251953125,1.0018640891820192,1.8011936816751957,0.37409890477024016
1744402113832298000,7.143298095703125,1.0950883163243532,1.593971903952956,0.557716154216975
1744402113842272000,7.15327197265625,1.1746446681201457,1.4546715698122978,0.7684781618293375
1744402113852245000,7.163244873046875,1.201481237119436,1.339564596685767,0.8807013231478631
1744402113862218200,7.17321826171875,1.2116454882591963,1.2598416561514139,0.827192070474103
1744402113872191200,7.183191162109375,1.3081833699941634,1.2165160169050098,0.7465687470339238
1744402113882164200,7.193164306640625,1.5331658453345298,1.1532321699962018,0.6613983547486364
1744402113892138200,7.20313818359375,1.6623551198273896,1.0450684401363133,0.5740763373874127
1744402113902111000,7.213111083984375,1.6480027693480253,0.8701751068279147,0.446082410158962
1744402113912084200,7.223084228515625,1.5886545083224772,0.722693512058258,0.3022911212746054
1744402113922057200,7.23305712890625,1.537160467928648,0.6571449350878595,0.127820031966269
1744402113932030200,7.2430302734375,1.482013750246167,0.582831160120666,0.049050154373049736
1744402113942004200,7.253004150390625,1.4242974743366241,0.5370166266679763,0.029093627211079
1744402113951977000,7.26297705078125,1.3182137656211852,0.5187745752736925,-0.10942132870554923
1744402113961950000,7.272949951171875,1.1930196982443333,0.5599918440639973,-0.29688144425079227
1744402113971923200,7.282923095703125,1.11538583894372,0.6429632650002837,-0.4232449937984347
1744402113981896200,7.292896240234375,1.0381190593898295,0.6776695444613695,-0.5456340867571532
1744402113991870200,7.3028701171875,0.9700672674268483,0.6567144347161055,-0.5731723012197762
1744402114001843200,7.31284326171875,0.8379542144417762,0.6400280883312225,-0.4575551866140216
1744402114011816000,7.32281591796875,0.7672545383185148,0.569925209057331,-0.4529225583773106
1744402114021789200,7.3327890625,0.7288152098089457,0.493920704524219,-0.40001908957697446
1744402114031762200,7.34276220703125,0.529236640316248,0.43634062221497294,-0.2896333728186786
1744402114041736200,7.352736083984375,0.3088970223456621,0.4418316208466887,-0.1388617235276848
1744402114051709200,7.362709228515625,0.05611117880046367,0.3539443708181381,-0.020676511999592185
1744402114061682200,7.37268212890625,-0.2487000355362892,0.20013152720034122,0.04146970918141305
1744402114071655000,7.382655029296875,-0.4241360974192619,0.018457155449688435,0.09376067210659385
1744402114081628200,7.392628173828125,-0.49053018530309195,-0.17274492310285566,0.1987671069793403
1744402114091601200,7.40260107421875,-0.43291035550534723,-0.42099779939353466,0.23385098758116363
1744402114101575200,7.4125751953125,-0.21115210290849207,-0.698081048849225,0.17896145953014492
1744402114111548200,7.422548095703125,0.05335574261248111,-0.9824021406039595,0.2133678792618215
1744402114121521200,7.432521240234375,0.07839549132287502,-1.2455807833477854,0.29618432883210477
1744402114131494100,7.442494140625,-0.010316811352968216,-1.3528265215799211,0.522278564806655
1744402114141467100,7.452467041015625,-0.14221709837019442,-1.4251397703796624,0.7057817594196647
1744402114151441200,7.462441162109375,-0.2741138782560825,-1.5069383481442928,0.8784939492966979
1744402114161414100,7.4724140625,-0.3121183224797249,-1.5408178213924169,1.0897192635718733
1744402114171387100,7.48238720703125,-0.2732686596035957,-1.5619176003053783,1.3275221305839717
1744402114181360000,7.492360107421875,-0.12642974665164947,-1.5639187109947204,1.4615546073243022
1744402114191333000,7.5023330078125,0.17244564789533615,-1.5010428603649137,1.4908368159100411
1744402114201307100,7.51230712890625,0.3647527650803327,-1.3881585317239165,1.4195279218472538
1744402114211280100,7.522280029296875,0.40148645871579647,-1.2568529957294463,1.3141044306062162
1744402114221253000,7.532253173828125,0.24515491027534006,-1.0722472467020154,1.0744674800347536
1744402114231226000,7.54222607421875,-0.007227613165974617,-0.8311372279033065,0.892499970556423
1744402114241199400,7.552199462890625,-0.23662848947048185,-0.7322337860807776,0.8251854798920452
1744402114251173400,7.56217333984375,-0.3899181859970093,-0.6762836430609226,0.8033748492959887
1744402114261146400,7.572146484375,-0.6060907474160194,-0.6203352536067366,0.8499116326086222
1744402114271119400,7.582119384765625,-1.0012444959789515,-0.5005401226639747,1.1094521380458027
1744402114281092000,7.592092041015625,-1.4679086525261402,-0.3635670624271035,1.4706968219399452
1744402114291065300,7.6020654296875,-1.926517512911558,-0.2566048173114657,1.746726324559003
1744402114301039000,7.6120390625,-2.3171219276070594,-0.06283318053185939,1.7854517765335738
1744402114311012400,7.622012451171875,-2.7051141139775514,0.19391981307864187,1.7198669592060147
1744402114320985300,7.6319853515625,-3.0197195770978924,0.36486645458787675,1.5596198447570204
1744402114330958300,7.641958251953125,-3.1108482932657,0.5131964828804135,1.2850091228947043
1744402114340931000,7.65193115234375,-3.0543449002772567,0.5579845958948135,0.8960174040928482
1744402114350904300,7.661904296875,-2.9489836606174706,0.5767573931649327,0.7267912297006696
1744402114360878300,7.67187841796875,-2.870883352848887,0.6295329978018999,0.8512209616415202
1744402114370851300,7.681851318359375,-2.734296369320154,0.7913982149720191,1.250230947241187
1744402114380824300,7.69182421875,-2.4752830295622346,0.9627084290966391,1.7395011956110595
1744402114390797000,7.701797119140625,-2.0194290208429098,1.122407115882635,2.1558128830149768
1744402114400770300,7.711770263671875,-1.3387445124745367,1.2526727874353527,2.426132775815576
1744402114410744000,7.721744140625,-0.3859866917669773,1.247431671911478,2.529509417529404
1744402114420717300,7.73171728515625,0.6283908420294523,1.2420932334929704,2.499730949859321
1744402114430690300,7.741690185546875,1.4292647413551807,1.2770040956154465,2.5303286249577996
1744402114440663300,7.751663330078125,2.0505787768661974,1.3270295247614383,2.518598439675569
1744402114450636000,7.761635986328125,2.3920652326494456,1.414226746699214,2.4820231514722106
1744402114460610000,7.771610107421875,2.48428115953207,1.5297081060960889,2.4630679833725093
1744402114470583300,7.781583251953125,2.403716507476568,1.714289305204153,2.4525492197066545
1744402114480556300,7.791556396484375,2.227404247280955,1.8478417433425782,2.391648176281154
1744402114490529300,7.801529296875,2.070826030603051,1.9105901682004331,2.2884859079703688
1744402114500502300,7.811502197265625,1.9352935245633125,1.948638451565802,2.1449404836058616
1744402114510476300,7.821476318359375,1.992648565945029,1.958882782204449,1.8824030613750218
1744402114520449300,7.83144921875,2.1783155144631863,1.890879213297367,1.6800877603948114
1744402114530422300,7.84142236328125,2.3572879337787627,1.7343489274144173,1.4984849925756454
1744402114540395300,7.851395263671875,2.396418751683831,1.5353469887658953,1.3235704703487454
1744402114550368300,7.8613681640625,2.2586305756717917,1.262379357935488,1.301632340915501
1744402114560342300,7.87134228515625,1.8975468544930219,1.0139613542109727,1.457579420083016
1744402114570315300,7.881315185546875,1.4911241084188223,0.6795128342404961,1.461740046893805
1744402114580288300,7.891288330078125,1.2522311811476945,0.34375907689034935,1.32720342002362
1744402114590261200,7.90126123046875,1.0471107596188782,0.11864186925441025,1.1186527317851782
1744402114600234200,7.911234130859375,0.7637246106266975,-0.03436521093845367,0.8366658551316708
1744402114610208300,7.921208251953125,0.5788035120397805,-0.17048253112882375,0.54522747871764
1744402114620181200,7.93118115234375,0.5741548094511032,-0.3570841301485896,0.1947430390950292
1744402114630154500,7.941154541015625,0.7453928351223469,-0.5847317330449819,-0.1154753680475056
1744402114640127200,7.951127197265625,0.9989157607704401,-0.751502257913351,-0.3124892746839672
1744402114650100200,7.961100341796875,0.9518605796068906,-0.8799581035651266,-0.2950968258563429
1744402114660073200,7.9710732421875,0.7812035686939954,-1.0190231676451862,0.006605901071056723
1744402114670047200,7.981047119140625,0.5689046338379383,-1.0886287649214268,0.3794843241356313
1744402114680020200,7.991020263671875,0.37226387136280537,-1.136901066789776,0.5028842746373265
1744402114689993200,8.0009931640625,0.337282574352622,-1.1749987422548234,0.39531149640791113
1744402114699966200,8.01096630859375,0.4280757749557495,-1.2379396209448574,0.19430296717733145
1744402114709939200,8.020939208984375,0.4335135820955038,-1.4071649916194378,-0.007399097275361418
1744402114719913200,8.030913330078125,0.30919688207507134,-1.6077996460363269,-0.09985365521945058
1744402114729886200,8.04088623046875,0.34583880577385423,-1.7720928210057316,-0.07716792228929698
1744402114739859500,8.050859375,0.4775485386550426,-1.9271505501180886,0.06650478171668946
1744402114749832200,8.060832275390625,0.5882213287264109,-2.016003284177929,0.20901845188066362
1744402114759805200,8.07080517578125,0.751000738132,-2.0897190932519734,0.32565986803285774
1744402114769779200,8.080779296875,0.9646867434322833,-2.1274510041445494,0.3417097431451082
1744402114779752200,8.090752197265624,1.087680670416355,-2.149466582728177,0.23044461320377885
1744402114789725200,8.10072509765625,1.2555588642656803,-2.1748349788710475,0.059262774699181314
1744402114799698400,8.110698486328126,1.3516402344048022,-2.21080587144047,-0.07355784203335643
1744402114809671200,8.120671142578125,0.9585913491666317,-2.183211908202618,-0.1969429602921009
1744402114819645200,8.130645263671875,0.309509016764164,-1.9733510141484438,-0.3452701390404254
1744402114829618200,8.1406181640625,-0.4352361681044101,-1.8156110602147877,-0.45980004293136295
1744402114839591200,8.150591064453126,-1.0561258407235146,-1.6832907942198216,-0.4132071455173194
1744402114849564400,8.160564453125,-1.5851391936779022,-1.5980682333558798,-0.3491558944325894
1744402114859537400,8.170537353515625,-2.059263603103161,-1.611954719889164,-0.2506568686924875
1744402114869511400,8.180511474609375,-2.312660856544971,-1.6094361611969767,-0.11328494533114135
1744402114879484200,8.190484130859375,-2.240034596273303,-1.6631303419835866,-0.054683703280612825
1744402114889457200,8.20045703125,-1.8546341799616812,-1.8201099790692328,-0.14514993695169687
1744402114899430400,8.210430419921876,-1.328914023333788,-2.009304663322121,-0.3435762676693499
1744402114909403400,8.2204033203125,-1.1702911490857602,-2.119639161349833,-0.35107751014493405
1744402114919376100,8.230376220703125,-1.5596084465801714,-2.1735076757900416,-0.12463263410180807
1744402114929350100,8.24035009765625,-2.233435928660631,-2.077064632731676,0.132613111461699
1744402114939323100,8.2503232421875,-3.036830286374688,-1.8381790119841694,0.28184717592187225
1744402114949296000,8.260296142578126,-3.6267093191802497,-1.5568354747354984,0.45874256976768374
1744402114959269400,8.270269287109375,-3.9661622233092784,-1.1082504341058432,0.6532216241642832
1744402114969242400,8.280242431640625,-4.219404578450322,-0.47547816212177274,0.7554276877287774
1744402114979216400,8.29021630859375,-4.341617584189772,0.19393968682289123,0.6615996494743973
1744402114989189000,8.300189208984374,-4.044419767466187,0.80675024401322,0.4976651882821694
1744402114999162000,8.310162109375,-3.428873209440708,1.2381966644458473,0.3307242752829566
1744402115009135400,8.32013525390625,-2.539307465705275,1.5023464903093873,0.21537015899494288
1744402115019108400,8.3301083984375,-1.4791180288046597,1.663975414505601,0.13648147732764482
1744402115029082400,8.340082275390625,-0.599194558161497,1.8079139298409221,0.027205183115974068
1744402115039055400,8.350055419921874,0.006027005204558372,1.9195352528087795,-0.19942363465931265
1744402115049028000,8.360028076171876,0.37479017497003075,1.966353848737478,-0.4423430775001645
1744402115059001000,8.3700009765625,0.5217834017008542,2.0357704993128776,-0.5822093384278938
1744402115068974300,8.379974365234375,0.4941507138878107,2.1225340060085056,-0.716790717755258
1744402115078948400,8.3899482421875,0.42442543575465674,2.1395365787357092,-0.8005600841362028
1744402115088921300,8.39992138671875,0.3778600839346647,2.151208750220388,-0.790659963825345
1744402115098894300,8.409894287109376,0.45518414663374424,2.166691858295351,-0.4861353478776291
1744402115108867000,8.4198671875,0.6962889047354459,2.102891732427478,-0.17487727722274138
1744402115118840300,8.42984033203125,1.1287497629076242,2.0035452230125665,0.0860542259151116
1744402115128814300,8.439814453125,1.6271429366707801,1.8780881207853555,0.2959491135704331
1744402115138787300,8.449787353515624,2.182853742414713,1.7062179346904158,0.39436888179555535
1744402115148760300,8.45976025390625,2.667286779886484,1.5651161040857433,0.4559466554388404
1744402115158733300,8.4697333984375,2.8958476982355115,1.3943319596618413,0.43255598910972476
1744402115168706300,8.479706298828125,2.871719219151139,1.2415125109955667,0.3354383712580427
1744402115178679300,8.48967919921875,2.4882354501157997,1.2077619248241185,0.25405929754711687
1744402115188653300,8.4996533203125,2.069185277658701,1.1627934868067502,0.22687829902432857
1744402115198626300,8.509626220703124,1.9114403552889823,1.1196443731710315,0.1653171111896634
1744402115208599300,8.519599365234376,1.9549919122457504,1.0272615652889012,0.2672961427989416
1744402115218572000,8.529572021484375,2.1002420947015286,0.8446706632152199,0.36624757021535187
1744402115228545000,8.539544921875,2.3847657232910393,0.7244321724191307,0.29911197978183623
1744402115238519000,8.54951904296875,2.67326176264286,0.5774941830068826,0.22727562777884303
1744402115248492000,8.559491943359374,2.692313084593415,0.4740454989701509,0.2356906423647888
1744402115258464800,8.56946484375,2.4748574976265427,0.4461310716062784,0.25549216162813826
1744402115268437800,8.579437744140625,2.1328397114455697,0.4457672067299485,0.2504696024920791
1744402115278411000,8.589410888671875,1.7375737346798181,0.42106823428124185,0.1580384254235774
1744402115288385000,8.599385009765625,1.190524374297261,0.4001980263404548,0.026534544712258502
1744402115298358000,8.60935791015625,0.7042863332301378,0.3867928935833275,0.051024979843664914
1744402115308331000,8.6193310546875,0.3590717968344688,0.3083877576492727,0.16384221633151172
1744402115318303700,8.6293037109375,0.10201485184133052,0.26313363455832,0.2384568008761853
1744402115328277000,8.639277099609375,0.008834463840723037,0.2125476489201188,0.2787793310501613
1744402115338250800,8.649250732421875,0.06459434498548507,0.06623641310408711,0.2054164270670153
1744402115348224000,8.65922412109375,0.06093289986848831,-0.08022460644617677,0.11075573738077654
1744402115358197000,8.669197021484376,-0.0755295804977417,-0.2481032386869192,0.025788057743490207
1744402115368170000,8.679169921875,-0.26037761384844776,-0.37454496803730725,-0.08234488653577864
1744402115378142700,8.689142822265625,-0.4756055878937244,-0.5151901409156621,-0.1597519696095027
1744402115388116000,8.699115966796874,-0.6760854901403188,-0.6319755686484276,-0.24067509798016398
1744402115398090000,8.709090087890624,-0.8399562019139528,-0.7772153758406639,-0.29211092364704233
1744402115408063000,8.71906298828125,-0.9540180499017238,-0.8875397908657788,-0.3251707693416625
1744402115418036000,8.729035888671875,-1.0522487070292235,-1.0652600181631744,-0.2722903160907328
1744402115428009000,8.739009033203125,-1.1436544865727425,-1.2168814892165363,-0.18278105435092
1744402115437982000,8.74898193359375,-1.1664572700113058,-1.3080129818633197,-0.09323423707969486
1744402115447956000,8.7589560546875,-1.22085170802176,-1.3957058783635496,-0.0043223384448327126
1744402115457929000,8.768928955078126,-1.2891110052555799,-1.4346638239197431,0.10949731655120849
1744402115467902000,8.77890185546875,-1.2887111922830343,-1.473406957681477,0.27815818521082397
1744402115477875000,8.788875,-1.2439461678832768,-1.5247789791308342,0.49006333497632293
1744402115487847700,8.79884765625,-1.4891057543337345,-1.5333276117675005,0.678143153322488
1744402115497821700,8.80882177734375,-2.147057621890306,-1.4999742082200944,0.775216384043172
1744402115507795000,8.818794921875,-3.0054765322118997,-1.2770575793683527,0.918218714506924
1744402115517768000,8.828767822265625,-3.6654368169814346,-1.0955142866514622,0.9677616208329797
1744402115527741000,8.838740966796875,-3.9947336532771587,-1.1058102013468742,0.7601443409871309
1744402115537714000,8.8487138671875,-3.857379192507267,-1.2785785053253174,0.4131352858575061
1744402115547688000,8.85868798828125,-3.411479591569304,-1.6039928010992706,0.1396644182126969
1744402115557661000,8.868660888671876,-3.16868264259696,-1.8973921023227274,-0.1567421750679612
1744402115567634000,8.878634033203125,-3.5227421642273664,-2.112444427540153,-0.5194306645622476
1744402115577607000,8.88860693359375,-4.588429029500484,-2.079505888403952,-0.767625782783702
1744402115587580000,8.898579833984375,-6.115445704555511,-1.6751511807754635,-0.5977404868956655
1744402115597554000,8.908553955078125,-7.694384290027618,-1.0984092043753713,-0.07975085145458578
1744402115607527000,8.91852685546875,-8.617958101826906,-0.516010809648782,0.44167993741631506
1744402115617500000,8.9285,-8.735696007978916,0.06905797333084046,0.7934785283774137
1744402115627473000,8.938472900390625,-7.945431765472889,0.5105106047973037,0.9290081118077039
1744402115637446000,8.94844580078125,-6.350221844157576,0.7859037092089652,1.086563649085164
1744402115647419000,8.9584189453125,-4.646073409217596,0.8872384698316454,1.57169635925889
1744402115657393000,8.968392822265624,-3.175149792784452,0.9037785396136343,1.9016192184984684
1744402115667366100,8.9783662109375,-2.0335043079465627,1.1114340325780212,2.086253316837549
1744402115677339000,8.9883388671875,-1.3230191200762986,1.4154969127655028,2.2552786348953844
1744402115687312000,8.998311767578125,-0.9306108708292246,1.8142625682152806,2.435220483765006
1744402115697284900,9.008284912109374,-0.6221463946819306,2.2094214313447473,2.6055080768436194
1744402115707259000,9.0182587890625,-0.24418811106979846,2.575067345872521,2.779785908602178
1744402115717231900,9.02823193359375,0.3019733605623245,2.8632798921078444,2.8913530171647666
1744402115727205000,9.038205078125,0.9404267469227313,3.069654113090038,2.920550762337446
1744402115737177900,9.048177734375,1.5684557699024677,3.125329238560796,3.0057676241129636
1744402115747150800,9.05815087890625,2.208266416090727,3.0890844974860547,3.0352383410081267
1744402115757124900,9.068124755859374,2.9097499668598172,3.062339698423445,2.9242800119936465
1744402115767097900,9.078097900390626,3.5344565674185753,3.017529081316292,2.742101490113139
1744402115777071000,9.088071044921875,3.99452556348443,2.9584578836664557,2.5414143748566507
1744402115787043800,9.0980439453125,4.2345466180026525,2.9756460420936346,2.3869398524597285
1744402115797016800,9.108016845703125,4.409451349487901,2.9568910727411506,2.19969118770808
1744402115806990800,9.117990966796874,4.470210646355152,2.883524807757139,1.9001003383681176
1744402115816963800,9.1279638671875,4.377584969627857,2.862484065555036,1.6185431583687662
1744402115826937000,9.13793701171875,4.357760909739136,2.640560685524344,1.2921277227282524
1744402115836910000,9.14791015625,4.469084272673726,2.326057221473753,1.0283641197033226
1744402115846882800,9.1578828125,4.666220709711313,1.9997817788258194,0.7809370267122984
1744402115856855800,9.167855712890624,4.997950326111912,1.7607380449071526,0.45764644509404895
1744402115866829800,9.177829833984376,5.306178655415773,1.5781725695356725,0.11282200399450958
1744402115876802800,9.187802734375,5.369044569173455,1.4000801479250191,-0.2354857491761446
1744402115886776000,9.197776123046875,5.140051689147949,1.2996727312803267,-0.4888100104469806
1744402115896749000,9.2077490234375,4.831661447280645,1.19541273086071,-0.587510915434733
1744402115906721800,9.2177216796875,4.42121952869296,1.0635486842006445,-0.6735855630833655
1744402115916695800,9.22769580078125,3.915639658296108,0.8954580166444182,-0.7703733279261737
1744402115926668800,9.237668701171875,3.4490380455911156,0.7227189387604593,-0.8797330626375973
1744402115936642000,9.24764208984375,3.0512422580868006,0.6105415893450379,-0.9936419120207428
1744402115946615000,9.257614990234375,2.5331845989108084,0.5695362097397446,-1.191251446462795
1744402115956588000,9.267588134765624,1.914630091241002,0.45209056453257795,-1.3932621384732424
1744402115966562000,9.27756201171875,1.3910223967224358,0.2885606290206313,-1.470278158136457
1744402115976534800,9.28753466796875,0.7594330509126186,0.1316882517017424,-1.357216134840995
1744402115986507800,9.2975078125,-0.2700467749476433,-0.05540419957488775,-1.1286857577607035
1744402115996481000,9.30748095703125,-1.4614976164400577,-0.24263196766898035,-1.0336584267191589
1744402116006454000,9.3174541015625,-2.8255986884891984,-0.376473890273273,-1.1871857313938439
1744402116016428000,9.327427978515624,-4.20471203623116,-0.39172494315803047,-1.470256969217956
1744402116026400800,9.33740087890625,-5.214284800094366,-0.4909874275512993,-1.6457015066683292
1744402116036373800,9.347373779296875,-5.629457838857173,-0.6187279645405709,-1.4494212480686604
1744402116046347000,9.357346923828125,-5.475255703660846,-0.8236249525770545,-1.1258692390352487
1744402116056320000,9.367320068359374,-4.801675474339723,-1.1659379223123192,-0.8200541083529591
1744402116066294000,9.3772939453125,-3.948727104383707,-1.756116960977763,-0.457656162770465
1744402116076267000,9.38726708984375,-3.2381419632703063,-2.290718050936609,-0.24482056375443934
1744402116086239700,9.39723974609375,-2.981840220558643,-2.352458906187117,-0.15521982433889062
1744402116096212700,9.407212646484375,-3.0943951711148023,-2.250168744535744,-0.2915377086026594
1744402116106186000,9.41718603515625,-3.223394475993514,-2.070041017705202,-0.556036676697433
1744402116116159000,9.427158935546874,-3.238815917009115,-1.9480637204177675,-0.9542712209451943
1744402116126133000,9.437133056640626,-3.364519102951884,-1.898522129265964,-1.7246517092645168
1744402116136106000,9.44710595703125,-3.246349235123396,-1.8323659417912364,-2.5414742883503436
1744402116146078700,9.45707861328125,-2.786311218717694,-1.712474364736676,-2.9641052419036624
1744402116156052000,9.467052001953125,-2.3472996237277983,-1.5005892713785172,-2.9574527982771395
1744402116166025000,9.47702490234375,-1.8640198479443788,-1.011828653031215,-2.519611416110396
1744402116175999000,9.4869990234375,-1.226196576181054,-0.445559774524346,-1.8914784943647682
1744402116185972000,9.496971923828125,-0.7828092503249645,-0.02612535199001431,-1.3316088153757155
1744402116195945000,9.506945068359375,-0.640334962323308,0.4699916204694658,-0.812199741590768
1744402116205918000,9.51691796875,-0.8564443953782319,0.9860045490100979,-0.5155624813593924
1744402116215891000,9.526890869140624,-1.3864052583158015,1.381724699284136,-0.4944033734746277
1744402116225865000,9.536864990234376,-1.874689125996828,1.6538051720164715,-0.6101705640755594
1744402116235837700,9.546837646484375,-2.063632319706678,1.8634578301474451,-0.8242018756821751
1744402116245810400,9.556810546875,-1.9081950897574425,1.9632764871187507,-1.1465107527866958
1744402116255783700,9.56678369140625,-1.4600713830292225,1.9729894873596727,-1.2831658331155775
1744402116265756700,9.576756591796874,-0.7247919456422328,1.9069101645134388,-1.1749538071345538
1744402116275730700,9.586730712890626,0.09848726223707198,1.798057721737027,-1.015352224047482
1744402116285703700,9.59670361328125,0.9744453363806008,1.6136270370155572,-0.830200969966501
1744402116295676700,9.6066767578125,1.702345769432187,1.454363234515488,-0.6160556035261601
1744402116305649400,9.6166494140625,2.0569804606020448,1.3240098846793174,-0.6046123819591477
1744402116315622700,9.62662255859375,2.2007231611043214,1.2448622598148882,-0.5565644634312018
1744402116325595600,9.636595703125,2.245444930884242,1.3214485097587108,-0.49495147234406317
1744402116335569700,9.646569580078125,2.2227198888570068,1.3657956010073422,-0.49839288150221106
1744402116345542700,9.656542724609375,2.1054086836844683,1.3811546443112195,-0.5412818463644012
1744402116355515600,9.666515625,2.0663339798808096,1.4153389457248151,-0.5973688405716792
1744402116365488600,9.676488525390624,2.0911966184586284,1.38245447486341,-0.7052670148305594
1744402116375461600,9.686461669921876,2.1719980018794534,1.2550924157977104,-0.7550936334688216
1744402116385435600,9.696435546875,2.248967259791493,1.1585244311854244,-0.6629909577023237
1744402116395408600,9.70640869140625,2.3294342966914177,1.0325798377022146,-0.6312544147670268
1744402116405381600,9.716381591796875,2.3745190545648334,0.8546186412557959,-0.5099256445161998
1744402116415354600,9.726354736328124,2.3289625875264406,0.6252959447540343,-0.27333153223935513
1744402116425327600,9.73632763671875,2.1311866835415363,0.5572065972596406,0.1435177326399833
1744402116435301600,9.746301513671876,2.159143781003356,0.8508915835566818,0.2967886514008045
1744402116445274600,9.756274658203125,2.737489027881622,1.3141316108740866,0.0793955534772016
1744402116455247600,9.76624755859375,3.0988556576550006,1.5897745983935891,-0.4639540208056569
1744402116465220600,9.776220703125,2.4921435634702442,1.4499373808972538,-1.1719506067305803
1744402116475193900,9.78619384765625,1.1101777489066122,1.0847476857043803,-1.786215015991032
1744402116485167600,9.796167724609376,-0.09503215334713458,0.9535195988602936,-1.988829299917817
1744402116495140600,9.806140625,-0.7393459561735392,0.9517350535310805,-1.944602620178461
1744402116505113600,9.816113525390625,-0.6101882458627224,0.9813438637226819,-1.7394838060848414
1744402116515086600,9.826086669921875,0.17823884434401988,1.0124757918283342,-1.5851049991473554
1744402116525059600,9.8360595703125,1.2827028917789458,0.9430832527808845,-1.5090810592614115
1744402116535032600,9.846032470703125,2.310372453346848,0.9991250196069479,-1.2974340124428272
1744402116545006600,9.856006591796875,2.910595185512304,1.1330251021392643,-0.9781301623731851
1744402116554979600,9.8659794921875,3.012604192134738,1.1317976061709225,-0.5818070777699351
1744402116564952600,9.87595263671875,2.6433155371904373,1.0178865648306905,-0.1727012300916016
1744402116574925600,9.885925537109374,1.9808546677768228,0.9402303475677967,0.3037582712177187
1744402116584898800,9.89589892578125,1.020096495965123,0.8656133518703282,0.686986604187265
1744402116594872800,9.905872802734375,-0.1860071402579546,0.7125207853510975,0.7852937606170773
1744402116604845600,9.915845458984375,-1.1098328809916973,0.6992154597066342,0.7179074468255042
1744402116614818600,9.925818603515625,-1.6037702443897723,0.7417061094336211,0.6908743323408066
1744402116624791600,9.93579150390625,-1.7644956438750028,0.7889744949564337,0.6793136584065854
1744402116634764500,9.9457646484375,-1.6079624353826045,0.8264521388269961,0.7697117222122848
1744402116644738600,9.955738525390625,-1.3665876281678675,0.8035375655770302,0.9726881905149668
1744402116654711800,9.9657119140625,-1.1528063457995652,0.6622371436603367,1.1568415195997803
1744402116664684500,9.9756845703125,-1.1008470259815455,0.4369106771878898,1.369824418132007
1744402116674657500,9.985657470703124,-1.4184306281298398,0.14714023398607967,1.5855723243981599
1744402116684630500,9.995630615234376,-1.8977993679493665,-0.027584318626672027,2.003881323099136
1744402116694604500,10.0056044921875,-2.3396727821111676,-0.17584011263921856,2.5149329029053447
1744402116704577800,10.015577880859375,-2.6013947963058945,-0.49518824024200436,2.750611544305086
1744402116714550800,10.02555078125,-2.7175527397900816,-0.7350457747615874,2.842920117907226
1744402116724523500,10.0355234375,-2.6439789695352314,-0.9061138506934047,2.9118460623562332
1744402116734496500,10.04549658203125,-2.2283979344934224,-0.9521477259851991,2.7986788251206276
1744402116744469800,10.0554697265625,-1.79661629075706,-1.0472888926647603,2.551608436612785
1744402116754443500,10.065443603515625,-1.5330436802595853,-1.2607368514254689,2.323669303423911
1744402116764416800,10.075416748046875,-1.3766741378962992,-1.3809284343399106,2.219526645773649
1744402116774389800,10.0853896484375,-1.2241682852238416,-1.4421717153318225,1.9816766516841946
1744402116784362500,10.095362548828126,-1.208676701581478,-1.5414105265885591,1.690894693352282
1744402116794335500,10.10533544921875,-1.4135434406101703,-1.524504399973154,1.3519121832139789
1744402116804309500,10.1153095703125,-1.8351777843415735,-1.2707938427984713,0.5790099943973124
1744402116814282800,10.12528271484375,-2.484680387982726,-1.0385296129520982,-0.2900087820023298
1744402116824255700,10.135255859375,-3.235091928049922,-0.9082255821503699,-1.0046081271931528
1744402116834228500,10.145228515625,-3.9364486375689505,-0.7228576165787876,-1.6910913849681615
1744402116844201500,10.155201416015625,-4.5367163779199124,-0.6046456997068599,-2.066682354927063
1744402116854175500,10.165175537109375,-5.18385868217051,-0.5833102488745003,-2.0233613918557762
1744402116864148700,10.175148681640625,-5.73681463624835,-0.39853023925870656,-1.630614850565046
1744402116874121700,10.185121826171875,-5.7563838445931665,0.044189854860305786,-0.7677195254817605
1744402116884094700,10.1950947265625,-5.127838688784838,0.45310313910860567,0.146995126426965
1744402116894067500,10.2050673828125,-3.7719308600634336,0.7536799672786146,0.9459098545089364
1744402116904040400,10.21504052734375,-2.020711461868882,0.9760895964562892,1.6191453620456158
1744402116914014500,10.225014404296875,-0.34392917276024815,1.0817548605639487,2.0806056663393973
1744402116923987700,10.23498779296875,1.0577964042842387,1.103515149212256,2.2681918924823403
1744402116933960700,10.244960693359374,2.1260598420470953,1.0597360671099274,2.2672646946348247
1744402116943933700,10.25493359375,2.8101941986083983,0.9145875914629549,1.9165552140846847
1744402116953906400,10.264906494140625,3.1468256155759096,0.7953072051092982,1.4141123265393079
1744402116963880400,10.27488037109375,3.2029619288176296,0.7925543992698192,0.8855208522588014
1744402116973853700,10.284853759765625,3.0699843679577112,0.7945819595746696,0.5213600617222488
1744402116983826700,10.29482666015625,2.720743644785881,0.8302760079640895,0.5368018148735165
1744402116993799700,10.304799560546876,2.534264795362949,0.819042081766203,0.818113641809672
1744402117003772700,10.314772705078125,2.6757769603341814,0.7156488542437554,1.1339810876898466
1744402117013746700,10.32474658203125,3.0628853496074675,0.5765105422643945,1.4253973984025419
1744402117023719400,10.334719482421875,3.585658346867561,0.43352961991485206,1.6681757888048887
1744402117033692700,10.344692626953124,4.120942450654506,0.16949834239706396,1.772446749009937
1744402117043665700,10.354665771484376,4.5304549794375895,-0.06557140985671431,1.8788756179012358
1744402117053638700,10.364638671875,4.718491579696535,-0.1804078954787925,1.8514336303547023
1744402117063611600,10.374611572265625,4.65550174729824,-0.2167555854713544,1.615253761434555
1744402117073585400,10.38458544921875,4.376794696033,-0.16440266322586686,1.2647411186307669
1744402117083558700,10.39455859375,4.1551077551066875,-0.09892441154532133,0.806548876222223
1744402117093531600,10.40453173828125,4.041972958835959,-0.17706019248608498,0.4037789535671472
1744402117103504600,10.414504638671875,3.7467379666179417,-0.3013403233557939,0.18677520202100276
1744402117113477600,10.4244775390625,3.3803970555633303,-0.2748907809127122,0.20275456918030976
1744402117123451600,10.43445166015625,3.2487907830566165,-0.20707637790217995,0.16330372554063796
1744402117133424600,10.444424560546874,3.3560885437369343,-0.25379597043581303,0.147317782510072
1744402117143397600,10.454397705078126,3.5444144823312755,-0.3366998790938407,-0.011509747464582323
1744402117153370600,10.46437060546875,3.6520594490140676,-0.2718050167918205,-0.41522666864618657
1744402117163343600,10.474343505859375,3.8400755910068747,-0.27609000063464045,-1.0440918501891194
1744402117173317600,10.484317626953125,3.8150790969163175,-0.2977296585779637,-1.3834294573754071
1744402117183290600,10.49429052734375,3.0426912873625755,-0.2293506074219942,-1.44613491987437
1744402117193263600,10.504263671875,1.840001843497157,-0.13404617647211997,-1.713212908144295
1744402117203236600,10.514236572265625,0.6131137779206037,-0.10260609573274851,-1.798150952978432
1744402117213209600,10.524209716796875,-0.30733167272508144,-0.20890819643922148,-1.562990490233898
1744402117223182600,10.5341826171875,-0.8953320521771907,-0.3982709307353943,-1.0529276292040943
1744402117233157000,10.5441572265625,-1.3752818067550658,-0.6865284851562231,-0.8011606803778558
1744402117243130000,10.554130126953124,-1.7855927924394606,-0.8866232605427503,-0.8211077821243554
1744402117253103400,10.564103271484376,-2.380687514066696,-0.8031761849187314,-1.0468705941874534
1744402117263076400,10.574076416015625,-3.1995752089887857,-0.7604126365344971,-1.4292479363508521
1744402117273049300,10.58404931640625,-4.072747451806068,-0.7106918894235045,-1.653520802117139
1744402117283023400,10.5940234375,-4.933449504628777,-0.6691264647826553,-1.677996341073513
1744402117292996000,10.60399609375,-5.705511150968074,-0.7231595221348106,-1.7159391182377934
1744402117302969300,10.61396923828125,-6.277537716218829,-0.7917025316808373,-1.6433071588777004
1744402117312942300,10.6239423828125,-6.77465312513113,-0.8482453798968345,-1.3619791114591062
1744402117322915300,10.633915283203125,-7.038057977846265,-0.9578804244183003,-1.1131801455929875
1744402117332889300,10.643889404296875,-6.965887644648552,-0.9944080740876495,-1.0445884015344082
1744402117342862300,10.6538623046875,-6.6401154753476375,-0.8271666437719016,-0.9488323178268968
1744402117352835000,10.6638349609375,-6.164401166382431,-0.4959534889934584,-0.8173213223882019
1744402117362808300,10.673808349609375,-5.463332041633128,-0.24598210008079185,-0.8869372949279845
1744402117372781300,10.68378125,-4.6828865978300565,-0.1431821166106034,-0.7344445209328084
1744402117382754300,10.69375439453125,-3.7296728500485417,-0.0030588761139661073,-0.2777862100932747
1744402117392728300,10.703728271484374,-2.979004120349884,0.1572265062524937,0.28248587568420913
1744402117402701000,10.713701171875,-2.6027228300392626,0.4478342222623527,0.6417435139469801
1744402117412674300,10.72367431640625,-2.530842419698834,0.7893425976164639,0.5947256325865165
1744402117422647300,10.733647216796875,-2.6048411373674867,0.9960752766475081,0.32893260609321295
1744402117432620300,10.743620361328125,-2.713420170029998,1.0799767449755222,-0.003142554075736552
1744402117442594300,10.75359423828125,-2.305031092318892,1.046385952475667,-0.24432368361558765
1744402117452567300,10.7635673828125,-1.3929869747936725,0.9007060003004967,-0.44068204895276575
1744402117462540000,10.7735400390625,-0.26739772174358367,0.5298449814729392,-0.46090383945479985
1744402117472513300,10.78351318359375,0.8859066367059946,0.15774152483623474,-0.3451526866732165
1744402117482486300,10.793486328125,2.0032266585826872,0.012722191994264722,-0.20101647507501766
1744402117492460300,10.803460205078125,2.856881715503335,-0.07292246673926711,-0.1224880963537842
1744402117502433300,10.813433349609374,3.2648423386693,-0.11478526689149439,-0.03033168110605329
1744402117512406300,10.82340625,3.267183933359384,0.022329539903625843,0.022220197777636348
1744402117522379300,10.833379150390625,3.1891631205677986,0.1348565064743161,0.07130418135505169
1744402117532352300,10.843352294921875,3.274696793207526,0.15323475146889687,-0.0420823246544227
1744402117542326300,10.853326171875,3.5661142729640005,0.13581665674336255,-0.22366847013235092
1744402117552299300,10.86329931640625,3.840300631934404,0.15244155526459216,-0.37138219315744936
1744402117562272300,10.873272216796876,4.082185726758837,0.11193747624494135,-0.5087490019522607
1744402117572245200,10.883245361328125,4.208375819435715,0.09019574616663158,-0.6514549798179418
1744402117582218200,10.89321826171875,4.257930416199565,0.09804865162409841,-0.7973020321883261
1744402117592191200,10.903191162109374,4.161801115265488,0.2442659986115992,-1.0254632106300443
1744402117602165200,10.913165283203124,3.985474826544523,0.46550249235667285,-1.4559743229739368
1744402117612138200,10.92313818359375,4.031941978687048,0.7117243742763996,-2.1203008401289583
1744402117622111200,10.933111328125,4.11494934771955,0.991810678005591,-2.7954449577659366
1744402117632084500,10.94308447265625,4.162620030432939,1.2655645638428628,-3.5309178718984127
1744402117642057200,10.95305712890625,4.304775754004717,1.4111904477432369,-4.080656909756362
1744402117652031200,10.96303125,4.347488522049784,1.40986972053349,-3.9761937879800793
1744402117662004200,10.973004150390626,3.756049400320649,1.1970797872900962,-3.288783186227083
1744402117671977200,10.982977294921875,2.6980934215605257,1.0973495392546058,-2.568998839613795
1744402117681950200,10.9929501953125,1.623746864491701,1.1105603184834123,-2.1017646280936897
1744402117691923200,11.002923095703125,0.9225935685902833,1.0716326219350099,-1.8425060814030467
1744402117701897200,11.012897216796874,0.6740408325701952,1.0660833172447979,-1.7566624660313128
1744402117711870200,11.0228701171875,0.6863771670520306,0.8150763199403882,-1.6471121041186152
1744402117721843200,11.03284326171875,0.8379512918323277,0.43018644696678965,-1.3272013741970061
1744402117731816200,11.042816162109375,0.9906967984795569,0.030355409041512755,-0.7796483020760119
1744402117741789400,11.05278955078125,1.0665431898415088,-0.509884837581776,-0.09230448194891214
1744402117751762200,11.06276220703125,0.9013806846916675,-0.7814747137855738,0.3851002643212676
1744402117761736200,11.072736083984376,0.5439800359398126,-0.8392531682111323,0.5367265576802194
1744402117771709200,11.082709228515625,-0.10198387218117713,-0.7098202942207456,0.2220589891090989
1744402117781682200,11.09268212890625,-1.0426011732399463,-0.3965505732161924,-0.14000629045292734
1744402117791655400,11.102655517578125,-1.952972389116883,-0.14355705087021925,-0.2533408470794558
1744402117801628400,11.11262841796875,-2.623587923413515,0.10162419942277483,-0.1024156877271831
1744402117811602400,11.1226025390625,-2.792793566474318,0.3347990139085799,0.22867665368318557
1744402117821575200,11.1325751953125,-2.5981162130266426,0.42006976129580287,0.6403299938872457
1744402117831548200,11.142548095703125,-2.213660968610644,0.39074667271040375,0.9302877763547003
1744402117841521200,11.152521240234375,-1.8002502633452415,0.20797718093311413,1.1108338747277855
1744402117851494400,11.162494384765624,-1.4641367327719925,0.05317655012067407,1.136583963664621
1744402117861468400,11.172468505859374,-1.390664084804058,-0.024547015023697168,1.0521911316230892
1744402117871441400,11.18244140625,-1.519004633513093,-0.08466490871487185,1.0283172118216752
1744402117881414100,11.1924140625,-1.820247926235199,-0.1083048736299388,1.0215295975081622
1744402117891387100,11.20238720703125,-2.230910794097185,-0.053008828870952124,1.0078504701152444
1744402117901360400,11.2123603515625,-2.6642992885082957,0.08311240030955523,1.0172048661768436
1744402117911333400,11.22233349609375,-3.2777830687850713,0.06204641406834125,1.0226195116367192
1744402117921307400,11.232307373046876,-3.9616087977886196,-0.16448453282304107,1.442582195828855
1744402117931280100,11.242280029296875,-4.359026399630308,-0.21122283005714415,2.3334391484186052
1744402117941253000,11.252253173828125,-4.351895817098021,-0.3106139823313802,2.8620880519747733
1744402117951226000,11.26222607421875,-4.022311396032571,-0.3572098754201084,2.8429131036445496
1744402117961199400,11.272199462890624,-3.6838445803314444,-0.18314634399935603,2.5965350813150403
1744402117971173400,11.28217333984375,-3.5882390110105273,0.08787724009118973,2.21986946786195
1744402117981146400,11.292146484375,-3.841653800109029,0.34957879601977765,1.7453847006916998
1744402117991119000,11.302119140625,-4.360530958974361,0.5788217052835971,1.2347668361276387
1744402118001092000,11.312092041015624,-4.9513563327193255,0.8098246099572628,0.870770296242088
1744402118011065300,11.3220654296875,-5.341709403002262,1.0615339833773672,0.6680241295639425
1744402118021039400,11.332039306640626,-5.272548773014545,1.2503680176243186,0.5348145865790546
1744402118031012400,11.342012451171875,-4.706729830232263,1.2517559648513794,0.6653951692998409
1744402118040985300,11.3519853515625,-3.7055923017591237,1.1474667383372783,1.1806913278732447
1744402118050958000,11.3619580078125,-2.431171500635147,0.9315676600974052,1.8055650286272167
1744402118060931300,11.371931396484374,-1.021096612918377,0.8242353395603597,2.3743211939051747
1744402118070904300,11.381904296875,0.25132395429909227,0.8310551025778055,2.789864235024154
1744402118080878300,11.39187841796875,1.318003337740898,0.8531107209108769,3.003967004431784
1744402118090851300,11.401851318359375,2.139537163257599,0.8724524041101336,3.052431175610423
1744402118100824300,11.41182421875,2.822683093303442,0.9510836038850248,2.9814331010624766
1744402118110797000,11.421797119140624,3.351535118216276,1.1194083724580703,2.78648715980649
1744402118120770300,11.431770263671876,3.697269294571876,1.2684662766337393,2.466418170583248
1744402118130744300,11.441744384765625,3.8464457105606793,1.3585409537039697,2.1233014832496644
1744402118140717300,11.45171728515625,3.8260254383444785,1.3380308112472294,1.832114889639616
1744402118150690300,11.461690185546875,3.7311926069617267,1.2566437368929386,1.5942793624669314
1744402118160663300,11.471663330078124,3.6771044584214687,1.08634043478854,1.397739722278714
1744402118170636300,11.48163623046875,3.6611493489205835,0.8522359108377248,1.2243320974834262
1744402118180610300,11.4916103515625,3.7619302750527854,0.5945220728384331,1.0110524810269474
1744402118190583300,11.501583251953125,3.966491309133172,0.3252717454981059,0.7659307423688471
1744402118200556300,11.511556396484375,4.115296553722024,0.0993011907021515,0.5635208219077438
1744402118210529300,11.521529296875,4.122195665585995,-0.0545542864809744,0.42037258016727863
1744402118220502000,11.531501953125,4.069381774765253,-0.14945050195613876,0.3934753670219332
1744402118230474500,11.541474609375,3.897860840499401,-0.16941740438165143,0.35814160331226885
1744402118240448500,11.551448486328125,3.635126434391737,-0.11350315465908496,0.2070044817097485
1744402118250421500,11.56142138671875,3.295344444438815,-0.09218763236990198,0.0016334464207291603
1744402118260394500,11.57139453125,3.061124185153842,-0.10625561294993385,-0.13201726446039974
1744402118270367500,11.581367431640626,2.9842770923167463,-0.1716695489563048,-0.24401209691576659
1744402118280340500,11.591340576171875,2.995081979447603,-0.30020604036254805,-0.2495714846085757
1744402118290314500,11.601314453125,3.0059266140669583,-0.4922173346724361,-0.3175003077790141
1744402118300287500,11.61128759765625,2.8931647427618503,-0.6488879058089106,-0.18762239343486725
1744402118310260500,11.621260498046874,2.6504396899819374,-0.789993170479685,0.12978862862549723
1744402118320233500,11.6312333984375,2.458410220694542,-0.8616223825380206,0.26886180294677614
1744402118330206500,11.64120654296875,2.2798031275600192,-0.7551916870158165,0.2179807798847556
1744402118340179500,11.651179443359375,2.081678264006972,-0.6725631612330675,-0.010098346296697855
1744402118350153500,11.661153564453125,1.9332582193434238,-0.6874665697239339,-0.22253449766635894
1744402118360126500,11.67112646484375,1.9450959566533563,-0.7552380834408104,-0.3350181365519762
1744402118370099500,11.681099365234376,2.076471343013644,-0.8139429319962859,-0.3329039208769798
1744402118380072700,11.69107275390625,2.2679028464078903,-0.8396815496910363,-0.25584552337676286
1744402118390045400,11.70104541015625,2.446363809069991,-0.869099440420419,-0.1296009240336716
1744402118400019500,11.71101953125,2.432534605681896,-0.9199322404265403,0.11683993439897894
1744402118409992400,11.720992431640624,2.1662258482187986,-0.9586246669143438,0.09920958516225219
1744402118419965400,11.73096533203125,1.8225404210865497,-0.8676872355349361,-0.13554010482430456
1744402118429938400,11.7409384765625,1.372638598769903,-0.7051484299521893,-0.56520870192945
1744402118439911700,11.75091162109375,0.39214462987482546,-0.49737011432573197,-1.103587556861341
1744402118449885700,11.7608857421875,-0.6276169350475073,-0.34508038862198587,-1.443127700882405
1744402118459858400,11.7708583984375,-1.207305997750163,-0.5134192222530022,-1.6452528861179947
1744402118469831400,11.78083154296875,-1.377705819031596,-0.7444896026723087,-1.5269569076918064
1744402118479804400,11.790804443359375,-1.3836831398755312,-0.8529233816452324,-1.1896774020791052
1744402118489777700,11.800777587890625,-1.7516051826417445,-0.8362487987633794,-0.9032320116467774
1744402118499750700,11.810750732421875,-2.6990678195506335,-0.672230276016891,-0.5747441536463797
1744402118509724700,11.820724609375,-3.787686063078046,-0.5474765728186816,-0.3213976074784994
1744402118519697400,11.830697509765624,-4.888872696277499,-0.46354880100563167,-0.2532425012715161
1744402118529670400,11.84067041015625,-5.667447085511684,-0.3359595090553164,-0.14191402377039194
1744402118539643600,11.8506435546875,-5.9875067223846905,-0.25224991003759206,0.020909224776923654
1744402118549616600,11.86061669921875,-5.998396365189552,-0.22402948546446858,0.3207273070015013
1744402118559590700,11.870590576171875,-5.693910145023465,-0.2050102391526103,0.6303147958293557
1744402118569563400,11.8805634765625,-5.123031580764055,-0.1471989784359932,0.9145219058156013
1744402118579536400,11.890536376953126,-4.483961523810029,-0.043127997782453895,1.1423305444926022
1744402118589509400,11.90050927734375,-3.95799060729146,0.16467406404577195,1.2784534176409243
1744402118599482600,11.910482666015625,-3.651539809054136,0.41207536500841374,1.3948589061453938
1744402118609455600,11.92045556640625,-3.5985061380028722,0.45146359174065287,1.3929419666081666
1744402118619429600,11.9304296875,-3.4741993748545643,0.20540639886334539,1.3277198451131582
1744402118629402400,11.94040234375,-3.4182483550518747,-0.010985285199061036,1.127647939145565
1744402118639375400,11.950375244140625,-3.6847453285634515,0.062471142286434765,0.8658321091875434
1744402118649348600,11.9603486328125,-4.2693110573917625,0.30458310466930266,0.6451333025157451
1744402118659321600,11.970321533203125,-4.701015544238686,0.5020430745728314,0.36443624647706746
1744402118669295600,11.980295654296874,-4.613308034691214,0.7496824951402843,0.09163432760238648
1744402118679268600,11.9902685546875,-4.186857815110683,0.9761937874831259,-0.06471884814798831
1744402118689241300,12.000241455078125,-3.5916438510179516,0.9977660062134265,-0.2254331417173147
1744402118699214300,12.01021435546875,-2.8736317747741937,0.8814007035888731,-0.2567582543075084
1744402118709187600,12.0201875,-2.050139216405153,0.7396241885930299,-0.07278115857243538
1744402118719161600,12.03016162109375,-1.1514444097965955,0.5364660070478916,0.11011281810104846
1744402118729134600,12.040134521484376,-0.23008418239355086,0.2685680806972086,0.2624029821962118
1744402118739107600,12.050107666015625,0.6572948649525642,0.08473192780278622,0.39784897899627686
1744402118749080300,12.060080322265625,1.416537361729145,0.016836203184351323,0.4068307423532009
1744402118759053600,12.070053466796875,2.0647212839871645,0.024683701814338564,0.3475041086375713
1744402118769026600,12.080026611328124,2.634641816869378,0.07263444357812404,0.1976476014301181
1744402118779000600,12.09000048828125,3.1164035893052815,0.12947824750207365,-0.02020575268268585
1744402118788973600,12.0999736328125,3.453336619567871,0.18891232364755123,-0.2600108263626695
1744402118798946600,12.109946533203125,3.715731418457627,0.2873662681369111,-0.4389502201914787
1744402118808919600,12.11991943359375,3.9867835710555313,0.37938122908733785,-0.571793925538659
1744402118818892500,12.129892578125,4.214618513217568,0.3944042819024995,-0.6579594663411379
1744402118828866600,12.139866455078124,4.442246534630656,0.39053295689448714,-0.6487231437012553
1744402118838839600,12.149839599609376,4.727595508128404,0.3762236418392509,-0.6474936019062996
1744402118848812500,12.1598125,5.01768612319529,0.35708950044345106,-0.7122396303221583
1744402118858785300,12.169785400390625,5.280978747707605,0.34919352302923795,-0.773981216225028
1744402118868758500,12.179758544921874,5.59865411979258,0.3801567069718614,-0.9584273907765746
1744402118878731500,12.1897314453125,5.906105619505047,0.46098015609402204,-1.2636185443416237
1744402118888705500,12.19970556640625,6.222554080143571,0.7050918043941259,-1.6505664823561905
1744402118898678500,12.209678466796875,6.379018899574875,1.1046902574062347,-2.2758438685402274
1744402118908651500,12.219651611328125,6.037968497121334,1.5633682375051081,-3.251026287023723
1744402118918624500,12.22962451171875,4.721514142388105,1.8535906622581182,-4.500711290819942
1744402118928597500,12.239597412109376,2.786958284449577,1.7878458320632575,-5.529790426924825
1744402118938571500,12.249571533203126,0.9237842396795749,1.287027476979792,-6.226670867812633
1744402118948544500,12.25954443359375,-0.3474900801122188,0.5847568674862385,-6.209506382521987
1744402118958517500,12.269517578125,-1.049069492471218,-0.12958616485595703,-5.434671179816126
1744402118968490500,12.279490478515624,-1.639095824792981,-0.6418365990579128,-4.003389253419638
1744402118978463500,12.28946337890625,-1.848737523138523,-0.6636985945150256,-2.549794957450032
1744402118988436500,12.2994365234375,-1.7959779928535222,-0.49093423605933784,-1.3007898987419904
1744402118998410500,12.309410400390625,-1.8851859700918197,-0.4339363375522196,0.01567483125478029
1744402119008383500,12.319383544921875,-1.8610808718830345,-0.4720141392730176,1.029032812745124
1744402119018356500,12.3293564453125,-1.6413555864185094,-0.478954021538794,1.499218567547202
1744402119028329700,12.339329833984374,-1.4250345564395188,-0.5141670814782381,1.3993448193877935
1744402119038302500,12.349302490234376,-1.309165366768837,-0.6617607583202422,1.0130419012784957
1744402119048276500,12.3592763671875,-1.013901148456335,-0.7535781874045729,0.708290015913546
1744402119058249500,12.36924951171875,-0.493279191750288,-0.7038681078180671,0.6706858230538666
1744402119068222500,12.379222412109375,-0.007333996149897575,-0.7473521524965763,0.8049399797208606
1744402119078195500,12.389195556640624,0.3666536302655935,-0.8187595384977757,1.0523685340166091
1744402119088168700,12.399168701171876,0.6211018540650606,-0.9122722271926701,1.1954282206907867
1744402119098142500,12.409142578125,0.6714999159157276,-1.0756617313206196,1.2152980194173753
1744402119108115500,12.419115478515625,0.5048036253273487,-1.2767127114534378,1.2592980507940053
1744402119118088400,12.42908837890625,0.31024843695461746,-1.411710379964113,1.2587845483139157
1744402119128061400,12.4390615234375,0.03307400208413601,-1.5351333460152148,1.2247460851117968
1744402119138034700,12.44903466796875,-0.30296587873101233,-1.6657772032305598,1.104475445611775
1744402119148007400,12.45900732421875,-0.6775111390292644,-1.7118986106753349,0.9914981779903173
1744402119157981400,12.4689814453125,-0.9422165529489517,-1.7572092862591147,1.0397395001985132
1744402119167954400,12.478954345703125,-1.0578846670895814,-1.828390023897588,1.3824785863913596
1744402119177927400,12.488927490234374,-1.0695616608798504,-1.9408710324347018,1.8273983825117348
1744402119187900400,12.498900390625,-1.0424679022490977,-2.0667685719057918,2.3366940585613247
1744402119197873700,12.508873779296875,-1.1092933672875165,-2.0806036205127834,2.920397909863293
1744402119207847700,12.51884765625,-1.5426888759613036,-1.901390378178656,3.31945860273689
1744402119217820400,12.5288203125,-2.162321826517582,-1.547304260802269,3.5885406243056055
1744402119227793400,12.53879345703125,-2.7378981932044026,-1.129585629209876,3.7363986511722205
1744402119237766700,12.5487666015625,-3.259504484772682,-0.5854860585436225,3.7902947842717167
1744402119247739600,12.55873974609375,-3.5195886686325073,0.048026656544208526,3.840185481122136
1744402119257712600,12.568712646484375,-3.2494173905223604,0.646133127208054,3.9139354847267267
1744402119267686700,12.578686767578125,-3.1791648736447096,1.1258832675606012,3.8522415373578665
