time,seconds_elapsed,z,y,x
1744407812456593700,0.05359375,1.2191028185278177,-1.4249194056272505,0.22145291297473013
1744407812466564600,0.063564697265625,1.328766139295697,-1.9249819739073515,1.036697940545529
1744407812476535800,0.073535888671875,1.5302373906672,-1.4705840092152356,1.2531956422656774
1744407812486506800,0.0835068359375,1.5537749181210994,-1.4394441900640724,1.3849626582920551
1744407812496476700,0.0934765625,1.3989321469336746,-1.3022764840379357,1.180867415092513
1744407812506448000,0.10344775390625,1.0482026465088128,-0.9197028155848384,0.6744280052568763
1744407812516418800,0.113418701171875,0.9016787908554077,-0.7705445197746157,0.35116058531850575
1744407812526389800,0.1233896484375,0.640571693688631,-0.8616235515817999,-0.062119552369788285
1744407812536359700,0.133359619140625,0.3502028462022543,-0.8448173782095313,-0.2908876837287098
1744407812546330600,0.14333056640625,0.017442717710137366,-0.9106678607359528,-0.15890907077826558
1744407812556301800,0.1533017578125,-0.07189736147522927,-1.029550553008914,-0.07208806174173951
1744407812566272800,0.163272705078125,0.1211737258195877,-1.027838488394022,0.013776011896133422
1744407812576242700,0.17324267578125,0.4439420371294021,-1.0428224147751928,0.003078749858215451
1744407812586214000,0.1832138671875,0.7515969504594803,-1.0966522046402096,-0.16576310139149428
1744407812596184800,0.193184814453125,1.012259810990095,-1.2209975462332368,-0.4255529784798622
1744407812606155500,0.203155517578125,1.2347685896933078,-1.3354448864072561,-0.6699665688686073
1744407812616125700,0.213125732421875,1.2083388479292392,-1.3937585436880588,-0.8189895478613675
1744407812626096600,0.2230966796875,0.9972592257350683,-1.4243039040774106,-0.8363002366896718
1744407812636067600,0.233067626953125,0.7986714208453893,-1.4811650244623422,-0.6799869545582682
1744407812646038800,0.243038818359375,0.602244008859992,-1.6010905037865042,-0.551572171569243
1744407812656008700,0.2530087890625,0.4828858080297708,-1.7576143599286675,-0.41517406167611476
1744407812665979600,0.262979736328125,0.389333079585433,-1.7965668986573815,-0.3742328333482146
1744407812675950800,0.272950927734375,0.2403729366958141,-1.752822157216072,-0.4654162753779441
1744407812685921800,0.282921875,0.1845160249173641,-1.7310066312491892,-0.550335615511611
1744407812695891700,0.2928916015625,0.27252631680369377,-1.776179359667003,-0.5503569505605846
1744407812705862700,0.302862548828125,0.37705227468311786,-1.7647855667322874,-0.5284910095807165
1744407812715833600,0.31283349609375,0.5025637374460696,-1.6406073983997105,-0.4288771544665098
1744407812725804800,0.3228046875,0.6386947939008474,-1.6672262329950929,-0.2830840973056853
1744407812735774700,0.332774658203125,0.7465946121275424,-1.7693875075697898,-0.20403627955392
1744407812745745700,0.34274560546875,0.881957606819272,-1.9135776595786214,-0.1458442028261721
1744407812755716900,0.352716796875,1.1302853019118309,-1.9605784802064299,0.09127842683680355
1744407812765687800,0.362687744140625,1.202901040789485,-1.945634009052813,0.07129530392885208
1744407812775657700,0.37265771484375,1.211155658915639,-1.8711691351771353,-0.11803243211917579
1744407812785628700,0.382628662109375,1.1660866831332444,-1.7710370283424852,-0.2106095204643905
1744407812795600400,0.392600341796875,0.9359230057626962,-1.6332947372987865,-0.4475048441775143
1744407812805571600,0.402571533203125,1.0423843156188726,-1.640397847302258,-0.5150013403452932
1744407812815541500,0.41254150390625,1.5337369232207536,-1.79000505592376,-0.4670971411369741
1744407812825512400,0.422512451171875,1.845548371708393,-2.093539966714382,-0.37904571352265776
1744407812835483600,0.432483642578125,2.135577027454972,-2.3201021124616266,-0.037204306821897626
1744407812845454300,0.442454345703125,2.1934043625235558,-2.141601110050082,0.37353571792952717
1744407812855424500,0.452424560546875,1.7217086415499447,-1.748157672536373,0.8201645829901099
1744407812865395500,0.4623955078125,1.2993576739817856,-0.9730822313338517,1.2167205265011638
1744407812875366400,0.472366455078125,1.4301198968797921,-0.4701695343196392,1.5694181851938367
1744407812885337600,0.482337646484375,2.1945926955252886,-0.7371157129034399,1.3813012131750584
1744407812895307500,0.4923076171875,4.200377221897244,-1.0767217617675662,0.4395840611156076
1744407812905278500,0.502278564453125,5.9100645862638945,-1.3380088916763662,0.17185038541592657
1744407812915249700,0.512249755859375,5.7961669889271255,-2.4242133520603177,0.2518875795312226
1744407812925220600,0.522220703125,4.566918623960018,-2.274451245138049,1.5332465093553065
1744407812935190500,0.5321904296875,3.69582611002624,-0.29146453376859427,2.866895159995556
1744407812945161500,0.542161376953125,2.7771365631371734,1.3785598055124282,3.464437274774909
1744407812955132400,0.55213232421875,1.4010638982653616,1.9611498503535985,3.857686651021242
1744407812965103400,0.562103271484375,-0.24351181924343107,1.8307468161568043,3.5057474825456736
1744407812975073500,0.572073486328125,-1.2671908498704432,2.3521689833298325,5.001789465883374
1744407812985044500,0.58204443359375,-1.5527081656724213,2.361923484624922,8.626547066473961
1744407812995015400,0.592015380859375,-2.6470500475436447,1.6083914744496344,11.642420489537715
1744407813004986600,0.601986572265625,-5.628435510072112,0.40027269901186224,12.35506490126848
1744407813014956500,0.61195654296875,-9.137328597167134,-1.1512740216657518,11.639510739570856
1744407813024927500,0.621927490234375,-10.663933184289931,-2.0001646406635643,9.622324529218673
1744407813034898400,0.6318984375,-9.062506288155912,-0.8410223698407411,7.90665399878919
1744407813044869400,0.641869384765625,-6.630119566512107,1.6049182453811168,6.02277501964271
1744407813054839300,0.65183935546875,-5.3171781883358955,2.9080303034603596,2.754740606933832
1744407813064810500,0.661810546875,-4.570343922233581,2.4395295791357756,-1.311279874704778
1744407813074781400,0.671781494140625,-3.4139281537652013,1.6995117150500416,-4.253057257205247
1744407813084752600,0.681752685546875,-2.974946953913569,1.9875792998567223,-5.877836971876025
1744407813094722600,0.69172265625,-3.079462390398979,2.484825349411368,-5.088476400211453
1744407813104693500,0.701693603515625,-2.4122914435982703,3.187747700811922,-4.400210642933845
1744407813114664400,0.71166455078125,-1.8186673790454864,3.222051244691014,-4.5829403689563275
1744407813124635400,0.721635498046875,-1.1104875455081462,2.5078330077722666,-4.636451594391465
1744407813134605300,0.731605224609375,-0.5844669446289539,1.8754297152310608,-4.201176555581391
1744407813144576500,0.741576416015625,-0.14168518345057962,1.4338351180106401,-3.4231516169235108
1744407813154547500,0.75154736328125,0.33126024532318116,1.1356912526085972,-2.7496067511767146
1744407813164518400,0.761518310546875,0.9432418043434619,0.8051397400766611,-2.775811452013254
1744407813174488600,0.771488525390625,1.8738994369238613,0.3103928138613701,-3.1593828993320465
1744407813184459500,0.78145947265625,2.975157966315746,-0.07363543731421232,-3.480345038002729
1744407813194430500,0.791430419921875,4.006024862620234,-0.09591244331300258,-3.7657004412412642
1744407813204401400,0.8014013671875,4.734966329157352,0.03707359311431646,-4.266435794216394
1744407813214371300,0.811371337890625,5.26922050537467,0.010694412493705749,-4.838086804153025
1744407813224342500,0.821342529296875,5.43080456751585,-0.049663902357220645,-5.078222132700682
1744407813234313500,0.8313134765625,5.069471840012073,-0.11267945371866225,-4.779858194807171
1744407813244284400,0.841284423828125,4.588956268244981,-0.2787809932842851,-4.380178200991452
1744407813254254600,0.851254638671875,4.143537728822231,-0.4523259807236492,-4.0608267123878
1744407813264225500,0.8612255859375,3.5688030736565586,-0.872662247468531,-3.8127375022262333
1744407813274196500,0.871196533203125,3.271296629375219,-1.4463156832687556,-3.444294650456309
1744407813284167400,0.88116748046875,3.279920080813765,-1.6542144834697246,-3.2943212388709187
1744407813294137600,0.8911376953125,3.295737827670574,-1.6423087954901159,-3.24100670505166
1744407813304108300,0.9011083984375,3.17470614067018,-1.6953231773190198,-3.401196390224993
1744407813314079500,0.91107958984375,2.835550758183002,-1.864681526723504,-3.6772795227274298
1744407813324050400,0.921050537109375,2.4929005193173883,-1.9116718259572982,-3.857518600977957
1744407813334020400,0.931020263671875,1.9104741406053303,-2.0371211832694707,-3.6574694913640617
1744407813343991600,0.940991455078125,1.0862632048338652,-2.1272828079707917,-3.6205344299376008
1744407813353962500,0.95096240234375,0.3563450022190809,-2.333517474351823,-3.7889576904490587
1744407813363933400,0.960933349609375,-0.26168168218433857,-3.096289606559276,-3.785628838287294
1744407813373903600,0.970903564453125,-0.6313853476703166,-3.7301843067020175,-3.655684653773904
1744407813383874300,0.980874267578125,-0.5478612612873316,-4.090634990674257,-3.3567619129538535
1744407813393845500,0.990845458984375,-0.2144400385379791,-4.25774366145581,-2.791934027035534
1744407813403816400,1.00081640625,0.21277064402103424,-4.318309481577575,-2.4425915970548986
1744407813413786400,1.010786376953125,0.7694470799267291,-4.40242978028804,-2.1402815518841147
1744407813423757600,1.020757568359375,1.3807219519823788,-4.519324221353233,-1.463345290133357
1744407813433728500,1.030728515625,1.9600860205143689,-4.640338080435991,-0.9026202364239841
1744407813443699500,1.040699462890625,2.37769593103528,-4.365801592853665,-0.5020861099969596
1744407813453669600,1.050669677734375,2.1908622768253085,-4.232840398606657,-0.3530565551329404
1744407813463640600,1.060640625,1.4741262118667364,-4.336645640996098,0.1413514214515686
1744407813473611500,1.070611572265625,0.7672527847528458,-4.139353136613964,0.79402622538805
1744407813483582500,1.08058251953125,0.18094284260571003,-4.092507214286923,1.1088371479526162
1744407813493552400,1.090552490234375,-0.9015338294267654,-4.607130807361006,1.1853290706764905
1744407813503523600,1.100523681640625,-2.178812942591309,-4.942841017830371,1.0672084488172084
1744407813513494500,1.11049462890625,-3.936902811077237,-5.20679882825315,0.22096227991357445
1744407813523465500,1.120465576171875,-6.009003099399805,-5.1598003457129,-0.5609544054858386
1744407813533435600,1.130435546875,-7.991562817528844,-4.467569776457548,-0.8070853211864829
1744407813543406600,1.140406494140625,-9.08649565103054,-3.547056813533604,-1.1734677332952619
1744407813553377300,1.150377197265625,-9.311435456272958,-2.8721175708189604,-1.8042602296389638
1744407813563348500,1.160348388671875,-9.16790435269475,-2.023915810868144,-2.344238336461037
1744407813573318400,1.170318359375,-9.086573976963757,-1.123816982680559,-2.706472835110128
1744407813583289300,1.180289306640625,-8.812234473258256,-0.5218700936036184,-3.2423955290615556
1744407813593260500,1.190260498046875,-8.389699965816735,-0.246549141112715,-3.559686870265007
1744407813603231500,1.2002314453125,-7.546554612472653,-0.026627748554199932,-3.2437922441169618
1744407813613201400,1.210201416015625,-6.256649241968989,0.23466789345461875,-2.7389482867792245
1744407813623172600,1.220172607421875,-4.860486559748649,0.10526881213597952,-2.371193855664879
1744407813633143600,1.2301435546875,-3.7242367964744565,-0.3422041755985468,-1.929386054085195
1744407813643114500,1.240114501953125,-2.972158784499764,-0.6339141354955733,-1.3119915301054714
1744407813653084400,1.25008447265625,-2.247020217376947,-0.6095456371102481,-0.9126975399326532
1744407813663055400,1.260055419921875,-1.7403110506892203,-0.47982364398017524,-0.6820999281242489
1744407813673026600,1.270026611328125,-1.2219283973425625,-0.09428878763392567,-0.48394393878057596
1744407813682997500,1.27999755859375,-0.5806254667699337,0.5446456602416933,-0.3016813188131898
1744407813692967400,1.289967529296875,0.04883680388331413,1.0726102347955107,-0.03076287559755146
1744407813702938600,1.299938720703125,0.5001560917824507,1.2701163819283245,-0.11660583338215946
1744407813712909600,1.30990966796875,0.5932417872369289,1.2932944284200667,-0.2705316358551383
1744407813722880300,1.31988037109375,0.7426742238134145,1.6653540093824266,0.14042700008302927
1744407813732850400,1.329850341796875,0.9740022687882185,2.3769782842852174,1.1566975080192088
1744407813742821400,1.3398212890625,1.114137884709239,2.99934022141397,2.3727600820682944
1744407813752792300,1.349792236328125,1.17168990996778,3.197230107167363,2.8747061260074376
1744407813762763500,1.359763427734375,1.3772837942272425,3.2098899745151397,2.764502122491598
1744407813772733400,1.3697333984375,1.7769319315999745,3.1899072169333693,2.4635268330559135
1744407813782704600,1.37970458984375,2.0951655220896006,3.0481556902483105,2.11955089854449
1744407813792675600,1.389675537109375,2.3750755194038153,2.5457795843288302,1.79084866714105
1744407813802646300,1.399646240234375,2.7240029388427733,1.6669649517104028,1.4035906402640044
1744407813812616700,1.40961669921875,3.3381881453871727,0.7283715576946735,1.0017417779766022
1744407813822587400,1.41958740234375,4.454278917729854,0.6425415324568748,0.9225193343102931
1744407813832558300,1.429558349609375,5.584750097602606,1.2127958273380994,1.126462674883753
1744407813842528500,1.439528564453125,6.171908181011676,2.2085627686887976,1.7676663828656076
1744407813852499500,1.44949951171875,6.005608780786395,3.5378006171494722,2.860529132094979
1744407813862470400,1.459470458984375,5.45611202725172,4.58374671690315,3.7220477619975805
1744407813872441600,1.469441650390625,4.289537852862477,5.182023867958784,4.316747931349277
1744407813882411500,1.47941162109375,2.461688803973794,5.204079632422328,4.1775417052328585
1744407813892382500,1.489382568359375,1.0726496900230647,4.6667292437553405,2.742038069488108
1744407813902353400,1.499353515625,0.028275077369809148,3.891856047126651,1.3171484744772315
1744407813912324400,1.509324462890625,-0.017689385947585106,3.4145173518300056,0.30300255747959015
1744407813922294300,1.519294189453125,0.40328970874547954,3.432415996614098,-0.27317498997077344
1744407813932265500,1.529265380859375,0.9036796092838049,3.7493864353001114,-0.5882273200757802
1744407813942236400,1.539236328125,1.4203841002851725,4.577943291321397,-0.8220093340739607
1744407813952207600,1.54920751953125,1.557332318341732,5.149332727712393,-1.5611621057629583
1744407813962177500,1.559177490234375,1.3671949464112518,5.107862068682909,-2.539384914855659
1744407813972148500,1.5691484375,1.2874568083077669,4.706636891251802,-3.356042366507649
1744407813982119700,1.57911962890625,1.5742565651357172,4.5765720029681916,-3.6446231615334748
1744407813992090400,1.58909033203125,1.9555133057713507,4.905512865433097,-3.2296804243952035
1744407814002060300,1.599060302734375,1.9749013123303651,5.01688474368453,-2.5739479864537715
1744407814012031500,1.609031494140625,1.4704419703960419,4.650460245999693,-2.000376091457158
1744407814022002400,1.61900244140625,0.37505730147361754,4.090762124185264,-1.1585656399786473
1744407814031973400,1.628973388671875,-0.967619289752841,3.8871243424296376,-0.044225364565104244
1744407814041943600,1.638943603515625,-2.193315515196323,3.774552440738678,0.7770124006144702
1744407814051914500,1.64891455078125,-3.343090530475974,3.5189813503891227,1.1546679018877446
1744407814061885400,1.658885498046875,-4.019119906514883,3.468243096798658,1.39315940875113
1744407814071856400,1.6688564453125,-4.297714145055413,3.6411750669062135,1.609027288135141
1744407814081826600,1.67882666015625,-4.616324167641997,3.4454107950046655,1.6422433290384708
1744407814091797500,1.688797607421875,-4.825443303418159,2.9673554758712646,1.687805787426233
1744407814101768400,1.6987685546875,-4.753440728002786,2.7539251988977194,2.0699302508071065
1744407814111739400,1.708739501953125,-4.563484557858109,2.8789105919599534,2.5756641427218914
1744407814121709600,1.71870947265625,-4.259321578297019,2.7648294547498224,2.6117069314837456
1744407814131680500,1.728680419921875,-3.9649797355264425,2.4921727895647288,2.631472831444442
1744407814141651500,1.7386513671875,-3.9534769292593,1.6481906931355594,2.313583085956424
1744407814151622700,1.74862255859375,-3.299635419631004,0.5893289611747488,1.6591460946530103
1744407814161592600,1.758592529296875,-2.0978736120045185,0.19089361539157107,1.451712281615287
1744407814171563300,1.768563232421875,-1.2318722837299108,-0.22091060452526434,1.3854146398432552
1744407814181534500,1.778534423828125,-0.5599450823128224,-0.8030182909432798,1.0875082364588975
1744407814191505400,1.78850537109375,0.33902737219333645,-1.0859297350957988,0.7776365238621831
1744407814201475300,1.798475341796875,1.1330857462853192,-1.1601685451306403,0.4218002018176019
1744407814211446500,1.808446533203125,1.6436884132802485,-1.335958535017818,-0.02642053554430604
1744407814221417500,1.81841748046875,1.9386586170822382,-1.4831642354555428,-0.39931934380978346
1744407814231387400,1.828387451171875,1.9669149897515772,-1.6335001967430114,-0.6515386395134032
1744407814241358600,1.838358642578125,1.8969407052934169,-1.7222306195974348,-0.8483302086360752
1744407814251329500,1.84832958984375,1.9471213250011206,-1.7653128054767846,-0.9906299437884241
1744407814261300500,1.858300537109375,2.008212630301714,-1.7212579751729964,-1.2236783097498118
1744407814271270400,1.8682705078125,2.064947493958473,-1.6618781499654054,-1.6020152174159883
1744407814281241300,1.878241455078125,2.1116613143384457,-1.7267174096226692,-1.8719288675032555
1744407814291212500,1.888212646484375,1.9743746581077575,-2.101573051044345,-1.8985382036179304
1744407814301183500,1.89818359375,1.7796879523098468,-2.593544082805514,-1.8985450717501342
1744407814311153400,1.9081533203125,1.6104221034944057,-3.0137922328755256,-2.114117913710326
1744407814321124600,1.91812451171875,1.4179706094026565,-3.371748469683528,-2.1680027947634457
1744407814331095600,1.928095458984375,1.2971259694069623,-3.673302728050947,-2.291472814826667
1744407814341066200,1.938066162109375,1.273670275017619,-3.9278190486505626,-2.438508711655438
1744407814351036700,1.94803662109375,1.2223533447563648,-3.9137493145048614,-2.3785035941563546
1744407814361007400,1.95800732421875,1.1093629253923893,-3.8370720252767203,-2.1474770163461563
1744407814370978300,1.967978271484375,0.8994909254223108,-3.947806774668395,-2.257976495677233
1744407814380949500,1.977949462890625,0.7000491340517997,-4.047682568654418,-2.4513980038449166
1744407814390919400,1.98791943359375,0.558155276286602,-4.093116578356922,-2.518772627198696
1744407814400890600,1.997890625,0.4634264898002147,-4.1072283980786795,-2.4045213941186665
1744407814410861600,2.007861572265625,0.424725295484066,-3.8745623824983833,-1.8427742308199404
1744407814420832500,2.01783251953125,0.42698739519715306,-3.2134567270860073,-0.7429774445436894
1744407814430802700,2.027802734375,0.2798112131148577,-2.0555039583086967,0.7630375051453709
1744407814440773400,2.0377734375,-0.21997136918008325,-1.289525139014423,1.3737313624426721
1744407814450744300,2.047744384765625,-0.7049743154942989,-1.4560329212933778,1.1522208009965718
1744407814460715500,2.057715576171875,-1.268162909772992,-1.6808356561526656,1.6277048083372414
1744407814470685400,2.067685546875,-2.0310019697368142,-1.222006138753891,2.5836902127891777
1744407814480656400,2.077656494140625,-3.4498528691053387,-0.08288418104425072,3.4270722974985834
1744407814490627600,2.087627685546875,-5.346970684531331,0.9143933109998702,3.4199045978263016
1744407814500598500,2.0975986328125,-6.719253309470415,1.658259521076828,2.3344120851039887
1744407814510568400,2.107568359375,-7.076907056200504,2.5610899661853908,0.9937368968278169
1744407814520539600,2.11753955078125,-6.893796806427836,3.545323706130683,-0.49871999456472693
1744407814530510300,2.12751025390625,-6.0387301291435955,4.338232325665652,-2.0647038944609464
1744407814540481500,2.1374814453125,-4.860930211862922,4.531489583182335,-3.059200523614883
1744407814550451500,2.147451416015625,-3.416111343023181,4.401867177969217,-4.03376451793909
1744407814560422400,2.15742236328125,-2.080878638061881,4.0234319244951005,-3.950132587267458
1744407814570393600,2.1673935546875,-1.0377700998216868,3.1529917369902134,-3.297785992372036
1744407814580363500,2.177363525390625,-0.5356535216212273,1.826723259729147,-2.402811667591333
1744407814590334500,2.18733447265625,-0.3919605054795742,0.36931934234350916,-1.3918575323723257
1744407814600305700,2.1973056640625,-0.2719400413483381,-0.5969210602715611,-0.5584584970168769
1744407814610276400,2.2072763671875,-0.23420272362828254,-1.0964642808526754,-0.09681289928406477
1744407814620246500,2.21724658203125,-0.22809505440294742,-1.3718138383835554,0.013284575117379425
1744407814630217500,2.227217529296875,-0.13118366318047045,-1.4235945867642759,-0.19332564657777546
1744407814640188400,2.2371884765625,0.012876432707905769,-1.3300129244863985,-0.5175174148194491
1744407814650159400,2.247159423828125,0.24498949058055877,-1.1212789886355399,-0.705468236491084
1744407814660129500,2.257129638671875,0.6886807678192853,-0.8112057621173561,-0.7553704776488244
1744407814670100500,2.2671005859375,1.2068354576289653,-0.6290116042762994,-0.7641735234379768
1744407814680071700,2.27707177734375,1.718119677147269,-0.6562237285897136,-0.6783667329452931
1744407814690042400,2.28704248046875,2.1563573651552197,-0.759619659525901,-0.48403307836875314
1744407814700012500,2.297012451171875,2.543704239359498,-0.8610337689951062,-0.12750292884111403
1744407814709983500,2.3069833984375,2.788298008620739,-1.0019703991007058,-0.013203472705185413
1744407814719954400,2.316954345703125,2.761654916366935,-1.1484979810811577,-0.25324235514104365
1744407814729925400,2.32692529296875,2.7101135297000405,-1.07720201956518,-0.3529560904331505
1744407814739895600,2.3368955078125,2.8567461064249273,-0.8252752770673483,-0.2524335229761898
1744407814749866500,2.346866455078125,2.9964830784171816,-0.5303982679741457,-0.4017383876502514
1744407814759837400,2.35683740234375,3.132905811294913,-0.21934388493150472,-0.6521630550220608
1744407814769808600,2.36680859375,3.226127115827799,-0.039039595957659184,-0.8402052082389593
1744407814779778600,2.376778564453125,3.2203327503353356,0.14780328273838386,-1.0194843554161488
1744407814789749500,2.38674951171875,3.0057541801095007,0.33497619710639115,-1.22599418547675
1744407814799720400,2.396720458984375,2.485145082885027,0.47915838500447566,-1.3517698521338402
1744407814809690400,2.4066904296875,1.9802058484792708,0.4899659024838358,-1.2326609498895704
1744407814819661600,2.41666162109375,1.776496462792158,0.44022758318353444,-1.1590342804037035
1744407814829632500,2.426632568359375,1.2962813352763651,0.40520547923892736,-1.173524285788089
1744407814839603500,2.436603515625,0.664440060532093,0.49024859188273545,-1.0282036684446036
1744407814849573600,2.44657373046875,0.5026835644334554,0.8717408217746764,-1.172763530548662
1744407814859544600,2.456544677734375,0.23000702550411223,1.1700255569521336,-1.2366950277112423
1744407814869515500,2.466515625,0.07373042212128639,0.9974498529363423,-1.2801749807365237
1744407814879486500,2.476486572265625,-0.0665104077398777,0.6724803783204406,-1.0322858231917023
1744407814889456400,2.486456298828125,-0.1644470503568649,0.34178989570923146,-0.6465069289565086
1744407814899427300,2.49642724609375,-0.28939269593060013,0.21988617511466144,-0.18152824127823114
1744407814909398500,2.5063984375,-0.5140262117028236,0.15743731772527098,0.23758359823822975
1744407814919369500,2.516369384765625,-0.6581821691811084,0.11417261488586664,0.4484400792010128
1744407814929339400,2.52633935546875,-0.8677513868123292,0.21806144390553234,0.5077018309868871
1744407814939310600,2.536310546875,-1.1021686299741267,0.3623923195593059,0.5621988525889814
1744407814949281500,2.546281494140625,-1.1798632795512676,0.35951457216590643,0.5009722304709255
1744407814959252500,2.55625244140625,-1.0159294394135474,0.24311945892497897,0.3733830846510827
1744407814969222700,2.56622265625,-0.6809037040770054,0.21486849308311937,0.2804338750578463
1744407814979193300,2.576193359375,-0.5421867227822542,0.4095737574510276,0.3161183519013226
1744407814989164500,2.58616455078125,-0.7597375868171453,0.6254810920625925,0.3281093800768256
1744407814999135500,2.596135498046875,-1.1028133576184511,0.7046722638078033,0.3210907334864139
1744407815009105400,2.60610546875,-1.4819003529995678,0.8595065594278275,0.6261436476245522
1744407815019076600,2.61607666015625,-1.8126117322683333,1.14591541724205,1.2046513915881514
1744407815029047600,2.626047607421875,-1.7964713293284176,1.1973197335258126,1.6545312943339348
1744407815039017500,2.636017578125,-1.5468939264357089,1.0061313912376761,1.774362957894802
1744407815048988700,2.64598876953125,-1.1536275990545748,0.6624294513620436,1.705835365113616
1744407815058959400,2.65595947265625,-0.6845920372009276,0.38007016119956966,1.6272762076616287
1744407815068930600,2.6659306640625,-0.44838907966613767,0.2594663442224264,1.4975246231108903
1744407815078900500,2.675900390625,-0.453377389472723,0.4005671519137919,1.3415502175450325
1744407815088871400,2.685871337890625,-0.7833598699450492,0.918923940166831,1.0918348674863576
1744407815098842600,2.695842529296875,-1.3567623997241258,1.5749265733517706,0.7520949631094932
1744407815108813600,2.7058134765625,-1.6582541142493485,2.021657218286395,0.3933572205349803
1744407815118783500,2.715783447265625,-1.511786957219243,2.2493547978043553,0.29053426718115805
1744407815128754700,2.725754638671875,-1.1843185053944587,2.3631188318893313,0.3578440086051822
1744407815138725600,2.7357255859375,-0.9321195218265056,2.33895060531646,0.3545471590168774
1744407815148696300,2.7456962890625,-0.9416215096652507,2.144956850218773,0.2747010304942727
1744407815158666500,2.75566650390625,-1.188573824751377,1.7642999751724302,0.17950389584377408
1744407815168637400,2.765637451171875,-1.1405933454364539,1.434422562509775,0.21497107667475937
1744407815178608400,2.7756083984375,-0.7908411656111478,1.1788700307302176,0.3456707557305693
1744407815188579600,2.78557958984375,-0.24548107348978518,0.9093426034815609,0.3847615338861942
1744407815198549500,2.795549560546875,0.3233306213676929,0.5266336912762374,0.443224244248867
1744407815208520400,2.8055205078125,0.9986474652230739,0.10613627915289252,0.5542699592858552
1744407815218491600,2.81549169921875,1.5010884530723094,-0.18303404273129997,0.5476705610208213
1744407815228461600,2.825461669921875,1.6685750172555445,-0.2581575266461819,0.5097980726137757
1744407815238432500,2.8354326171875,1.7086591903626918,-0.21208689954057336,0.4855183484904468
1744407815248403500,2.845403564453125,1.8871055399775505,-0.1830950156709179,0.4516048268422484
1744407815258374400,2.85537451171875,2.1469974161356684,-0.19279296447318045,0.38503260591253635
1744407815268344300,2.86534423828125,2.36421218008399,-0.2323250931881368,0.22236863958016037
1744407815278315500,2.8753154296875,2.388999415338039,-0.30755861334875223,0.0012653437606990336
1744407815288286500,2.885286376953125,2.18461198425889,-0.3955628042878583,-0.2198554877154529
1744407815298257700,2.895257568359375,1.6143337239801883,-0.47757582852076735,-0.5876603338427842
1744407815308227600,2.9052275390625,0.8471446521133184,-0.5617791658721863,-0.6882518748827278
1744407815318198500,2.915198486328125,0.18227964416742323,-0.767858349430561,-0.5208509431563317
1744407815328169500,2.92516943359375,-0.23386311641037463,-1.1197723834648727,-0.40590749002844095
1744407815338140400,2.935140380859375,-0.3141249861270189,-1.5181959474787114,-0.44623000193610785
1744407815348110300,2.9451103515625,-0.16885609897077083,-1.8546249737419187,-0.6920452758163214
1744407815358081500,2.95508154296875,0.0625450112402439,-2.0651921163693068,-1.0355158911541105
1744407815368052500,2.965052490234375,0.3370645476877689,-2.153438262838125,-1.30544356976673
1744407815378023700,2.975023681640625,0.48648529382646083,-2.1771758429087695,-1.3566846583127974
1744407815387993600,2.98499365234375,0.5061620541989803,-2.1267305809155106,-1.2578538433350621
1744407815397964500,2.994964599609375,0.4191214841276407,-2.0602239725679157,-0.9901359497264027
1744407815407935700,3.004935791015625,0.3084539547532797,-2.046742851965129,-0.6689107762053609
1744407815417905700,3.01490576171875,0.19774317075908182,-2.047028098647296,-0.3267836844310164
1744407815427876400,3.02487646484375,0.005579845958948135,-1.9546910296030342,-0.22098054622262714
1744407815437847600,3.03484765625,-0.21287761152684687,-1.811347995942831,-0.3777434718176722
1744407815447818500,3.044818603515625,-0.3530786938995123,-1.6605327267058192,-0.6323647140964865
1744407815457788400,3.054788330078125,-0.4313263011842966,-1.5430901502385734,-0.8531412621796131
1744407815467759600,3.064759521484375,-0.42744624488055705,-1.529665874389559,-0.8449418813720345
1744407815477730600,3.07473046875,-0.4236784167796373,-1.553189373318106,-0.7949610220201313
1744407815487701500,3.084701416015625,-0.4685439789444208,-1.6699457210868596,-0.6608282997757196
1744407815497671700,3.094671630859375,-0.4969435594767332,-1.8086450205944478,-0.42629254480078815
1744407815507642600,3.104642578125,-0.5598731861203908,-1.9994816268354654,-0.3500254438087344
1744407815517613300,3.11461328125,-0.5490700525552034,-2.29591547344923,-0.3501540386244654
1744407815527584500,3.12458447265625,-0.4381389038085937,-2.591672443714738,-0.404908688249439
1744407815537554400,3.134554443359375,-0.5445744947016239,-2.777797365133464,-0.49268604816272854
1744407815547525400,3.144525390625,-0.911588774973154,-2.655542566078901,-0.5640792595081031
1744407815557496600,3.15449658203125,-1.6092735179811715,-2.184382559417188,-0.6448593078799545
1744407815567467500,3.164467529296875,-2.5319150173664093,-1.3564393052496015,-0.7235958677254617
1744407815577437400,3.1744375,-3.399119291689992,-0.33902013873495157,-0.7204160686455666
1744407815587408600,3.18440869140625,-3.796831492564082,0.6132486563466489,-0.7683434295337647
1744407815597379300,3.19437939453125,-3.574367137524485,1.4204955978356302,-0.8277921552591025
1744407815607350500,3.2043505859375,-3.1170863108724354,1.7777786115571856,-0.9744754392579197
1744407815617320400,3.214320556640625,-2.590068515649438,1.737472174001485,-1.1407332653637974
1744407815627291400,3.22429150390625,-2.005578774666786,1.4303957912117242,-1.3496600203730165
1744407815637262600,3.2342626953125,-1.3609218574911355,1.0192783114500343,-1.4763697530098259
1744407815647232500,3.244232421875,-0.8015332400172949,0.585330648786202,-1.6113259204663335
1744407815657203500,3.254203369140625,-0.38430151515901084,0.18872385187074542,-1.780614419505
1744407815667174700,3.264174560546875,-0.008724573725461959,-0.08453479779548942,-1.7911426816515623
1744407815677145600,3.2741455078125,0.3248030320078134,-0.21201953339278698,-1.614616778705269
1744407815687115500,3.284115478515625,0.5919190142005681,-0.09422836268357931,-1.340559891333431
1744407815697086500,3.29408642578125,0.8795651587247848,0.08651968800239264,-0.9699483172222971
1744407815707057400,3.304057373046875,1.218059446954727,0.31621282525174316,-0.5921173132516443
1744407815717028600,3.314028564453125,1.5890326939851045,0.49900984435677526,-0.30339272584095595
1744407815726998500,3.32399853515625,1.9997072522848844,0.5209270771324634,-0.16634915765114128
1744407815736969500,3.333969482421875,2.4964076506555077,0.5320212295334786,-0.08054828544259071
1744407815746940700,3.343940673828125,2.9860972934812304,0.5505564186554401,-0.005860708726942539
1744407815756911600,3.35391162109375,3.4117888036489483,0.6400777726918458,-0.03513809500709176
1744407815766881500,3.363881591796875,3.700774672344327,0.7638345007419586,-0.27660684584928674
1744407815776852500,3.3738525390625,3.7449312094569205,0.9690415776409208,-0.7666019196286797
1744407815786823400,3.383823486328125,3.570848900270462,1.295270989190042,-1.2224868349429219
1744407815796793300,3.39379345703125,3.2809424095988273,1.698918863723427,-1.6455013079211114
1744407815806764300,3.403764404296875,3.1188579967200756,2.106830971572548,-1.8847252207122742
1744407815816735500,3.413735595703125,3.281433992508054,2.392871142204851,-1.8739385998904703
1744407815826706400,3.42370654296875,3.5722301254957913,2.4961717960730194,-1.6635811544910073
1744407815836676400,3.43367626953125,3.8531460849821566,2.4403514169126748,-1.3591162693738936
1744407815846647600,3.4436474609375,4.089178946647047,2.3360174744740125,-0.9843032980501651
1744407815856618500,3.453618408203125,4.0943718391150234,2.2463100232809783,-0.5044330749819055
1744407815866589400,3.46358935546875,3.7446214128553863,2.1050334206312895,-0.014492014678381383
1744407815876559600,3.4735595703125,3.175973384127021,1.9029414070129393,0.35137397234085943
1744407815886530300,3.4835302734375,2.471099021875858,1.4918024460718036,0.5348675588753075
1744407815896501500,3.49350146484375,1.7298241434663533,1.0048872363954782,0.5916707385279237
1744407815906472400,3.503472412109375,1.0398036514759064,0.5648460060968995,0.6928729588121175
1744407815916442400,3.5134423828125,0.38702129551172254,0.6140265088513494,0.8197907081764191
1744407815926413600,3.52341357421875,-0.1246335108846426,1.0364505416557193,0.936537046007812
1744407815936384500,3.533384521484375,-0.5725614027798176,1.3213786593928933,1.1527012049246579
1744407815946355500,3.54335546875,-0.9979805257469415,1.2977955392315983,1.446392109505832
1744407815956325600,3.55332568359375,-1.373244747969508,1.0539265771135686,1.714255987456441
1744407815966296300,3.56329638671875,-1.884336659786105,0.7766147795990109,1.8145238494999705
1744407815976267500,3.573267578125,-2.427126609158516,0.49635713789090513,1.7232945955671368
1744407815986237400,3.583237548828125,-2.8476871861785646,0.27321283776313066,1.5729174254864453
1744407815996208400,3.59320849609375,-3.106469639790058,0.14134645301550625,1.5082565911360084
1744407816006179600,3.6031796875,-3.3073055158674713,0.14203136653974652,1.5128265294000505
1744407816016150500,3.613150634765625,-3.437767879036069,0.2466862114958465,1.5693717157036065
1744407816026120400,3.623120361328125,-3.5156402232676744,0.442950103482604,1.735376516896486
1744407816036091600,3.633091552734375,-3.419793830928206,0.6036522682227194,2.0386144905671477
1744407816046062600,3.6430625,-3.3084529323369263,0.49190249656960366,2.3272883707039056
1744407816056033300,3.653033203125,-3.213000507751107,0.1275740943811834,2.3411324794001875
1744407816066003500,3.66300341796875,-3.305409911379218,-0.18755027804672716,2.040173118185997
1744407816075974400,3.672974365234375,-3.509869238650799,-0.360545814909786,1.771916879916936
1744407816085945300,3.6829453125,-3.605069734302163,-0.3885508431665599,1.6186559710934758
1744407816095916500,3.69291650390625,-3.7216894500792024,-0.24969364968352017,1.5186401841148733
1744407816105886500,3.702886474609375,-3.7890930072665214,0.11072035554014145,1.2924882266037165
1744407816115857400,3.712857421875,-3.599558277404308,0.5076294233378023,1.0045096352547407
1744407816125828600,3.72282861328125,-3.3600983639001845,0.7674809674855321,0.8283711972560733
1744407816135798500,3.732798583984375,-3.0214912629455326,0.9137753252319991,0.7668239648815244
1744407816145769500,3.74276953125,-2.5022511159867045,0.9853335178807378,0.7841257397510111
1744407816155740400,3.752740478515625,-1.9251777887403965,0.9129010266155004,0.6603481150433421
1744407816165711400,3.76271142578125,-1.458816999053955,0.790412199609354,0.42054063021056354
1744407816175681500,3.772681640625,-0.9927882178008556,0.7178424187652767,0.1762798557633534
1744407816185652500,3.782652587890625,-0.4695715684264898,0.5959989769905806,-0.024030827396176756
1744407816195623400,3.79262353515625,0.06424772350490093,0.41859110357798635,-0.13093860237821936
1744407816205594600,3.8025947265625,0.6220575473546981,0.20911190231777727,-0.14986344840489327
1744407816215564500,3.812564453125,1.188484392902255,-0.0661735770009458,-0.14577230663374066
1744407816225535500,3.822535400390625,1.6330232268810272,-0.34574097142256793,-0.06689312344714998
1744407816235506400,3.83250634765625,2.0378759471595287,-0.6287541223838925,0.1336411393351853
1744407816245477400,3.842477294921875,2.4027210666984318,-0.7957041685376316,0.39064715785868465
1744407816255447300,3.852447265625,2.730659474122524,-0.8297594367440789,0.6374309114448726
1744407816265418500,3.86241845703125,2.8788725980371237,-0.8782081911578774,0.7504460268586873
1744407816275389400,3.872389404296875,2.9392595544606444,-0.9051412062689661,0.8849792196627706
1744407816285360600,3.882360595703125,3.055319882789254,-0.8579099378861487,1.0548588164623827
1744407816295330600,3.89233056640625,3.1597002947181463,-0.7496309110835194,1.2178922006290405
1744407816305301500,3.902301513671875,3.2379958327978846,-0.6014356150865554,1.2753463915362953
1744407816315272400,3.9122724609375,3.361173884177208,-0.4453312995307147,1.2441155331008136
1744407816325242600,3.92224267578125,3.5077766502857206,-0.26987287968546153,1.081695020135492
1744407816335213300,3.93221337890625,3.628758652925491,-0.0916898571819067,0.8999803163744509
1744407816345184500,3.9421845703125,3.6880601521998644,0.08087152604758739,0.7766120761852711
1744407816355155500,3.952155517578125,3.7200691554009913,0.16929492877945304,0.6844830238685011
1744407816365125400,3.96212548828125,3.7460406320035458,0.1665086590617895,0.6510691223055124
1744407816375096600,3.9720966796875,3.797251179280877,0.07838146279752255,0.6129817490387708
1744407816385067500,3.982067626953125,3.8601457346111534,-0.05562909437194466,0.555623565851897
1744407816395038500,3.99203857421875,3.9459021100908513,-0.25669863307476043,0.4943857647527009
1744407816405008600,4.002008544921875,4.035501716995239,-0.5186737452477217,0.36043694770783186
1744407816414979600,4.0119794921875,4.0864217568933965,-0.9143684688195586,0.1334589877013117
1744407816424950300,4.0219501953125,4.0305999164283275,-1.4613500246629119,-0.1359365567959845
1744407816434920400,4.03192041015625,3.8816958876401184,-2.172006477446854,-0.37961635301746427
1744407816444891400,4.041891357421875,3.7205502169162035,-2.9662562824577092,-0.4950790077138692
1744407816454862300,4.0518623046875,3.609541911280155,-3.8147012035146353,-0.4183972980389371
1744407816464833500,4.06183349609375,3.772772571584582,-4.540630336493254,-0.3808573660545051
1744407816474803500,4.071803466796875,4.005087289509177,-4.93624176569581,-0.4787203589133918
1744407816484774700,4.081774658203125,3.5188229449570176,-4.501800547361373,-0.9214138572864234
1744407816494745600,4.09174560546875,1.5259972688794134,-3.1917493376687167,-1.1890771711636334
1744407816504716300,4.10171630859375,-2.317566164243221,-1.778083439722657,-0.9808118026725947
1744407816514686500,4.1116865234375,-6.365579572287202,-0.8600362093251198,-0.9793645264737307
1744407816524657400,4.121657470703125,-10.09015013076067,-0.2737861076064408,-1.383353177268803
1744407816534628400,4.13162841796875,-12.150514973103999,0.6758446671217679,-1.182830458793789
1744407816544599600,4.141599609375,-11.780603802347182,2.142745896171033,-0.6282776639785618
1744407816554569500,4.151569580078125,-12.375679819273948,3.3022198831662535,-0.4341119863800704
1744407816564540400,4.16154052734375,-12.425921813780068,3.94094361090064,-1.0364502493947745
1744407816574511600,4.17151171875,-12.197293090891838,3.9251115432575343,-2.3757202470481396
1744407816584482300,4.181482421875,-11.463802290487289,3.9468829378217456,-3.3286513784959912
1744407816594452500,4.191452392578125,-9.944356342947483,3.9595881056159734,-3.305295637349784
1744407816604423400,4.20142333984375,-7.660882417920232,3.2163197153016925,-3.005166151088476
1744407816614394400,4.211394287109375,-5.384938303875923,1.9705150600701569,-2.2287796272873877
1744407816624364300,4.2213642578125,-4.129916030704975,0.4559838456440717,-0.9259121185537427
1744407816634335500,4.23133544921875,-3.8373704237014055,-0.40029176903851327,0.16577691072113812
1744407816644306400,4.241306396484375,-3.282610050550103,0.09504647413343191,0.714682493429631
1744407816654277600,4.251277587890625,-2.4814152487069365,0.8623886907353997,0.7230230362735688
1744407816664247600,4.26124755859375,-1.783812923285365,0.8201728393618017,0.05323319394504651
1744407816674218500,4.271218505859375,-1.1513210756778716,0.5897184354163706,-0.7778783697940409
1744407816684189400,4.281189453125,-0.518926843225956,0.8368773789905011,-1.1115845469646155
1744407816694160400,4.291160400390625,0.12103928578495979,1.2938558616951108,-1.1549446730025112
1744407816704130300,4.30113037109375,0.6380681864351033,1.597429935452342,-1.1727248790387064
1744407816714101500,4.3111015625,1.1409914048433303,1.667373678641766,-1.0184451485615222
1744407816724072400,4.321072509765625,1.6678198149740695,1.715049768182635,-0.722828317419067
1744407816734042400,4.33104248046875,2.240714979752898,1.7659778452567756,-0.4106904499886557
1744407816744013600,4.341013671875,2.885498153656721,1.8331852953501044,-0.14687723566833882
1744407816753984500,4.350984619140625,3.51764396430552,1.9025329723425208,0.08385954714873806
1744407816763955700,4.360955810546875,4.085848340919614,1.9777116935759782,0.30578915599081663
1744407816773925600,4.370925537109375,4.5990772647649045,2.0445862584531307,0.4763730651348829
1744407816783896300,4.380896240234375,5.060215935888886,2.005253195974231,0.5560873109061271
1744407816793867000,4.390866943359375,5.535408266806602,1.9050591298192738,0.6618675066303461
1744407816803838000,4.400837890625,6.064096041068434,1.8403741839408874,0.778719204532355
1744407816813808000,4.41080810546875,6.451891828083991,1.7537211518824098,0.7546256506308913
1744407816823779000,4.420779052734375,6.692863899716735,1.5746771286353467,0.7299183487452566
1744407816833750000,4.43075,6.783057965382933,1.473436476036906,0.709812841566652
1744407816843721200,4.44072119140625,6.708553636279702,1.4204405066475272,0.6264118701066821
1744407816853691100,4.450691162109375,6.389122944959998,1.367312435311079,0.5587469585694372
1744407816863662000,4.460662109375,5.990999825197458,1.2549319645389914,0.4105516260398552
1744407816873633000,4.470633056640625,5.58377336152494,1.088892968815565,0.26153321362435816
1744407816883604000,4.48060400390625,5.093743526959419,1.0229022010356188,0.06931687999535352
1744407816893574000,4.490573974609375,4.303738812172413,1.0708207210302352,-0.12230333263771608
1744407816903545000,4.500545166015625,3.285461348327994,1.3246581194549798,-0.21918120518308132
1744407816913516000,4.51051611328125,2.1528893967837095,1.7397674453318117,-0.3792663340033963
1744407816923486000,4.52048583984375,0.8605822258353233,2.220332701459527,-0.5913393511490896
1744407816933457200,4.53045703125,-0.1987590698033571,2.6269866259410977,-0.6733188019059598
1744407816943428000,4.540427978515625,-0.8561690855681896,2.9443825965628028,-0.5068258153373375
1744407816953399300,4.5503994140625,-1.1804320193499327,3.0958336794853207,-0.11890578088760376
1744407816963369200,4.560369140625,-1.3613532346457242,3.064490446716547,0.49762058195546266
1744407816973340200,4.570340087890625,-1.4820184264212846,2.8963346049696206,1.1812633556075394
1744407816983311000,4.58031103515625,-1.6313327895760534,2.708633520275354,1.7518696787968278
1744407816993282000,4.590281982421875,-1.7048901932179927,2.487355160149932,1.9213032853946088
1744407817003252000,4.600251953125,-1.7295985180169342,2.3015283448949453,1.815526596801728
1744407817013223200,4.61022314453125,-1.8133423846304415,2.264451244649291,1.6204387628570198
1744407817023194000,4.620194091796875,-2.0774960098862647,2.3112257091753183,1.4165554819077253
1744407817033164000,4.6301640625,-2.4548931524842974,2.285039420778304,1.4029687089733778
1744407817043135200,4.64013525390625,-2.803635863006115,2.218744117093831,1.8955486664131282
1744407817053106200,4.650106201171875,-2.860139255994558,2.09236916936934,2.8526339949309825
1744407817063077000,4.6600771484375,-2.5099393324017525,1.941187843298912,3.8083915819764136
1744407817073047000,4.670047119140625,-1.9770359862715006,1.7132158307537435,4.256443392512202
1744407817083018000,4.68001806640625,-1.4389420857608317,1.4914185613207518,4.025753060919046
1744407817092989200,4.6899892578125,-0.9822574714362621,1.3231126435786484,3.455028518177569
1744407817102960000,4.699960205078125,-0.8094009046524763,1.1358740618295966,2.9121801166161894
1744407817112930000,4.709929931640625,-1.0779740999162197,1.0560732337534426,2.454532502478361
1744407817122901200,4.7199013671875,-1.6857161216706036,1.0920078859657047,2.173078782853484
1744407817132872200,4.7298720703125,-2.287515309372544,1.336930594920367,2.097793824766576
1744407817142843100,4.739843017578125,-2.642021405726671,1.540547918409854,2.0382110243327913
1744407817152813300,4.749813232421875,-2.717670228689909,1.5539958673954009,1.8330996628932654
1744407817162784000,4.759783935546875,-2.572442258065939,1.4097538390688598,1.5830017432577907
1744407817172755000,4.7697548828125,-2.26204652159512,1.251440761422366,1.260220864727348
1744407817182725000,4.77972509765625,-1.9023177221566439,1.0024196772381662,0.8896453848429023
1744407817192696000,4.789696044921875,-1.4853238977074623,0.6661266253795475,0.5807393754731863
1744407817202667000,4.7996669921875,-1.034315575453639,0.3533354451395571,0.3169281339142471
1744407817212638200,4.80963818359375,-0.5314052165269851,0.1183200899541378,0.1680406361357309
1744407817222608100,4.819608154296875,0.05212941568791866,-0.038980668844655154,0.15339169559627772
1744407817232579000,4.8295791015625,0.6223685130000114,-0.22901483612898735,0.09051227390305139
1744407817242550000,4.839550048828125,1.1006190624445675,-0.44214832211304456,0.063332366792229
1744407817252521000,4.84952099609375,1.5494330895245074,-0.6798370977587997,0.0621060079016257
1744407817262491000,4.859490966796875,1.9228893855422735,-0.9180416774395853,0.0867106348640751
1744407817272462000,4.869462158203125,2.347350477132201,-1.1099980084255336,0.08480028033126145
1744407817282433000,4.87943310546875,2.7940426897525787,-1.2829947143323719,-0.02271480376101099
1744407817292404200,4.889404296875,3.201155756178498,-1.428376560343802,-0.268616048024781
1744407817302374100,4.8993740234375,3.4522423945903777,-1.5239843216218054,-0.5067331320852041
1744407817312345000,4.909344970703125,3.547324816820025,-1.5529004733741283,-0.6641041796412318
1744407817322316300,4.91931640625,3.574511514431238,-1.5300545814462005,-0.7154529663454741
1744407817332286200,4.9292861328125,3.5674966672331094,-1.4816343955397604,-0.7574236107863486
1744407817342257000,4.9392568359375,3.612445816028118,-1.5090367817282675,-0.852817217857018
1744407817352228000,4.94922802734375,3.529275949910283,-1.6094197945840656,-1.0926441380426286
1744407817362199000,4.959198974609375,3.3497143325299024,-1.672766623726487,-1.4058205912731587
1744407817372169000,4.9691689453125,3.1048832473814487,-1.635298770597577,-1.6982058931484818
1744407817382140200,4.97914013671875,2.6243068853378295,-1.5920616864174604,-1.949707688232511
1744407817392111000,4.989111083984375,1.8423446072310208,-1.6608201653450727,-1.9862343149885535
1744407817402082300,4.999082275390625,0.998212580937147,-1.8311035206399857,-1.9254398006774485
1744407817412052200,5.00905224609375,0.12273264569938182,-2.0396317047856747,-1.8369181982681153
1744407817422023200,5.019023193359375,-0.6468611492216587,-2.2263298960477114,-1.7134950860865412
1744407817431994000,5.028994140625,-1.2205471721172332,-2.3389050126090645,-1.7847560493543744
1744407817441964000,5.038964111328125,-1.7664432708114384,-2.321432776543498,-2.0113316391050815
1744407817451935000,5.04893505859375,-2.3410446549862622,-2.2024217817157505,-2.2345202167659997
1744407817461906200,5.05890625,-2.909440754780173,-2.119232334114611,-2.3274168193891644
1744407817471877000,5.068877197265625,-3.574354862564802,-2.2432114727437495,-2.41695052145049
1744407817481847000,5.078846923828125,-4.298644119381905,-2.507315413638949,-2.447733343857527
1744407817491818200,5.088818359375,-4.963548874816298,-2.74588568482697,-2.3014894741892813
1744407817501789200,5.0987890625,-5.61894638171494,-2.895954373480379,-2.2721076046213504
1744407817511760000,5.108759765625,-6.135881758862734,-2.8987980724737046,-2.2939478266380724
1744407817521730300,5.118730224609375,-6.183903739231824,-2.8140318770751356,-2.515477092784643
1744407817531701000,5.128700927734375,-5.76952623476088,-2.859178594268858,-2.831056661634147
1744407817541672000,5.138671875,-5.203773927474022,-2.8944620890960095,-3.2404560854315756
1744407817551643100,5.14864306640625,-4.863700845620036,-2.8848145553067326,-3.613650807903707
1744407817561613000,5.158613037109375,-5.064665316513181,-2.8762191609188914,-3.872459565000236
1744407817571584000,5.168583984375,-5.745720411759614,-2.64918530600667,-3.8428959091246124
1744407817581555200,5.17855517578125,-6.390435196602344,-2.1019063746519384,-3.6472155161142346
1744407817591525000,5.188525146484375,-6.50392888931334,-1.2987119234241544,-3.3384473808452486
1744407817601496000,5.19849609375,-6.217400935164093,-0.6173232123091816,-3.01399944588542
1744407817611467000,5.208467041015625,-5.398388737079501,-0.10730954244965686,-2.7619503921821713
1744407817621438000,5.21843798828125,-4.216868337970972,0.13678747453689574,-2.4893881272822616
1744407817631408000,5.228408203125,-2.968258854451775,0.10362221397273241,-2.2481981751151383
1744407817641379000,5.238379150390625,-1.8126117322683333,0.04061448059156537,-1.9057683010019362
1744407817651350000,5.24835009765625,-0.9296201062262057,-0.01397610104549676,-1.589482775840163
1744407817661321200,5.2583212890625,-0.49762043582499027,-0.12473879789002239,-1.418438665305823
1744407817671291100,5.268291015625,-0.4184586363047361,-0.043897666980698705,-1.3358505445986986
1744407817681262000,5.278261962890625,-0.33237960474193096,0.3447611666049808,-1.2535573151849209
1744407817691233300,5.2882333984375,-0.0014139584511518477,0.7343370419703423,-1.1899482549097389
1744407817701203200,5.298203125,0.31389994519948955,0.9986597401827573,-1.2103958535242825
1744407817711174000,5.308173828125,0.8689759601712226,1.171240412634611,-0.7967240131046622
1744407817721145000,5.31814501953125,1.7429419837146995,1.1869260575443505,-0.031814357411861414
1744407817731116000,5.328115966796875,2.481606971886754,0.8872147966951132,0.539474723877199
1744407817741086000,5.3380859375,2.614986099284887,0.8024072463728487,1.4103969592779875
1744407817751057200,5.34805712890625,2.901179122391343,1.2799680599875747,2.937690697708726
1744407817761028000,5.358028076171875,2.753646381956339,1.6156738865427671,4.195604600667953
1744407817770999300,5.367999267578125,1.3100281210780143,1.5756345754906533,4.211182985810935
1744407817780969200,5.37796923828125,0.8650953193455934,1.5863465236410497,3.993658717522025
1744407817790940200,5.387940185546875,1.6956155843943357,2.144771264518797,4.793910685557127
1744407817800911000,5.3979111328125,2.9916981822282076,3.2811431928679347,6.2164277062177655
1744407817810881000,5.407881103515625,3.969178356260061,4.03542572914958,6.808883896034955
1744407817820852200,5.417852294921875,4.836585459679365,2.956167142380774,6.59702978233695
1744407817830823200,5.4278232421875,5.808235027861595,1.452048820093274,5.690449190914631
1744407817840794400,5.43779443359375,7.340493695223331,2.8955703425988553,4.138583613546192
1744407817850764300,5.447764404296875,8.56589999780953,4.199027853114902,1.8233070215448737
1744407817860735200,5.4577353515625,4.777347088769078,2.198461645913124,-1.0913687112793327
1744407817870706400,5.46770654296875,-0.3511807513236999,-0.14566840786784888,-3.1507366515398023
1744407817880677000,5.477677001953125,-0.2291021856188774,0.5406602438673377,-0.11526888568997383
1744407817890647300,5.487647216796875,-0.051589901983737946,1.7285551464438438,1.3433604818373919
1744407817900618200,5.4976181640625,-0.30544834319651126,2.2726175999701024,2.397905190849304
1744407817910589200,5.507589111328125,0.4287900607049465,2.0638687588110565,2.998094313006103
1744407817920560000,5.51756005859375,1.361639065849781,1.8903414531588554,3.076959759928286
1744407817930530300,5.5275302734375,1.6977344762444495,2.2150793109759688,2.8078426670461893
1744407817940501200,5.537501220703125,1.6231693568646908,2.4652780606374143,2.124790845024586
1744407817950472200,5.54747216796875,1.2802543295830489,2.8483836440101262,1.2711018858343361
1744407817960442400,5.5574423828125,0.33179975902736186,3.464682773968577,0.4347968999043107
1744407817970413300,5.567413330078125,-0.8094955971986055,3.8157486667409537,-0.2838888378173113
1744407817980384000,5.577384033203125,-0.9817384159982204,4.432958481803536,-0.5509615653902292
1744407817990355200,5.587355224609375,-0.3751964176833629,4.853561728921532,-0.5181904917754233
1744407818000325000,5.5973251953125,-0.009577975684404372,4.583630981568992,-0.49161871119216083
1744407818010296000,5.607296142578125,0.1052484269350767,4.455257991895079,-0.16919161453545092
1744407818020267300,5.617267333984375,0.6494745465904473,4.482017696265876,0.2525701549679041
1744407818030238200,5.62723828125,1.3294020991116762,4.176057019633054,0.15541677168309687
1744407818040208400,5.63720849609375,2.539244921863079,3.5205469922706483,0.2055558903366327
1744407818050179300,5.647179443359375,3.56669294963479,2.638561912922561,1.860496349993348
1744407818060150300,5.657150390625,3.7615702095687387,2.754125105383992,3.021889906874299
1744407818070120400,5.667120361328125,3.2720190984308717,2.588212366388738,3.7087796996235847
1744407818080091100,5.677091064453125,1.9035534014314412,1.9304466690540312,4.6483805171161885
1744407818090062000,5.68706201171875,-0.5335235238552093,2.572839732950926,4.791986731757223
1744407818100033300,5.697033203125,-3.3515380408257243,3.85647727523148,4.9680216363161795
1744407818110003200,5.707003173828125,-4.901525257101655,5.965578968214988,4.185401478822529
1744407818119974100,5.71697412109375,-5.119954073014855,7.247333180966973,3.752984752053022
1744407818129945300,5.7269453125,-4.615145771512389,6.909224092662334,3.7038612401828166
1744407818139916300,5.736916259765625,-4.048819463729858,5.544722038596868,3.67343746034652
1744407818149886200,5.74688623046875,-3.433444170618057,3.926203137886524,3.4557954108968376
1744407818159857200,5.756857177734375,-2.812397261610627,2.370913285157829,2.819780942121148
1744407818169828000,5.766828125,-1.9845967769145965,0.9651878248222172,2.117112711612135
1744407818179799300,5.77679931640625,-1.363701843598485,0.12681604255549608,1.6196239393427967
1744407818189769200,5.786769287109375,-1.340728379768133,-0.23880671029239892,1.2951311423279344
1744407818199740200,5.796740234375,-1.6007546959608792,-0.13962752026841044,1.7820444523081183
1744407818209711400,5.80671142578125,-1.8104747202396392,0.46819063546210526,2.7920976931646466
1744407818219681300,5.816681396484375,-2.328238364905119,1.2264714475996792,3.7734371729731557
1744407818229652200,5.82665234375,-2.2810323770940304,1.6291767805859445,4.805796645922959
1744407818239623400,5.83662353515625,-2.816026558023691,1.4317960133984684,4.8531554862082
1744407818249594000,5.846593994140625,-3.027045974463224,0.7574979911968112,3.9040155637368557
1744407818259564300,5.856564208984375,-3.118515466892719,0.19256050742417571,2.5168811143636702
1744407818269535200,5.86653515625,-2.945146274411678,0.2339918573565781,0.9610876960270106
1744407818279506200,5.876506103515625,-2.622886497145891,0.5480246351554989,-0.5910662698287517
1744407818289477000,5.88647705078125,-1.8671020318686962,0.8950980972908437,-1.7549750974662601
1744407818299447300,5.896447265625,-0.5960089138627052,1.2861029094807803,-2.1631737671718
1744407818309418200,5.906418212890625,0.6901537629812955,1.5349807858020066,-2.6049647637471556
1744407818319389400,5.916389404296875,1.9798580579549072,1.0219406625270844,-2.6705627328172326
1744407818329359400,5.926359375,2.4280817179262635,0.4380750447921455,-2.419171850761771
1744407818339330300,5.936330322265625,2.0918255640119314,0.18901859703361987,-2.267387005840242
1744407818349301200,5.94630126953125,1.1016858148932456,-0.0029667408511042594,-2.1298497358493504
1744407818359272200,5.956272216796875,0.11470657563209533,-0.09373729123100638,-2.251911642680317
1744407818369242000,5.9662421875,-0.624245412787795,-0.09227890911623834,-2.924825955438614
1744407818379213300,5.97621337890625,-1.1727180839717388,-0.29552418442294,-3.662938570424914
1744407818389184300,5.986184326171875,-1.4752806425988674,-0.7573162048891187,-3.822155903434753
1744407818399155200,5.9961552734375,-1.453914029443264,-1.1472359983213245,-3.859901696722209
1744407818409125400,6.00612548828125,-1.3323591953516005,-1.3816694619655607,-3.906922683355212
1744407818419096300,6.016096435546875,-1.3187468495845793,-1.565980319699645,-3.951596814601123
1744407818429067000,6.02606689453125,-1.444678583586216,-1.8198891759254037,-3.9611119541823863
1744407818439037400,6.036037353515625,-1.7047931625843047,-2.428014936300367,-3.996722781267762
1744407818449008000,6.046008056640625,-1.9288012399345635,-3.0301988855361937,-4.17849038425982
1744407818458979000,6.05597900390625,-2.1382173128306863,-3.371134721699357,-4.49682801964581
1744407818468950300,6.0659501953125,-2.462656187701225,-3.6536636693403124,-4.474072582480311
1744407818478920200,6.075920166015625,-2.8751351650744676,-4.020717404839396,-4.077956126365065
1744407818488891100,6.08589111328125,-3.244669903734326,-4.539996130242944,-3.877513341258466
1744407818498862300,6.0958623046875,-3.428680317217111,-5.230038834065199,-3.8031799848079677
1744407818508833300,6.105833251953125,-3.4154414809376,-5.908932951885461,-3.4213223556697367
1744407818518803200,6.11580322265625,-3.279447202605009,-6.219573603028059,-2.7398993038937447
1744407818528774100,6.125774169921875,-3.3749797066897154,-6.263093011280894,-2.274773316699266
1744407818538745000,6.1357451171875,-3.878266497713327,-6.193710847496986,-2.214903077626228
1744407818548715000,6.145715087890625,-3.651757835718989,-5.721202641096711,-2.539291099092364
1744407818558686200,6.155686279296875,-4.162476822569966,-4.638670439484716,-3.5559245951220393
1744407818568657200,6.1656572265625,-6.327239612498879,-3.6595974433034657,-4.864375968402624
1744407818578628400,6.17562841796875,-8.283476556369662,-3.2175223690897226,-5.651520033061504
1744407818588598300,6.185598388671875,-9.425976027688383,-2.721681802418828,-5.369753594225645
1744407818598569200,6.1955693359375,-9.822060335099696,-2.012510912017524,-4.368904527305066
1744407818608540400,6.20554052734375,-9.691249012362956,-1.1921917229875922,-3.8121497654661534
1744407818618511000,6.215510986328125,-9.767964003252983,0.09452478834688663,-4.003854532843828
1744407818628481000,6.22548095703125,-9.24890096642673,1.3608030534170568,-4.042709456416964
1744407818638452200,6.2354521484375,-7.448039877706766,1.8930232395887374,-3.9221775356322524
1744407818648423200,6.245423095703125,-5.609995598018169,2.032815448899567,-4.414242967678606
1744407818658393000,6.25539306640625,-3.7485622594356536,2.4224106865525243,-4.887232527855038
1744407818668364300,6.2653642578125,-1.8512591505706308,2.5272668992996214,-4.730093754684924
1744407818678335200,6.275335205078125,-0.3246604086667299,2.2619942068859933,-4.040627389445901
1744407818688306400,6.285306396484375,1.1723790612757206,1.304949356509,-2.1895127619124946
1744407818698276400,6.2952763671875,3.6860996657818554,-1.65071188217625,1.709508354537934
1744407818708247300,6.305247314453125,4.254962214043736,-1.9072043251544235,1.5442137474410236
1744407818718218200,6.31521826171875,2.9330332272917032,-1.2734412885673343,0.42793461291939017
1744407818728189200,6.325189208984375,1.7934458440274,-0.43193245038390154,0.15189444277584552
1744407818738159000,6.3351591796875,0.678906977301836,0.7941814159497618,-0.17208923567309975
1744407818748130300,6.34513037109375,-0.8065338247835636,1.6865610480621456,-0.5437187546551228
1744407818758101200,6.355101318359375,-1.9279232880562542,2.407659838274866,-0.7674718343310057
1744407818768072200,6.365072265625,-2.5282494805961844,2.6897832738548515,-0.9313405002780258
1744407818778042400,6.37504248046875,-2.620094236078858,2.6451234633952376,-0.7557531202908605
1744407818788013300,6.385013427734375,-1.976173231962323,2.6957220162540674,-0.311924991864711
1744407818797984000,6.39498388671875,-0.884365252482891,2.7291391326874495,0.08111439489275217
1744407818807954200,6.4049541015625,0.35872108370065686,2.724033333981037,0.2642701643075794
1744407818817925000,6.414925048828125,1.765129265603423,2.8082933334231375,0.2063727596774697
1744407818827896000,6.42489599609375,2.9261224249899387,2.934771887652576,-0.07045198497250675
1744407818837867000,6.434866943359375,3.362913421320915,2.871094657512009,-0.22337650144845245
1744407818847837200,6.444837158203125,3.2600632876992224,2.6210896768569945,-0.19644911236055193
1744407818857808100,6.45480810546875,2.7604835345000027,2.3403493661984798,0.08911554971449076
1744407818867779000,6.464779052734375,2.0266379293084142,2.192200539691746,0.5766306980453432
1744407818877750300,6.474750244140625,1.200017594307661,2.280041027969122,0.8094761618457734
1744407818887720200,6.48472021484375,0.4281535163670778,2.4787147575765847,0.7793491729989648
1744407818897691100,6.494691162109375,0.04936287358403205,2.7450889814913273,0.24034692547172307
1744407818907662000,6.504662109375,0.2794774511158466,2.8306252844795585,-0.7756094019487499
1744407818917632000,6.514632080078125,0.8608540285140276,2.939829463303089,-1.2442375520452855
1744407818927603000,6.52460302734375,1.0923217742204665,2.961062513206899,-1.040593048287928
1744407818937574100,6.53457421875,1.0680097552627323,2.973133182489872,-0.7189384703736752
1744407818947545000,6.544545166015625,0.8066612505555153,3.1708664163768288,-0.17411321578137576
1744407818957515000,6.554514892578125,0.4875234047025442,3.394824224844575,0.4635176021497696
1744407818967486200,6.564486328125,0.08676526026129722,3.4472298271253705,0.8498052496246993
1744407818977457200,6.57445703125,-0.03725450263917446,3.2605002178117632,0.8076564721379429
1744407818987428000,6.584427978515625,0.23923896422982213,3.1650168135657903,0.8150335037119686
1744407818997398000,6.59439794921875,0.6239391233175993,3.325760917751491,0.931607772912085
1744407819007369000,6.604368896484375,0.9049147040367126,3.4836879186898466,0.9943125047586858
1744407819017340200,6.614340087890625,1.2425474070012568,3.4994349383980032,1.0137119825597851
1744407819027310000,6.62431005859375,1.5996651471585035,3.4522333345010874,1.0569549119587986
1744407819037281000,6.634281005859375,1.6973562905818222,3.4061464138478037,1.2954080595731734
1744407819047252200,6.644252197265625,1.547755511701107,3.306296338824928,1.802260580254346
1744407819057223200,6.65422314453125,1.3341875798225402,3.2334646191090344,2.4688103264167904
1744407819067193000,6.664193115234375,1.509485694539547,3.269812528297305,3.1251220255509016
1744407819077164300,6.674164306640625,2.238626483041048,3.3931975004255768,3.8539962720707055
1744407819087135000,6.684135009765625,3.2113919035106897,3.2540579098045823,4.118153404457867
1744407819097106200,6.694106201171875,4.173854541152715,2.9115900417685507,4.12209278973341
1744407819107076000,6.704076171875,4.765535654944181,2.552991707664728,3.9119405115172263
1744407819117047000,6.714047119140625,4.5855064200520514,2.3353484891712664,3.748214176650345
1744407819127018200,6.724018310546875,3.3722342073738574,2.521506728337705,3.803549110381305
1744407819136988200,6.73398828125,1.1052017140597103,3.1089053425043818,3.9352886538788674
1744407819146959000,6.743958984375,-1.3849006989717483,3.9083576845943924,4.170383065649867
1744407819156930300,6.753930419921875,-3.4772809742569923,4.75037607973516,4.401290254864096
1744407819166901000,6.76390087890625,-4.933396897658706,5.0054742918759585,4.263881433558463
1744407819176871200,6.77387109375,-5.320785272917151,4.344351977589726,3.5586171952068804
1744407819186842000,6.783842041015625,-4.47060636767447,3.2844062863171097,2.8894752405941486
1744407819196813000,6.79381298828125,-2.5579239033699035,2.5464336643233896,2.6038115020588037
1744407819206784000,6.803783935546875,-0.870092396980524,2.155878057205677,2.1603616323605177
1744407819216754200,6.813754150390625,0.4113929357022047,1.4833751017272472,1.3117822712689637
1744407819226725000,6.82372509765625,1.069651677250862,0.7715215481132268,0.2066852596927434
1744407819236696000,6.833696044921875,0.6294909122258424,0.5443477002084255,-0.40719910074155774
1744407819246666200,6.843666259765625,-0.44011108066439625,0.6798886818155646,-0.1978591983541846
1744407819256637200,6.85363720703125,-1.5118717128932475,0.7790013824746013,0.3777532990919426
1744407819266607900,6.86360791015625,-2.1155606598645447,0.6198480546116829,0.7577082729466259
1744407819276579000,6.8735791015625,-1.9750807605504987,0.22260960872918367,0.8370566810801625
1744407819286549000,6.883549072265625,-1.2130851656734942,-0.18838877469748258,0.8110636502329259
1744407819296520000,6.89352001953125,-0.1442570797652006,-0.34469343513101336,0.6352953607209026
1744407819306491100,6.9034912109375,0.7463987972944974,-0.2764487509444356,0.22236370767671615
1744407819316462000,6.913462158203125,1.3047510574579237,-0.2464204001665115,-0.2686949584798887
1744407819326432000,6.923431884765625,1.564786726000905,-0.1990047151274979,-0.561874333342351
1744407819336403200,6.9334033203125,1.5824644215106962,-0.22466098830103873,-0.6747279380515218
1744407819346374100,6.9433740234375,1.6287901193559169,-0.24818594853430984,-0.616549086131528
1744407819356344000,6.953343994140625,1.7902140224993228,-0.23495851043164728,-0.49786827310621734
1744407819366315000,6.96331494140625,1.9375369195759296,-0.2981609626673162,-0.48977531181517986
1744407819376286000,6.973285888671875,2.1620430095762013,-0.3457799151934683,-0.6818745218705385
1744407819386257200,6.983257080078125,2.343150687354803,-0.27630086690634487,-0.9563523380681872
1744407819396227000,6.99322705078125,2.3910312134265896,-0.13482859555408358,-1.0155656476024537
1744407819406198000,7.003197998046875,2.4366928944051263,-0.10530161842703818,-0.804534979116544
1744407819416169200,7.013169189453125,2.5215935298383236,-0.25796163874790073,-0.5550824081799015
1744407819426140200,7.02314013671875,2.4644570996433495,-0.5615899269104003,-0.45898065283987666
1744407819436110000,7.033110107421875,2.238816452655196,-1.108387942880392,-0.8362471913281828
1744407819446081300,7.043081298828125,1.6157430062562226,-1.5725184892967343,-1.3051925176151096
1744407819456052000,7.053052001953125,0.2657709973245859,-1.590090970866382,-1.0145432457521557
1744407819466022000,7.06302197265625,-1.0358207193195819,-1.3633756803840398,-0.3484394167263061
1744407819475993000,7.0729931640625,-1.6787825230151414,-1.162060788618028,-0.07436847799622918
1744407819485964000,7.082964111328125,-1.6358306855171918,-1.0267226361066102,-0.5117389410158619
1744407819495935200,7.092935302734375,-1.1868138293415307,-0.8076013078846037,-1.3642308359086512
1744407819505905200,7.1029052734375,-0.7511316710352898,-0.29076719915419813,-2.108833105175197
1744407819515876000,7.1128759765625,-0.6575397796243428,0.09796689162477851,-2.337437132013589
1744407819525847300,7.122847412109375,-0.9494938504755497,0.11227584135383367,-2.1875584129743277
1744407819535818000,7.13281787109375,-1.6273866822987795,-0.2008665634766221,-1.7979535307101904
1744407819545788200,7.1427880859375,-2.4244302096813914,-0.7728611992191523,-1.3753374824650584
1744407819555759000,7.152759033203125,-3.0072663382381197,-1.4004285229712723,-1.0068904659766704
1744407819565730000,7.16272998046875,-3.0949077968120573,-1.865753832130134,-0.6648930649966001
1744407819575700000,7.172699951171875,-2.754565834888816,-2.329077153816819,-0.5117710166545585
1744407819585671200,7.182671142578125,-2.1266373496741053,-2.8947864987447858,-0.3160420717947185
1744407819595642000,7.19264208984375,-1.3476637319892644,-3.294645063997805,-0.14681682898430154
1744407819605613000,7.202613037109375,-0.7278244452059268,-3.577327448634803,-0.028572891272604463
1744407819615583200,7.212583251953125,-0.5141127209424973,-3.5597675342857835,0.2502363782580942
1744407819625554200,7.22255419921875,-0.8415151217937469,-3.1373814954042434,0.47734132564514875
1744407819635524900,7.23252490234375,-1.8332096991389988,-2.209564639207721,0.5012026051606983
1744407819645495300,7.242495361328125,-3.4796693306982514,-1.0121337003923951,0.07028809964768588
1744407819655466000,7.252466064453125,-4.5469840894341464,0.029026608123164623,-0.5983767389725894
1744407819665437000,7.26243701171875,-5.0646466118127105,0.6391594888031482,-1.5078072399333118
1744407819675408100,7.272408203125,-4.933448920106888,0.6411917983483523,-2.2765866497315463
1744407819685378000,7.2823779296875,-4.101023113697767,0.4464970188418403,-2.6671783510759473
1744407819695349200,7.292349365234375,-2.7905221144109964,0.35068328666295856,-2.4877172714605926
1744407819705320200,7.3023203125,-1.560967459973693,0.11579389594476669,-2.213124377515912
1744407819715291100,7.312291015625,-0.5928782146215439,-0.4892079602560028,-2.315589311212301
1744407819725261300,7.32226123046875,0.03453589133024215,-1.071691877841577,-2.3630083572521805
1744407819735232000,7.33223193359375,0.3731359780222177,-1.2100457249123602,-2.130544001723826
1744407819745203000,7.342202880859375,0.5023801975727081,-1.1115968219242989,-1.8241132233612238
1744407819755174100,7.352174072265625,0.4609487015098333,-1.074873430487141,-1.7070919410459697
1744407819765144000,7.36214404296875,0.32054946621656416,-1.07862160403952,-1.7397922875121234
1744407819775115000,7.372114990234375,0.21706220373511312,-0.9354435516826808,-1.587582495176792
1744407819785086200,7.382086181640625,0.22173662528693674,-0.7374438488792627,-1.3050256366156041
1744407819795056000,7.39205615234375,0.33125966080129143,-0.6580922989405691,-1.0315079706870018
1744407819805027300,7.40202734375,0.46889469207823276,-0.6115650871738791,-0.7069625667020678
1744407819814998300,7.411998291015625,0.6140151106745004,-0.6027770197581499,-0.5166008844964206
1744407819824969200,7.42196923828125,0.8979664923340082,-0.6256380361899733,-0.4065796171363443
1744407819834939100,7.431939208984375,1.2988953171670437,-0.501967086727172,-0.2650675252303481
1744407819844910300,7.441910400390625,1.5420499935358762,-0.38123577091284094,-0.1556206967573613
1744407819854881300,7.45188134765625,1.7057862652748823,-0.28644597495421764,-0.06582848989032208
1744407819864851200,7.461851318359375,1.935947020035982,-0.16180954146012663,-0.07248122577778994
1744407819874822400,7.471822509765625,2.061139333847165,-0.06308584011867642,-0.07155658521354198
1744407819884793300,7.48179345703125,1.9824328768789767,0.02729234994277358,-0.017207155388593673
1744407819894764500,7.4917646484375,1.804050240150094,0.1330646546214819,0.11699001039415598
1744407819904734500,7.501734375,1.7022031460911033,0.28751331192478535,0.24506577068716287
1744407819914705200,7.511705078125,1.6149661766648291,0.4727848313845694,0.33658947752192614
1744407819924676400,7.52167626953125,1.5816080969423054,0.6128254624985158,0.44462475869655604
1744407819934647300,7.531647216796875,1.6183710166722536,0.7596466936632991,0.5680382262669503
1744407819944617200,7.5416171875,1.7003472890913485,0.9211913005769252,0.6450776268057524
1744407819954588400,7.55158837890625,1.7265338697493076,1.1336768440462648,0.7646583843454718
1744407819964559400,7.561559326171875,1.7061936770319939,1.526350612361729,0.8038271961733698
1744407819974529300,7.571529296875,1.6427555163443088,1.779959024336189,0.8077835325837135
1744407819984500500,7.58150048828125,1.5315794529259203,1.896759795768559,0.8144017816796898
1744407819994471400,7.591471435546875,1.427735047569871,1.9271514269009231,0.9736869192287325
1744407820004442400,7.6014423828125,1.298810561493039,2.0017209301948546,1.180091096957773
1744407820014412300,7.611412353515625,1.1885638878792524,2.090021291068941,1.236286300779879
1744407820024383200,7.62138330078125,1.0365215610653162,2.1713550278007983,1.38088795619905
1744407820034354400,7.6313544921875,0.8382815467000008,2.269723632094264,1.569657839168608
1744407820044325400,7.641325439453125,0.628193858152628,2.4098984109818935,1.7560805744901298
1744407820054295300,7.65129541015625,0.3578355330377817,2.6402655019700525,1.8908096551924942
1744407820064266500,7.6612666015625,-0.04263619567751884,2.8644015896141526,1.9382444833233952
1744407820074237400,7.671237548828125,-0.2928542345613241,3.0525796441704034,2.0095228361174464
1744407820084207400,7.681207275390625,-0.43216392105221746,3.2094913305863737,2.0294278522878884
1744407820094178600,7.691178466796875,-0.3552653902888298,3.3264556220173835,2.1648284025110303
1744407820104149200,7.701149169921875,-0.05730243441164493,3.351641501200199,2.3761305814146993
1744407820114120200,7.7111201171875,0.25759938130676746,3.3359038338422775,2.4002450319737196
1744407820124090400,7.72109033203125,0.2628647544890642,3.2747797953158617,2.2397492034606636
1744407820134061300,7.731061279296875,-0.09705635265111923,3.2451302147224546,2.0771926430255174
1744407820144032300,7.7410322265625,-0.840578717726469,3.301465557667613,2.0223883090399206
1744407820154003500,7.75100341796875,-1.748937424737215,3.4779029055476185,2.073777427754551
1744407820163973400,7.760973388671875,-2.4525386983126403,3.6638439948320385,2.1577695700407027
1744407820173944300,7.7709443359375,-2.8041899897575377,3.6843519453316924,2.310534512040764
1744407820183915300,7.780915283203125,-2.8089205254107714,3.506726264449954,2.489351886925101
1744407820193885400,7.790885498046875,-2.2814713530331847,3.2605987097501754,2.593313781180978
1744407820203856400,7.8008564453125,-1.422919171720743,2.9563489286884663,2.491075641977787
1744407820213827300,7.810827392578125,-0.5485387221574783,2.5657430526882408,2.2869857325404883
1744407820223798300,7.82079833984375,0.13254735274910925,2.115348624549061,2.0444965343430637
1744407820233768400,7.8307685546875,0.6760568485677242,1.7945149345636366,1.760984274753183
1744407820243739400,7.840739501953125,0.9557254383414984,1.4904858105152845,1.4318293311461805
1744407820253710300,7.85071044921875,1.002170378652215,1.201009527954459,1.0863961835637688
1744407820263681500,7.860681640625,0.9176146111339331,0.8858952385291456,0.9109012311004102
1744407820273651500,7.8706513671875,0.6684528033047914,0.5059696734320372,0.9881272402524948
1744407820283622100,7.8806220703125,0.3327425928354263,-0.026311545044765808,1.2963247360266745
1744407820293593300,7.89059326171875,-0.08666004632115364,-0.6133255209751427,1.8235460909977554
1744407820303563300,7.900563232421875,-0.3236749047607183,-1.2940054992988705,1.703962849240005
1744407820313534200,7.9105341796875,0.021239771905541417,-1.7138697646178305,0.7018696274772286
1744407820323505400,7.92050537109375,0.9933172101110219,-1.6682703352205455,-0.6835377058424055
1744407820333476400,7.930476318359375,2.020153827986121,-1.2545514407888054,-1.81870259648934
1744407820343446300,7.9404462890625,2.653112708583474,-1.004853553321585,-2.4229984233126043
1744407820353417500,7.95041748046875,2.8305443281978366,-1.052472140521556,-2.473406714296341
1744407820363388400,7.960388427734375,2.3315303921878336,-1.0934303930494933,-2.0154104328513145
1744407820373358300,7.9703583984375,1.2684043173134327,-1.2542974660277366,-1.5057894703701138
1744407820383329300,7.980329345703125,0.08708324016928672,-1.4800431808255612,-1.060336151894927
1744407820393300200,7.99030029296875,-0.9792886847585439,-1.730767415665835,-0.8434642100349068
1744407820403271400,8.000271484375,-1.6428560541093349,-1.8728620567001402,-0.9149731567144394
1744407820413241300,8.010241455078125,-1.7678338483870029,-1.950421535590291,-1.3319170045420528
1744407820423212300,8.02021240234375,-1.5374427920013665,-1.8899721814550459,-1.873894468487799
1744407820433183500,8.03018359375,-1.3290496324121952,-1.8462603193700313,-2.258712116475403
1744407820443154400,8.040154541015625,-1.3008271620124578,-1.8636076138816773,-2.539477561575174
1744407820453124400,8.050124267578125,-1.4107494259774684,-1.8689327544271945,-2.818656322005391
1744407820463095600,8.060095458984375,-1.6228823566168546,-1.944581869651377,-2.87979380453527
1744407820473066200,8.070066162109375,-2.0129203696012494,-2.1076213912978767,-2.8679937688872217
1744407820483036200,8.0800361328125,-2.3698364497065545,-2.2575381042599676,-2.8217797147229313
1744407820493007400,8.09000732421875,-2.5524849271863697,-2.4441788662463426,-2.8376734494253992
1744407820502978300,8.099978271484375,-2.5697628097236156,-2.7175959944099186,-2.88904327891767
1744407820512949500,8.109949462890626,-2.4781723212629556,-2.8324449011221526,-3.2044536286801097
1744407820522919400,8.11991943359375,-2.2730179974645375,-2.79237972497642,-3.547005667868256
1744407820532890400,8.129890380859376,-2.0804151122033594,-2.7386291378274557,-3.7516973425909876
1744407820542861600,8.139861572265625,-2.1629718148589134,-2.663447055593133,-3.861151404522359
1744407820552832300,8.149832275390626,-2.5625264287292957,-2.462151745310426,-3.686555592855811
1744407820562802400,8.159802490234375,-3.1295740365236995,-2.1141122146219016,-3.6594942751899358
1744407820572773400,8.1697734375,-3.6413188592910766,-1.8439904747419058,-3.7439237859800456
1744407820582744300,8.179744384765625,-3.9354239706963297,-1.655605791697651,-3.7377918590962884
1744407820592714200,8.18971435546875,-3.764803784662485,-1.4933565436460077,-3.749331490242481
1744407820602685400,8.199685546875,-3.1657758152395483,-1.2384443555966018,-3.8284234393969174
1744407820612656400,8.209656494140624,-2.230238009402156,-0.906468144023791,-4.070799532608688
1744407820622627300,8.21962744140625,-1.5255536167651413,-0.49792497172951694,-4.261468527197837
1744407820632597500,8.229597412109374,-1.458514801236987,-0.20098186041936278,-4.3932872734114525
1744407820642568400,8.239568359375,-2.2235464028090237,0.3375883523661643,-4.430437731154263
1744407820652539100,8.2495390625,-3.9219752910584207,1.1467881084233522,-4.447430659270286
1744407820662509600,8.259509521484375,-5.756274538999795,2.1485293018780647,-4.225061581298709
1744407820672480300,8.269480224609374,-6.9848431050091975,3.2737580510526896,-3.914944369508326
1744407820682451200,8.279451171875,-7.334525142207741,4.167511017344892,-3.5657732044413684
1744407820692422400,8.28942236328125,-6.787688547793031,4.511165757077932,-3.5268992839068174
1744407820702392300,8.299392333984375,-5.193832379174232,4.265654288449883,-3.551152266153693
1744407820712363300,8.30936328125,-3.453293949469924,3.979472955781221,-3.3564930328845977
1744407820722334500,8.31933447265625,-2.025907861468196,3.5596339710339904,-3.192709414872527
1744407820732305400,8.329305419921875,-1.0617103628575801,3.147436440950632,-2.88376563077569
1744407820742275300,8.339275390625,-0.7931079414993524,3.0159277835994955,-2.4450889668285845
1744407820752246300,8.349246337890625,-0.9367717315465212,2.936013119885325,-2.3282801582202315
1744407820762217200,8.35921728515625,-1.140352522417903,2.807837406349182,-2.4553248218998314
1744407820772187100,8.369187255859375,-1.4950690466523169,3.0181738089606163,-2.145858767494559
1744407820782158300,8.379158447265626,-1.7953396949499845,3.438862104013562,-1.58860277813524
1744407820792129300,8.38912939453125,-1.9163567689031362,3.727395552766323,-1.2207552619099615
1744407820802100500,8.3991005859375,-1.8513760549485683,3.8829236758694052,-0.9606664018750191
1744407820812070400,8.4090703125,-1.6001830335527658,3.8893332506507634,-0.8079267404466867
1744407820822041600,8.41904150390625,-1.299745211994648,3.7751346245408057,-0.7523118207305669
1744407820832012300,8.42901220703125,-0.9977397027283906,3.731516724349558,-0.8839800525575876
1744407820841983500,8.4389833984375,-0.7401578570783138,3.8268309095084665,-1.0342606303960085
1744407820851953400,8.448953369140625,-0.5475999800026417,4.0967175254583355,-0.9851011704295873
1744407820861924400,8.45892431640625,-0.2997872486948967,4.3671775573819875,-1.2043693597763776
1744407820871895600,8.4688955078125,-0.04523264191150665,4.379062640964984,-1.924398913322389
1744407820881865500,8.478865478515624,0.3247264596402645,4.248932870751619,-2.3425211572796103
1744407820891836400,8.48883642578125,0.7835480859935283,4.332061235815287,-2.172721201587468
1744407820901807600,8.4988076171875,1.1043921512424946,4.364415106931329,-1.8063241764314473
1744407820911778600,8.508778564453126,1.275996087616682,4.252684039978683,-1.6109024343572556
1744407820921748500,8.51874853515625,1.3482827406704425,4.1538337896481154,-1.5249224792547522
1744407820931719400,8.528719482421875,1.384992468908429,4.094796202006936,-1.4701171223558485
1744407820941690400,8.5386904296875,1.4425702131301164,4.107481203795969,-1.5242881268739699
1744407820951661600,8.54866162109375,1.5058476302981376,4.090091969838738,-1.6294018215134738
1744407820961631500,8.558631591796875,1.4659417363673448,3.952691624100506,-1.788815992269665
1744407820971602400,8.5686025390625,1.2776304108202456,3.742250007548928,-1.9867888801313935
1744407820981573600,8.57857373046875,1.1619991215586662,3.741343998619914,-1.804482786348462
1744407820991543600,8.58854345703125,1.1820318557620049,3.697699210421741,-1.543290641246736
1744407821001514500,8.598514404296875,1.259259472349286,3.4175685560941695,-1.4451196053519844
1744407821011485700,8.608485595703126,1.3393810568124056,3.2225738072603938,-1.31897437473014
1744407821021456400,8.618456298828125,1.1915104627251625,3.091722737035155,-1.0136416207373142
1744407821031426300,8.62842626953125,0.7840332391619682,2.8514497535824774,-0.7120971531115472
1744407821041397500,8.6383974609375,0.24992636246085165,2.775731372514367,-0.25351445008069273
1744407821051368400,8.648368408203124,-0.11712474268972874,2.703163564431667,-0.018355448640882968
1744407821061339400,8.65833935546875,-0.16029928302764893,2.5231767073765394,-0.10528466729223727
1744407821071309600,8.6683095703125,0.12096797411441802,2.447390229508281,-0.41367242494150996
1744407821081280500,8.678280517578125,0.38702889429628845,2.3992475453689694,-0.7233100365214049
1744407821091251500,8.68825146484375,0.4933136785417795,2.3610408565714955,-0.9952439403899014
1744407821101221600,8.6982216796875,0.3746878836393356,2.3974545244723555,-1.2979114206962286
1744407821111192600,8.708192626953124,0.051555415192246434,2.3889903552487493,-1.6533340473733842
1744407821121163300,8.718163330078125,-0.4830009588420391,2.260150040324032,-1.9177702889628707
1744407821131134500,8.728134521484375,-0.9062012367159128,2.0558377203077076,-1.969888452604413
1744407821141104400,8.7381044921875,-1.2962439258754253,1.901268797625601,-1.74485307803303
1744407821151075300,8.748075439453125,-1.6419412773519753,1.7050544438689945,-1.4744702029988168
1744407821161046500,8.758046630859376,-1.9349702839583158,1.4914371198907495,-1.3785983839571476
1744407821171016400,8.768016357421875,-2.284675702032447,1.42206693880558,-1.3579457642897963
1744407821180987400,8.7779873046875,-2.6076187853872774,1.6464032251968979,-1.371825528821349
1744407821190958600,8.78795849609375,-2.9136136565506456,2.1380305580869314,-1.4522697693675755
1744407821200929300,8.79792919921875,-2.7815917889803647,2.6115388814404605,-1.5623188745826482
1744407821210899700,8.807899658203125,-2.329623681783676,2.8020433331176635,-1.8043176589146255
1744407821220870400,8.817870361328126,-1.5943535967469213,2.532840607778728,-1.9309018654756247
1744407821230841300,8.82784130859375,-0.710377051320672,2.2953841430515047,-1.721682776456326
1744407821240812500,8.8378125,-0.02161269687116146,1.929158382809162,-1.680381482644379
1744407821250782500,8.847782470703125,0.4950719203859567,1.476812382210791,-1.7274449932448566
1744407821260753400,8.85775341796875,0.7570937943100928,1.311720604209602,-1.6990410287983715
1744407821270724600,8.867724609375,0.8138719125866889,1.2887334041148424,-1.641399133299291
1744407821280694500,8.877694580078124,0.839748696643114,1.3139032089456915,-1.62878909644261
1744407821290665500,8.88766552734375,0.8018465437501668,1.335261931055784,-1.698161323354393
1744407821300636400,8.897636474609374,0.651871670860052,1.3828054802581666,-1.712040064972639
1744407821310607400,8.907607421875,0.45399815171957014,1.4964423808321357,-1.722815287617594
1744407821320577300,8.917577392578124,0.28365502906143664,1.5365760921694338,-1.879796532138437
1744407821330548500,8.927548583984375,0.042241058880090714,1.4647526727132498,-2.0675471550628544
1744407821340519400,8.93751953125,-0.1298538758814335,1.269763330706954,-2.1453088785268366
1744407821350489300,8.9474892578125,-0.15568039105534554,1.1179250020325182,-2.0984644175045193
1744407821360460500,8.95746044921875,-0.13232055825591085,0.974173679832369,-2.1045447603315113
1744407821370431500,8.967431396484375,0.018541034340858457,0.7543468336895108,-2.2096948414586484
1744407821380402700,8.977402587890625,0.1793704787224531,0.7474301861688494,-2.18668236079216
1744407821390372600,8.98737255859375,0.34328502963781354,0.8678736980177462,-2.2873830612950026
1744407821400343300,8.99734326171875,0.4342354666292667,0.9414391388356685,-2.567975341784954
1744407821410314500,9.007314453125,0.39024434921145434,1.0305787270128726,-2.933461974097788
1744407821420285400,9.017285400390625,0.31719840222299095,1.175173952691257,-3.394040380990505
1744407821430255400,9.02725537109375,-0.05088906023800373,0.9846808991909026,-3.6289094595730305
1744407821440226600,9.0372265625,-0.7852975600093602,0.5884130519062281,-3.0763959885656833
1744407821450197500,9.047197509765626,-1.937248750284314,0.0223974175080657,-2.1604041563279925
1744407821460167400,9.05716748046875,-3.264890853986144,-0.6108839730419218,-1.5956931747876106
1744407821470138600,9.067138671875,-3.9364556518316265,-0.851362635134533,-1.6477897111192346
1744407821480109600,9.077109619140625,-3.7082571370542046,-0.7343016053307801,-2.0257140924617647
1744407821490080300,9.087080322265624,-3.044787967380881,-0.3626684330869466,-2.3015397430717943
1744407821500050400,9.097050537109375,-2.472559157556295,-0.1347388714440167,-2.378352349117398
1744407821510021400,9.107021484375,-2.179294588628411,-0.1346126877810806,-2.200872798708081
1744407821519992600,9.11699267578125,-2.066381910675764,-0.15135112967938183,-1.8312910060361027
1744407821529963500,9.126963623046874,-1.9429922623723743,-0.16522943290621042,-1.4396337212868033
1744407821539933400,9.136933349609375,-1.746497630369663,-0.22442411080524324,-1.123300265330076
1744407821549904600,9.146904541015624,-1.3317214819699525,-0.26702896149642763,-0.9406842288151382
1744407821559875600,9.15687548828125,-0.6940040086686611,-0.3099586602278054,-0.9184149677313864
1744407821569845500,9.166845458984374,0.04813362405002117,-0.28033056081384417,-0.9688011930137872
1744407821579816700,9.176816650390625,0.6493705016940832,-0.17550540079213678,-1.0127829580813645
1744407821589787400,9.186787353515625,1.0387275466769934,-0.06727656980678438,-1.2268057941205799
1744407821599758300,9.19675830078125,1.2603227176666258,-0.06460778898894787,-1.598622506237775
1744407821609728500,9.206728515625,1.3519441857874392,0.013773893004283309,-1.8680090637110172
1744407821619699500,9.216699462890626,1.2178326524615286,0.13136398818343878,-2.073773628362268
1744407821629670400,9.22667041015625,1.0261012893378734,0.25430815774165094,-2.341134086835384
1744407821639640600,9.236640625,0.9615589668005704,0.31109884323887527,-2.6265964575797316
1744407821649611500,9.246611572265625,0.9343921429336071,0.37886531545445323,-2.95379602933526
1744407821659582500,9.25658251953125,0.7671212673276663,0.46028205429464575,-3.115405225917697
1744407821669553400,9.266553466796875,0.5628928262025118,0.5164865374017507,-3.018597295069694
1744407821679523600,9.276523681640626,0.2104185279369354,0.49769963854104277,-2.8357553408443925
1744407821689494300,9.286494384765625,-0.26868366990089415,0.4380363202169537,-2.816692036195099
1744407821699465500,9.296465576171874,-0.8597592190146446,0.3947620458316058,-3.0700586022377014
1744407821709436400,9.3064365234375,-1.7383634237527845,0.4987389915261417,-3.364795581805706
1744407821719406300,9.31640625,-2.929090627145767,0.840902762049064,-3.588034136088192
1744407821729377500,9.32637744140625,-4.494633724471926,1.5120907624714075,-3.5284155336886642
1744407821739348500,9.336348388671874,-5.723688612693548,2.1096172412902114,-3.437369819629192
1744407821749318400,9.346318359375,-5.9677902145236725,2.4437442742213604,-3.447733392733335
1744407821759289600,9.35628955078125,-5.132779067796468,2.5235700906082985,-3.5749861462056636
1744407821769260300,9.36626025390625,-3.8174516712665554,2.4184070038691163,-3.623026246753335
1744407821779231500,9.3762314453125,-2.5606577122479677,2.0815867863312363,-3.71279770309329
1744407821789201400,9.386201416015625,-1.6947838097453116,1.793124941509962,-3.830180219936371
1744407821799172400,9.39617236328125,-1.302320615440607,1.718414568440616,-3.9164614960730075
1744407821809143600,9.4061435546875,-1.1225777962744234,1.8577672172904014,-4.0688790859401225
1744407821819114500,9.416114501953125,-1.460370658236742,2.29411543828994,-3.8903134938597677
1744407821829084700,9.426084716796876,-2.3499966077268124,2.6137507122710346,-3.5125007561981674
1744407821839055600,9.4360556640625,-3.157263422960043,2.60971225053519,-3.385056571806967
1744407821849026600,9.446026611328126,-3.099641255074739,2.3073478448286653,-3.3314442240849136
1744407821858996700,9.455996826171875,-1.7391770782232283,2.123161051865667,-3.3584742698296903
1744407821868967400,9.465967529296876,-0.0827706376671791,1.8569350042499602,-3.3444828616172075
1744407821878938400,9.4759384765625,0.8487748836636543,1.4078425986200571,-3.1265789463609455
1744407821888909600,9.48590966796875,1.0487129341185093,0.9203599643193184,-2.777433500257134
1744407821898879500,9.49587939453125,0.8249719832718372,0.4786447363939136,-2.575444362491369
1744407821908850400,9.505850341796876,0.5970622223079204,0.04378755766972899,-2.6471678287044167
1744407821918821600,9.515821533203125,0.23388825085163115,-0.14318755083754658,-2.7919898488759993
1744407821928792600,9.52579248046875,-0.1509802505403757,-0.15270970468148587,-2.9516134245991705
1744407821938762500,9.535762451171875,-0.4150432749032974,-0.0025474925257265566,-3.059146455340087
1744407821948733700,9.545733642578124,-0.4319201754242182,0.23634148922264575,-3.0706264652535316
1744407821958704400,9.555704345703125,-0.3286433408230543,0.468079649368301,-3.0680922706007956
1744407821968674300,9.56567431640625,-0.32523090203106403,0.7644261830247938,-2.9948014089405537
1744407821978645500,9.5756455078125,-0.3650537938535213,0.9954716116659342,-3.0045614631935953
1744407821988616400,9.585616455078124,-0.4135661880880594,1.1732630045033992,-3.0093522046014667
1744407821998587600,9.595587646484375,-0.5287187539219856,1.2756614488348363,-2.930951452581584
1744407822008557600,9.6055576171875,-0.583178073862195,1.3603230148151517,-2.878206243082881
1744407822018528500,9.615528564453125,-0.547442743614316,1.5711971775650977,-2.75196588152349
1744407822028499700,9.625499755859375,-0.47520460587739943,1.84078890222162,-2.581435127338767
1744407822038469600,9.6354697265625,-0.30956162373423574,2.147802302777767,-2.4458920999050138
1744407822048440600,9.645440673828125,-0.0636696313560009,2.3517010735571384,-2.2986074890121815
1744407822058411500,9.65541162109375,0.12376900300979614,2.384311695913225,-2.046096370755136
1744407822068382500,9.665382568359375,0.09046703738868236,2.235955510266125,-1.8325795845419168
1744407822078352400,9.675352294921876,-0.14235972171127795,2.174621920642257,-1.7024720261603592
1744407822088323600,9.685323486328125,-0.432023051276803,2.1754887666046616,-1.5762605984345077
1744407822098294500,9.69529443359375,-0.7516133170723914,2.336431608232856,-1.4707184492498635
1744407822108265500,9.705265380859375,-0.9098404700011015,2.613744282530248,-1.399957398328185
1744407822118235600,9.715235595703126,-0.9567045125067234,2.8679081364303824,-1.3831000792905688
1744407822128206600,9.72520654296875,-0.9608189620882273,3.0433500435322522,-1.362933197313547
1744407822138177500,9.735177490234374,-1.0659078145474195,3.1222020464509725,-1.2321183674454688
1744407822148147500,9.7451474609375,-1.2192115395992993,3.141514649686217,-0.9831932909816503
1744407822158118400,9.755118408203124,-1.2021125207602976,3.051695847073197,-0.6940332347631454
1744407822168089600,9.765089599609375,-1.0505378114581108,2.996578355485201,0.015651158118247986
1744407822178060500,9.775060546875,-0.5168102894634008,3.050507514071464,0.752471979728341
1744407822188030500,9.785030517578125,0.33436113394796846,2.944721326997876,1.012845501923561
1744407822198001700,9.795001708984374,0.9521054942786693,2.754313321432471,0.9566647650182246
1744407822207972600,9.80497265625,0.9773106626838445,2.49068781170398,0.6006336510539054
1744407822217942500,9.814942626953124,0.009932195949554443,2.3979909694366155,0.29871932720243927
1744407822227913700,9.824913818359375,-1.637010835212469,2.5646225242257117,0.24990531967282295
1744407822237884400,9.834884521484375,-3.0744208891004323,2.9149276617586612,0.3629677813597023
1744407822247855400,9.84485546875,-3.947876040512323,3.2281355330407617,0.4505976956263184
1744407822257825500,9.854825439453125,-3.95724417283833,3.3264082757443187,0.6622437195315957
1744407822267796500,9.86479638671875,-2.894402760124206,3.183595257307589,0.8982995236806571
1744407822277767400,9.874767333984375,-1.0765385141551493,2.7433237253844736,0.7805531419612467
1744407822287738600,9.884738525390626,0.8842138613134622,2.1001870035134256,0.2036979875102639
1744407822297708500,9.89470849609375,2.455474167242646,1.8547602905593812,-0.560900483341515
1744407822307679500,9.904679443359376,3.0526579701036214,2.1375997654542327,-1.4490483231030404
1744407822317650400,9.914650390625,2.6067525239467617,2.8020006630197165,-2.1980435666315254
1744407822327620600,9.92462060546875,1.3656874644577501,3.5871298807248473,-2.679610254886746
1744407822337591300,9.93459130859375,-0.18017010466754435,3.9785248612761497,-3.0384505810528992
1744407822347562500,9.9445625,-1.450812556296587,3.9715772340953346,-2.992577887672186
1744407822357533400,9.954533447265625,-2.017882375922799,3.723186118377745,-2.630195066593587
1744407822367503400,9.96450341796875,-1.7875807513862847,3.0524691695332526,-1.7968237960278988
1744407822377474600,9.974474609375,-0.9535445871710777,2.150990139033645,-0.6498913106977939
1744407822387445500,9.984445556640624,0.22126666968762873,0.990684669650346,0.17340893996953963
1744407822397415400,9.99441552734375,1.7315654341757296,-0.04213862141892314,0.665726885472238
1744407822407386600,10.00438671875,3.2159798158228394,-0.9068110391773283,1.0359615890949965
1744407822417357600,10.014357666015625,4.277671473979949,-1.6498853682242334,0.9957122885540127
1744407822427328500,10.02432861328125,4.611723980370163,-2.0012271553285417,0.8203735495656729
1744407822437298400,10.03429833984375,3.995665381169319,-2.031414934451878,0.8717328576639294
1744407822447269400,10.044269287109374,2.825480615067482,-2.2021736521735784,1.2324585591852664
1744407822457240600,10.054240478515625,1.7999007192552088,-2.477562957192957,1.6376231218919157
1744407822467211500,10.06421142578125,1.39073481195271,-2.8537288044303653,2.0213596966445446
1744407822477181400,10.074181396484375,1.3542460329890251,-3.2182883850261566,2.378207387688756
1744407822487152600,10.084152587890625,1.495598623484373,-3.628545886957645,2.6221955922722815
1744407822497123600,10.09412353515625,1.7694085503578185,-3.9919524981260297,2.6640125805214048
1744407822507093500,10.104093505859375,1.9573083724945783,-4.177846825659275,2.462094754426181
1744407822517064400,10.114064453125,1.8293588689297438,-4.123811284089088,2.2541174821615217
1744407822527035400,10.124035400390625,1.2534867341667413,-3.880329567722976,2.0920321924999357
1744407822537006600,10.134006591796876,0.49589492720663547,-3.622710604932904,1.8463143876448274
1744407822546976500,10.1439765625,-0.21341069549024103,-3.3360344744846224,1.6884937696903943
1744407822556947500,10.153947509765626,-0.8818062156498432,-3.2385806469485163,1.459587106643617
1744407822566918700,10.163918701171875,-1.2233704128444194,-3.2982264296159145,1.1307552575111388
1744407822576889600,10.1738896484375,-1.4713514864563941,-3.322381212185323,0.9471800205752253
1744407822586859500,10.183859619140625,-1.9655594834893941,-3.3497125789642332,0.8827584018081426
1744407822596830700,10.193830810546874,-2.6845114709317683,-3.2996097006678577,0.9945251245960592
1744407822606801400,10.203801513671875,-3.4567969891548156,-3.198043469376862,1.1465285807043313
1744407822616771600,10.213771484375,-3.9731180337965486,-2.9327994185358284,1.4155264311209321
1744407822626742500,10.223742431640625,-4.078120961537957,-2.761467284840345,1.56364895414263
1744407822636713500,10.23371337890625,-3.6562931410610675,-2.753094008770585,1.5054919487282632
1744407822646684400,10.243684326171875,-2.9974253277033567,-2.746009895728528,1.440653565853834
1744407822656654600,10.253654541015624,-2.2110925794273615,-2.636271463897824,1.161784894286096
1744407822666625500,10.26362548828125,-1.1706079599499701,-2.193141327673197,0.37786855950206516
1744407822676596500,10.273596435546875,-0.0727320587337017,-1.8876881621710955,-0.5076379719704389
1744407822686566700,10.283566650390625,0.6026672027081251,-1.7477336019054055,-0.9681307464063167
1744407822696537600,10.29353759765625,0.4685188445031643,-1.582834423866868,-0.8822349624559283
1744407822706508300,10.30350830078125,-1.010419151559472,-1.4127952525913714,-0.40721740358322855
1744407822716479500,10.3134794921875,-2.9790684177577496,-1.2341738386705516,-0.04195727350264787
1744407822726449400,10.323449462890625,-4.3442000018984075,-0.8696446532130241,0.24046499889343975
1744407822736420600,10.333420654296875,-4.710256835314631,-0.33691885560676454,0.17906974221020935
1744407822746391600,10.3433916015625,-3.892635214805603,0.2426844285085797,-0.20353417525067924
1744407822756361500,10.353361572265625,-1.7107593775123358,0.7411001063644885,-0.9311614904493093
1744407822766332700,10.363332763671876,0.40610359712243077,0.7419201905757188,-1.7947811842843888
1744407822776303600,10.3733037109375,1.380360132932663,0.45610900639370083,-2.38904471578449
1744407822786274600,10.383274658203124,1.3194400925457477,0.2476139938652515,-2.3994468673333524
1744407822796244700,10.39324462890625,0.5887281092047691,0.12869403832182288,-1.9736120031721889
1744407822806215200,10.403215087890626,-0.1244715983211994,0.07771072392910719,-1.5953167426906525
1744407822816186400,10.413186279296875,-0.39046471396386623,0.12303615869060158,-1.304561233974248
1744407822826157300,10.4231572265625,0.0013449848681688307,0.23951325112655758,-1.3378569159850477
1744407822836127200,10.433127197265625,0.874247763094306,0.3831771873041987,-1.6254678430654108
1744407822846098400,10.443098388671874,1.8955653252869844,0.4533047626279294,-1.8899980465486645
1744407822856069400,10.4530693359375,2.758634691762924,0.39799481720775365,-1.9458423911064862
1744407822866039300,10.463039306640624,3.159998400881886,0.3352593979619443,-1.4909092966243624
1744407822876010500,10.473010498046875,2.986898088470101,0.29560689427033066,-0.8942192686296999
1744407822885981400,10.4829814453125,2.3908020808458326,0.2839890833213925,-0.2878114180885255
1744407822895952400,10.492952392578125,1.514476342433691,0.35647169733867046,0.3328910613954067
1744407822905922300,10.50292236328125,0.374836352199316,0.5586901138156652,0.7147919451534748
1744407822915893200,10.512893310546875,-0.554222028490901,0.7827103199951351,0.7905925976775586
1744407822925864400,10.522864501953125,-1.0464461582303046,1.0091855181112885,0.6713217828698456
1744407822935834400,10.53283447265625,-0.950502150735259,1.273685180325806,0.5434025283128023
1744407822945805300,10.542805419921875,-0.3603729425609112,1.4833663338989018,0.40870939570665354
1744407822955776500,10.552776611328126,0.31402327931821344,1.5587944998487828,0.28564883322715756
1744407822965747500,10.56274755859375,0.9094482558131217,1.5436346323788166,0.333102219928056
1744407822975717400,10.57271728515625,1.3275322135865688,1.5351991047278046,0.4816008827857673
1744407822985688300,10.582688232421875,1.4634399826794862,1.6188164223521946,0.7191945640265941
1744407822995659300,10.5926591796875,1.416708626642823,1.749058713029325,0.9939365110531448
1744407823005630200,10.602630126953125,1.4405319853007792,1.8821347658276557,1.1075311799205838
1744407823015600400,10.612600341796876,1.5709183606237171,1.9646125580281018,1.139485091933608
1744407823025571300,10.6225712890625,1.7118208692640065,2.110207608398795,1.1486024643689394
1744407823035542300,10.632542236328124,1.9378835410565136,2.222902259686589,1.0231818947598337
1744407823045512400,10.642512451171875,2.219150213676691,2.2309487880200147,0.8484143797881901
1744407823055483400,10.6524833984375,2.310225738352537,2.2233587712824345,0.8786587114043534
1744407823065454300,10.662454345703125,2.2508657868891953,2.180216379648447,0.9235054227381944
1744407823075425300,10.67242529296875,2.1059809306144714,2.1068997990250584,0.9260954392313957
1744407823085395500,10.6823955078125,1.9493775794953108,2.1747861712932584,1.0837294485725462
1744407823095366100,10.6923662109375,1.8283166664004324,2.2651368888258934,1.2378466819643974
1744407823105337300,10.70233740234375,1.6692092235058544,2.2237533235579727,1.3077398640103637
1744407823115308300,10.712308349609375,1.3613140716791152,2.254809263817966,1.4234699374713002
1744407823125278200,10.7222783203125,1.1361480564653872,2.294757535585761,1.3047276765823363
1744407823135249400,10.73224951171875,0.8950859684616327,2.251472812871635,1.1315443620622156
1744407823145220400,10.742220458984375,0.47321313979923724,2.1966104650884866,1.006542748517543
1744407823155190500,10.7521904296875,-0.07704524575769901,2.0599542157158255,0.9306665465392172
1744407823165161500,10.762161376953125,-0.7341548172712326,1.8990026062592862,0.9606472587831317
1744407823175132200,10.772132080078125,-1.3326117088079452,1.8386482369311152,1.1459176091991363
1744407823185103400,10.782103271484376,-1.8171809398800134,1.798488806630671,1.4592944073073566
1744407823195073300,10.7920732421875,-1.9912398681908845,1.9512549176745115,1.7268742076195776
1744407823205044200,10.802044189453126,-2.1513620410859584,2.218804322848469,1.3746315261527895
1744407823215015400,10.812015380859375,-2.899974422776699,2.3642592340961097,0.3287750043787062
1744407823224985300,10.8219853515625,-4.188324380531907,2.5276196582600474,-0.7608670292384923
1744407823234956300,10.831956298828125,-5.69649314725399,2.8388112212836742,-1.4812705306634306
1744407823244927500,10.841927490234376,-6.98840050522983,2.9416864893466235,-1.5227876591831444
1744407823254898400,10.8518984375,-7.574941333523392,2.924509729096293,-0.9653495912551879
1744407823264868400,10.861868408203126,-7.358542562133073,2.71349937274605,-0.587292231182754
1744407823274839300,10.87183935546875,-5.7040843330353495,2.3337359394080934,0.01518909356445074
1744407823284810200,10.881810302734374,-3.8276556698948143,1.937464000470191,0.5158697937428951
1744407823294780200,10.8917802734375,-2.178854443645477,1.155603429172188,0.927353622598946
1744407823304751400,10.90175146484375,-0.7687626047939061,0.5711109117105603,1.552600613644719
1744407823314722300,10.911722412109375,0.19163082535862921,0.053851417174935336,2.145202933934331
1744407823324693500,10.921693603515624,1.115674592757225,-0.4332658909447491,2.452872752572596
1744407823334663400,10.931663330078125,1.828399668508768,-0.7533475935190915,2.631137023618817
1744407823344634400,10.94163427734375,2.2557447911024093,-0.9598148996122181,2.5515584599912167
1744407823354605300,10.951605224609375,2.6814485762298106,-1.0332130210392176,2.3862185524478554
1744407823364576300,10.961576171875,3.2314246377140283,-0.9913254517719149,2.3591885067030787
1744407823374546200,10.971546142578125,3.9141672476559877,-0.8299741754733025,2.2880668057754634
1744407823384517400,10.981517333984375,4.6668730361402035,-0.7490186244040727,1.9795958998873828
1744407823394488300,10.99148828125,5.425231735819578,-0.6155157244957983,1.3383277483671903
1744407823404458200,11.001458251953125,6.145261581626534,-0.3059758742019534,0.6983718484893441
1744407823414429400,11.011429443359376,6.725914520925283,-0.004986702371388673,0.1809481033027172
1744407823424400400,11.021400390625,7.028388816747069,0.2441816813290119,-0.2678767374321818
1744407823434371300,11.031371337890626,6.985076329243182,0.5054470377974212,-0.3485340362071991
1744407823444341500,11.041341552734375,6.58669718889296,0.6053894672788679,-0.20694617565125226
1744407823454312400,11.0513125,5.921970712634921,0.27672932145148516,-0.05145195481777191
1744407823464283400,11.061283447265625,4.9984705505937335,-0.2685832782663405,0.15430793365836143
1744407823474253300,11.07125341796875,3.9979251427948475,-0.6419600062418729,0.6133280051931739
1744407823484224300,11.081224365234375,3.10654036693871,-0.9794894680276512,1.1401350802749395
1744407823494195500,11.091195556640624,2.030512724915147,-1.3571382472991942,1.5151953043580055
1744407823504166400,11.10116650390625,0.7964642661899328,-1.6529487013176083,1.747053510686755
1744407823514136300,11.11113623046875,-0.10695815346240997,-1.9236932492710648,1.8769559018850326
1744407823524107500,11.121107421875,-1.0423849001407623,-2.2429303177148103,1.8740590113997457
1744407823534078500,11.131078369140624,-2.1959838576227426,-2.5201699267759916,1.766388325753808
1744407823544049200,11.141049072265625,-3.4346465321451425,-2.779563790284097,1.4415420391261577
1744407823554019300,11.151019287109374,-4.402355253747105,-2.8715529226735232,1.0834367492362855
1744407823563990300,11.160990234375,-5.079765270489454,-2.812731023609638,0.8645423616379498
1744407823573961200,11.170961181640624,-5.371812280321121,-2.6078087550014257,0.6986369291663169
1744407823583931400,11.180931396484375,-5.16056373130083,-2.4020528120480478,0.452517557772994
1744407823593902300,11.19090234375,-4.702301492395997,-2.25901606785804,0.16084288838505745
1744407823603873300,11.200873291015625,-4.30875985520482,-2.26086797933504,-0.08387918343096971
1744407823613844500,11.210844482421875,-4.025392995434999,-2.2595473982557652,-0.23524667972326277
1744407823623814400,11.220814453125,-3.7825966309845445,-2.1993645861022175,-0.35179040765464303
1744407823633785300,11.230785400390625,-3.533662202170491,-2.1066839643172917,-0.4002960798874497
1744407823643756300,11.24075634765625,-3.3109979406446217,-1.9759823855653404,-0.40235944215804337
1744407823653726500,11.2507265625,-3.1817274176090953,-1.8021343235261738,-0.46040860328376293
1744407823663697200,11.260697265625,-2.9633202290058134,-1.6052965771742165,-0.5524027041092515
1744407823673668400,11.27066845703125,-2.5584809527307746,-1.377177265112847,-0.6849854204326867
1744407823683639300,11.280639404296876,-2.312094454833865,-1.1909646654106676,-0.9159420017465949
1744407823693609200,11.290609130859375,-2.4563871904343366,-1.1032662890177218,-1.2111302322134374
1744407823703580400,11.300580322265626,-2.905376574081182,-1.1017148948572575,-1.2616902066275477
1744407823713551400,11.31055126953125,-3.3799498963177204,-0.8550202808592468,-1.0552347371026873
1744407823723522300,11.320522216796874,-3.6142011352628467,-0.555143600315228,-0.9087716717258095
1744407823733492500,11.330492431640625,-3.381140567407012,-0.3200711811803281,-0.8885957296594977
1744407823743463200,11.340463134765624,-2.667920401614904,-0.14356949935983865,-0.9540484450399875
1744407823753434400,11.350434326171875,-1.7667583281099795,-0.11094682123977691,-1.153699349116534
1744407823763404300,11.360404296875,-0.998719945937395,-0.1765693767618388,-1.3149214460775256
1744407823773375200,11.370375244140625,-0.4555991571754217,-0.25155663054380567,-1.307884533178061
1744407823783346400,11.380346435546874,-0.17476327718794346,-0.292440393063426,-1.2343912808135151
1744407823793317400,11.3903173828125,-0.15769173087775706,-0.28440767405964434,-1.021119555402547
1744407823803287800,11.400287841796874,-0.26223288632631303,-0.2735857627287507,-0.8555049225710332
1744407823813258800,11.4102587890625,-0.3225076145470142,-0.22289938545599577,-0.8142246715471148
1744407823823229700,11.420229736328125,-0.20849661996364593,-0.09235372791811823,-0.6596686083465815
1744407823833199600,11.43019970703125,-0.042220016092061996,0.019536694314703344,-0.4744644550345838
1744407823843170800,11.4401708984375,0.06738952866196632,-0.006649374886602163,-0.31758097179979083
1744407823853141800,11.450141845703126,0.037491818526387215,-0.07432846107967198,-0.08972790945917368
1744407823863112700,11.46011279296875,-0.1125865147382021,-0.15444018173590301,0.22463979938253759
1744407823873083000,11.470082763671876,-0.15692776076793669,-0.20177008818760514,0.4713875318072736
1744407823883053800,11.4800537109375,0.025568156498670575,-0.2023471574231982,0.5626270148731768
1744407823893024800,11.490024658203126,0.33618776485323904,-0.06806611274927854,0.6566926612757146
1744407823902995700,11.49999560546875,0.7753788080632686,0.14481763625741004,0.7078941484637558
1744407823912966000,11.5099658203125,1.3023843283265828,0.2800910529695451,0.48708019097968935
1744407823922936600,11.5199365234375,1.744742895656824,0.48394276973679656,0.2527384972721338
1744407823932907800,11.52990771484375,2.077674289062619,0.8040339707918465,0.1365009126804769
1744407823942877700,11.539877685546875,2.3465771546721457,1.0499790085315703,0.08868994471356272
1744407823952848600,11.5498486328125,2.540495798707008,1.1471966892242431,0.08410217853188515
1744407823962819800,11.55981982421875,2.675562440800667,1.222638299177587,0.12646328359507022
1744407823972790800,11.569790771484374,2.8056454492628573,1.2940962463222443,0.1911796475250274
1744407823982760700,11.5797607421875,2.961457942265272,1.3730577009648084,0.2777113912913948
1744407823992732000,11.58973193359375,3.073179364606738,1.436144271735847,0.3822778273116797
1744407824002702600,11.59970263671875,3.1071307340472933,1.4409469958424568,0.4793223433945328
1744407824012672800,11.6096728515625,3.145058021381497,1.4838643465489147,0.6372640304453671
1744407824022643700,11.619643798828125,3.205446146848798,1.5920181395366786,0.8623455822460353
1744407824032614700,11.62961474609375,3.2926427842646837,1.714710453225672,1.0255453359555453
1744407824042585900,11.6395859375,3.3338217668712136,1.79880737106055,1.1396465661056339
1744407824052555800,11.6495556640625,3.2774861316651105,1.8922142612934112,1.3105515604302287
1744407824062526700,11.659526611328126,3.098926969325542,2.080141555958986,1.5042454557985065
1744407824072498000,11.669497802734375,2.7775860604703424,2.3743834454864263,1.6678212762787936
1744407824082468900,11.67946875,2.3881857608675956,2.6207106144115326,1.706136247756332
1744407824092438800,11.689438720703125,2.0172119293153283,2.7410625024542212,1.7040587108299134
1744407824102409700,11.69940966796875,1.7184674676716327,2.7954002418413757,1.6439304053425787
1744407824112380700,11.709380615234375,1.463306127166748,2.825876044125855,1.65219934425503
1744407824122350600,11.7193505859375,1.0593722752988337,2.9961294426739213,1.6973611128874122
1744407824132321800,11.72932177734375,0.5117524215519428,3.209022544030845,1.8151074946068226
1744407824142292700,11.739292724609374,0.03418576271831989,3.40865284371078,2.113698373124003
1744407824152264000,11.749263916015625,-0.32719080392718314,3.567594282388687,2.3828736259341237
1744407824162233900,11.75923388671875,-0.8098702757298946,3.2232901388362047,2.291139345088601
1744407824172204800,11.769204833984375,-1.1891805584728716,2.519057581619918,1.757150541809201
1744407824182176000,11.779176025390624,-1.1346575256466864,2.079861131582409,1.7238025450892744
1744407824192146000,11.78914599609375,-0.470477577355504,1.7345673924706875,2.329353048148751
1744407824202116600,11.79911669921875,1.021581181564927,1.745208028950542,2.4192414088666436
1744407824212087800,11.809087890625,0.8338608076483011,2.8089854073405265,1.0526174672763795
1744407824222058800,11.819058837890625,-1.493750365269184,4.668522264651954,0.2143380394682288
1744407824232028700,11.829028564453125,-4.915361474752426,5.134065015953779,0.014958645809441805
1744407824242000000,11.838999755859374,-7.7356188022136685,3.933398017826676,0.2179104180622846
1744407824251970800,11.848970703125,-8.619024269753695,2.5169088791534304,1.428967511974275
1744407824261941800,11.858941650390625,-7.447069571369886,1.2003101475134492,2.87675253714323
1744407824271912000,11.868911865234375,-4.556417103689909,0.14484551064502446,3.676358900751173
1744407824281883000,11.8788828125,-1.0178940174847841,-0.5313747848561033,3.802677588243782
1744407824291853600,11.888853515625,2.0438310561716557,-1.029014400305599,3.81015099286437
1744407824301823700,11.89882373046875,4.072189233401417,-1.3765639555200933,3.8395352005198595
1744407824311794700,11.908794677734376,5.013748783746362,-1.2853823401212692,3.955974006772041
1744407824321765600,11.918765625,4.955440971684456,-0.8827294679746032,3.9090079651966687
1744407824331736800,11.92873681640625,4.022345298302174,-0.40470322880521414,3.3828011940956113
1744407824341706800,11.938706787109375,2.771495926901698,0.1138019458094146,2.6635236279606818
1744407824351677700,11.948677734375,1.495412161001563,0.5815934715518728,1.8147373461201786
1744407824361649000,11.95864892578125,0.41595922070443625,0.8582929458543658,0.8914242310836911
1744407824371618800,11.968618896484376,-0.24306933617293833,0.9664183895304799,0.10157682575024664
1744407824381589800,11.97858984375,-0.404458168002963,0.8832871018573641,-0.40586576977856453
1744407824391560700,11.988560791015624,-0.15921616396605967,0.6653205696936696,-0.7470715089242905
1744407824401531600,11.99853173828125,0.33527766427099703,0.3621170828144997,-0.9363212113000452
1744407824411501800,12.008501708984374,0.7721212675720452,0.05951528815552592,-0.9083376642227172
1744407824421472800,12.01847265625,1.0041402174204588,-0.18312201327569783,-0.7709186137840152
1744407824431443700,12.028443603515624,1.0015928710252047,-0.32611426073685285,-0.5983453939862549
1744407824441415000,12.038414794921875,0.8765162925481795,-0.33777766439318657,-0.5356700343646109
1744407824451384800,12.048384765625,0.6873100639879703,-0.4893265816669911,-0.6854484348345548
1744407824461355800,12.058355712890625,0.4488865077942609,-0.7059102081049233,-0.9959630484446883
1744407824471326700,12.06832666015625,0.036085458859801293,-0.9013336306795477,-1.2208958394244314
1744407824481297000,12.078296875,-0.6034241585552692,-1.1470605686891824,-1.249700347495824
1744407824491267600,12.088267578125,-1.299203944724798,-1.3198670857861636,-1.210979279435426
1744407824501238800,12.09823876953125,-1.925663526430726,-1.4913602552622556,-1.1937579493910073
1744407824511209700,12.108209716796875,-2.38741302292943,-1.8079212363645434,-1.387094117362797
1744407824521179600,12.1181796875,-2.666688229471445,-1.9199387190431356,-1.5465914363577962
1744407824531150800,12.12815087890625,-2.8904169053584337,-1.905894703860581,-1.891151600497961
1744407824541121800,12.138121826171876,-3.038754532435536,-2.0620869899608194,-2.3709337434239686
1744407824551091700,12.148091796875,-2.9289263764947653,-2.2551421490341426,-2.66113030308336
1744407824561063000,12.15806298828125,-2.7614503337055445,-2.411569559064507,-2.8176591276615857
1744407824571033600,12.16803369140625,-2.81151521807909,-2.62422242192477,-3.103949473662674
1744407824581004800,12.1780048828125,-3.0228602132111786,-2.8941584299743175,-3.1673446719914673
1744407824590974700,12.187974609375,-3.217459825247526,-2.8608538340047,-3.0843478243529794
1744407824600945700,12.197945556640626,-3.394781554746628,-2.790334190623462,-3.033102498023212
1744407824610916900,12.207916748046875,-3.334786812511086,-2.735986514364183,-3.121995710223913
1744407824620887800,12.2178876953125,-3.1811616004198786,-2.702099442331493,-3.24580036906898
1744407824630857700,12.227857666015625,-2.9652731166392563,-2.6746114236861467,-3.134554747545719
1744407824640829000,12.237828857421874,-2.9184646037131547,-2.5373966636478897,-2.763159475710988
1744407824650799900,12.2477998046875,-3.162128983169794,-2.30102594833076,-2.3889340950168667
1744407824660769800,12.257769775390624,-3.760844233381748,-2.05976804549396,-2.3320623071074484
1744407824670740700,12.26774072265625,-4.315445032057166,-1.548940775962919,-2.483689623379707
1744407824680711700,12.277711669921874,-4.4053982747048135,-0.9738876294326037,-2.592591896647215
1744407824690682600,12.2876826171875,-3.936365050938725,-0.5965590220261365,-2.7749188870877024
1744407824700652800,12.29765283203125,-3.0417355940729376,-0.512373549124971,-3.0518969226032495
1744407824710623700,12.307623779296875,-2.057684809479117,-0.6021307577438653,-3.1729063977718353
1744407824720595000,12.317594970703125,-1.1432418141186236,-0.6934590150717646,-3.115863491079211
1744407824730564900,12.32756494140625,-0.42010815707743165,-0.7485021262492985,-3.003552578411996
1744407824740535800,12.337535888671875,0.18562603198587893,-0.867643542523682,-2.9517905347317455
1744407824750506800,12.3475068359375,0.44538346810936924,-0.9256487183772026,-2.9450469056904316
1744407824760477700,12.357477783203125,0.21112755298912525,-0.8236161847487091,-2.745695715212822
1744407824770447600,12.367447509765626,-0.2905366052687168,-0.6225323252595961,-2.439420273542404
1744407824780418800,12.377418701171875,-0.7691647558540106,-0.2507469215961173,-2.2625722990348933
1744407824790389800,12.3873896484375,-0.989335446998477,-0.021542499445471913,-2.1578544718451798
1744407824800359700,12.397359619140625,-0.8657967456132173,0.13946317828586324,-1.983375272295624
1744407824810330000,12.407330078125,-0.5884656588762999,0.31789555417429655,-1.8371029071852565
1744407824820301000,12.417301025390625,-0.34212942986190314,0.4257987699344754,-1.6761097966745495
1744407824830272300,12.427272216796876,-0.14328385081887243,0.5234834836170077,-1.4901887272648513
1744407824840242200,12.4372421875,-0.07283493458628654,0.6375359792545437,-1.3500360140785574
1744407824850213000,12.447213134765626,-0.09404723396301269,0.7812362288545817,-1.234119185873866
1744407824860184300,12.457184326171875,-0.1767430528283119,1.0356350605543703,-1.0146727173507213
1744407824870155000,12.467155029296874,-0.10829612406790255,1.2313804085597395,-0.8790570630721747
1744407824880125000,12.477125,0.1639648197978735,1.3942507111191749,-0.8156427216514944
1744407824890096000,12.48709619140625,0.4906897597789764,1.5364099418222903,-0.711455932598561
1744407824900067000,12.497067138671875,0.7941524821162224,1.6429872792735696,-0.6310733591116965
1744407824910037000,12.507037109375,1.0340379275560379,1.7108151993528007,-0.6420858976438641
1744407824920008200,12.51700830078125,1.0477022957712412,1.7054961962871253,-0.7078565929323435
1744407824929979100,12.526979248046874,0.665087126263976,1.6271135644458234,-0.7200909283444284
1744407824939950000,12.5369501953125,0.09157412184774875,1.4839119850829243,-0.522225154118985
1744407824949920300,12.546920166015624,-0.4755290155261755,1.442891700169444,0.09280424816459416
1744407824959891200,12.55689111328125,-0.7235451604515314,1.399847215951979,0.9194627232186495
1744407824969862000,12.56686181640625,-0.27068507285118104,1.3430012931361794,1.7461039548769592
1744407824979832000,12.57683203125,0.5973603284716605,1.5446435171604156,2.6384131521016356
1744407824989803000,12.586802978515625,1.3361696935504674,1.7379647798240183,3.397009167668223
1744407824999774200,12.596774169921876,1.6359510970264672,1.7656690715685486,3.705405254754424
1744407825009745200,12.6067451171875,1.3700672869771717,1.6183245471820233,3.362764368239045
1744407825019715000,12.616715087890626,0.47942076226770874,1.5161585964322088,2.204318701378256
1744407825029686300,12.626686279296875,-0.46611938214600085,1.4368933365374803,1.1777743444480002
