time,seconds_elapsed,z,y,x
1744402371182728200,0.143728271484375,3.552794772663712,-1.089965274222195,0.46087052170708775
1744402371192702200,0.1537021484375,3.366100819185376,-1.3061053946763277,0.5935420853577554
1744402371202676200,0.16367626953125,3.002847937273979,-1.2112833769485354,0.7083304940544068
1744402371212650200,0.173650146484375,2.41341138753891,-1.0059501894518732,1.1347705575671045
1744402371222623200,0.183623291015625,1.763924565988779,-0.832958305850625,1.7678382323011754
1744402371232597000,0.193596923828125,0.7182756956160068,-0.8137605611667037,2.336118158369511
1744402371242571000,0.203571044921875,-0.44163200662136076,-0.8143608651474118,2.323369589824974
1744402371252545000,0.213544921875,-1.698863772535324,-0.7187962123587727,1.914752110185474
1744402371262519000,0.22351904296875,-2.777131886962056,-0.6783771082088351,1.463952462246269
1744402371272492300,0.2334921875,-3.239114607694745,-0.6464344482421874,1.004157972272858
1744402371282466000,0.243466064453125,-2.9965953066200015,-0.7380766668900847,0.5935452271629125
1744402371292440000,0.253440185546875,-2.4400568178802726,-0.9842878082200884,0.47892238429151474
1744402371302414000,0.2634140625,-1.9261176999390124,-1.0271344317778945,0.39831283364836123
1744402371312387300,0.27338720703125,-1.8061562725186346,-0.700022538305819,0.1928309949286282
1744402371322361300,0.283361328125,-2.2602111228615045,-0.1445937643736601,0.00007547638900578022
1744402371332335400,0.29333544921875,-2.7922949693024157,0.5276558008655905,0.09281246800366788
1744402371342309000,0.30330908203125,-3.1962925340563055,0.8728190454654395,0.3677135145820677
1744402371352283100,0.313283203125,-3.3313246893584725,0.5806295584231614,0.6711811322901398
1744402371362256400,0.32325634765625,-3.421691188982129,-0.22506591584011912,0.5732039384670555
1744402371372230400,0.33323046875,-3.5787925527513025,-0.9895696941457688,0.08214658748470247
1744402371382204400,0.343204345703125,-3.56370954990983,-1.3773184271492063,-0.5104392931267618
1744402371392178200,0.35317822265625,-3.2878222322404382,-1.421446907211095,-0.7563856460407375
1744402371402151200,0.363151123046875,-2.8537796578347683,-1.3648688415512442,-0.6575511047359556
1744402371412125200,0.373125244140625,-2.2870786715209483,-1.0652385369837283,-0.5011108352240174
1744402371422099200,0.38309912109375,-1.5679636024713515,-0.42312355937585233,-0.1554453401904553
1744402371432073200,0.3930732421875,-0.7187292846024036,0.22334479113593697,0.4573794647209346
1744402371442047200,0.403047119140625,0.07120528755784035,0.8274073937252163,1.0277212917551397
1744402371452020200,0.413020263671875,0.6484276678860187,1.3344975225545466,1.2109192198112606
1744402371461994200,0.422994140625,1.0348597653329372,1.6387033183440565,1.0310586194843052
1744402371471968300,0.43296826171875,1.3394851017087697,1.776411560987681,0.6407233771190047
1744402371481942300,0.4429423828125,1.4270640164405106,1.683524895236641,0.16152327186465262
1744402371491915300,0.452915283203125,1.2595868046075105,1.3281269646093248,-0.24648809510786085
1744402371501889300,0.46288916015625,0.9875585004538298,0.960844534920901,-0.5331474936170503
1744402371511863300,0.47286328125,0.9136907156884669,0.8017534586392343,-0.7038493300523608
1744402371521837300,0.48283740234375,0.9765689044058322,0.6733562113068997,-0.5391284311901777
1744402371531811300,0.492811279296875,1.4187655591726303,0.45195831645503637,-0.2231599726209417
1744402371541784000,0.5027841796875,1.6284885060608385,0.15832798295468092,-0.16979144359212367
1744402371551758000,0.512758056640625,1.691713316258788,-0.061965019395202395,-0.4950150390995666
1744402371561732000,0.522732177734375,1.469281694445014,-0.32807445489391684,-0.5705418796509504
1744402371571706000,0.5327060546875,1.1224287431925535,-0.6200573134481907,-0.4806340835802257
1744402371581679000,0.54267919921875,0.8847621428459882,-0.7832854895345867,-0.5477730715472251
1744402371591653000,0.552653076171875,0.8990940350592136,-0.9131004947103559,-0.814179663361609
1744402371601627100,0.562627197265625,1.1322194848448037,-1.0579079018346964,-1.1661930661171673
1744402371611601200,0.57260107421875,1.5343582699894904,-1.1766092461913824,-1.371916275844723
1744402371621575200,0.5825751953125,1.9098054475635289,-1.2664638507701456,-1.4152218952164053
1744402371631548200,0.592548095703125,2.0518249775350093,-1.1290237575434148,-1.3388348211064933
1744402371641522200,0.602522216796875,1.9076935699760913,-0.686097619458288,-1.0674620582520962
1744402371651496200,0.61249609375,1.6710954756438732,-0.18890987596213815,-0.4717908884437754
1744402371661470200,0.62247021484375,1.5972089861780403,-0.0019935119047760964,0.07489706388101913
1744402371671443200,0.632443115234375,1.4113222574293613,-0.15189327373206615,0.011275856510316953
1744402371681417200,0.642417236328125,1.1029419524341821,-0.4650558445677161,-0.6222483937516808
1744402371691391200,0.65239111328125,0.7602747624337672,-1.0162480038434267,-1.3581816188722848
1744402371701365200,0.662365234375,0.39679800863862036,-1.5916156962156296,-1.7966519465923307
1744402371711339300,0.67233935546875,0.008722235637903213,-1.83376674849987,-2.0715178122594953
1744402371721312000,0.68231201171875,-0.30437633005082604,-1.6228788494855164,-2.1676522277601062
1744402371731286000,0.6922861328125,-0.6725234137445688,-1.1801710303261876,-1.8588652416601776
1744402371741260000,0.702260009765625,-1.0478466726779938,-0.7501853300958872,-1.1921642504587768
1744402371751234000,0.712234130859375,-1.4440356095075606,-0.3225257347255945,-0.460574644033052
1744402371761207000,0.72220703125,-1.8088725457400083,0.07818769379109143,0.12105784435495734
1744402371771181000,0.73218115234375,-2.195449020093679,0.208082486204803,0.8016904764056205
1744402371781155000,0.742155029296875,-2.489514384010434,-0.06641074675768613,1.4614337574236094
1744402371791129000,0.752129150390625,-2.458630000925064,-0.39084231510460377,1.560887818866223
1744402371801103000,0.76210302734375,-2.1221149038136002,-0.5706111454948782,0.8639376737430691
1744402371811076000,0.772076171875,-1.9109440962046385,-0.7879659024357796,-0.025417450315831227
1744402371821050000,0.782050048828125,-2.2133061638236042,-1.097186457647383,-0.6214418996743858
1744402371831024000,0.792024169921875,-2.6675299409925937,-0.887358589079976,-1.3871845721252263
1744402371840998100,0.801998046875,-3.110814975517988,-0.10223112494051456,-2.154553822864592
1744402371850971100,0.81197119140625,-3.27163097589612,0.5919619765594601,-2.1051776514075695
1744402371860945200,0.821945068359375,-3.2127117539376018,1.1952353284671902,-1.5320859411433339
1744402371870919200,0.831919189453125,-2.8098148439019917,2.042280611859262,-1.1371885784942657
1744402371880893200,0.84189306640625,-2.254585099673271,2.7604578155368564,-0.9841659354060888
1744402371890866000,0.851865966796875,-1.6557359939485787,3.011188187856972,-0.8993634996503591
1744402371900840000,0.86183984375,-0.975849357959628,2.818500839182734,-1.0367330118589102
1744402371910814000,0.87181396484375,-0.2972802343100309,2.373893323881924,-1.3298333301357925
1744402371920788000,0.8817880859375,0.498855530577898,1.9915826902791856,-1.536300343967974
1744402371930762000,0.891761962890625,1.3325959267169236,1.7961019114941357,-1.4921660186871886
1744402371940735000,0.90173486328125,2.081395355412364,1.57579970292449,-1.1030328455880283
1744402371950709000,0.911708984375,2.68646669665277,1.436916425152123,-0.5065360020779073
1744402371960683000,0.92168310546875,3.0529478929609057,1.362575469917059,0.052798857648391276
1744402371970657000,0.931656982421875,3.112745651319623,1.2244035552844403,0.6688667909331619
1744402371980630300,0.94163037109375,3.0918185986250637,0.7457415024295448,1.259293374618888
1744402371990604300,0.951604248046875,2.9410283176988363,0.37725481151789425,1.131559413500875
1744402372000578000,0.961578125,2.614919463789463,0.16550532723814249,0.6919920843243599
1744402372010552000,0.971552001953125,2.19649239166677,-0.33903614002168175,0.4547155427413061
1744402372020526000,0.981526123046875,1.836792233800888,-0.8670080210991203,0.2756853288238868
1744402372030499300,0.991499267578125,1.6680694058209657,-1.325605337177217,0.22034856846202164
1744402372040473300,1.001473388671875,1.7468197019308804,-1.8070241413943469,0.15279720030184835
1744402372050447000,1.011447021484375,2.09863524402678,-2.0339409457981583,-0.0208561794154346
1744402372060421000,1.021421142578125,2.5537837348252532,-1.8979907988682387,-0.07434800603035836
1744402372070394000,1.03139404296875,2.999492197105288,-1.474686183837056,-0.015559863105602562
1744402372080368000,1.0413681640625,3.2343431555092335,-0.9114441058054565,0.1426267020843923
1744402372090342100,1.051342041015625,3.2580355812638997,-0.6044146308973432,0.5182544238571077
1744402372100316200,1.061316162109375,2.84452550727725,-0.6265265094622969,0.849988497237116
1744402372110290200,1.071290283203125,2.231849536252022,-0.8545134273156523,0.8455359017424285
1744402372120263200,1.08126318359375,1.4667512991845606,-1.1537237529054283,0.4523714273005724
1744402372130237200,1.0912373046875,0.6462047311395407,-1.4320140400633214,-0.07821892917957156
1744402372140211200,1.101211181640625,-0.1311374859511852,-1.5326961819961666,-0.48303518990520383
1744402372150185200,1.111185302734375,-0.6807938139617443,-1.3063035475969313,-0.7010812535785138
1744402372160158200,1.121158203125,-0.9977794502168893,-0.7928647803932428,-0.44063481227755547
1744402372170132200,1.13113232421875,-1.0941706169575451,-0.06776333041042089,0.043518969861418004
1744402372180106200,1.141106201171875,-0.9940794266551732,0.5984145136997103,0.22362174491379408
1744402372190080300,1.151080322265625,-0.8489905722409486,0.885603854367137,0.05146525269076228
1744402372200054300,1.16105419921875,-0.5135597632348538,1.070491050684452,-0.3240773115491494
1744402372210027300,1.17102734375,-0.4386982912570238,0.8701549408227205,-0.8378266425393521
1744402372220001300,1.181001220703125,-0.6892308029174804,0.5928045648634434,-1.056225136379525
1744402372229975300,1.190975341796875,-1.3857365652740001,-0.10333674809485674,-0.744698715378344
1744402372239949300,1.20094921875,-1.6642571540564297,-0.16911211955845354,0.13878326973030342
1744402372249922000,1.210922119140625,-1.8160674256801603,-0.09568944821208715,0.7451539117999374
1744402372259896000,1.22089599609375,-1.9058482343703507,0.1295017014428973,1.1060282280117273
1744402372269870000,1.2308701171875,-4.330483026713132,0.36348230675309895,0.8999841157667339
1744402372279844000,1.240843994140625,-5.301338229647278,0.372033277477324,0.47655474184472113
1744402372289818000,1.250818115234375,-4.887819387832284,0.22367285404652357,0.5409841055268422
1744402372299791000,1.260791015625,-4.423486304581165,0.014386545009911059,0.4558080141531303
1744402372309765000,1.27076513671875,-4.515340412414074,-0.06832534820735454,-0.34704200755115594
1744402372319739100,1.2807392578125,-4.210876988601684,-0.18074176707565784,-0.28057774050794543
1744402372329713200,1.290713134765625,-2.897956653213501,0.0640963323354721,0.658350438420102
1744402372339686100,1.30068603515625,-1.163571485441923,0.6902595614433288,1.3594317650638519
1744402372349660200,1.31066015625,0.10682429794967174,1.259266778872907,1.4022092689082026
1744402372359634200,1.32063427734375,0.08123509866297245,1.392586869560182,0.6581513356514275
1744402372369608200,1.330608154296875,0.06609422815442084,1.1801903195485473,-0.2797519937409088
1744402372379581200,1.340581298828125,0.5363409193634987,1.0102335658594965,-1.5742906135357915
1744402372389555200,1.35055517578125,1.6084084255844353,0.28554654189646245,-3.8648160645097493
1744402372399529200,1.360529296875,2.0819114882409573,-0.7971522484540939,-2.1539323299653828
1744402372409503200,1.370503173828125,1.4034230286121367,0.031234219436347483,1.164348168902844
1744402372419477200,1.380477294921875,0.07048866372108459,0.5199006566941737,1.2250620191931725
1744402372429450000,1.390449951171875,-1.575704425856471,0.16557459308207034,-0.2413894202619791
1744402372439424000,1.400424072265625,-1.2364520127356051,-0.5183423213362693,-0.7714938563887029
1744402372449398000,1.41039794921875,-0.03896539821028709,0.05932575693279504,-0.29763544095586986
1744402372459372500,1.42037255859375,0.7662555904090405,1.3009528342187404,-1.5114797909662128
1744402372469345500,1.430345458984375,1.4662369199216365,1.4293340071991085,-2.1802932442769407
1744402372479319600,1.440319580078125,2.982370381912589,1.5406284363001583,-2.0571292214229704
1744402372489293600,1.45029345703125,3.994061453104019,1.2314122650027275,-1.9589188764311372
1744402372499267600,1.460267578125,4.915239309677482,1.0543357424363493,-1.6869886258244513
1744402372509241600,1.47024169921875,5.227032053464651,0.5920543310180306,-1.3145723403789102
1744402372519214600,1.480214599609375,5.445494187125563,-0.018802607886493204,-0.9785010415121912
1744402372529188600,1.490188720703125,4.665508177527785,-0.25928368113189937,-0.45374929152503607
1744402372539162400,1.500162353515625,2.9757448262929915,-0.6690297264099121,-0.1572696878070943
1744402372549136400,1.510136474609375,1.1379431231886148,-1.004676808515191,-0.33360092669781294
1744402372559109400,1.520109375,-1.4461936643242834,-1.7354992664933204,0.33692758690249175
1744402372569083400,1.53008349609375,-4.016767790430784,-2.955126108895242,2.155466407664865
1744402372579057400,1.540057373046875,-2.3835049095749854,-2.7470272560775277,1.2916877238757907
1744402372589031400,1.550031494140625,-0.0848532891601324,-1.0160092266514897,-0.7880584760900586
1744402372599004400,1.56000439453125,1.5281903950095175,0.03751461488008499,-1.1267449258912354
1744402372608978400,1.569978515625,2.533612468934059,-0.28556963051110507,-0.9668199560686945
1744402372618952400,1.579952392578125,2.817662050271034,-0.6456029658541083,-0.5116431524911895
1744402372628926500,1.589926513671875,1.8616250617623329,-1.0740583877772092,0.5735604968197643
1744402372638900500,1.599900390625,-0.05426350510716438,-1.8433815490633247,1.1369498743675648
1744402372648873500,1.60987353515625,-1.8071107967644928,-1.7729998528480528,1.081632257097587
1744402372658847500,1.619847412109375,-2.478450553682446,-1.2314943903282285,0.2789095881000161
1744402372668821500,1.629821533203125,-2.2856682202011345,-0.46534722872972484,-1.1556326552666722
1744402372678795500,1.63979541015625,-1.5392448729872703,0.6930299029394984,-2.27621153280884
1744402372688768500,1.6497685546875,-0.2524246090173721,0.8237567622631787,-2.207131420711428
1744402372698742500,1.659742431640625,-0.9492220477968454,-0.8559507666423917,-0.14436192837916315
1744402372708716500,1.669716552734375,-2.354379937377572,-1.404103412091732,0.16643274428136645
1744402372718690600,1.679690673828125,-2.3317098404079672,-0.36938393201231956,-1.1227760953254997
1744402372728664300,1.689664306640625,-2.425690438875556,0.5235059877097606,-1.733026300508529
1744402372738637600,1.699637451171875,-4.319541945981979,0.3414534302964806,-1.1152731723494826
1744402372748611300,1.709611328125,-5.071231835421919,0.3009007628947496,-1.8667428431674837
1744402372758585300,1.71958544921875,-5.379761778020859,0.8824471439018845,-1.8638640728607774
1744402372768559400,1.729559326171875,-4.959657128074765,0.7872606767758726,-2.1204634833447633
1744402372778532600,1.73953271484375,-4.3988311712741845,0.8218100121095776,-2.0920199175402523
1744402372788506600,1.749506591796875,-3.782316644999385,0.0018269231662154197,-1.6563459425404667
1744402372798480400,1.75948046875,-2.6949650604069233,-1.5904852308809756,-0.530636497176811
1744402372808454400,1.769454345703125,-0.6371744524657726,1.522122765533626,-3.02862067643404
1744402372818427600,1.779427734375,-0.6291109729975461,2.260532609900832,-3.5392893944025037
1744402372828401700,1.789401611328125,0.2631055775076151,0.9804030757412314,-2.1956889663293957
1744402372838375700,1.799375732421875,1.014997711521387,1.1480313864827156,-1.7674356428496538
1744402372848349700,1.809349609375,1.6571078668236732,1.6449673471748827,-1.8150901050806045
1744402372858323500,1.819323486328125,2.086515767166018,1.4174240814357995,-1.307363870304823
1744402372868296700,1.829296630859375,2.4345026908844707,1.027487482999265,-0.7659904366668313
1744402372878270700,1.839270751953125,2.928599044236541,0.9657757077127694,-0.671631068014726
1744402372888244700,1.84924462890625,3.644796180012822,1.001466906557977,-0.5677094327040016
1744402372898218800,1.85921875,4.131377335429192,0.7957379977419972,-0.4661941278826445
1744402372908191500,1.86919140625,4.69282113186717,0.28483225614726543,-0.38704562623538075
1744402372918165500,1.87916552734375,5.533774528124928,-0.17251520600020884,-0.12456745991110801
1744402372928139500,1.889139404296875,6.371389719870686,-0.352943084821105,-0.30160690187010913
1744402372938113500,1.899113525390625,6.858351399037241,-0.5723433761149644,-0.16429196939300744
1744402372948086500,1.90908642578125,6.048076634159684,-0.7929600574612617,0.4019584601417184
1744402372958060500,1.919060546875,4.466187966710328,-0.8788488271489739,0.03615231355093419
1744402372968034600,1.92903466796875,2.671391877117753,-1.1988976503670215,-0.6107888055717572
1744402372978008600,1.939008544921875,0.759648739489913,-1.5799334417283535,-1.2908464507460593
1744402372987982600,1.948982666015625,-1.6646791788607835,-1.4663538242995737,-1.9587647087827325
1744402372997955600,1.95895556640625,-2.741231137019396,-1.1377142828688025,-2.0798523637540636
1744402373007929600,1.9689296875,-2.245088372531533,-0.8493763566881418,-1.52066993637681
1744402373017903600,1.978903564453125,-1.3784458237439394,-1.2316074953138827,-0.22361717833653091
1744402373027877600,1.988877685546875,-0.8813637325793504,-1.7710127706840633,0.7918461779352277
1744402373037850600,1.9988505859375,-1.8270020766705273,-1.8281407253116368,1.886479517033696
1744402373047824600,2.00882470703125,-2.1061112789958716,-1.3776058657884598,1.7899561022154986
1744402373057798700,2.018798583984375,-1.538486163574457,-1.1100842254042624,1.4400678749203681
1744402373067772700,2.028772705078125,-1.3591332205086946,-0.7991165342643857,1.3308613580092787
1744402373077745400,2.038745361328125,-1.9093366610080003,-0.14024112212210893,0.9981552977919578
1744402373087719400,2.048719482421875,-2.444171851983666,0.31580548655986784,0.756749364786595
1744402373097693400,2.058693359375,-2.122275647333264,0.4237207946166396,0.4723611260797828
1744402373107667500,2.06866748046875,-1.4147230057835578,0.5188011710196733,-0.017151753673236816
1744402373117641500,2.078641357421875,-0.9979793567031622,0.3472270452618599,-0.4157528844773769
1744402373127614500,2.088614501953125,-1.3059265309780836,-0.5282485060617328,-0.3856295123597607
1744402373137588500,2.09858837890625,-3.810658357864618,-2.8629961067304013,1.2754245713390409
1744402373147562500,2.1085625,-4.310683516743779,-4.619281848403811,1.970416714262217
1744402373157536500,2.11853662109375,-1.9793302346885202,-3.5435531893268224,1.2994623034000397
1744402373167509500,2.128509521484375,-1.5658493867963552,-2.320114095160365,0.6980040380902588
1744402373177483500,2.1384833984375,-2.7703029177248477,-1.5017147682771086,0.2976965600259602
1744402373187457500,2.14845751953125,-4.250719169646501,-0.3550274898797273,0.41575832783747463
1744402373197431600,2.158431640625,-4.93741665469408,0.5186828053370118,0.3693993853097781
1744402373207404500,2.168404541015625,-4.134607987913489,1.1271505110174418,0.4224340427417308
1744402373217378600,2.178378662109375,-2.7670301796644923,1.5752961373165248,0.6465089747831225
1744402373227352600,2.1883525390625,-0.945229763290286,1.7729510452702641,0.9021987230762839
1744402373237326600,2.19832666015625,1.0371960993260145,1.5863415552049875,1.1113993996560574
1744402373247300600,2.208300537109375,2.542020231795311,1.2951353801116348,1.4010498697400093
1744402373257273300,2.2182734375,3.1010271564751863,1.1803767820313573,1.577002648973465
1744402373267247400,2.228247314453125,2.74685482212007,1.3043074053436516,1.6298822985067962
1744402373277221400,2.238221435546875,1.7384698067367075,1.6186977644085883,1.5722238902643322
1744402373287195400,2.2481953125,0.5836433532863855,1.8760194978177547,1.3626771767258643
1744402373297168400,2.25816845703125,-0.11231062040627002,1.9682301640033721,0.9045555153355002
1744402373307142400,2.268142333984375,-0.1519482187896967,1.924068950715661,0.5037945578826591
1744402373317116400,2.278116455078125,0.4383271198570728,1.7348597995460033,0.13813468789476901
1744402373327090400,2.28809033203125,1.452584242144227,1.4479282330319285,-0.2327280114332214
1744402373337063400,2.2980634765625,2.554097623080015,1.2130495098382235,-0.5904594995746388
1744402373347037400,2.308037353515625,3.555609245562553,0.9619301382005214,-0.6341942676112056
1744402373357011500,2.318011474609375,4.092973662754893,0.6966051310777663,-0.44430038558039814
1744402373366985500,2.3279853515625,4.195049889394641,0.5068152574107051,0.046206564977578815
1744402373376959500,2.33795947265625,4.0557004554152485,0.7223197103098035,0.460066219586879
1744402373386932700,2.3479326171875,3.8945734893918034,0.8087289967402815,0.5960860707521438
1744402373396906500,2.357906494140625,3.53334714487195,0.8422641865953803,0.45357210832722483
1744402373406880500,2.367880615234375,3.312610636538267,0.8322899050697684,0.2134017084661871
1744402373416854500,2.3778544921875,3.412821069306135,0.6702300421103835,-0.2237359093453735
1744402373426827500,2.38782763671875,3.7069337794959543,0.5922501458510756,-0.9097117290548979
1744402373436801500,2.397801513671875,4.0840187874048945,0.3352686041817069,-1.5375529743775724
1744402373446775600,2.407775634765625,3.990431572169065,-0.09283668912947177,-2.1297075508996843
1744402373456749000,2.4177490234375,2.354562308207154,-0.592404167369008,-2.7351553242370485
1744402373466723000,2.42772314453125,1.4238848018825054,-1.1831529687464237,-1.522385800383985
1744402373476695800,2.43769580078125,1.2501052750349044,-2.400612988503277,-1.0542186919279395
1744402373486669800,2.447669921875,1.0521996071904898,-2.6999162530735132,-0.7587775096133351
1744402373496643800,2.457643798828125,0.18398820165097712,-2.679973827502131,-0.7849385174386203
1744402373506617900,2.467617919921875,-1.1992033553153276,-2.511273503614962,-1.0163415273457765
1744402373516590800,2.4775908203125,-2.522758481964469,-2.071736131185293,-1.2975211062043905
1744402373526564900,2.48756494140625,-3.4718729777336117,-1.7086939694151282,-1.496610284744948
1744402373536539000,2.497538818359375,-3.7679607873886822,-1.566976344999671,-1.0174384557370095
1744402373546513000,2.507512939453125,-3.3066999511897563,-1.7725997476145625,-0.38171982810273763
1744402373556486000,2.51748583984375,-2.4143892926603554,-1.8360262178644537,0.06369863825477659
1744402373566460000,2.5274599609375,-2.14259304369688,-1.5119628983080386,0.01671418423987925
1744402373576434000,2.537433837890625,-2.9382670362919567,-1.069653430816531,-0.07926547909043728
1744402373586408000,2.547407958984375,-3.731248136541247,-0.6465437538355588,-0.5138471288088708
1744402373596382000,2.5573818359375,-3.63995049354732,-0.1766302401036024,-1.085898536239937
1744402373606355000,2.56735498046875,-3.1654514055907725,0.25933161192685367,-1.2631515113517642
1744402373616329000,2.577328857421875,-2.2963117792904377,0.4717284541994333,-1.3646002537429331
1744402373626303000,2.587302978515625,-1.3635790940016508,0.2596393627017736,-1.37433225094527
1744402373636277000,2.597277099609375,-1.8120383162945508,0.045833238153159615,-0.8464225483838468
1744402373646250000,2.60725,-2.9991631112813946,0.3161027159407735,-0.2862535941872746
1744402373656223700,2.6172236328125,-4.131523465901613,1.1036465935721993,-0.2452265872720629
1744402373666197800,2.62719775390625,-4.64227869310975,1.9837661713093517,-0.7139716417465358
1744402373676171800,2.637171875,-4.466543356019258,2.662294086165726,-1.1987279198233038
1744402373686145800,2.647145751953125,-4.372558665898442,2.8851415953040123,-1.2453870143413543
1744402373696118800,2.657118896484375,-3.6173330035477873,2.617504511846602,-1.3946093152984975
1744402373706092800,2.6670927734375,-1.140018175897002,2.269156061339378,-1.598285675498843
1744402373716066800,2.67706689453125,1.0345780257821082,2.184265362778306,-1.1944115909941493
1744402373726040800,2.687040771484375,0.6727244892746209,1.9801430123761294,-1.2851117064863442
1744402373736013800,2.697013916015625,0.17123101140856742,1.9488687531903386,-1.2628214026145637
1744402373745987800,2.70698779296875,-0.0405512060970068,1.767880025616288,-0.7729530422210693
1744402373755961900,2.7169619140625,0.17873802603781222,1.0530135539218783,0.07857499434193596
1744402373765935900,2.726935791015625,0.6348708516985178,0.3982131361335516,0.4933156878357753
1744402373775908900,2.736908935546875,1.5276824454873799,0.12705956898778675,0.6435999554686248
1744402373785883000,2.7468828125,2.4702444508731363,-0.1762941400170326,0.7394597187463193
1744402373795857000,2.75685693359375,3.6510464725792406,-0.37193215519040823,0.7877480949666351
1744402373805831000,2.766830810546875,4.833261283692718,-0.30353724887818095,0.6842256881065666
1744402373815805000,2.776804931640625,5.796227194681763,-0.2826736168086529,0.5305634319406003
1744402373825778000,2.78677783203125,6.481178712844848,-0.6028317456200718,0.689930037228018
1744402373835751700,2.796751708984375,6.514462558287382,-0.812870334328711,0.8629954975221306
1744402373845725700,2.8067255859375,6.21584143076241,-0.9808172095000743,0.7491186507124453
1744402373855699700,2.81669970703125,5.604184281390905,-1.0735501459941268,0.4985620275240391
1744402373865672700,2.826672607421875,4.609705626285076,-1.4829951624989508,0.6100031716194003
1744402373875646700,2.836646728515625,3.7209991297274825,-1.1273413574144244,0.5563682467393577
1744402373885620700,2.846620849609375,3.2315374504387377,-0.7115621694520116,0.034765973759070035
1744402373895594800,2.8565947265625,2.792318934699893,-0.10635141974091529,-0.21192102318806572
1744402373905568800,2.86656884765625,1.7319763530641794,0.262810978475213,-0.5381159296793863
1744402373915541800,2.876541748046875,1.19966512760818,-0.2112967720761895,-0.37802323860712345
1744402373925515800,2.886515869140625,0.5250444493234158,-0.9806006441399454,0.8490637836076319
1744402373935489800,2.89648974609375,0.3993237277239561,-2.07028651689887,1.2174128926794976
1744402373945463800,2.9064638671875,-0.3669102353751659,-2.144382557462156,0.7596964510891586
1744402373955437000,2.91643701171875,-1.6716092703849077,-1.3752575490966439,0.10097639390537515
1744402373965411000,2.9264111328125,-3.314076617437601,-0.6379512820571661,-0.44250623217262325
1744402373975384800,2.936384765625,-4.642375139221548,-0.2738315541833639,-0.6140080964118242
1744402373985358800,2.94635888671875,-5.183125107198953,-0.30979514022916554,-0.6307595439221709
1744402373995332000,2.95633203125,-5.234882766965032,-0.4117340042248368,-0.7568091321498155
1744402374005306000,2.96630615234375,-5.172113299319148,-0.5347589108690619,-0.897185936415568
1744402374015280000,2.976280029296875,-5.074335062134265,-0.7653726700946688,-0.9546305557768792
1744402374025254000,2.98625390625,-4.56441570122838,-1.2663617055699228,-0.9246353035509586
1744402374035227600,2.9962275390625,-3.584692132183909,-1.6539155005231498,-0.755109707820788
1744402374045201000,3.006200927734375,-2.996702858647704,-1.7482269383803009,-0.13169610621463507
1744402374055175000,3.0161748046875,-3.1266052498459813,-1.6456661430940032,0.3791750024581328
1744402374065149000,3.02614892578125,-3.240585849291086,-1.6890931968882679,0.24774795897584406
1744402374075123000,3.036123046875,-3.858497967404127,-1.2675836485803127,0.339568201071769
1744402374085096000,3.046095947265625,-4.36864587636888,-0.37105157296359537,0.7547564374037087
1744402374095070000,3.056070068359375,-3.976545085635781,0.6881856777787209,0.8501412035807967
1744402374105044000,3.0660439453125,-3.191180305609107,1.736618918173015,0.9302335619494319
1744402374115018000,3.07601806640625,-2.2027298247516156,2.1668638538613916,1.1656843128774315
1744402374124991000,3.085990966796875,-1.0329711751073598,2.08468562912941,1.3788055969670414
1744402374134965000,3.095965087890625,0.31601942157149315,1.9937112267404793,1.5913297188811004
1744402374144939000,3.10593896484375,1.5127742146909235,1.7801394954696297,1.6714542259536682
1744402374154913000,3.1159130859375,2.0625445244699714,1.5269111688539385,1.658215828065574
1744402374164886000,3.125885986328125,1.8874679435491561,1.4313041382282972,1.6384905523762106
1744402374174860000,3.135860107421875,1.262137073612213,1.2721926036804914,1.4078430370114743
1744402374184834000,3.145833984375,0.7525082200855017,1.3304217975482344,0.8695547829724848
1744402374194808000,3.15580810546875,0.5143921224057674,1.6187492023348808,0.07324701338536106
1744402374204782000,3.165781982421875,0.7388917826652527,1.9381261176407336,-0.8091212109282613
1744402374214754800,3.1757548828125,1.344051971232891,2.0647949337452647,-1.5969290001928806
1744402374224728800,3.185728759765625,2.1005109747707844,1.8509727348446845,-1.7847618945732713
1744402374234702800,3.195702880859375,3.0462124472260474,1.1642267344802617,-1.4243093109048903
1744402374244676900,3.2056767578125,4.045141067478061,0.44320787763595576,-0.830253650001809
1744402374254649900,3.21564990234375,4.696556226742267,0.10164046557098627,-0.5533718779349699
1744402374264623900,3.225623779296875,4.730861816447973,-0.2087353971555829,-0.36977497715651986
1744402374274598000,3.235597900390625,4.292145405012369,-0.28836510644853114,-0.3690730394322425
1744402374284572000,3.245572021484375,3.6018700614780186,-0.1738163517266512,-0.7002475061681122
1744402374294545000,3.255544921875,3.008946838670969,0.13018705335855482,-1.0381413442868739
1744402374304519000,3.265518798828125,2.6093694284468887,0.6365668419614434,-1.5191232914566992
1744402374314493000,3.275492919921875,2.9036463892877102,0.9105039023458957,-1.8689979286178946
1744402374324467000,3.285467041015625,3.497244150355458,0.899531549693644,-2.0543505504898727
1744402374334440000,3.29543994140625,3.7801708651423453,0.5881307278335094,-1.7701437327645717
1744402374344414000,3.3054140625,3.7260698571205135,-0.18858575857430696,-1.3036080249026416
1744402374354388000,3.315387939453125,3.036662528592348,-1.2428247626379132,-0.7397898274835198
1744402374364362000,3.325362060546875,0.9038590575039386,-2.4379408486396072,0.41121319522112604
1744402374374336000,3.3353359375,-2.456910337525606,-3.150901486712694,1.5185726718366146
1744402374384308700,3.345308837890625,-2.6062352220743894,-2.654770997184515,0.4342530022859573
1744402374394282800,3.35528271484375,-1.8065479021847246,-1.8381065312698481,-0.9107179104227572
1744402374404256800,3.3652568359375,-1.1836276005208493,-1.259969666445255,-1.1340714693870395
1744402374414230800,3.375230712890625,-0.9823942495584488,-1.5251801072776316,-0.7003668947640806
1744402374424203800,3.385203857421875,0.013960720813274383,-1.7726643372833728,0.08588190155550837
1744402374434177800,3.395177734375,-2.074306273934245,-1.5417311368450521,-0.00042231706529855727
1744402374444151800,3.40515185546875,-3.0931063003480435,-0.7595043625831603,-0.33424371811337766
1744402374454126300,3.415126220703125,-3.216887578317523,0.08925678481608629,-0.9770059075836092
1744402374464099300,3.425099365234375,-3.2127082468062635,0.14503244805186985,-1.0115904603611676
1744402374474073300,3.4350732421875,-2.7352409566938873,-0.5844093692228197,-1.0334833624131976
1744402374484047400,3.44504736328125,-2.4822002616047856,-1.2091107090845703,-1.3761670651569962
1744402374494021400,3.455021484375,-2.295595155453682,-1.0613888758182526,-1.2914831412144006
1744402374503994400,3.464994384765625,-2.510019996422529,-0.9808911515191197,-0.7532567734304815
1744402374513968400,3.474968505859375,-2.9022213249206543,-1.000217783279717,-0.7340254918031394
1744402374523942400,3.4849423828125,-2.5964696148633957,-0.797288149793446,-0.4391290108244866
1744402374533916400,3.49491650390625,-2.172754373204708,-2.030686912438273,0.7594037517528981
1744402374543889400,3.504889404296875,-4.179163753476739,-0.5292123826578259,1.5941016678124664
1744402374553863200,3.51486328125,-4.523718364658952,1.2884028569862245,0.13910941467843949
1744402374563837200,3.524837158203125,-2.706177943816781,2.2956740659087895,-1.1983184622395784
1744402374573811200,3.534811279296875,-2.465010057350993,3.5358319474250077,-2.220962816056609
1744402374583784400,3.544784423828125,-2.2144909896939993,3.957359908172488,-2.845522117099166
1744402374593758500,3.554758544921875,-0.9456219774782657,3.290451996222138,-2.31838858654201
1744402374603732200,3.564732177734375,-0.07075579022467136,2.4114947402626274,-1.5751711957626044
1744402374613706200,3.574706298828125,-0.630375878366828,2.002632199820876,-0.8483473059013485
1744402374623680300,3.58468017578125,-0.924873203960061,1.8465476118788122,-0.7576119729653
1744402374633653500,3.594653564453125,-0.7911533003002404,1.749880843067169,-0.8531361476130783
1744402374643627500,3.60462744140625,-0.4855582421094179,1.5503591183282435,-0.8583664494819938
1744402374653601500,3.6146015625,-0.42649581228792666,1.0859611531473696,-0.615055705768615
1744402374663575300,3.6245751953125,0.7246645198702811,0.6077950671158731,-0.14601126648876817
1744402374673548500,3.634548583984375,2.786727982825041,-0.07213146249204874,0.051711172009538856
1744402374683522600,3.6445224609375,5.109655381840467,-0.6072103990957141,0.3343789618656039
1744402374693496600,3.65449658203125,6.680628687521815,-0.9384564697630703,0.5653396713653579
1744402374703470600,3.664470703125,6.858079596358538,-1.1567694042116403,0.717373632209748
1744402374713443300,3.674443359375,5.988788578888774,-1.1783750868201255,0.8391068916082381
1744402374723417300,3.684417236328125,5.403830051350593,-1.0782676760353147,0.9931409767612814
1744402374733391400,3.694391357421875,4.717226089805364,-1.0041831797793508,0.7754130756590515
1744402374743365400,3.704365478515625,3.68857160885334,-0.7959612851038574,0.66559032654576
1744402374753338400,3.71433837890625,3.2658407020568845,-0.46070817075222725,0.13691013280218467
1744402374763312400,3.7243125,3.0075679515331983,-0.6535346356362104,-0.09352753007099963
1744402374773286400,3.734286376953125,2.4788135417759416,-1.1379629969328642,-0.16241032036487013
1744402374783260400,3.744260498046875,2.458840428805351,-1.5313333692103623,-0.07284717301335185
1744402374793233400,3.7542333984375,2.6274247250974176,-2.065552327983826,0.0873099250646308
1744402374803207400,3.76420751953125,2.4613614717155694,-2.327085395477712,0.34049700635448094
1744402374813181400,3.774181396484375,0.8127987303972244,-2.011594089433551,-0.15837014159597457
1744402374823155500,3.784155517578125,-1.6382237181335686,-1.3006765014953912,-1.2619402358658611
1744402374833128400,3.79412841796875,-2.622091547375917,-1.037946917693317,-1.7354129033841192
1744402374843102500,3.8041025390625,-3.00183846797049,-1.2115014036133884,-1.3915645407751203
1744402374853076500,3.814076416015625,-2.8339485836833713,-1.313103144609183,-0.6778050074093044
1744402374863050500,3.824050537109375,-2.78790462538898,-1.2480351907625793,-0.4191674421612173
1744402374873023500,3.8340234375,-2.9344869332313537,-0.7257181205764413,-0.13405695359446107
1744402374882997200,3.843997314453125,-2.807960155946016,-0.14518807700499892,0.15528353722486643
1744402374892971300,3.85397119140625,-2.759434902229905,0.2299865672379732,0.1355051431087777
1744402374902945300,3.8639453125,-2.7887182798594234,0.3030914048068225,-0.03824738613404333
1744402374912918300,3.873918212890625,-2.7444892620325088,-0.23239918133765458,-0.22816852149795738
1744402374922892300,3.883892333984375,-2.25772047508955,-0.6918311946742236,-0.07458948663603514
1744402374932866300,3.8938662109375,-1.7517232560634612,-0.7783245061263442,0.3710258905330673
1744402374942840300,3.90384033203125,-1.5313976666182278,-0.792796245201677,0.7543227221615612
1744402374952813300,3.913813232421875,-2.065178964626789,-0.8576841663062572,1.0585082058154045
1744402374962787300,3.923787353515625,-3.179958069849014,-0.6402538599111139,1.4273549622111021
1744402374972761300,3.93376123046875,-4.60803740081191,-0.12735665223821996,1.8196628198236227
1744402374982735400,3.9437353515625,-5.3179409894019365,0.5897540912516415,1.7818518523454665
1744402374992708400,3.953708251953125,-4.724015896075963,1.1637697844929993,1.4933724718675017
1744402375002682400,3.963682373046875,-3.446200776338577,1.617448933391273,1.3823176967412232
1744402375012656400,3.973656494140625,-1.9605746808141469,1.8909920260220765,1.4726460563115775
1744402375022630400,3.98363037109375,-0.40636137127578253,1.8035338150605558,1.666223631823808
1744402375032603400,3.993603271484375,0.8718412864744662,1.6185592327207325,2.0389976446658373
1744402375042577400,4.003577392578125,1.4593682031959294,1.5627943831399083,2.198545232543349
1744402375052551400,4.013551513671875,1.0281856943964958,1.7080141704574225,1.9551897729054093
1744402375062525200,4.023525146484375,-0.021434417694807053,2.0069839652895927,1.3961495304778218
1744402375072498400,4.03349853515625,-0.8568243346065282,2.2787980421707035,0.7479694076120853
1744402375082472400,4.043472412109375,-1.2061170802265404,2.3909590249732133,0.14495996733754873
1744402375092446200,4.0534462890625,-0.9382979182004928,2.4676310535043475,-0.12581238193828612
1744402375102420200,4.063420166015625,-0.1111310552328825,2.4248186244770884,-0.2493838530819863
1744402375112393500,4.0733935546875,1.0261743545740842,2.0372771044835445,-0.243832721760869
1744402375122367500,4.083367431640625,2.2672078498810526,1.320828624294698,-0.19406148657165467
1744402375132341500,4.093341552734375,3.5059582026869056,0.6361243588909506,-0.1962978490552865
1744402375142315300,4.103315185546875,4.4998698715597385,0.172783501547575,-0.03679515976542607
1744402375152288500,4.11328857421875,5.1178948023974895,-0.10967910285890102,0.05730247094426304
1744402375162262500,4.123262451171875,5.01708932634592,-0.20947189473658798,0.06578103401940316
1744402375172236500,4.133236572265625,4.294591629120707,-0.3316068668037653,-0.09933501077336258
1744402375182210600,4.14321044921875,3.5002176132082936,-0.3911789997130632,-0.3749490187935531
1744402375192183600,4.15318359375,2.7940783455878493,-0.4624035764932632,-0.3671458342293277
1744402375202157600,4.163157470703125,2.3899837502002717,-0.730491034066677,-0.33319318614713844
1744402375212131600,4.173131591796875,2.096630333945155,-1.024425172819197,-0.4335674677072093
1744402375222105600,4.183105712890625,2.018324858993292,-1.2099284552082419,-0.703283074471727
1744402375232078300,4.193078369140625,1.8763930073052644,-1.250887365323305,-0.9657746847994625
1744402375242052400,4.20305224609375,1.5642378599464892,-1.2667203097492457,-1.1581454418051986
1744402375252026400,4.2130263671875,1.0921312200844286,-1.1943281504943966,-1.1843332645721734
1744402375262000400,4.22300048828125,0.19791209758520126,-1.1734946213021873,-0.9516503709223121
1744402375271973400,4.232973388671875,-1.0044593663722277,-1.293262279716134,-0.649465413435921
1744402375281947400,4.242947509765625,-2.0888316428929565,-1.3989756938144564,-0.521990906971693
1744402375291921400,4.25292138671875,-2.6940894466161724,-1.069997129687667,-0.41453430246785283
1744402375301895400,4.2628955078125,-2.7834084830135106,-0.576335368360579,0.06018723260033875
1744402375311868400,4.272868408203125,-2.3012825534403323,-0.7485039528802037,1.3648055670566857
1744402375321842400,4.282842529296875,-1.8162836987793445,-0.8967337356686591,0.39838056512232867
1744402375331816400,4.29281640625,-1.0261053809911012,-0.7134931375145912,1.5190524181775749
1744402375341790500,4.30279052734375,-0.6930600058168173,-1.1303303100973368,1.5812188053637741
1744402375351763500,4.312763427734375,-1.0879396136134862,-1.1567416394218801,1.7108192910060285
1744402375361737500,4.322737548828125,-1.6087760898530483,-1.0299293231934308,1.8271261414416133
1744402375371711500,4.33271142578125,-2.3235054911643265,-1.1678259280160068,1.977207689576596
1744402375381685500,4.342685546875,-3.2608693433851004,-1.0906026953428982,1.089961474829912
1744402375391658200,4.352658203125,-3.5402187842071053,-0.4511503610730171,-0.38433848616853356
1744402375401632300,4.36263232421875,-2.624132697814703,-0.022197218760848045,-1.1403652357690035
1744402375411606300,4.372606201171875,-1.2832915053218603,-0.03358341291099787,-1.3718746286600827
1744402375421580300,4.382580322265625,-0.5568985542237759,0.14483517191410064,-1.7202555201321839
1744402375431553300,4.39255322265625,-0.18846213219463825,0.6700155225768685,-1.9669196659266948
1744402375441527300,4.40252734375,-0.1925467711597681,1.4206690547063945,-1.9961584737621247
1744402375451501300,4.412501220703125,-0.7748030540019273,2.240580831979215,-2.148722778623551
1744402375461475000,4.42247509765625,-1.5385025301873683,2.793039942450821,-2.4512112491011617
1744402375471448000,4.432447998046875,-2.3239012124836442,2.9627123262405393,-2.5240961603090164
1744402375481422000,4.442422119140625,-2.957975360846519,3.016464666955173,-2.501017774799466
1744402375491396000,4.45239599609375,-3.0955490173250433,3.0346935666069386,-2.4242672742046416
1744402375501370000,4.4623701171875,-3.1376994753122327,2.8436984088033435,-2.4070146722391246
1744402375511343400,4.47234326171875,-2.3274691340982914,2.538912913429737,-2.2892010705024
1744402375521317000,4.482317138671875,-1.1153116046637297,2.109863032744825,-2.0372094460748134
1744402375531291100,4.492291015625,-0.06384323435723781,1.65186382869035,-1.88209399542585
1744402375541265200,4.50226513671875,1.0409224263727663,1.46310651294142,-1.8771254132330417
1744402375551238100,4.512238037109375,1.7993956923425196,1.23221861294955,-1.6487060953117907
1744402375561212200,4.522212158203125,2.247604154744744,0.8664356280386447,-1.0304399761293084
1744402375571186200,4.532186279296875,2.624270644980669,0.49141632048785683,-0.47135750199519094
1744402375581160200,4.54216015625,3.208494428503513,0.28255642016977073,-0.00753051423584111
1744402375591133200,4.55213330078125,4.567698960682749,0.38739743534773585,-0.0336214798990637
1744402375601107200,4.562107177734375,5.663485196143388,0.6917538916543126,-0.18493823238480836
1744402375611081200,4.572081298828125,6.369083781015872,1.0596405708462,-0.3840743188070133
1744402375621055200,4.58205517578125,6.199755972880125,1.2051266078844667,-0.7306020932257175
1744402375631028200,4.5920283203125,5.322501429185271,1.2114806530863047,-0.6429525974757969
1744402375641002200,4.602002197265625,4.00148078944981,0.9831582196682691,-0.5598231729662045
1744402375650976300,4.611976318359375,2.949158432662487,0.329182854527235,-0.5072367342257872
1744402375660950300,4.6219501953125,2.5223691903859375,-0.561450810700655,-0.10753266541473566
1744402375670923300,4.63192333984375,2.1670184599012137,-0.9002455431818962,0.035736791552603245
1744402375680897300,4.641897216796875,1.3152555003374815,-1.3047215391024947,-0.1363295747015625
1744402375690871300,4.651871337890625,0.5316062920570374,-1.8808073166161774,0.5536371412750333
1744402375700844000,4.661843994140625,0.7308522685945034,-2.271905360047519,1.1238234124213455
1744402375710818000,4.671818115234375,2.3996166709423066,-1.903516576552391,1.0056309674348682
1744402375720792000,4.6817919921875,2.610931270936131,-1.4438257661491631,0.8745567559782416
1744402375730766000,4.69176611328125,-1.4241694640427827,-1.451019477045536,2.1256468773320316
1744402375740739000,4.701739013671875,-2.3565689718544482,-1.6810688803866505,1.866235185906291
1744402375750713000,4.711713134765625,-2.8148054917961356,-1.3372516435682773,1.4395342064350842
1744402375760687000,4.72168701171875,-1.8770020791143178,-1.6587167633250355,1.657302220351994
1744402375770661000,4.7316611328125,-1.673650420823693,-2.0583233996435997,1.9638978338874875
1744402375780634000,4.741634033203125,-2.563071787652373,-1.1430597355499863,1.027650345410779
1744402375790608100,4.751608154296875,-2.5816245124310253,-1.3884563456267118,0.7817292730685323
1744402375800582100,4.76158203125,-1.958352913111448,-1.471465760485828,0.36677360338345166
1744402375810556200,4.77155615234375,-1.943300889930129,-1.134882274313271,-0.237808273839578
1744402375820529200,4.781529052734375,-2.280564759582281,-0.4770291909560561,-0.989353859438002
1744402375830503200,4.791503173828125,-3.3852760597765443,0.12406418656408787,-0.9514490031313151
1744402375840477200,4.801477294921875,-4.039880954992771,-0.13248510116785764,-0.9084673550169915
1744402375850451200,4.811451171875,-4.2482805443227285,0.0011859949141740799,-0.6659691697955131
1744402375860424000,4.821423828125,-4.188826484835148,0.705968294967711,-0.16698898992463945
1744402375870398000,4.83139794921875,-3.943658130556345,1.1452514003753662,0.40708924715891476
1744402375880372000,4.8413720703125,-3.402306105032563,1.4264049680098891,0.8753859733439981
1744402375890346000,4.851345947265625,-3.047912236881256,2.1313094331383704,0.9365846845418214
1744402375900319000,4.861319091796875,-2.8193413816601036,2.461690265278518,1.113139082930237
1744402375910293000,4.87129296875,-2.7600498192578553,2.954536910830438,1.0522647813811898
1744402375920267000,4.88126708984375,-2.6018074687600135,3.2345462768658995,0.8423049569971859
1744402375930241000,4.891240966796875,-2.174290496730804,2.4820444865211844,1.1543531368501483
1744402375940214300,4.90121435546875,-1.905918376997113,2.284675702032447,1.107476088732481
1744402375950188000,4.91118798828125,-1.6467483853727578,2.453314358860254,0.5939595801174641
1744402375960162000,4.921162109375,-1.002248704585433,1.9331690797552465,0.5182837230168282
1744402375970136000,4.931135986328125,-0.5172428356617689,1.1131105874881149,1.0070382769495247
1744402375980109300,4.941109375,-1.0328431648135186,0.2715314605474472,1.6441823342770336
1744402375990083300,4.951083251953125,-0.7073644255012274,-0.3123150140956044,1.5427920440748333
1744402376000057300,4.961057373046875,0.8339023087024688,0.24273119025975465,0.6675283819362521
1744402376010030000,4.971030029296875,1.9553104766756295,0.6996884840458631,-0.08973419306948781
1744402376020004000,4.981004150390625,3.4266467655628916,0.4268038553237915,-0.36472543868198987
1744402376029978000,4.99097802734375,4.2724476018518205,0.21450258238017558,-0.5719435631424188
1744402376039952100,5.0009521484375,4.43155212213695,-0.012020400400459765,-0.6810878284722566
1744402376049925000,5.010925048828125,4.197110329055786,-0.18128391112834213,-0.7451169407904148
1744402376059899100,5.020899169921875,3.9104900204479693,0.011015607272088527,-0.9953938702546059
1744402376069873200,5.030873046875,3.777424196782708,0.2449336687400937,-1.1342156270980834
1744402376079847200,5.04084716796875,3.7681928425788875,0.36061990305930375,-0.9841414585519581
1744402376089820200,5.050820068359375,3.797234812667966,0.2151338660210371,-0.6232889157805591
1744402376099794200,5.060794189453125,3.7734693216770885,-0.18948826037198305,-0.16016831359174102
1744402376109768200,5.070768310546875,3.1612603836417197,-0.3378410850182175,0.08903385364725254
1744402376119742200,5.0807421875,2.065895588463545,-0.5390384878844022,0.12086177379358559
1744402376129715200,5.090715087890625,1.0343214206725357,-0.7882517336398362,0.24296494421670212
1744402376139689200,5.100689208984375,1.6123077711105345,-0.8590136613443493,-0.02556830719572026
1744402376149663200,5.110663330078125,2.185106489777565,-0.5630816267728805,-0.7087604829695076
1744402376159637200,5.12063720703125,2.2015625345379113,-0.5012105692714452,-0.7302732265975326
1744402376169610000,5.13060986328125,1.5186001443654298,-0.9638561378270387,-0.32978008976802226
1744402376179584000,5.140583984375,0.21695114457607267,-1.2812062234804034,0.012682088312739506
1744402376189558000,5.15055810546875,-1.089782611131668,-1.3670806723818183,0.25574491254650056
1744402376199532000,5.160531982421875,-2.444114568838477,-1.3277563777312635,0.4018326418049633
1744402376209505000,5.170505126953125,-3.7775644820362326,-1.0631763437569142,0.3293094035163522
1744402376219479000,5.18047900390625,-4.675437450867891,-0.6100146428614854,0.03613421163866296
1744402376229453000,5.190453125,-4.83068178859353,-0.49684945145249365,-0.27649335727114227
1744402376239426000,5.200426025390625,-4.097220214283466,-0.5933171905606984,-0.21692365378094836
1744402376249400000,5.210400146484375,-2.9201152935296295,-0.8938330457910895,0.061143218150921164
1744402376259374000,5.2203740234375,-1.974645876264572,-1.211474223345518,0.2935049900876358
1744402376269348000,5.23034814453125,-1.8285533977657555,-1.1267045208156108,0.3070364891707897
1744402376279321000,5.240321044921875,-2.349003505036235,-0.8343032907187938,-0.0059494555894751095
1744402376289295000,5.250295166015625,-3.106435737520456,-0.6419234005585313,-0.5212317957000807
1744402376299269000,5.26026904296875,-4.054623181572556,-0.3271177386909723,-0.7245764762606471
1744402376309243100,5.2702431640625,-4.9318958454459905,0.16646335861533879,-0.8276378414802252
1744402376319216000,5.280216064453125,-4.44742364500761,0.6114268477469682,-1.0528861281499267
1744402376329190100,5.290190185546875,-3.5224966650336977,1.2065317985072732,-0.8621757055718451
1744402376339164200,5.3001640625,-2.5287773038625714,1.3737863075003027,-0.9494813563201576
1744402376349138200,5.31013818359375,-1.8115975867897272,1.5596943712979554,-0.9264208717934787
1744402376359111200,5.320111083984375,-1.6095891598016023,1.6691706450611352,-1.2915326794445514
1744402376369085200,5.330085205078125,-1.416750127696991,2.02676740090698,-1.8283496918871998
1744402376379059200,5.34005908203125,-1.0940373459666968,2.1529057633966207,-2.3426452220506966
1744402376389033000,5.350032958984375,-0.3610749533504247,2.1033003132283685,-2.6866744941845533
1744402376399006200,5.360006103515625,0.5625462047219276,1.9463959333360195,-2.584204299791157
1744402376408980200,5.369980224609375,0.7808096009403467,1.616561336901784,-2.5140920681670305
1744402376418954200,5.379954345703125,0.5305313563019037,1.4652292041838169,-2.023117353966832
1744402376428928300,5.38992822265625,0.4483446560025215,1.2702379624813793,-1.3602854592837392
1744402376438901200,5.3999013671875,0.9176789085417986,1.0127531474649905,-0.5753863240074366
1744402376448875300,5.409875244140625,2.407504209321737,1.0577116486102343,-0.028342151256650686
1744402376458849800,5.419849853515625,3.840480080154538,1.3322440445393322,0.24511413987353442
1744402376468822800,5.42982275390625,4.245111851158738,1.6827143095061181,0.2897452722279355
1744402376478796800,5.439796875,3.374220997276902,1.9659765398576854,0.1755760000766255
1744402376488770800,5.449770751953125,4.343583331304789,1.9633117045626043,-0.0942457522097975
1744402376498744800,5.459744873046875,6.908588717368245,1.1807160969883204,0.28233484984096135
1744402376508717800,5.4697177734375,3.557133678650856,0.6782900144472718,1.3704120087616145
1744402376518691800,5.47969189453125,2.816237570425868,0.6329726168617605,0.7176343289725482
1744402376528665900,5.489665771484375,2.9840123039007187,0.7521911169603467,1.0570291462387889
1744402376538640000,5.499639892578125,3.543384554761648,0.31079642622619863,1.3958657451003789
1744402376548612900,5.50961279296875,3.5030899537742135,-0.3738707220375538,1.6628541553907095
1744402376558587000,5.5195869140625,3.9094033942550417,-0.13656944787204264,0.8991774755589663
1744402376568561000,5.529560791015625,3.2819191456764933,0.6118091250628233,-0.5884174358204006
1744402376578535000,5.539534912109375,2.6267349892675873,0.5829091937929392,-0.9966513229697942
1744402376588507600,5.549507568359375,1.3840736004978418,-0.12747253370285033,-0.4244220016885549
1744402376598481700,5.559481689453125,-0.011934183421730995,-0.8831719510450958,-0.07283083379990421
1744402376608455700,5.56945556640625,-0.7162567570090294,-1.0648656120181084,-0.01323478115890175
1744402376618429700,5.5794296875,-0.9119476714134216,-1.1221008264124392,-0.28069636191893366
1744402376628402700,5.589402587890625,-0.8740583780020474,-1.1098328809916973,-0.5617682426193729
1744402376638376700,5.599376708984375,-0.5815525184869766,-1.1133733300775288,-0.6002204671431333
1744402376648350700,5.609350830078125,-0.14369301614165306,-1.2732298377737403,-0.5255647103378549
1744402376658324700,5.61932470703125,0.25001404074430467,-1.4389754035085438,-0.3017439722532406
1744402376668297700,5.629297607421875,0.10474047741293907,-1.661177600480616,0.06312566067241132
1744402376678271700,5.639271728515625,-1.0746709667176007,-1.8778467132449148,0.3944941886756569
1744402376688245800,5.649245849609375,-2.725146263659,-2.0783383059293032,0.37214700351748614
1744402376698218800,5.65921875,-3.9921711093127725,-1.6508347779035568,-0.07221355128493159
1744402376708192800,5.66919287109375,-4.651986432653665,-1.3184794308200478,-0.1987137328242883
1744402376718166800,5.679166748046875,-4.587985377386212,-1.8138617323294282,0.11249306430108845
1744402376728140800,5.689140869140625,-4.042450513219833,-2.13368814496845,0.29461108816601334
1744402376738113800,5.69911376953125,-3.1805098585128784,-1.8431880723178387,0.6722218004494905
1744402376748087800,5.709087890625,-2.256229944270849,-1.5766627494946122,0.7265526717044413
1744402376758061600,5.7190615234375,-1.5518927576363086,-1.2536945316985248,0.6282022606547921
1744402376768035600,5.72903564453125,-1.3136276068747044,-0.9358782898381351,0.9134800686124712
1744402376778008600,5.739008544921875,-1.4992442865103481,-0.6065624565809965,1.4286891334243117
1744402376787982600,5.748982666015625,-2.5681851851433515,0.263288532859087,1.5074074269607662
1744402376797956600,5.75895654296875,-4.250280778229237,1.5983976114407181,0.9876447174325584
1744402376807930600,5.7689306640625,-4.360559016025066,1.9168726094707846,1.4543550512090324
1744402376817903900,5.77890380859375,-3.5618133608996865,1.9080995204284785,1.9275094465583562
1744402376827877600,5.788877685546875,-2.6549673965394494,2.114493907415867,2.0791697883173823
1744402376837851600,5.7988515625,-1.653040763515234,2.393411971083283,1.8916051894843577
1744402376847825000,5.808824951171875,-0.45013212394118307,2.499386081944406,1.5989733655020593
1744402376857799000,5.818798828125,0.6740040076911449,2.437270109771192,1.3930816673398017
1744402376867773000,5.82877294921875,1.1646207022339106,2.3564073515519497,1.1799232661101966
1744402376877747000,5.838746826171875,1.1747171488344668,2.172811948610842,1.0057956564772874
1744402376887720000,5.848719970703125,0.8879963024616241,1.968991211503744,0.8659036400537937
1744402376897694000,5.85869384765625,0.2463479194521904,1.759601734353602,0.5421032822825014
1744402376907668000,5.86866796875,-0.17980828561782836,1.576763579520583,0.12027100482620298
1744402376917642000,5.87864208984375,0.1388151809722185,1.2883768457621336,-0.08769983769766986
1744402376927614700,5.88861474609375,0.8655880712985992,0.9842615047350525,-0.46220133191943163
1744402376937588700,5.898588623046875,1.7513409787476062,0.900719590434432,-0.7567372359573841
1744402376947562800,5.908562744140625,2.641715700778365,0.7585796489536761,-0.9295461642071604
1744402376957536800,5.918536865234375,3.3580653967678544,0.5722641733989119,-1.0226792059347032
1744402376967509800,5.928509765625,3.874794437688589,0.3969637205943465,-1.06714247090891
1744402376977483800,5.93848388671875,4.025670058810711,0.13630670528262853,-0.9373071535974741
1744402376987457800,5.948457763671875,3.8546301860600707,-0.04444879805743694,-0.72170581619516
1744402376997430800,5.9584306640625,3.654769877016544,-0.15169541307240725,-0.4414115688037127
1744402377007404800,5.96840478515625,3.526128299534321,-0.3654425009101629,-0.17718785572005435
1744402377017378800,5.97837890625,3.3169565567880865,-0.4922904729738831,-0.03533485968820751
1744402377027352800,5.988352783203125,2.961993364316225,-0.5036445184201002,-0.023743735816795376
1744402377037325800,5.998325927734375,2.263746311250329,-0.23312603430747986,0.035433214629301796
1744402377047299800,6.0082998046875,1.2865975611299276,-0.13767127163410187,0.09462513431566767
1744402377057273900,6.01827392578125,0.8148971639811993,-0.3120753601208329,-0.10714064302300103
1744402377067247900,6.028247802734375,0.5290846646249294,-0.4167369270786643,-0.056250162579468445
1744402377077220600,6.038220703125,0.10321136814951896,-0.7130383794844151,-0.05878687341627665
1744402377087194600,6.048194580078125,-0.5249070866793394,-1.0284572048142553,0.14901204660679213
1744402377097168600,6.058168701171875,-1.2636655983537435,-1.466083190664649,0.5733539048643782
1744402377107142700,6.068142578125,-1.915389385175705,-1.9846862087637185,1.1755844331882894
1744402377117115600,6.07811572265625,-2.268198029962182,-2.4695173056423663,1.7001656489141284
1744402377127089700,6.088089599609375,-2.2227771720021963,-2.665118495936692,2.0313233106456696
1744402377137063700,6.098063720703125,-1.9574965885430573,-2.8063047899544236,2.1931746454209087
1744402377147036700,6.10803662109375,-1.5471891099900006,-2.865967816017568,2.0765872244782746
1744402377157010700,6.1180107421875,-1.3308341777414083,-2.4807944864600895,1.2124619922738522
1744402377166984700,6.127984619140625,-2.067185628274083,-1.1862711007669566,-0.005882062042225152
1744402377176958700,6.137958740234375,-3.640340954169631,0.3767179281622171,-1.5774512695237994
1744402377186932000,6.147931884765625,-4.525633258369565,0.29040538010448214,-2.2125863251164555
1744402377196905700,6.15790576171875,-4.121273874565959,-0.22276801416128872,-1.7683309842541812
1744402377206879700,6.167879638671875,-3.203865599659085,-0.8727329746171831,-1.1580376705817879
1744402377216853800,6.177853759765625,-2.2412755362451073,-1.1704302652955054,-1.0785768881149589
1744402377226826800,6.18782666015625,-1.1925789687395094,-1.1432117112413047,-1.5883873818188905
1744402377236800800,6.19780078125,-0.1658814670741558,-0.801965786215663,-2.0500458390332756
1744402377246774800,6.20777490234375,0.39300796870589255,-0.08716595001667737,-2.4737781779572368
1744402377256748800,6.217748779296875,0.3872767315775156,1.195062017726898,-2.304005840924382
1744402377266721800,6.2277216796875,-0.12755027511417866,1.8972361811086533,-1.7570329067789017
1744402377276695800,6.23769580078125,-0.5161275678962469,0.41836628184616564,1.1481804395645856
1744402377286669800,6.247669921875,-2.1334499522984025,-0.6773261378511786,3.040629094135761
1744402377296642800,6.257642822265625,-3.223687321460247,1.3236185472741722,0.33448410274051127
1744402377306616800,6.267616943359375,-2.6687165204286574,3.0930574927702543,-1.6145657791703938
1744402377316590800,6.2775908203125,-1.6947832252234218,3.2721894865617154,-1.9239481008149681
1744402377326564900,6.28756494140625,-0.702590635228157,3.0262749900907275,-1.7793392850026488
1744402377336537900,6.297537841796875,0.4559340882182121,2.6173230177998543,-1.4301150745742022
1744402377346512000,6.307511962890625,1.3633587292492388,2.509003220595419,-1.2281257906779646
1744402377356486000,6.31748583984375,1.700596295416355,2.3254995875909925,-1.0301735072128475
1744402377366460000,6.3274599609375,2.039792009913921,1.8311416606932878,-0.5004937993042171
1744402377376432600,6.3374326171875,2.4105916539430616,1.4454647655278443,-0.32787199112437665
1744402377386406700,6.34740673828125,2.436719782412052,1.3104995379820465,-0.347116534092091
1744402377396380700,6.357380615234375,2.2102976296573877,1.3798872547239065,-0.2853588007720187
1744402377406353700,6.367353759765625,2.358790155035257,1.202499766512215,-0.2849418722678907
1744402377416327700,6.37732763671875,2.2305343620002267,1.1739452876791356,-0.20808612120030445
1744402377426301700,6.3873017578125,1.9671417842447756,0.9488985149309038,0.25217748412219804
1744402377436275700,6.397275634765625,1.967370332303643,0.5975619885236024,0.4495007307024672
1744402377446248700,6.407248779296875,2.1730741066783663,0.4398860397368669,0.3430312740724534
1744402377456221700,6.4172216796875,2.4767379045456646,0.2169634195357561,0.37029892796538766
1744402377466195700,6.42719580078125,3.132982383662462,-0.10919921038746833,0.4380490335680544
1744402377476169700,6.437169677734375,3.631649698191881,-0.2795008319914341,0.41154973369911313
1744402377486143000,6.44714306640625,3.896994579058885,-0.46285219704359765,0.42203817529194054
1744402377496117000,6.457116943359375,4.282583211418986,-0.7029998005509376,-0.08484417427191511
1744402377506090800,6.4670908203125,4.570494728881121,-0.5315288429066538,-1.0483661665074526
1744402377516064000,6.47706396484375,3.800240424224734,0.6443439057037234,-1.7176533748097718
1744402377526038000,6.4870380859375,2.145543710196018,-0.08793722665011883,-1.3491747210741043
1744402377536012000,6.497011962890625,0.026592238849401473,-0.7941147804543376,-0.8283706127341837
1744402377545986000,6.506986083984375,-1.6951631644517182,-1.273796824006736,-0.5321878913372755
1744402377555959000,6.516958984375,-1.7066975349009037,-1.510788886092603,-0.46113523705787957
1744402377565933000,6.52693310546875,-0.7312766314864159,-1.6369646579831838,-1.0122595917943864
1744402377575907000,6.536906982421875,-0.011398176848888397,-1.6067577357679605,-1.0627591412581503
1744402377585881000,6.546881103515625,-0.6134188983470201,-1.7056792977690696,-0.9775148069538175
1744402377595853800,6.556853759765625,-1.7795032433927058,-1.5985960566222668,-0.6880049143843352
1744402377605827800,6.566827880859375,-2.414888474354148,-1.1951789221048355,-0.656260991860181
1744402377615801900,6.5768017578125,-2.6901100215911864,-0.8929907497480511,-0.5052893630176782
1744402377625774800,6.58677490234375,-3.291694105237722,-0.8400131927981972,-0.16839863752685486
1744402377635748900,6.596748779296875,-5.047362884056568,-0.8044307150244713,0.15502784543074666
1744402377645723000,6.606722900390625,-5.991857318809628,-0.6114075585246086,0.2286659861586988
1744402377655697000,6.61669677734375,-5.7764504810661075,-0.6192497964575886,0.35169531324971465
1744402377665670000,6.626669921875,-4.844104164746404,-0.9805825239613651,0.28161906625442207
1744402377675644000,6.636643798828125,-3.6963346440702676,-1.4673366978570819,0.024122506001312286
1744402377685618000,6.646617919921875,-2.82430923320055,-1.8020403616324066,0.23457186746792866
1744402377695592000,6.656592041015625,-2.446175008499622,-1.470148540407419,0.5572236579922959
1744402377705565000,6.66656494140625,-2.5440835940659046,-1.4520873985379934,0.26658361061541364
1744402377715539000,6.6765390625,-2.095263721767068,-1.260962476874888,0.07085241899956017
1744402377725513000,6.686512939453125,-1.6326193222552536,-0.7897171300172805,0.7412338888119906
1744402377735485700,6.696485595703125,-0.9439455686986445,-0.38249563478082416,1.4575656838186084
1744402377745459700,6.706459716796875,-0.22933716341853141,0.42534751903563733,1.4622048879265785
1744402377755433700,6.716433837890625,-0.15179039787948131,0.7873138682678341,2.3054456644691523
1744402377765407700,6.72640771484375,-0.38440614457726474,0.9841633050575852,3.2913167963579295
1744402377775380700,6.736380615234375,-0.2421253333210945,1.293472999857366,3.064176558461785
1744402377785354800,6.746354736328125,0.36089784321784973,1.7512708361208438,2.732045667783916
1744402377795328800,6.756328857421875,1.1764876656383276,2.1249974735125896,2.2751678689748047
1744402377805302800,6.766302734375,2.079755771511793,2.2405463451877234,2.137528892175108
1744402377815276000,6.776276123046875,2.5295997261613605,2.508636725370586,1.564253057515621
1744402377825249800,6.786249755859375,2.8737551088929174,2.7141186736881733,0.8649418823495507
1744402377835223800,6.796223876953125,2.774701444944739,2.508475981850922,0.6092121308395638
1744402377845197000,6.806197021484375,2.148485024344921,2.1047493429929016,0.46425939696040003
1744402377855171000,6.816171142578125,1.0836123980641363,1.577330565753579,0.2548153218124993
1744402377865145000,6.82614501953125,-0.14592998141348362,1.3649565198346971,-0.24381228176103903
1744402377875118800,6.836118896484375,-1.0155074146091938,1.4839894342333078,-1.0133426377907395
1744402377885091800,6.846091796875,-1.1741782196521757,1.5480083174183963,-1.728142473989725
1744402377895065900,6.85606591796875,-0.5244131656825542,1.25781570328176,-2.026336316013336
1744402377905040000,6.866039794921875,0.6960381448447704,0.5702417276605963,-1.7302298016577957
1744402377915014000,6.876013916015625,1.9152257190465927,-0.18396686660200356,-1.2795512958802282
1744402377924987000,6.88598681640625,2.893152467802167,-0.5628837661132217,-1.0286536041691898
1744402377934961000,6.8959609375,3.5497160958707332,-0.6085580143123864,-1.0283880851007998
1744402377944935000,6.905934814453125,3.7554818295657633,-0.5602770907461643,-0.9386600295111537
1744402377954908000,6.915907958984375,3.7312680102854965,-0.4995975811168551,-0.8227855791434645
1744402377964882000,6.9258818359375,3.596449205473065,-0.3265384774982929,-0.7608887296136468
1744402377974856000,6.93585595703125,3.3675954416573046,-0.14123451707363127,-0.7122421876054257
1744402377984830000,6.945829833984375,2.865322211590409,0.00022854805886745453,-0.6389773371692746
1744402377994803000,6.955802978515625,2.2803134151697155,0.0027288404420018194,-0.43601873331684615
1744402378004777000,6.96577685546875,1.9156804770767688,-0.14820669417381285,-0.20420732527188956
1744402378014751000,6.9757509765625,1.9120722234517336,-0.3143070646956563,0.04973411804921925
1744402378024725000,6.98572509765625,1.9135411269605158,-0.6646405515402555,0.4476796892877668
1744402378034698000,6.995697998046875,1.7956582593798636,-1.1189902931764721,0.699349826676026
1744402378044671700,7.005671630859375,1.4876637388318776,-1.2548127220734953,0.684984105258435
1744402378054645800,7.015645751953125,0.8275883032500744,-1.227391923445463,0.4301159024812281
1744402378064618800,7.02561865234375,-0.21316519629657268,-1.1686141557842493,0.22312519356850533
1744402378074592800,7.0355927734375,-1.174086449715495,-1.1758955449640751,0.1346048241350334
1744402378084566800,7.04556689453125,-1.8732447724074124,-0.9954381477877497,0.04119858235614374
1744402378094540800,7.055540771484375,-2.4870669908583163,-0.8514864807099103,0.05257301300326362
1744402378104513800,7.065513671875,-3.007677841648459,-0.8659943140119314,0.09022115460252389
1744402378114487800,7.07548779296875,-3.3197751213401556,-1.0161606178209186,0.08195046212440356
1744402378124461800,7.0854619140625,-3.472318967935443,-1.0859224285721778,0.06613862441857345
1744402378134434800,7.095434814453125,-3.3192291778951883,-1.1545368228539823,0.014735541110672056
1744402378144408800,7.105408935546875,-2.870546083718538,-1.3580743591055273,-0.2191618976944126
1744402378154382800,7.1153828125,-2.1846558234006164,-1.519826763550937,-0.39565760643184184
1744402378164356900,7.12535693359375,-1.5292162309259176,-1.435427647899091,-0.5014446702882647
1744402378174330000,7.135330078125,-1.1565630679845809,-1.1410875586941838,-0.5368187660083175
1744402378184303900,7.145303955078125,-1.368142456394434,-0.8475728143975139,-0.7567603976372629
1744402378194278000,7.15527783203125,-1.9435370367735623,-0.6600146453052759,-1.009912151885405
1744402378204252000,7.165251953125,-2.455855275514722,-0.2617567932471633,-0.9597744945365935
1744402378214225000,7.175224853515625,-2.609208684927225,0.26758126161694523,-0.8177154362723231
1744402378224199000,7.185198974609375,-2.6347809330791234,0.8576160695061087,-0.6186036805737763
1744402378234173000,7.1951728515625,-2.248223747947812,1.3690569408908486,-0.5742380307551473
1744402378244146000,7.20514599609375,-1.5685586457550524,1.7302713027119636,-0.7906281073823571
1744402378254120000,7.215119873046875,-0.651605128878355,1.8140449799418448,-0.6544456130012869
1744402378264094000,7.225093994140625,0.177792854142189,1.786547024424374,-0.5352862226787954
1744402378274068000,7.23506787109375,0.576818475702405,1.8240166311189532,-0.5142277256242931
1744402378284041000,7.245041015625,0.5212684379160404,1.8626742785543202,-0.39177952288948
1744402378294015000,7.255014892578125,0.19468729031980037,1.9868772890672086,-0.22545239440705625
1744402378303989000,7.264989013671875,-0.30498598638176916,2.0100708253890276,-0.00979121657628566
1744402378313963000,7.274962890625,-0.8435860828489065,1.9240619364529847,0.12046831749659032
1744402378323936000,7.28493603515625,-1.1434054802477358,1.727903404536843,0.27514497486948963
1744402378333910000,7.294909912109375,-1.0634399631291627,1.3721990383088587,0.4092670661220327
1744402378343884000,7.304884033203125,-0.5464174922198057,0.9713979315087199,0.329605317723006
1744402378353856800,7.314856689453125,0.23408581925034522,0.6982873850762844,0.14680263606216756
1744402378363830800,7.324830810546875,1.0406120452493428,0.5319260255306959,0.11501571464650333
1744402378373804800,7.3348046875,1.4175935927838086,0.38164544769227504,0.3622138942524791
1744402378383778800,7.34477880859375,1.5338058968037367,-0.11213526383936405,0.6962202964786439
1744402378393751800,7.354751708984375,1.844759267157316,-0.18797171832919118,0.7172792319245636
1744402378403725800,7.364725830078125,2.36357738931179,-0.004787818798422813,0.6350687123581766
1744402378413699800,7.374699951171875,2.881787024179101,-0.0319762699753046,0.7157301027864217
1744402378423673900,7.384673828125,3.1312597976535557,-0.13036357896924017,0.8291098137289286
1744402378433646800,7.394646728515625,3.267949657034874,-0.14407996963262557,0.7244972004793584
1744402378443620900,7.404620849609375,3.148329590398073,-0.020649404796957968,0.3894637202277779
1744402378453595000,7.414594970703125,3.3196219766050574,-0.23639409619271753,0.2740961234036833
1744402378463568400,7.424568359375,3.526823296061158,-0.27055706255733963,0.08566643217392265
1744402378473542400,7.43454248046875,3.4300177033007144,-0.24399755693376063,-0.317153357504867
1744402378483516400,7.444516357421875,2.965822567215562,-0.3815475402757525,-0.1907916711207479
1744402378493490400,7.454490478515625,2.327009115371108,-0.5396539894342423,-0.2547200630107894
1744402378503463400,7.46446337890625,1.689950982761383,-0.5975123041629791,-0.30115594323221595
1744402378513437400,7.4744375,0.8409522272139787,-0.6441323087796569,-0.23867391422558573
1744402378523411200,7.4844111328125,-0.0611029957383871,-0.5715653774797916,-0.45450336129534985
1744402378533384400,7.494384521484375,-1.0324264007061719,-0.473920411285758,-0.5410549057407305
1744402378543358200,7.504358154296875,-1.3329489779382944,-0.3584469429343939,-0.2945564719019457
1744402378553332200,7.514332275390625,-1.0155477466195821,-0.45718554958403107,-0.40366303556989874
1744402378563306200,7.52430615234375,-0.5664753608644009,-0.5877399749502539,-0.21205445857569574
1744402378573279500,7.534279541015625,-0.2353542317509651,-0.7986226132676005,0.09248380230488255
1744402378583253500,7.54425341796875,-0.3057031947404146,-1.0305112147346138,0.27109836635980755
1744402378593227300,7.554227294921875,-0.7796388035953045,-1.2584551702290772,0.3154008512817323
1744402378603201300,7.564201171875,-1.4986895752370357,-1.5523343639239668,0.27854550402797756
1744402378613174500,7.574174560546875,-2.1535218494683503,-1.849332566422224,0.22470732992710543
1744402378623148500,7.5841484375,-2.731778833541274,-2.132436975863576,0.26745818322654813
1744402378633122600,7.59412255859375,-2.8959558347851035,-2.0981454146832226,0.4100078380193561
1744402378643095600,7.604095458984375,-2.972041880121827,-1.8998171375125645,0.4549916197363287
1744402378653069600,7.614069580078125,-3.048601972711086,-1.7574644300639628,0.5390157645959407
1744402378663043600,7.624043701171875,-3.346148749002814,-1.5090280138999224,0.878541807026416
1744402378673017600,7.634017578125,-3.963726520594954,-1.0497627354323864,1.245130116970837
1744402378682990300,7.643990234375,-4.704819612696767,-0.3252387930765748,1.286497169495374
1744402378692964400,7.65396435546875,-5.513453624629974,0.622001725514233,1.1941187455274165
1744402378702938400,7.6639384765625,-5.890958903777599,1.3175114625707267,1.1869685815118252
1744402378712911400,7.673911376953125,-5.527997698289155,1.7438854020446537,1.466674872947484
1744402378722885400,7.683885498046875,-4.43733538171351,2.0603499370351432,1.9205092124074696
1744402378732859400,7.693859375,-2.9036598332911727,2.2654610062137244,2.1349799383446575
1744402378742833400,7.70383349609375,-1.1631313404589891,2.0958838994920255,2.144735462553054
1744402378752806400,7.713806396484375,0.5792109237968921,1.9798785162210464,2.257500110337138
1744402378762780400,7.723780517578125,1.7626345261782406,1.918382429511845,2.265924239811301
1744402378772754400,7.73375439453125,2.1921441333293914,1.723103310778737,2.387418722017854
1744402378782727400,7.7437275390625,2.1094553287267686,1.5230574160352348,2.438441199377179
1744402378792701400,7.753701416015625,1.687884113359451,1.4264271798416972,2.200755602069199
1744402378802675500,7.763675537109375,1.3144254792541266,1.4187506538644432,1.695031062504649
1744402378812649500,7.7736494140625,1.2407441569715738,1.4108330126076936,1.2571323971927166
1744402378822622200,7.783622314453125,1.57527714035511,1.3165572305858135,0.7783993249282241
1744402378832596200,7.79359619140625,2.387107317981124,1.2180229143366217,0.2319554378918372
1744402378842570200,7.8035703125,3.3564129533857106,1.05570498496294,-0.17390724488049744
1744402378852544300,7.813544189453125,4.075073848927021,0.8929799360930919,-0.38292975188177075
1744402378862517200,7.823517333984375,4.208169483208656,0.6292150178939103,-0.41768505811635404
1744402378872491300,7.8334912109375,3.949520885109901,0.34121319179981946,-0.3355509282544255
1744402378882465300,7.84346533203125,3.776353352680802,0.2738999432444572,-0.3098157080931589
1744402378892438500,7.8534384765625,3.227422416335344,0.36324586764872074,-0.13339973179474474
1744402378902412300,7.863412353515625,2.414725392746925,0.6624959407269955,0.047408086254447694
1744402378912386300,7.87338623046875,1.8602549424529073,0.5623617880657314,0.031234292501583695
1744402378922360300,7.8833603515625,1.8930916286498307,0.13040537228435278,0.46358642960228025
1744402378932333600,7.89333349609375,2.231865902864933,0.8777087172031403,-0.18866518048606812
1744402378942307600,7.9033076171875,3.024104075792432,0.5101747969716787,0.5858765922311693
1744402378952281600,7.913281494140625,3.638587388500571,-0.11098200215101242,1.1911532467853276
1744402378962254300,7.92325439453125,3.601449790239334,0.15602408992648123,1.0797237931277601
1744402378972228400,7.933228271484375,3.077882427731156,-0.46012189529687164,0.8427831689681857
1744402378982202400,7.943202392578125,2.79728503267467,0.31242431968897577,-0.8063748348295688
1744402378992176400,7.95317626953125,1.8905635714769362,1.957079239913821,-2.499457101354003
1744402379002149400,7.9631494140625,0.3930652518510818,0.9634411272853612,-1.7637240749806165
1744402379012123400,7.973123291015625,-1.235262510690093,-0.7476151873469352,-0.1780337502259761
1744402379022097400,7.983097412109375,-2.363766189882159,-1.1721055050313471,0.3125116326462477
1744402379032071400,7.993071533203125,-3.029540129366517,-1.518465119808912,0.41588319632615894
1744402379042044400,8.00304443359375,-3.650984513258934,-0.8162041549265384,-0.8232559731341897
1744402379052018400,8.013018310546874,-3.8241473695129153,-0.3880249195963144,-0.48113019653409717
1744402379061992400,8.022992431640626,-4.033814202299713,-0.9814473240971565,-0.3195226804520935
1744402379071965400,8.03296533203125,-4.419828951117396,-0.8756605525016784,-0.5370148731023073
1744402379081939500,8.042939453125,-4.604121104151011,-0.5344634350538253,-0.9054388740412891
1744402379091913500,8.05291357421875,-4.547366366750001,-0.4769055645763874,-1.4582367149479687
1744402379101887500,8.062887451171875,-4.120902703166008,-0.46316199364513155,-1.2073965986430644
1744402379111860200,8.072860107421874,-3.3668197811096903,-0.8144275006428361,-0.6760815446175634
1744402379121834200,8.082834228515624,-2.627286193409562,-1.2954615433260799,-0.2516680732953362
1744402379131808300,8.092808349609374,-2.0846277614623308,-1.751266744467616,0.14246689014649017
1744402379141781200,8.10278125,-1.640095357224345,-2.043472159731388,0.2443146600589156
1744402379151755300,8.11275537109375,-1.279828797647357,-1.8840186798781156,0.275168319212459
1744402379161729300,8.122729248046875,-1.4754408015966414,-1.3801868221923708,0.15061693365331738
1744402379171703300,8.132703369140625,-1.9097388120681047,-0.6885910437092184,-0.22052060056068
1744402379181676300,8.14267626953125,-2.3286919538915156,0.19421879602521658,-0.6797013425499201
1744402379191650300,8.152650390625,-2.3851503386944533,0.9577008300676941,-1.0336794695071876
1744402379201624300,8.162624267578124,-2.025199420937896,1.347388422179222,-1.2176985046878457
1744402379211598300,8.172598388671876,-1.2424749262869357,1.4039490983128546,-1.165699729642272
1744402379221571300,8.1825712890625,-0.3682791856408119,1.2765598589792846,-0.9259862797684967
1744402379231545300,8.19254541015625,0.3841442787706852,1.0267693978577852,-0.7144094486419111
1744402379241519400,8.202519287109375,0.7824117754399776,0.9049369158685207,-0.4876502824852243
1744402379251492600,8.21249267578125,1.0043564905196427,0.8826321450799703,-0.3826281751193106
1744402379261466600,8.222466552734375,1.129449435609579,0.9777934777647256,-0.30230973464353006
1744402379271440400,8.2324404296875,1.1063134746938943,1.2295561157420276,-0.32841362372040744
1744402379281414400,8.242414306640624,0.967758990484476,1.540856692098081,-0.589211874133721
1744402379291387400,8.252387451171876,0.933090412685275,1.7830702882245182,-0.8537958536308258
1744402379301361400,8.262361328125,1.030206971091032,1.8485384934350848,-0.9278826879743486
1744402379311335400,8.27233544921875,1.2601941228508948,1.7151456297725438,-0.7486963336471468
1744402379321308400,8.282308349609375,1.7112889543443917,1.3933616533249615,-0.49319253638014193
1744402379331282400,8.292282470703125,2.2805045538276434,0.9727215813279151,-0.07059992380952462
1744402379341256400,8.30225634765625,2.7484470597475767,0.4527113267794251,0.2979732032765634
1744402379351230500,8.31223046875,3.094320352312922,0.17627543531656265,0.500982459603995
1744402379361203500,8.322203369140626,3.454016418525576,-0.005677461114525795,0.7250909285888075
1744402379371177500,8.332177490234375,3.7495956941366195,-0.2369981995657086,0.6856514100607484
1744402379381151500,8.3421513671875,3.1976784354567527,-0.007327566409111023,0.36538960167914625
1744402379391124500,8.35212451171875,2.5763760903835293,0.19914836138188838,0.03515722896582447
1744402379401098500,8.362098388671875,1.9035317741215227,0.06861030262857676,-0.44348110508676614
1744402379411072500,8.372072509765625,1.504921747624874,-0.06487286966592073,-0.46320999750532205
1744402379421046500,8.382046630859374,1.6687012739837168,-0.5822615435391664,-0.26153407214088364
1744402379431019300,8.392019287109376,1.783790711453557,-1.7299655977636574,0.34618118947073817
1744402379440993300,8.4019931640625,3.257061767795682,-2.2674048337578774,1.1198291551534085
1744402379450967300,8.41196728515625,2.804668713185191,-2.3267861202701923,0.9055272829771042
1744402379460940500,8.4219404296875,1.9357447754621504,-2.222059086860716,0.9028852440357208
1744402379470914600,8.43191455078125,1.027556748843193,-1.892367406028509,0.6683196053791791
1744402379480888600,8.441888671875,0.029526538735628126,-1.453112065410614,0.26706008728705344
1744402379490862600,8.451862548828124,-0.5706704744666814,-0.9416428447142243,-0.3752960421329364
1744402379500835600,8.461835693359374,-1.1219406674146652,-0.5721139512732625,-0.962367725900188
1744402379510809600,8.4718095703125,-1.941290134629607,-0.41008711380064483,-1.1537084822710604
1744402379520783600,8.48178369140625,-2.429817163416743,-0.3839700912475586,-1.1425712213806807
1744402379530756400,8.49175634765625,-2.3568518804490566,-0.6549690523535013,-0.9460881336852908
1744402379540730400,8.50173046875,-1.8637749332726001,-0.8821692037433385,-0.6675025168426334
1744402379550704400,8.511704345703125,-1.3321294782489537,-1.1516294109746814,-0.6343235930792986
1744402379560678400,8.521678466796875,-1.1928753213375807,-1.2543629324793815,-0.6678228348381817
1744402379570651600,8.531651611328124,-1.461439164251089,-1.335970956107974,-0.8026722539845853
1744402379580625400,8.54162548828125,-2.0152496893316507,-1.3691975184053182,-0.7894374362930655
1744402379590599400,8.551599365234376,-2.5790865183860063,-1.3419433085158468,-0.6743544285640121
1744402379600572700,8.56157275390625,-3.035695729386806,-1.182747310554981,-0.3160373590869829
1744402379610546700,8.571546630859375,-3.3253210650295015,-0.9697165542930364,-0.025599245756678282
1744402379620520700,8.581520751953125,-3.7140333823680876,-0.887479877372086,0.0037824776807799934
1744402379630494700,8.59149462890625,-4.010153340727091,-0.5913152030885219,0.36746450825706123
1744402379640467700,8.6014677734375,-4.225836072802544,-0.22082886279225347,0.8949521860141306
1744402379650441700,8.611441650390624,-4.348763364291191,0.09799217219650745,1.2611585839688777
1744402379660415700,8.621415771484376,-4.511220117613673,0.5321975359484553,1.5057228348746894
1744402379670388500,8.631388427734375,-4.2935710539013145,0.9177376529917121,1.4804250197499988
1744402379680362500,8.641362548828125,-3.5316450171291827,1.2807584797129035,1.2459857108868657
1744402379690336500,8.65133642578125,-2.4911738416552542,1.6381889390811324,1.013359442795068
1744402379700310500,8.661310546875,-1.5908862128973007,1.6559569432228802,0.6977813352502882
1744402379710283500,8.671283447265624,-0.9009183278769254,1.483621769964695,0.5831153838895261
1744402379720257500,8.681257568359374,-0.5102653978645801,1.1866951713979244,0.8003243026189506
1744402379730231600,8.6912314453125,-0.3567226033598184,0.8420026130497456,1.060955160576105
1744402379740204500,8.70120458984375,-0.39807401992380614,0.646884822358191,1.2246313726909457
1744402379750178600,8.711178466796875,-0.5832885484993457,0.5980456803873181,1.324700497291982
1744402379760152600,8.721152587890625,-0.8136059551268815,0.6449404102921485,1.2827780028417706
1744402379770126600,8.731126708984375,-0.896239814671874,0.6949988649249076,1.1314074378095567
1744402379780099600,8.741099609375,-0.5615472568124532,0.7043947620406746,1.0326697810079901
1744402379790073600,8.751073486328124,-0.026319851648807523,0.6812652308657765,0.8473243925943971
1744402379800047600,8.761047607421874,0.6029694005250931,0.6429387150809168,0.48293081621527667
1744402379810020400,8.771020263671875,1.3854688542485236,0.7097907758653164,0.14709929918749257
1744402379819994400,8.780994384765625,1.93665955221951,0.8508207102775573,-0.19326860089460388
1744402379829968400,8.790968505859375,2.4967870053619143,0.9017115240812301,-0.5757064593398943
1744402379839942400,8.8009423828125,3.046538025918603,1.0191858108609915,-0.7102680379882454
1744402379849915400,8.810915283203125,3.6097774736016985,1.0992091956466437,-0.7171074555542319
1744402379859889400,8.820889404296874,4.084820166915655,1.111873739169538,-0.5179969419647008
1744402379869863400,8.830863525390624,4.455539146924019,1.070218955744803,-0.3807736332938075
1744402379879836700,8.840836669921876,4.541878290727734,1.0824702422916888,-0.33524741526320573
1744402379889810700,8.850810791015626,4.2983337382584805,1.222024551193416,-0.23410589392399414
1744402379899784400,8.860784423828125,3.913463483300805,1.1584177559405564,-0.27979981493800876
1744402379909758500,8.870758544921875,3.6207273221611973,0.5988754092097283,0.34923301478940993
1744402379919731700,8.880731689453125,3.2775936836928126,-0.523906385204196,1.2242811710137873
1744402379929705700,8.890705810546875,3.3938848981678484,-1.009110114787519,1.1006835059829057
1744402379939679700,8.9006796875,3.6865953403443097,-0.8531932846277952,0.9872177241921424
1744402379949652700,8.91065283203125,3.681538056954741,-0.49308542274385686,0.7446908243328333
1744402379959626800,8.920626708984376,2.8023651124179363,-0.252622469677031,0.5077658726664259
1744402379969600500,8.9306005859375,1.2987334046036003,0.1307160456687212,0.21670491473004222
1744402379979574500,8.940574462890625,-0.3828571615695953,0.20410481474548578,0.06079696199651807
1744402379989547500,8.950547607421875,-1.571295377242565,-0.021424773083627224,-0.19018619777457788
1744402379999521500,8.960521484375,-2.0287018761008975,-0.0689873192474246,-0.3345511766273528
1744402380009495600,8.97049560546875,-2.263531791716814,-0.10234656801372766,-0.4502187793113291
1744402380019468500,8.980468505859376,-2.248206796813011,-0.31988457256704567,-0.7981034116990864
1744402380029442600,8.990442626953126,-2.3364088118791577,-0.5678568783506751,-0.6625692982241511
1744402380039416600,9.00041650390625,-3.379485785937309,-1.5482897647082805,0.784544695815444
1744402380049389600,9.0103896484375,-3.647491410446167,-1.9837942283600567,0.6670142949342728
1744402380059363600,9.020363525390625,-3.680194241130352,-1.4707047129854558,0.4293146691009402
1744402380069337600,9.030337646484375,-3.087160543686151,-1.2164528885409236,-0.40902836199533193
1744402380079311600,9.0403115234375,-2.4453017327964304,-1.1620783242747188,-0.9353204367596656
1744402380089284600,9.05028466796875,-1.96920397747159,-0.9154597711876035,-0.6720300042044371
1744402380099258600,9.060258544921876,-1.8217390415757893,-0.6647229691267014,-0.5967237110685557
1744402380109232600,9.070232666015626,-1.5558043781220912,-0.5685527516603469,-0.6407679469130932
1744402380119205400,9.080205322265625,-1.1147948873132467,-1.1131038654863834,-0.1649931764649227
1744402380129179400,9.090179443359375,-1.9912299313187598,-1.2876423940077424,-0.5895765061950311
1744402380139153400,9.1001533203125,-2.000550717371702,-0.27820611600577827,-0.7421476426560432
1744402380149126700,9.110126708984374,-2.2971733645558357,0.882354789443314,-1.152161618155241
1744402380159100400,9.120100341796874,-1.8618395812958477,1.988456082691252,-1.2616852381914854
1744402380169074400,9.130074462890626,-0.816415751850605,2.286705746555328,-1.4372538404129445
1744402380179048400,9.14004833984375,0.4086982897907495,2.005938840150833,-1.3263096860542893
1744402380189021700,9.150021728515625,1.5094254887849092,1.6728417347893119,-1.0378482796244322
1744402380198995700,9.15999560546875,2.0626631824135777,1.4372098551407455,-0.8758450422231108
1744402380208969500,9.169969482421875,1.8079203595817088,1.3788687253311276,-0.8398146745514125
1744402380218942700,9.179942626953125,1.3022113098472357,1.2779744019523263,-0.927825624024868
1744402380228916700,9.189916748046874,0.902795227664709,1.126364621336758,-0.8555955965291708
1744402380238890800,9.199890869140624,0.8725947351902723,0.984227017943561,-0.6828946586985141
1744402380248863500,9.209863525390626,1.0621370638370513,0.9266828837305306,-0.563229072419554
1744402380258837500,9.21983740234375,1.265986734777689,1.0414479115515947,-0.459034830712527
1744402380268811500,9.2298115234375,1.3185954584151505,1.1580468768015504,-0.26058314635790886
1744402380278785500,9.23978564453125,1.1981015315532684,1.1464239512860774,-0.12806014259876683
1744402380288758500,9.249758544921875,0.9564344633936881,1.0499793007925151,-0.10478482801131904
1744402380298732500,9.259732666015625,1.0678694700092077,0.7865043054506182,-0.18589564270749687
1744402380308706600,9.26970654296875,1.3446639656513928,0.5703481106445193,-0.08637118290979415
1744402380318679600,9.279679443359376,1.5997382123947144,0.4411415927559137,-0.10882137178471311
1744402380328653600,9.289653564453126,1.8618471800804137,0.3505851235181093,-0.10405259561347774
1744402380338627600,9.299627685546875,2.1341589773505927,0.39333734679073096,0.035628673269320274
1744402380348600600,9.3096005859375,2.3611399330317973,0.5255994528576732,0.16075725592821835
1744402380358574600,9.31957470703125,2.4891794529676434,0.49278030231744047,0.2385018638606183
1744402380368548600,9.329548583984375,2.862425905627012,0.4984577634319663,0.18062256114277989
1744402380378521300,9.339521240234374,3.1369296599835157,0.5505863023370504,0.21227938990537076
1744402380388495400,9.349495361328126,3.0902433121323583,0.580690056438744,0.053625170671008526
1744402380398469400,9.359469482421876,2.685153860488534,0.34538258643895386,-0.38721382240913804
1744402380408443400,9.369443359375,2.3586738351792094,0.13459405614584682,-0.6364066829636693
1744402380418416400,9.37941650390625,2.6490724932819605,0.22349252904355524,0.10308291946426033
1744402380428390400,9.389390380859375,3.078516633981466,-0.2758765040144324,0.3980980218539014
1744402380438364400,9.399364501953125,2.85155672108829,-0.4878364161744714,0.8121540758181363
1744402380448337700,9.409337646484374,2.715581147456169,-0.32045769627988335,2.7193922301769256
1744402380458311700,9.419311767578124,2.6092969477325676,0.690361852774024,3.7981487126424907
1744402380468285400,9.429285400390626,2.8464754723012446,1.0446835324719548,3.5711198261663317
1744402380478258400,9.439258544921875,2.6798352958142755,0.833894417656958,-0.06801251026536338
1744402380488232400,9.449232421875,2.069962691771984,-1.4076377236977218,-1.1688994755316524
1744402380498206500,9.45920654296875,0.39709553028047084,-1.1953171615317464,-2.7315824341863393
1744402380508180500,9.469180419921875,0.20921850449740886,-0.16463088249117136,-1.1228411233857274
1744402380518153500,9.479153564453124,-0.06110182669460773,1.7660715148895978,0.44540816415920853
1744402380528127500,9.48912744140625,-0.9985942737311124,2.4052467857837674,-0.9236090292431414
1744402380538101500,9.4991015625,-1.0310247172147036,0.6986898283973336,-0.3328451764270663
1744402380548074500,9.509074462890625,-2.6430758832156656,-1.8614353844091296,-2.9229914334878324
1744402380558048500,9.519048583984375,-4.723624266409874,-5.06526328240633,-4.812147183993458
1744402380568022500,9.5290224609375,-5.0404018128722905,-5.21753941797614,-2.786301866367459
1744402380577995500,9.53899560546875,-3.5247704551845787,-3.332756767988205,-1.2888045696549117
1744402380587969500,9.548969482421874,-1.24332482111454,-1.7989160921320317,0.3361372037097812
1744402380597943600,9.558943603515624,-0.44443654264807697,-1.2072393622547388,1.1422399435997008
1744402380607917600,9.56891748046875,-0.6027905368268489,-1.3525252005457877,0.46609874121677125
1744402380617890300,9.578890380859375,-1.4303291557162998,-1.2775351337522267,-0.03987524306420236
1744402380627864300,9.5888642578125,-3.283369344484806,-0.5660854847639799,-0.6158826581120491
1744402380637838300,9.59883837890625,-5.168384634184837,0.002794306893646717,-0.40474041901044544
1744402380647811300,9.608811279296875,-5.823731872200965,0.42541839231476186,0.7245304451618343
1744402380657785300,9.618785400390625,-6.053257251667976,1.2513972145415841,2.03167212408334
1744402380667759400,9.62875927734375,-5.063594472411275,1.6429976545371114,1.81065036906749
1744402380677732400,9.638732421875,-3.206751384228468,1.4599671920023858,0.4504611366998404
1744402380687706400,9.648706298828126,-1.5141151079058646,1.7261130139887333,0.8695667656712234
1744402380697680400,9.658680419921875,-0.5634767635703086,1.9575382357276976,1.9155045359879732
1744402380707653600,9.668653564453125,-0.19179975218474865,1.6098589166536925,2.016390383799374
1744402380717627600,9.678627685546875,0.2282528753131628,1.517960385157168,2.6237977667719123
1744402380727601400,9.688601318359375,0.15037643942832946,2.420818741185963,3.45475583871603
1744402380737575400,9.698575439453125,0.16164894407093525,2.404155191154778,2.30737648640126
1744402380747548400,9.70854833984375,0.3318547040849924,1.6156871844157576,0.8493277683060616
1744402380757522400,9.7185224609375,0.38568741655945776,1.7047583835318683,0.8310814060628414
1744402380767496400,9.728496337890626,0.5959726735055446,1.1804428330048917,0.8797993328068405
1744402380777469400,9.738469482421875,0.3906909239351749,0.5946428862065076,1.229900399135053
1744402380787443500,9.748443359375,-0.09180793060362338,0.5556434395961463,0.7886123105805367
1744402380797417500,9.75841748046875,-0.3052273939222097,0.4610588838860392,0.032541612240485844
1744402380807390500,9.768390380859374,-0.3943272346109152,0.49618221971541643,-0.07814429304078221
1744402380817364500,9.778364501953124,-0.5673971518844366,0.24024171153157947,0.13889018243718892
1744402380827338500,9.78833837890625,-0.2650514508783817,0.05189911406338214,-0.10743185365507378
1744402380837311500,9.7983115234375,0.6472445955812931,0.08196955041736363,-0.3947968248840421
1744402380847285500,9.808285400390625,1.92011699821949,-0.33964696539640427,-0.8367049450330436
1744402380857259500,9.818259521484375,2.7831273279845714,-0.6525321805953979,-1.295483462896943
1744402380867233500,9.828233642578125,3.569579903247952,-0.39465719721764325,-1.4769345472857356
1744402380877206300,9.838206298828124,4.547564519670606,-0.7084086738571524,-1.1884935991220176
1744402380887180300,9.84818017578125,4.6329567380130285,-1.1399281595259905,-0.6882578662320971
1744402380897154300,9.858154296875,4.084949930775165,-0.9552093055129051,-0.09082559590223245
1744402380907127300,9.868127197265625,2.7701334063768384,-0.14859949288368224,0.08215629602796398
1744402380917101300,9.878101318359375,1.4417121349960564,0.3030637861475348,0.1036827211214695
1744402380927075300,9.888075439453125,0.6004699849247932,0.5784525066450238,0.021669276763452216
1744402380937048300,9.89804833984375,0.4784872808098793,0.2258510748684406,-0.13526626545214093
1744402380947022300,9.908022216796875,1.0475912366122007,-0.6210548000529408,0.15396483757542445
1744402380956996400,9.917996337890624,1.7050106047272682,-1.2155194070830941,0.347379240148887
1744402380966969600,9.927969482421876,1.672169826877117,-1.4281857139468193,0.06357201620042324
1744402380976943600,9.937943603515626,0.8361188157081604,-1.4821177951425313,-0.42262678883485494
1744402380986917400,9.94791748046875,-0.6394271998286247,-1.2373077527821064,-0.29820133121032266
1744402380996891400,9.957891357421875,-2.0405261694073675,-1.0986977389931678,-0.11386380466502159
1744402381006864600,9.96786474609375,-2.625655961859226,-1.3700591036707161,-0.2582293863059953
1744402381016838700,9.977838623046875,-2.651611656370759,-1.5451377304181455,-0.23615783975142984
1744402381026812400,9.9878125,-2.5234470487505196,-1.4234849889099597,0.0666451217691414
1744402381036785400,9.997785400390624,-2.6331208909124135,-1.1534975429341197,0.12632252341751007
1744402381046759400,10.007759521484376,-3.0203871010959147,-0.9346993091866374,-0.2094533544328995
1744402381056733400,10.0177333984375,-3.5197090801417827,-0.7228869888037442,-0.5324189601467922
1744402381066706400,10.02770654296875,-3.9590152741640803,-0.6080120708674192,-0.5921328761469572
1744402381076680400,10.037680419921875,-3.942464536857605,-0.8626602011531591,-0.6234916718110441
1744402381086654500,10.047654541015625,-3.4817601654976604,-1.1669111512586474,-0.41995216279812153
1744402381096627500,10.05762744140625,-2.6551427531063556,-1.233882454508543,-0.11675056648193857
1744402381106601500,10.0676015625,-1.8505641540437936,-1.2568670242547988,0.1211674878750462
1744402381116575500,10.077575439453126,-1.3183844460129737,-1.421906779807806,-0.07724186430834233
1744402381126549500,10.087549560546876,-1.1159084015130996,-1.231858839726448,-0.4820039836939424
1744402381136522500,10.0975224609375,-1.1353975303590298,-0.3948383990034461,-0.6078021909764036
1744402381146496500,10.10749658203125,-1.2091343822211027,0.6833022896513342,-0.48898189641516654
1744402381156470500,10.117470458984375,-1.205890285733342,1.3511267319247127,-0.5767081471957266
1744402381166443300,10.127443359375,-0.9055015640139579,1.6990841372877359,-0.633163024867326
1744402381176417300,10.137417236328124,-0.15066986941695212,1.9383686942249536,-0.7035829342011362
1744402381186391300,10.147391357421874,0.8009802823096513,1.8761244194969533,-0.8767872184440493
1744402381196364300,10.1573642578125,1.6124141540944574,1.748855299411714,-1.0083204257145524
1744402381206338300,10.16733837890625,2.188407284888625,1.6858379944846034,-1.1190780445251614
1744402381216312300,10.177312255859375,2.3357827889353033,1.6092910536378622,-1.1073507087871433
1744402381226285600,10.18728564453125,1.9267092360913753,1.5697896488547325,-0.9683376671552657
1744402381236259600,10.197259521484375,1.3548960213303565,1.573264923749864,-0.83694006896317
1744402381246233300,10.2072333984375,0.7718231614083051,1.79281163777709,-0.7622023694954813
1744402381256206600,10.21720654296875,0.3712386199682951,1.8636361093237994,-0.8005260357361287
1744402381266180600,10.2271806640625,0.33930560461282727,1.7260618683233857,-0.6034009968753904
1744402381276154600,10.237154541015625,0.7525280938297509,1.4230734854996203,-0.3714304527459666
1744402381286128600,10.247128662109375,1.5655150402754545,0.9953642057687043,-0.16246360318837685
1744402381296101400,10.257101318359375,2.405128712362051,0.6543304621890187,-0.10383388396203518
1744402381306075400,10.267075439453125,2.837048887786269,0.3116322925284505,0.008178771844389848
1744402381316049400,10.27704931640625,2.808932800370455,0.1947787679955363,-0.03770956206344999
1744402381326022400,10.2870224609375,2.408112696608901,0.33563159227520223,-0.25106961421184243
1744402381335996400,10.296996337890626,1.7108599152773618,0.686933924151957,-0.26243376092696563
1744402381345970400,10.306970458984376,1.19828507142663,0.8795511301994323,-0.2584891880196519
1744402381355943400,10.316943359375,1.0023439816534518,0.9215601338893175,-0.3139431267540902
1744402381365917400,10.32691748046875,1.1878005022913216,0.7401213244602084,-0.22192190045965834
1744402381375891500,10.336891357421875,1.6330565446287393,0.32083383611589666,0.006257526024803519
1744402381385865500,10.346865478515625,2.1002198828697205,-0.043645080459117885,0.13970533474497496
1744402381395838500,10.35683837890625,2.1903893986165524,-0.3913672157615423,0.09942607745714485
1744402381405812500,10.3668125,1.9166981296867132,-0.5343655276373028,-0.24087931531537324
1744402381415786500,10.376786376953126,1.6700971122562884,-0.501570927016437,-0.5320516977369785
1744402381425759200,10.38675927734375,1.4363257657825945,-0.31688451396822925,-0.5824905299894512
1744402381435733200,10.396733154296875,0.9437368943840265,-0.05556757344305515,-0.39713838304150845
1744402381445707300,10.406707275390625,0.37638533520698547,0.11762421664446591,-0.37191936877407133
1744402381455680300,10.41668017578125,-0.11374386807978153,0.05547083507031202,-0.4304596013523638
1744402381465654500,10.426654541015624,-0.3497825749635696,-0.07833353200256823,-0.434259139765799
1744402381475628500,10.436628662109374,-0.3675216452717781,-0.2631079155951738,-0.43771592915616925
1744402381485601500,10.4466015625,-0.22477847720086575,-0.45250236020386214,-0.3808585716309026
1744402381495575600,10.456575439453125,-0.08760814082622527,-0.6584171469807625,-0.48276718661878254
1744402381505549300,10.46654931640625,-0.181959326171875,-0.8745037836819887,-0.5356251357769594
1744402381515523300,10.4765234375,-0.5791629930019379,-1.013438791641593,-0.5445223626555875
1744402381525496600,10.48649658203125,-1.0993962426513433,-1.1128887614309788,-0.6068493837635964
1744402381535470600,10.496470703125,-1.6457032602339983,-1.232502398326993,-0.6841540111098439
1744402381545444600,10.506444580078124,-2.186913246938586,-1.394563722591102,-0.7074090683605522
1744402381555417600,10.51641748046875,-2.528994161483645,-1.709414392644167,-0.7586850820895285
1744402381565391600,10.5263916015625,-2.5695851150691507,-1.7532620099380611,-0.4281461367782205
1744402381575365600,10.53636572265625,-2.586229375877976,-1.3519658130973577,0.2158866571497172
1744402381585338600,10.546338623046875,-2.837445778149366,-1.0744663840562105,0.4984682117607444
1744402381595312600,10.556312744140625,-3.0215789412289857,-0.8286103397741913,0.6281882321294396
1744402381605286700,10.56628662109375,-2.9900299567550417,-0.3429936454758048,1.063321159055084
1744402381615259400,10.57625927734375,-2.629327928370237,0.16240765348374842,1.485801744352281
1744402381625233400,10.5862333984375,-2.027694744884968,0.5971510696351527,1.689342057082802
1744402381635207400,10.59620751953125,-1.2458633996814488,0.9720242467135191,1.8934981636241077
1744402381645181400,10.606181396484375,-0.5221171636998653,1.3007660794749856,2.127929143050313
1744402381655154400,10.616154541015625,0.014920505756139754,1.6839327453851698,2.030971282337606
1744402381665128400,10.62612841796875,0.13975100051760672,2.037785930788517,1.7337055149443446
1744402381675102500,10.6361025390625,0.08053893309235573,2.2382409908547998,1.6466487243905663
1744402381685075500,10.646075439453124,0.2571791100680828,2.2266554747402667,1.7937480418443679
1744402381695049500,10.656049560546874,0.7166086391866207,1.969621618361771,1.849082683314383
1744402381705023500,10.6660234375,1.2857143485546112,1.5798796657145022,1.7559110631421206
1744402381714996500,10.67599658203125,1.7934540273338555,1.171022385969758,1.6306313633084297
1744402381724970500,10.685970458984375,2.0808798071056605,0.8083341522037982,1.4776124465472995
1744402381734944500,10.695944580078125,2.1980729388564826,0.4159241493910551,1.2763275115281343
1744402381744918500,10.70591845703125,2.30220025280714,0.10162234539240599,1.0054707353718577
1744402381754891500,10.7158916015625,2.280294125947356,-0.06790156983733177,0.8124892991218715
1744402381764865300,10.725865234375,1.9445809928685425,-0.08705167598724364,0.44507191794216633
1744402381774839300,10.73583935546875,1.4771546197772025,-0.10083762475550175,-0.10144545445553958
1744402381784812500,10.7458125,0.9271329655855893,-0.06088643037825822,-0.2861079021062702
1744402381794786600,10.75578662109375,0.8633569512456655,-0.012024492053687571,-0.6573471065964549
1744402381804760600,10.765760498046875,0.831354377785325,-0.13374708392769097,-0.6827554694235325
1744402381814733600,10.775733642578125,1.2784621854692697,-0.20896336069256066,-0.6891174056708812
1744402381824707600,10.78570751953125,2.127899332433939,-0.2932566778823733,-0.6152805275004357
1744402381834681600,10.795681640625,2.6416402974545954,-0.23415362378954885,-0.6778064687140286
1744402381844654600,10.805654541015626,2.822561512750387,0.016782207974791526,-0.836363365053758
1744402381854628600,10.815628662109376,2.606516961625218,0.21021774466782808,-0.9939068465672433
1744402381864602600,10.8256025390625,2.040531430104375,0.44516251883506774,-1.1086381182491778
1744402381874576600,10.83557666015625,1.239950960767269,0.6674635000064969,-1.2034115475948899
1744402381884549600,10.845549560546875,0.5685603504449129,0.7299158645272255,-1.3035638934999703
1744402381894523600,10.855523681640625,0.31340017898380756,0.5926435290828347,-1.2631236004315316
1744402381904497700,10.86549755859375,0.482891068726778,0.31878450237065553,-1.1213816452924161
1744402381914470400,10.875470458984376,0.913595438620448,-0.03841740893870592,-0.9389652230028063
1744402381924444400,10.8854443359375,1.2179565711021423,-0.5107312618106603,-0.5775113533373922
1744402381934418400,10.89541845703125,1.2934522493302822,-0.9586156068250536,-0.24551840982548892
1744402381944391400,10.905391357421875,0.8715800051897764,-1.2578113193675875,0.13696977230124174
1744402381954365400,10.915365478515625,0.16622282785773276,-1.5138374600082636,0.0828881265670061
1744402381964339500,10.92533935546875,-0.7725631661206483,-1.6047370435953139,-0.006083776893094182
1744402381974312400,10.9353125,-1.6313661073237657,-1.7737988942712544,0.09883213015198707
1744402381984286500,10.945286376953124,-1.9052642970025537,-1.922194389015436,-0.05648052356950938
1744402381994260500,10.955260498046876,-1.9065876545608043,-2.0413257953524586,0.07866524817496538
1744402382004233500,10.9652333984375,-1.9373335059583185,-2.2863468501150606,0.4286146310728043
1744402382014207500,10.97520751953125,-2.0916998918056486,-2.426448856027424,0.6645047963313758
1744402382024181500,10.985181396484375,-2.6834558243989943,-2.287883265902102,0.9569658668566494
1744402382034155500,10.995155517578125,-2.8586972404927016,-2.239179733009636,1.1156977544371038
1744402382044128500,11.00512841796875,-2.9387884298175573,-2.5350126911208033,0.887464606737718
1744402382054102500,11.0151025390625,-2.9546143599808214,-2.303200662021339,0.5018933639038354
1744402382064076500,11.02507666015625,-2.738673269230127,-1.6223133245572448,0.2709104791048914
1744402382074049500,11.035049560546875,-2.552719320464134,-1.0449117882698773,0.1566529624145478
1744402382084023600,11.0450234375,-2.6685575304746627,-0.874844267682731,0.04456855197958648
1744402382093997600,11.05499755859375,-2.8049977990090844,-0.6294783450052142,0.14342647415995596
1744402382103970600,11.064970458984375,-2.766321739134192,-0.2712555662155151,0.10587225792184471
1744402382113944600,11.074944580078125,-2.7707226044416426,0.08387918343096971,-0.08461042031496763
1744402382123918600,11.084918701171874,-2.840737805432081,0.577519609709084,0.029707996249757705
1744402382133891600,11.0948916015625,-2.5416087283849715,1.1031085411727428,0.0547577914301306
1744402382143865600,11.104865478515626,-1.7217419592976568,1.475057647497952,-0.33159934108443556
1744402382153839600,11.114839599609375,-0.6808043353557586,1.5532839197337627,-0.650451721059531
1744402382163812400,11.124812255859375,0.40118659898638726,1.3992808142408728,-0.533033694511652
1744402382173786400,11.134786376953125,1.3603671462178228,1.138707677820325,-0.23872542521711437
1744402382183760400,11.144760498046875,2.23675718203783,1.006044005215168,-0.1832365430334583
1744402382193734400,11.154734375,2.831705773192644,0.9651438395500183,-0.29988500998094675
1744402382203707400,11.164707275390626,3.054983782702684,1.0171361848548055,-0.30883911814596504
1744402382213681400,11.174681396484376,2.8387252965658902,1.1667372559964657,-0.16393497264888138
1744402382223655400,11.184655517578125,2.2952415197104212,1.3502359205648302,0.0034208412941545245
1744402382233628400,11.19462841796875,1.468489082762599,1.6432999984845518,-0.05003843475803733
1744402382243602400,11.2046025390625,0.705223906341195,1.9021461649820208,-0.17139000136256216
1744402382253576400,11.214576416015625,0.2096124722510576,1.926134943334758,-0.22095066254101692
1744402382263549400,11.224549560546874,0.28074352552890774,1.7743530210226772,-0.08979063596446067
1744402382273523500,11.2345234375,0.7963397630274295,1.4053744549408553,0.15090364164020864
1744402382283497500,11.24449755859375,1.4378852701842784,0.8920563915073871,0.29073194517772644
1744402382293470700,11.254470703125,2.1604180387228724,0.4716755549684167,0.41328477733079344
1744402382303444700,11.26444482421875,2.7864889133721586,0.17995324704647064,0.388711002164334
1744402382313418800,11.274418701171875,3.4643303072690963,-0.039517186874151226,0.37220041420515626
1744402382323391500,11.2843916015625,4.068003472149372,-0.19846213268339633,0.5100879589384422
1744402382333365500,11.294365478515624,4.362047208756208,-0.30668986769020556,0.5260599830415099
1744402382343339500,11.304339599609374,4.116729801395535,-0.342437472897768,0.3484260823206976
1744402382353312500,11.3143125,3.367411901783943,-0.27852117330431936,0.024699995362013578
1744402382363286500,11.32428662109375,2.6178578553289173,-0.13701076189875602,-0.352586124609597
1744402382373260500,11.334260498046875,2.0234762504070996,-0.14866320576965808,-0.6517572507001459
1744402382383234600,11.344234619140625,1.6877654554158448,-0.38939299307912584,-0.9795204476878047
1744402382393207600,11.35420751953125,1.6032015045911072,-0.8931661063149571,-1.213285364420712
1744402382403181600,11.364181640625,1.6135884585708378,-1.2908663244903087,-1.1406119040064513
1744402382413155600,11.374155517578124,1.626414037874341,-1.8029799805700777,-1.0323628339506685
1744402382423128600,11.384128662109376,1.2390285852253435,-2.0048060367286205,-0.7244526306852698
1744402382433102600,11.3941025390625,0.2711392463594675,-1.8803946441620587,-0.3951146221289411
1744402382443076600,11.40407666015625,-0.8930997630804777,-1.6061495407417417,-0.22046762826442717
1744402382453049300,11.41404931640625,-1.8453660008788109,-1.3299454122081398,-0.20593067846577615
1744402382463023000,11.424023193359375,-2.35844879425168,-1.081509580565989,-0.1921769149340689
1744402382472997000,11.4339970703125,-2.505476507773995,-0.925764599841833,-0.12499653551075607
1744402382482970000,11.44397021484375,-2.3243764287799595,-1.0181970920845866,-0.0836346706179902
1744402382492944100,11.453944091796876,-2.070980928903818,-1.1729846259534358,-0.05694083455763757
1744402382502918100,11.463918212890626,-1.8252882584899663,-1.3694623068213463,-0.060464113312959665
1744402382512891100,11.47389111328125,-1.6634592816770075,-1.6990692319795488,-0.10383194773327559
1744402382522865200,11.483865234375,-1.6863994277596472,-2.019635357069969,-0.09467438941802829
1744402382532839200,11.493839111328125,-2.0575147136092187,-2.4951035823196173,-0.1727235880538821
1744402382542812200,11.503812255859375,-2.570515673917532,-2.738307650788128,-0.003809329155087471
1744402382552786200,11.5137861328125,-3.1994460296511646,-2.511107499398291,0.6996246980946511
1744402382562760200,11.52376025390625,-4.143530130037665,-1.8872531317546963,1.5981953668668865
1744402382572733200,11.533733154296876,-5.212632356712222,-1.234320845925808,2.0741396851956844
1744402382582707200,11.543707275390625,-5.870276181232929,-0.6055509414508938,2.361085426365584
1744402382592681200,11.55368115234375,-5.7584887079179286,0.03513122687488794,2.493713881526887
1744402382602655200,11.5636552734375,-4.833641807442903,0.4940548522979021,2.3412387162536383
1744402382612628200,11.573628173828125,-3.501022499850392,0.9278995660439133,2.1912943846322595
1744402382622602200,11.583602294921874,-2.148297977340221,1.383291802470386,2.0232569085679946
1744402382632576300,11.593576171875,-0.8335726383566856,1.6700480124175547,1.6813579264611005
1744402382642549000,11.603549072265626,0.350458866789937,1.732793806926906,1.4553765032112598
1744402382652523000,11.61352294921875,1.3283406073600053,1.6828198157072067,1.3040274193584918
1744402382662497000,11.6234970703125,1.9343980370283125,1.6641063474088906,1.2942454455345869
1744402382672470000,11.633469970703125,2.040908446723223,1.6466785350069402,1.3681079696029423
1744402382682444000,11.643444091796875,1.8272674496084451,1.5893907136425376,1.3008406060159206
1744402382692418000,11.65341796875,1.5914391706049442,1.56055274169296,1.2095037269901483
1744402382702391000,11.66339111328125,1.3988754483103751,1.5169126296699047,1.2014783145099877
1744402382712365000,11.673364990234376,1.1855448323190212,1.350635441276431,1.207152853015065
1744402382722339000,11.683339111328126,1.0452011266052723,1.1191802627906202,0.9648296590343117
1744402382732312300,11.693312255859375,0.9595914661198854,0.861623259320855,0.4848881608281284
1744402382742286000,11.7032861328125,1.058338840597868,0.6138415076732635,-0.1293187460914254
1744402382752260000,11.713260009765625,1.3557634518146513,0.38622225408852096,-0.5918162844784558
1744402382762233300,11.7232333984375,1.7628350171864031,0.09683657242059707,-0.8470701986376196
1744402382772207400,11.733207275390624,2.2049276270568368,-0.039570086105167865,-1.0186410364598035
1744402382782181000,11.74318115234375,2.51542682390213,-0.07665770774483681,-1.2046593556988983
1744402382792154000,11.753154052734375,2.6935879268348217,-0.05174070863127708,-1.3076402030281722
1744402382802128100,11.763128173828125,2.814726581341028,0.009269640387594699,-1.340250825384259
1744402382812102100,11.77310205078125,2.979677489566803,0.13401888660639524,-1.301062578203529
1744402382822075100,11.7830751953125,3.1203894440710545,0.2675964591860771,-1.2649528616853059
1744402382832049200,11.793049072265624,3.3159313053935766,0.29875410625487564,-1.2017519438195974
1744402382842023200,11.803023193359374,3.4863135910183187,0.2751002589449286,-0.9560900338701903
1744402382851996200,11.81299609375,3.5173458581417796,0.2281631512030959,-0.7530603740755468
1744402382861970200,11.82297021484375,3.116631552842259,0.12297113063037395,-0.6247928175374865
1744402382871944200,11.832944091796875,2.370651857742667,-0.09657382983118296,-0.4584264164905995
1744402382881917200,11.842917236328125,1.4933406154245137,-0.33450697215944525,-0.3204667563691735
1744402382891891200,11.85289111328125,0.41981823422014714,-0.5728983796492219,-0.19165329291876404
1744402382901865200,11.862865234375,-0.7078659452825784,-0.8671934606686234,-0.0380041154300794
1744402382911838000,11.872837890625,-1.5521236437827348,-1.0763824468106031,-0.01666333083547652
1744402382921812000,11.88281201171875,-1.811549071472883,-1.2074006902962922,-0.00012793722860515117
1744402382931786000,11.892785888671876,-1.5067910486280918,-1.391329855236411,0.025589345417171717
1744402382941760000,11.902760009765625,-1.1736240929007529,-1.5660601069375872,0.24134864986017346
1744402382951733000,11.91273291015625,-1.0960913558870553,-1.7790642674535513,0.6477081214398145
1744402382961707000,11.92270703125,-1.307598848104477,-1.991977534815669,1.0480639686904847
1744402382971681000,11.932680908203125,-1.6626777759104967,-2.036064806084335,1.174717221899703
1744402382981654300,11.942654296875,-2.13298818000555,-1.923238929632306,1.1532185067970304
1744402382991628300,11.952628173828124,-2.708793094751239,-1.744071572266519,1.1423556789338587
1744402383001602000,11.96260205078125,-3.239330296272039,-1.8116867263779044,0.7824400516863912
1744402383011575300,11.9725751953125,-3.6241415145188567,-2.106378697760403,0.2816052569247782
1744402383021549300,11.98254931640625,-3.678828213474154,-2.1541016951829195,0.4311442956808954
1744402383031523300,11.9925234375,-3.5500457662165164,-2.005952284154296,0.7172538782875985
1744402383041496000,12.00249609375,-3.5035932271212338,-1.747501254454255,0.3963106635130942
1744402383051470000,12.012469970703124,-3.486188503333926,-1.3819231444656848,-0.1515053703930229
1744402383061444000,12.022444091796874,-3.081221216765046,-0.6859121798887848,-0.4149002131707966
1744402383071417000,12.0324169921875,-2.5973440596103665,0.33874504812061784,-0.574884292769432
1744402383081391000,12.04239111328125,-2.3673276817560196,1.457653215971589,-0.7966548203259706
1744402383091365000,12.052365234375,-2.0498773505985737,2.19729377117753,-1.3298302613958715
1744402383101338000,12.062338134765625,-1.4405834232270718,2.5141914368882774,-1.690815344505757
1744402383111312100,12.07231201171875,-0.5686164645463228,2.56607067720741,-1.7517866766884922
1744402383121286100,12.0822861328125,0.42813714975416656,2.221156877323985,-1.702000901517272
1744402383131259100,12.092259033203124,1.3410901988178492,1.9537848745435475,-1.6031616109721363
1744402383141233200,12.102233154296876,1.9721914688497781,1.7848676930353045,-1.5401073350355028
1744402383151207200,12.112207275390626,2.229983742380142,1.7561022018000483,-1.4220195925325154
1744402383161180200,12.12218017578125,1.998756819692254,1.8437144342795013,-1.3042505605898798
1744402383171154000,12.13215380859375,1.663354067736864,2.0085715267419815,-1.14694125315845
1744402383181128000,12.1421279296875,1.2386673506975174,2.168301193188131,-0.9661802699256687
1744402383191101200,12.15210107421875,0.7916706021726131,2.222924471518397,-0.8803049442414194
1744402383201075200,12.1620751953125,0.5463017568856477,2.12182702678293,-0.7453737650956959
1744402383211049000,12.172049072265626,0.5709510449737311,1.770571164396405,-0.6206647778220474
1744402383221022200,12.182022216796875,0.9089391372472048,1.2426420995473861,-0.45311194346956907
1744402383230996200,12.191996337890625,1.5564543664634227,0.6947343687698244,-0.38717531702965496
1744402383240970200,12.20197021484375,2.292290268689394,0.24461481204926966,-0.3920538097862154
1744402383250943200,12.211943115234375,3.1160236500769853,-0.10713467907309532,-0.3081632281783968
1744402383260917200,12.221917236328125,3.723924077263474,-0.3047054158747196,-0.008856164215877652
1744402383273384200,12.23438427734375,4.005803328824043,-0.3366033599168062,0.2847169592045247
1744402383283358200,12.244358154296876,3.871586581557989,-0.21308540905863046,0.3508160096645355
1744402383293331200,12.254331298828125,3.5163790589362383,-0.010726853458583355,0.2257740641094744
1744402383303305200,12.26430517578125,3.2128596379756926,0.11501841806024313,0.017051307239755988
1744402383313279200,12.274279296875,2.865100677794218,0.022900983116030692,-0.25309534788578747
1744402383323252200,12.284252197265625,2.7754490484416485,-0.2669064310953021,-0.2238129201043397
1744402383333226200,12.294226318359375,2.51839210344851,-0.6850733909770846,-0.2782298622075468
1744402383343200300,12.3042001953125,2.161297744166851,-0.9529100886598229,-0.1684258908599615
1744402383353173200,12.31417333984375,1.9073942947685718,-0.9334560311272739,0.17134258202426134
1744402383363147300,12.324147216796876,1.0792542028546332,-0.7707289364308119,0.25358941501304505
1744402383373121000,12.33412109375,-0.16258534813821315,-0.49744654056280846,0.2784159593641758
1744402383383095000,12.344094970703125,-1.4065981515169144,-0.17046908712536096,-0.014721841378882527
1744402383393068000,12.354068115234375,-2.4569927551120516,0.08645400235503911,-0.2711317206401378
1744402383403042000,12.3640419921875,-2.923027381584048,0.11194207935482263,-0.5021417126417159
1744402383413015000,12.37401513671875,-2.7762171102046964,-0.18263327991068362,-0.4344063662167638
1744402383422989000,12.383989013671876,-2.2512217607200142,-0.655583092598617,-0.2542370652668178
1744402383432963000,12.393963134765626,-1.6749866378635168,-0.9619690089061855,-0.31691081745326516
1744402383442937000,12.40393701171875,-1.3591998560041187,-1.1622887521550058,-0.45183732042387126
1744402383452910000,12.41391015625,-1.5254998407512903,-1.337886142079532,-0.720658060707897
1744402383462884600,12.423884521484375,-2.1138883427381514,-1.5211001444876193,-0.9509612926796078
1744402383472858600,12.433858642578125,-2.826372010949254,-1.7516177498623728,-1.014357952313125
1744402383482831600,12.44383154296875,-3.5173125403940677,-1.912735071274638,-0.8357333965871483
1744402383492805600,12.4538056640625,-3.7999721286773678,-1.9866911188453436,-0.232670691755414
1744402383502779600,12.463779541015626,-3.7191456108152865,-1.6189888563096522,0.5209982792051508
1744402383512753000,12.4737529296875,-3.66535206130743,-1.1324991785690188,1.2322389250852166
1744402383522726700,12.4837265625,-3.566510578805208,-0.8370189794182777,1.7631418911784886
1744402383532700700,12.49370068359375,-3.350358475652337,-0.5326105006635189,2.156077671431005
1744402383542674000,12.503673828125,-2.8238585668236014,0.03517477375566959,2.440607291369885
1744402383552648000,12.51364794921875,-2.09164143961668,0.6961763842716813,2.5246663614124056
1744402383562622000,12.5236220703125,-1.3475836524903773,1.2368652697116136,2.4006194182440637
1744402383572595000,12.533594970703126,-0.6057943948179483,1.574488328064978,2.1800994752705094
1744402383582569000,12.54356884765625,0.005981412497162819,1.7372928719118237,2.011161689365655
1744402383592542700,12.553542724609375,0.2971428716659546,1.8616314915031194,1.85215156936571
1744402383602515700,12.563515625,0.491363713517785,1.9097312132835387,1.5622385028228163
1744402383612489700,12.57348974609375,0.8231523666292428,1.8962825336456297,1.3090575224801897
1744402383622463700,12.583463623046875,1.1205039126098155,1.8810829186871647,1.1058547711409628
1744402383632436700,12.593436767578124,1.2541069118916988,1.8760607066109776,0.8750289765998721
1744402383642410800,12.60341064453125,1.3419915315717459,1.8517565786987542,0.5968279020953923
1744402383652383700,12.6133837890625,1.3082558507084845,1.8246765563324092,0.27647341046165674
1744402383662357800,12.623357666015625,1.1156634868413209,1.7798241459101438,-0.028176147039979695
1744402383672331800,12.633331787109375,0.8250029629319906,1.670198526804149,-0.23400983140468595
1744402383682305800,12.643305908203125,0.6557131487190723,1.4199740581795572,-0.47119474918153137
1744402383692278800,12.65327880859375,0.70366674002707,1.0734688974514603,-0.776204810558632
