time,seconds_elapsed,z,y,x
1746483200364889600,0.0148896484375,0.48720396348983047,0.10736790330708026,0.10916121646463871
1746483200374868700,0.02486865234375,0.45127544875741005,0.08692425021529197,0.18071137193739414
1746483200384846600,0.0348466796875,0.43309477216154335,0.07793897972702979,0.19269757780730723
1746483200394825700,0.04482568359375,0.42313831855356693,0.05850128880739212,0.16815058104991912
1746483200404803800,0.054803955078125,0.44843701046109197,0.011167875224351882,0.1905295861184597
1746483200414781700,0.06478173828125,0.47973406600058077,-0.03101999216377735,0.1857669017612934
1746483200424760800,0.0747607421875,0.5052455238759518,-0.08500526485145092,0.14367138883173464
1746483200434738700,0.08473876953125,0.5715472573012114,-0.11993570845723152,0.15783610778450965
1746483200444717600,0.094717529296875,0.6585603548437357,-0.15422083989679813,0.161681092774868
1746483200454695700,0.10469580078125,0.7245353405326604,-0.1878635817795992,0.15106033003926275
1746483200464673800,0.114673828125,0.7582967403590679,-0.1810083090573549,0.10650397995412349
1746483200474652700,0.124652587890625,0.7552078344330191,-0.18252338979542254,0.07617489266395569
1746483200484630800,0.134630859375,0.7680103251218795,-0.25262743811309335,0.10102350271642208
1746483200494609700,0.144609619140625,0.7826859162062406,-0.2799830625504255,0.14343991816341875
1746483200504587800,0.154587890625,0.8441606678664684,-0.21093115363419054,0.1394990715831518
1746483200514565600,0.164565673828125,0.8899082735627889,-0.031924247527122494,0.12477554970383643
1746483200524544800,0.174544677734375,0.9325275181055068,0.13970365424454212,0.1697632769435644
1746483200534523000,0.18452294921875,0.9405515423461794,0.2155290028184652,0.27319617888927455
1746483200544501800,0.194501708984375,0.9018801586464047,0.2622153506696224,0.42107904793620105
1746483200554479600,0.204479736328125,0.8138263198792934,0.28310148683190345,0.5289899720788002
1746483200564458500,0.21445849609375,0.7080503619387746,0.2820312272518873,0.5968418575555086
1746483200574436600,0.2244365234375,0.5588505650743841,0.2819412108808756,0.5716664997667074
1746483200584414700,0.234414794921875,0.4047916377410292,0.34304128400981426,0.5598533123761416
1746483200594393900,0.244393798828125,0.22927988027334212,0.37191257370710373,0.5468196432799101
1746483200604371700,0.254371826171875,0.09434154073446989,0.36172727977931496,0.5564619163721799
1746483200614350800,0.264350830078125,-0.022916180685162543,0.34892800396084783,0.5818424413442611
1746483200624328700,0.27432861328125,-0.15571955402195453,0.3399970940083265,0.5677063639640808
1746483200634306600,0.284306640625,-0.2633561912678182,0.38408348849415774,0.5725134719848632
1746483200644285700,0.29428564453125,-0.3365285411149263,0.41129882767796516,0.5484668259650468
1746483200654263800,0.304263916015625,-0.3936252238214016,0.40600539744496345,0.5185147552937269
1746483200664242700,0.31424267578125,-0.4381861039511859,0.37686581220030785,0.5148316828668117
1746483200674220800,0.324220703125,-0.4943316234126687,0.3220335672944784,0.5327876107960939
1746483200684198700,0.33419873046875,-0.5857756891399621,0.2458592591524124,0.5208247858017683
1746483200694177500,0.344177490234375,-0.7425519126079976,0.1327893448114395,0.4414098883032799
1746483200704155600,0.35415576171875,-1.0089771360576152,0.04017594304382801,0.27244857539236544
1746483200714134800,0.364134765625,-1.4694780937999485,-0.047047582378983495,-0.01788870791196823
1746483200724112600,0.374112548828125,-2.0163561892688273,-0.22020400889217853,-0.2766477806478739
1746483200734091800,0.384091796875,-2.5638316661089657,-0.456674677452445,-0.3951321212530136
1746483200744070000,0.39406982421875,-3.0404730267912146,-0.6746341222882271,-0.4207867869913578
1746483200754047700,0.4040478515625,-3.293068900722265,-0.8580243580460548,-0.35676994963288305
1746483200764026600,0.414026611328125,-3.3410172313332556,-1.085912491700053,-0.2073474499285221
1746483200774004700,0.424004638671875,-3.177455147117376,-1.356142806521058,-0.018766075268387795
1746483200783983600,0.433983642578125,-2.9156115523695942,-1.6724860532194374,0.20987375353574753
1746483200793961700,0.443961669921875,-2.678585588014126,-1.9840835666954517,0.45309214279055593
1746483200803939800,0.45393994140625,-2.493478026944399,-2.2789713529109954,0.7164648468017578
1746483200813918500,0.46391845703125,-2.36178758328557,-2.5865818425774574,0.9525146596014499
1746483200823896600,0.473896484375,-2.2951251998543736,-2.8730308862715956,1.1783265715032816
1746483200833875700,0.483875732421875,-2.2890531864643098,-3.1829619278401133,1.3587217170983552
1746483200843853800,0.493853759765625,-2.2977146318256856,-3.4626217497855425,1.5143319655269383
1746483200853831700,0.503831787109375,-2.3364169951856133,-3.6306419824540614,1.637167487078905
1746483200863810800,0.513810791015625,-2.3692227017223835,-3.7899189366966484,1.757079814660549
1746483200873788700,0.52378857421875,-2.404733575564623,-3.9184120456188913,1.8066484399497509
1746483200883767600,0.533767578125,-2.4008769001364705,-3.932918709877133,1.8141309046596288
1746483200893745700,0.54374560546875,-2.3565923527300354,-3.797333012345433,1.7493582804977892
1746483200903724500,0.553724609375,-2.3095348334789274,-3.5330753421932455,1.587200217860937
1746483200913702700,0.56370263671875,-2.331931228073686,-3.2021213863402602,1.3377508252620696
1746483200923680800,0.5736806640625,-2.3929858546257017,-2.7808669818371534,1.0314426503658294
1746483200933660000,0.583659912109375,-2.5191467212080956,-2.343088728034496,0.6628530836015939
1746483200943637500,0.593637451171875,-2.655242121827602,-2.0517957514405247,0.34978491305112835
1746483200953616600,0.60361669921875,-2.8219769908607004,-1.8638252021551132,0.04192892419099808
1746483200963594800,0.6135947265625,-2.916298950111866,-1.5519699145257473,-0.3669271865099668
1746483200973572600,0.623572509765625,-3.0637691467046735,-1.0442290667027234,-0.8125544002473354
1746483200983551700,0.6335517578125,-3.223691997635364,-0.6066098028540611,-1.1726648924797773
1746483200993529900,0.64352978515625,-3.403538861697912,-0.26270985618829723,-1.4391069209337233
1746483201003508700,0.6535087890625,-3.6151392928957935,-0.003975333371758461,-1.5824246740221977
1746483201013486600,0.663486572265625,-3.9048271723806858,0.12619710693955422,-1.6098627160459755
1746483201023464700,0.673464599609375,-4.22366048232913,0.1444715992987156,-1.4827210217326878
1746483201033443600,0.683443603515625,-4.616737424618005,0.13750176028609276,-1.2479215012550353
1746483201043421700,0.693421630859375,-4.936826287585497,0.16921733349859713,-0.8215449314326048
1746483201053400800,0.70340087890625,-4.9421571272194385,0.3052069356560707,-0.2899275334596634
1746483201063379200,0.713379150390625,-4.485934285187721,0.7486895385801792,0.19329028300344944
1746483201073358300,0.7233583984375,-3.5548458599746224,1.5539204640716313,0.516171991559863
1746483201083336400,0.73333642578125,-2.442139469373226,2.63398481426537,0.6632435442239045
1746483201093314000,0.74331396484375,-1.3342051154792307,3.540643147099018,0.8612924199312925
1746483201103293200,0.753293212890625,-0.36811489845719186,3.9203047274976965,1.2305313905149697
1746483201113271300,0.763271240234375,0.5374930120080709,3.928124461337924,1.548544031730294
1746483201123250200,0.773250244140625,1.3811241030424832,3.9685838974982497,1.6763503274321556
1746483201133228300,0.783228271484375,2.1718628311924637,4.0886148830235,1.7537708362430333
1746483201143206400,0.793206298828125,2.9172563969671725,4.252507806628942,1.8663199415802953
1746483201153185300,0.803185302734375,3.6134739900320767,4.520134076431393,1.9114841944307088
1746483201163163100,0.8131630859375,4.272179306304454,4.7840141454428435,1.8968746543198822
1746483201173142300,0.823142333984375,4.72746369844228,4.892620066112279,1.893411946645379
1746483201183120100,0.8331201171875,4.919049807876348,4.974039289170503,1.97002464620471
1746483201193098200,0.84309814453125,5.002983059582114,5.4556122610360385,1.7932430149316787
1746483201203077400,0.853077392578125,5.173941099268197,6.164411687776446,1.1462170305371284
1746483201213055200,0.86305517578125,5.341792989632487,6.588235065984725,0.7438380068957805
1746483201223034000,0.8730341796875,5.4208273633807895,6.424388904130458,0.6715881787210702
1746483201233012200,0.88301220703125,5.337867925143241,5.9805614332914345,0.6779086139142513
1746483201242991000,0.8929912109375,5.102623583507538,5.701822233322263,0.6755477300018071
1746483201252969200,0.90296923828125,4.722429795928299,5.598365365979075,0.606117635422945
1746483201262947300,0.912947265625,4.294103261081874,5.550736184319853,0.5851742161154747
1746483201272926200,0.92292626953125,3.9924735993906855,5.478911303558945,0.7437357155650853
1746483201282904000,0.932904052734375,3.848964415383339,5.3346776046693325,1.0169166968852281
1746483201292883200,0.94288330078125,3.863588860802352,5.133936421138048,1.2231307588696478
1746483201302861300,0.952861328125,4.017233069854974,4.945571904098987,1.2932207786619663
1746483201312839200,0.962839111328125,4.183878799299896,4.713909512603283,1.4244173013240098
1746483201322818300,0.972818359375,4.2680014360979195,4.379050366005301,1.736975184264779
1746483201332796400,0.98279638671875,4.250948009966313,4.092859680986404,2.0661796661019323
1746483201342775300,0.992775390625,4.157895632259548,3.931559111961722,2.284419681444764
1746483201352753200,1.002753173828125,3.9653915311977266,3.938245457857847,2.2521423826962708
1746483201362731300,1.012731201171875,3.7138881286785006,4.0555718605995175,2.042422358417511
1746483201372710100,1.022710205078125,3.415396765013039,3.9364521447002887,1.9073551318019628
1746483201382688300,1.032688232421875,3.104632487490773,3.590132277411222,1.9410668472677468
1746483201392667400,1.04266748046875,2.7615236912027,3.2781665151447057,1.9444711027532815
1746483201402645200,1.052645263671875,2.4181384160608053,3.1065918048650025,1.9004910912513733
1746483201412623000,1.062623046875,2.1083415222659707,2.913388031101227,1.8929443291336296
1746483201422602200,1.072602294921875,1.8068746499210595,2.7756320037931204,1.8091852649509905
1746483201432580400,1.082580322265625,1.5501467907518147,2.7827514804095026,1.5817407834112642
1746483201442559200,1.092559326171875,1.3468332725144923,2.8930805716097354,1.2382412342399358
1746483201452537300,1.102537353515625,1.1355169189549983,3.119996645361185,0.90156247099936
1746483201462515500,1.112515380859375,0.8987263707906007,3.5481612676441667,0.6702320879369974
1746483201472494300,1.122494384765625,0.5256126046001911,4.063005225470662,0.6271843888491392
1746483201482472200,1.13247216796875,-0.08601641465537249,4.484527340999246,0.8674784150898456
1746483201492451000,1.142451171875,-0.8726695539921522,4.666644488081336,1.1231155564129351
1746483201502429200,1.15242919921875,-1.7595909206986426,4.714037522897124,1.1400924101769923
1746483201512408300,1.162408203125,-2.5424866802632806,4.627407871714234,0.7658966939687728
1746483201522386400,1.172386474609375,-3.118640554577112,4.53718516447544,0.03629588674008846
1746483201532364300,1.1823642578125,-3.39390009573698,4.436573165169358,-0.8768570688098668
1746483201542343200,1.19234326171875,-3.3255402607381344,4.268094082817435,-1.795368336522579
1746483201552321300,1.2023212890625,-3.0532769787847993,4.223749329656362,-2.8149890316694974
1746483201562300200,1.212300048828125,-2.67290754237771,4.287465722763538,-3.7797897568702696
1746483201572278300,1.2222783203125,-2.169295172661543,4.072234826108813,-4.484160553513467
1746483201582256400,1.23225634765625,-1.5674176590263842,3.727645143613219,-5.165811568826436
1746483201592235300,1.2422353515625,-1.0082663574397563,3.1487247271955012,-5.779928970831632
1746483201602213000,1.252213134765625,-0.4597428328514099,2.3369541708022354,-6.326684901225566
1746483201612192300,1.262192138671875,0.08900629892004654,1.4227356318473816,-6.725527567434311
1746483201622170000,1.272170166015625,0.6319172625899314,0.35701427978277206,-6.9459349899441
1746483201632148200,1.282148193359375,1.145755258244276,-0.6630874768793582,-7.0860688522994515
1746483201642127400,1.29212744140625,1.66503982886672,-1.4452952541798352,-7.13896340714097
1746483201652105200,1.302105224609375,2.089382847034931,-1.8420488391548393,-7.220274493649602
1746483201662084400,1.31208447265625,2.471173840677738,-1.8704104257643221,-7.358207046568393
1746483201672062200,1.322062255859375,3.0004969902336596,-1.9631044915527105,-7.417983177617192
1746483201682040300,1.332040283203125,3.407507765328884,-2.4363398431837555,-7.0208198427975175
1746483201692019200,1.342019287109375,3.707369248303771,-2.8165368456333875,-6.438526150554418
1746483201701997300,1.351997314453125,3.8779175381451845,-3.04510711633265,-5.747503203523158
1746483201711976200,1.36197607421875,3.9056232911944386,-3.2088468952029943,-4.983908356755972
1746483201721954300,1.371954345703125,4.032046023583412,-3.2979245240598916,-4.181986994203925
1746483201731933400,1.381933349609375,3.732607734456658,-2.891170938596129,-3.719508598908782
1746483201741911300,1.391911376953125,2.8580554354578256,-2.252680727356672,-3.306950126558542
1746483201751889200,1.40188916015625,1.8718401663064956,-1.6483248409092426,-2.875433855760097
1746483201761868300,1.411868408203125,0.9321277051329612,-1.3104834636300802,-2.4018656189128755
1746483201771846400,1.421846435546875,0.1317455348469317,-1.07125969696939,-2.145694516843557
1746483201781825300,1.4318251953125,-0.7439642636239528,-0.6082324356198311,-2.357156124092638
1746483201791803400,1.441803466796875,-1.8370006158545613,0.2426040567487478,-2.987247924821079
1746483201801781200,1.45178125,-4.108822973793745,1.1615122148245571,-3.6521395285129543
1746483201811760000,1.461760009765625,-4.864659461519122,2.2488620458513497,-3.806891698807478
1746483201821738200,1.47173828125,-5.8216264243543145,3.21504633436501,-3.48886619811058
1746483201831717400,1.48171728515625,-6.9599962485224,3.736228263041377,-2.6251269695490596
1746483201841695200,1.4916953125,-7.593627913814783,4.724651855891943,-1.9400223066508768
1746483201851673300,1.50167333984375,-7.6614558338940135,6.079366675436496,-1.1890332589566708
1746483201861652200,1.51165234375,-7.295823363369703,7.3852932064145795,-0.2982055324614048
1746483201871630000,1.521630126953125,-6.532749910128116,8.675588453018666,0.47444180481135845
1746483201881609200,1.531609130859375,-5.625291951349377,9.938964713037013,1.083074053403735
1746483201891587300,1.54158740234375,-4.680755723281204,10.941657069736719,1.6771727497309445
1746483201901565400,1.5515654296875,-3.794721953064203,11.616533184087276,2.3940496844649313
1746483201911544300,1.56154443359375,-2.8123940467402337,12.036240943670272,3.0650211925923823
1746483201921522200,1.571522216796875,-1.4460706224665045,12.121411628216505,3.517268701252341
1746483201931501000,1.5815009765625,-0.8866954489961266,12.008868952620029,3.3140719412624833
1746483201941479200,1.591479248046875,-0.8623512813344597,11.671638400715588,2.9729151558250186
1746483201951457300,1.601457275390625,-0.7890463911488652,11.545016930884122,3.098780838853121
1746483201961436200,1.611436279296875,-0.46069180413931604,11.547025348097085,3.44839565603435
1746483201971414300,1.621414306640625,0.008366846328973769,11.372205372285842,3.595345628145337
1746483201981393400,1.631393310546875,0.8888868215605616,10.72132154341936,3.9452345860928295
1746483201991371300,1.641371337890625,1.9491820569232106,9.535540564256905,4.630943644624948
1746483202001349000,1.65134912109375,2.939788546770811,8.146282839119435,5.590012548175454
1746483202011328300,1.661328369140625,3.7001556636631485,6.901542305988073,6.754459647408128
1746483202021306400,1.671306396484375,4.5537014149904245,5.860319435364008,7.827568771636486
1746483202031285200,1.68128515625,5.46081275228858,4.791729834386706,8.38943050122559
1746483202041263400,1.691263427734375,6.071767890870571,4.054159071192145,7.780144757160544
1746483202051241200,1.7012412109375,6.260210733842849,3.21243585960567,6.762786161726713
1746483202061220000,1.71122021484375,6.181971309864521,2.123094562500715,5.474322222203016
1746483202071198000,1.721197998046875,6.139812668570876,1.1491805565178395,3.88715766017735
1746483202081177000,1.731177001953125,6.269506385454535,0.5582464617013931,2.4236872823596
1746483202091155000,1.741155029296875,6.433169591957331,0.32704291988909245,1.8966005135536192
1746483202101133000,1.751133056640625,6.503923628616333,-0.2918739913523197,2.6640181334793565
1746483202111112200,1.7611123046875,6.278440802538395,-0.7818436201632022,4.248461161586642
1746483202121090000,1.771090087890625,5.28564966212809,-1.4603250655293465,6.0669122675329445
1746483202131069200,1.781069091796875,4.256831515046954,-3.988828228625655,8.851171814417839
1746483202141047000,1.791047119140625,3.6244577408611773,-7.2915703821003435,11.388653818261623
1746483202151025200,1.801025146484375,3.5269796556666493,-11.016968039047718,12.570600333827734
1746483202161004000,1.811004150390625,4.528578664171696,-13.596223484259843,12.154959677553176
1746483202170982100,1.820982177734375,6.660284987673163,-13.614863887321949,9.819500129222869
1746483202180961000,1.8309609375,9.505385664489864,-12.216689865279196,6.556953792536258
1746483202190939100,1.840939208984375,12.591499329471587,-10.44534070224762,2.6818887212127445
1746483202200917000,1.8509169921875,17.952958558082578,-10.512784006923436,0.5825450366556644
1746483202210896100,1.860896240234375,25.96970433218479,-10.9355371255517,-0.2747808177322149
1746483202220874000,1.8708740234375,28.961642752909658,-8.676345408865808,0.06008125147521495
1746483202230853000,1.88085302734375,20.75691473908424,-5.507708358976244,1.8911258815348146
1746483202240831200,1.890831298828125,8.80338714993596,-2.121122970166802,3.7479564024969934
1746483202250809000,1.90080908203125,-1.03884562009871,1.6553730058550833,4.83829167907536
1746483202260788200,1.910788330078125,-8.50427911567688,5.644419845667481,5.126181569227576
1746483202270766000,1.92076611328125,-13.724044393008947,8.540892982324957,2.7736712251141666
1746483202280745000,1.930744873046875,-14.819614939892292,7.982681007415056,2.871646738436818
1746483202290723000,1.94072314453125,-11.15152030187845,6.761245362025499,4.333476363310218
1746483202300701200,1.950701171875,-6.398962786450982,5.090314721554518,4.071851379749178
1746483202310680000,1.96068017578125,-2.731428120407462,4.115236347967386,3.1094021861106156
1746483202320658000,1.970657958984375,-0.4296440471857786,3.529626078522205,2.617280932223797
1746483202330637000,1.980636962890625,0.9735247144043445,3.2535511293262243,2.769190572568774
1746483202340615000,1.990614990234375,1.7385346886664628,2.9187340683043,3.376964743027091
1746483202350593000,2.000593017578125,2.1037457189083097,2.5413778422385453,3.6665292883932588
1746483202360572200,2.010572265625,2.2101211040467024,2.1934943788945676,3.7371477159738538
1746483202370550300,2.02055029296875,2.1572961073100565,1.8024416359096764,3.680593469581008
1746483202380529200,2.030529052734375,1.9280466221749781,1.4641428702518342,3.419585156613588
1746483202390507000,2.040507080078125,1.7486597768396137,0.9785171158641576,2.983165331682563
1746483202400485000,2.050485107421875,1.714281706419587,0.7256251815959811,2.0833710393995046
1746483202410464000,2.060464111328125,1.6510539736121892,0.584000496160984,0.7168301729828119
1746483202420442000,2.070442138671875,1.4164081823915242,0.3617793022274971,-1.8149316996484994
1746483202430421000,2.0804208984375,-0.6540431696802377,0.4040720912948251,-4.327852678209543
1746483202440399000,2.090399169921875,-4.619956971186399,0.6619029432699084,-6.07693623341918
1746483202450377000,2.100376953125,-9.80640508532822,1.304388215494901,-7.9959519923985
1746483202460356000,2.110356201171875,-14.186947151196001,1.3107847846642136,-8.892078994345665
1746483202470334000,2.120333984375,-15.885380715620517,0.7705129555925726,-8.558822022247314
1746483202480313000,2.13031298828125,-14.842394926977157,0.6585641542360187,-7.19140554203987
1746483202490291200,2.140291259765625,-12.485997804558277,0.4439079521967098,-4.926537533283233
1746483202500269000,2.15026904296875,-9.409289096781611,0.41078543479572976,-2.53332108477205
1746483202510248200,2.160248291015625,-6.2999465319037435,0.4806713468506932,-0.8921823559746146
1746483202520226000,2.17022607421875,-3.547381515443325,0.07074409978687762,0.1628726406469941
1746483202530205000,2.180204833984375,-1.0823901627928019,-0.3035027438203804,0.9586980244114994
1746483202540183000,2.19018310546875,0.9186340173095464,-0.2566255678385496,1.3397069277659057
1746483202550161200,2.2001611328125,2.2907067988902328,-0.009583528642356395,1.5539531972974538
1746483202560140000,2.21014013671875,3.0572768620759248,0.23684322819970546,2.0153285997867583
1746483202570118100,2.2201181640625,3.4504309612542388,0.5497478787515312,2.4272797538936137
1746483202580097300,2.23009716796875,3.614992577901482,1.0590875400733202,2.509184130120277
1746483202590075100,2.2400751953125,3.756108437031507,1.6800424599483608,2.442415363705158
1746483202600053000,2.250052978515625,3.7317069862246512,2.2421713160410524,2.333109478072822
1746483202610032000,2.2600322265625,3.4566590419888494,2.616442727833986,2.2998671336844563
1746483202620010200,2.27001025390625,2.900354362004995,2.5388912861198185,2.325556578475237
1746483202629989000,2.279989013671875,2.143931014302373,2.26017283667773,2.0879238803982734
1746483202639967200,2.28996728515625,1.3008031966149807,2.197271559345722,1.4737082787156104
1746483202649945000,2.299945068359375,0.4439040432065725,2.0510753282114864,0.7837173050805926
1746483202659924000,2.309924072265625,-0.25806992142796514,1.6434052124246954,0.2694868029773235
1746483202669902000,2.319902099609375,-0.951125251069665,1.2311992067739366,-0.04441781839728355
1746483202679881200,2.329881103515625,-1.6090239271342754,0.9601189240600914,-0.2565992643535137
1746483202689859000,2.339859130859375,-2.2433640329569577,0.8170671284314245,-0.3351815104201436
1746483202699837000,2.3498369140625,-2.6187317155539986,0.7792434476021677,-0.26012013195604083
1746483202709816000,2.359816162109375,-2.729781522244215,0.791270277743414,-0.07281272275447845
1746483202719794000,2.3697939453125,-2.655110019880533,0.802250009984523,0.16335107181370256
1746483202729773000,2.37977294921875,-2.3195447708398103,0.8603795428700745,0.4019663511872291
1746483202739751200,2.389751220703125,-2.0185282726109026,0.9480332764036953,0.7336708331465721
1746483202749729300,2.399729248046875,-1.8644436263144015,1.0745517973173409,1.0691980882644652
1746483202759708200,2.409708251953125,-1.7554869925111531,1.1239335947975515,1.4539640060648322
1746483202769686000,2.41968603515625,-1.6706091534316538,1.1330072011563925,1.9231728786587714
1746483202779665000,2.429664794921875,-1.382569625675678,1.1371510229628532,2.238070602723956
1746483202789643000,2.43964306640625,-0.7172709024876356,1.0541111399002372,2.340847086587548
1746483202799621000,2.44962109375,0.16277765583992004,0.9338451035100966,2.3644667393669483
1746483202809600000,2.45960009765625,0.9847101252853869,0.7011147174566984,2.2442142200455066
1746483202819578000,2.469578125,1.6721891160994766,0.46523850765824315,1.9952745305344461
1746483202829556000,2.479555908203125,2.3541367762714622,0.47091191365215923,1.700812568515539
1746483202839535000,2.48953515625,2.6597341725498436,0.6095737306935712,2.0236504379302263
1746483202849513000,2.499512939453125,2.966610502722859,1.47851158734411,1.8461591970831155
1746483202859492000,2.5094921875,2.4466133999168873,1.7304095421388743,1.5509858719244598
1746483202869470200,2.51947021484375,0.44482641874849793,1.6558122740551828,0.4373541831716895
1746483202879448000,2.529447998046875,-1.6398352449834346,1.7668690950080752,-1.3755647153496742
1746483202889427200,2.53942724609375,-3.5496366008937357,1.1522824680559336,-3.098691114743054
1746483202899405000,2.549405029296875,-4.087238918495178,-0.5038260855320841,-3.0475586011379954
1746483202909384000,2.559384033203125,-0.37126492345333095,-2.4708242965877054,-0.34075083498507736
1746483202919362000,2.569362060546875,3.545434473028779,-3.4471079543113707,2.1079870097398756
1746483202929340200,2.579340087890625,2.967705896744132,-3.0533088352277873,1.2659206838041543
1746483202939319000,2.589319091796875,0.7751496754825115,-1.8697946319535375,-1.159172081439197
1746483202949297200,2.599297119140625,1.6223545333504676,-0.3364570102486759,-2.0447332657083868
1746483202959276300,2.6092763671875,1.0553653777450323,0.3509778491627425,-2.5907658502638338
1746483202969254100,2.619254150390625,-0.029086978274583813,1.0223490971975029,-2.233566569302976
1746483202979232000,2.62923193359375,-0.8968114770799874,1.106054093105346,-2.284537462605536
1746483202989211100,2.639211181640625,3.1230490186691284,-0.974439491161704,-1.8948706210210917
1746483202999189200,2.649189208984375,3.6392151650100946,-1.7269222845450043,-2.11835788936764
1746483203009168100,2.659168212890625,3.7184874391674994,-0.9710781980350613,-1.0354652569454164
1746483203019146000,2.66914599609375,-0.23983166942596434,-0.948821942563355,0.7854588149856776
1746483203029124000,2.6791240234375,-8.206740522691607,-2.113580153571814,7.886608405104279
1746483203039103000,2.68910302734375,-8.363256195527315,0.1994739035418257,7.578955829861759
1746483203049081000,2.6990810546875,-6.05030249351561,1.265865446485579,1.5439413602404295
1746483203059060200,2.709060302734375,-1.604772114908695,0.7923231477972119,-3.134839994227886
1746483203069037600,2.71903759765625,2.512388479119539,-0.01096236098119989,-2.9666344681203363
1746483203079015700,2.729015625,3.218002261561155,-0.42088242938555775,-1.2415103190384804
1746483203088994800,2.738994873046875,3.0968980938464403,-0.27543329029157754,0.9985621980924159
1746483203098972700,2.74897265625,2.1312311072051524,-0.360039838149026,1.70575776983276
1746483203108951800,2.758951904296875,0.1327460901916027,-0.5533297192936762,0.6563101647641509
1746483203118930000,2.768929931640625,-2.1011147858828303,-0.18638187358817085,0.030188034851662812
1746483203128907800,2.77890771484375,-3.2151778517901897,0.20694493354223667,-0.1538438598105684
1746483203138886700,2.78888671875,-1.752764289548993,0.28991164177078754,-0.2856577106533572
1746483203148864800,2.79886474609375,0.7440151170283555,-0.06144344320651143,0.07081770387920551
1746483203158843000,2.8088427734375,1.9492220966726541,-0.2524805404556915,0.2034673753584735
1746483203168821800,2.81882177734375,1.6915449739545583,-0.2354791367722675,0.13555048922100105
1746483203178799900,2.8287998046875,0.3065530895680189,-0.09994944374412297,0.04785094378427602
1746483203188778800,2.83877880859375,-0.9161807789385318,-0.007694792286306619,-0.02514606776223518
1746483203198756600,2.848756591796875,-1.2138438750863074,-0.03911244199816137,0.037198087143665175
1746483203208734700,2.858734619140625,-0.46934126680195326,-0.05526643507201224,0.14668881869046016
1746483203218713900,2.8687138671875,0.3054237932771444,-0.10520100759677588,0.1392200080465991
1746483203228691700,2.878691650390625,0.648982963681221,-0.11762995226550847,0.01942354366327636
1746483203238670800,2.8886708984375,0.5331780714184046,-0.11158705537207424,0.04440849344651215
1746483203248648700,2.898648681640625,0.153268069216609,-0.10012396006081253,0.09023521052733995
1746483203258626800,2.908626708984375,-0.2321867076307535,-0.07791925211325287,0.12135957638104446
1746483203268605700,2.918605712890625,-0.40037645164728164,-0.06161931123007088,0.09926326071140355
1746483203278583800,2.928583740234375,-0.26287819849252697,-0.06653572484422475,0.056264099773275664
1746483203288562700,2.938562744140625,0.019311434191465377,-0.03773735425267368,0.07389593771419022
1746483203298540800,2.948540771484375,0.18659107762575147,-0.01640829662848264,0.09130253836475312
1746483203308518700,2.9585185546875,0.11101999607384204,-0.015308372562564908,0.11789100522133521
1746483203318497500,2.96849755859375,-0.08157353683710097,-0.045627267252281306,0.09334787178831175
1746483203328475600,2.9784755859375,-0.1890349636465311,-0.03318473244961351,0.09664866689937189
1746483203338454800,2.988454833984375,-0.14341887537539005,-0.09130330554973333,0.09917118024746886
1746483203348433000,2.998432861328125,-0.06623100627660751,-0.11273348546084015,0.1189373724691104
1746483203358410800,3.00841064453125,0.012904489758610724,-0.11484375561308115,0.120833497547172
1746483203368390000,3.018389892578125,0.045211014601588245,-0.14043540258519352,0.10976247029341757
1746483203378367700,3.02836767578125,0.051635494691133495,-0.13993618435878305,0.09627393356915563
1746483203388346600,3.0383466796875,0.022446809607744214,-0.11282320957090705,0.08532349135461263
1746483203398324700,3.04832470703125,-0.019311434191465377,-0.07305840461123735,0.0562290238933172
1746483203408302800,3.058302734375,-0.016325696378946302,-0.05878825252261012,0.043114243251737204
1746483203418281700,3.06828173828125,-0.02053250041902065,-0.059719322827644646,0.04843299058908596
1746483203428259800,3.078259765625,-0.011575871503353118,-0.0782839937724173,0.040914038926875215
1746483203438239000,3.088239013671875,0.003968319109082222,-0.058784818456508216,0.028074147970229387
1746483203448216600,3.098216552734375,0.0139817636013031,-0.06916826530490071,0.03188902095011435
1746483203458194700,3.108194580078125,0.03312894714176655,-0.09525449086092412,0.033332890482340005
1746483203468173800,3.118173828125,0.006340893459320068,-0.09568345686271786,0.039462872004183004
1746483203478151700,3.128151611328125,-0.0659311465471983,-0.07199965280592441,0.05491901900698431
1746483203488129800,3.1381298828125,-0.07461071208715439,-0.05673015094902366,0.08807648899033665
1746483203498109000,3.14810888671875,-0.04078969102799892,-0.0839993392119184,0.09025502033950761
1746483203508086800,3.158086669921875,0.0011047463715076445,-0.07084631805233657,0.10259583920021541
1746483203518065700,3.168065673828125,0.0349216757774353,-0.06622939884141087,0.09848640372054651
1746483203528043800,3.178043701171875,0.033733342775702474,-0.06607797113936394,0.0906671265380457
1746483203538022000,3.18802197265625,-0.011003624573349953,-0.04466090643815696,0.09870877776695415
1746483203548000800,3.198000732421875,-0.054395022532343865,-0.052416635131463406,0.08277813598704524
1746483203557979000,3.207978759765625,-0.04286825086772442,-0.05887428683824837,0.0692733422477264
1746483203567957800,3.217957763671875,-0.011432663640379905,-0.05726093335747719,0.06771553661278448
1746483203577935600,3.227935546875,0.031381811213493344,-0.051144021379761394,0.059957488098228345
1746483203587913700,3.237913818359375,0.004171148204803466,-0.0614000059235841,0.034534735986194574
1746483203597892900,3.247892822265625,-0.016301146459579467,-0.06668167265355586,0.050184199904277915
1746483203607870700,3.25787060546875,-0.037376667714118954,-0.06416892264764755,0.05890663647158071
1746483203617849900,3.267849853515625,-0.05606383252739906,-0.06644340691827237,0.07250958422259428
1746483203627827700,3.27782763671875,-0.015347206735610961,-0.08082458163332194,0.07099730279638897
1746483203637805800,3.287805908203125,0.007106032612919807,-0.07835895870476961,0.07888202359764836
1746483203647784700,3.29778466796875,0.019385083949565885,-0.09192063373047858,0.10882128045316784
1746483203657762800,3.3077626953125,-0.001710311049222946,-0.08568889973405748,0.09240796058969572
1746483203667741700,3.31774169921875,-0.03207914582788944,-0.07795304478500038,0.09659052523765713
1746483203677719800,3.3277197265625,0.3125140437990427,-0.07130191633272916,1.473874429062754
1746483203687697700,3.33769775390625,0.22204642188847062,-0.15384762267023325,-0.5481569562982768
1746483203697676500,3.347676513671875,-0.3997188645213842,-0.013283625269308685,-0.6540024723436683
1746483203707654700,3.357654541015625,-0.3896551511466503,-0.08140822674017399,0.029967058177897705
1746483203717632800,3.3676328125,0.0021054478466510772,-0.06091620446201414,0.11056449825814925
1746483203727612000,3.37761181640625,0.16925240481197834,-0.0876696982877329,0.14731147150029428
1746483203737589800,3.38758984375,-0.02182312475144863,-0.08937646567299962,0.02356974008991383
1746483203747569000,3.39756884765625,-0.12224690800905227,-0.05791150622069835,0.012861650697304867
1746483203757546800,3.407546630859375,0.018988193586468697,-0.08004742324836552,0.07674896622486412
1746483203767524600,3.417524658203125,0.1452986977726221,-0.1147192524505779,0.12212903551673517
1746483203777503700,3.427503662109375,0.08429623979926108,-0.09158004013188183,0.10137505610045044
1746483203787481900,3.43748193359375,-0.15152385589778422,-0.06477536410819738,0.1454124055464752
1746483203797460700,3.447460693359375,-0.16126374414563177,-0.10111001195609569,0.11439249558108858
1746483203807438800,3.45743896484375,-0.02583469848036766,-0.10667276064977049,0.0839871007848531
1746483203817416700,3.467416748046875,0.0551297665476799,-0.09817655232008546,0.10990704812956974
1746483203827395600,3.4773955078125,0.06305705241560935,-0.09347590034846216,0.11501598864113911
1746483203837373700,3.487373779296875,0.039866730964183805,-0.08682268953695893,0.10293023138688877
1746483203847352800,3.497352783203125,-0.0334492651373148,-0.0901466463278979,0.09870059446049853
1746483203857330700,3.50733056640625,-0.07145020222961902,-0.08126016003899275,0.10053137181792407
1746483203867308800,3.517308837890625,-0.02461070964336395,-0.07544814929198473,0.05359043271776754
1746483203877288000,3.527287841796875,0.02357902850806713,-0.07551105846036225,0.06975112039388623
1746483203887265800,3.537265869140625,0.026872809356451033,-0.060993836275488135,0.06958441749089397
1746483203897244700,3.54724462890625,-0.007992752319574355,-0.06473302280381321,0.051321889564162115
1746483203907222800,3.557222900390625,-0.045400984215736385,-0.0635245237968862,0.06657603402172681
1746483203917201000,3.567200927734375,-0.0308913973480463,-0.0689786244843155,0.05738149556380231
1746483203927179800,3.5771796875,0.0027706337571144104,-0.06441029365547,0.07342426964840851
1746483203937158000,3.587157958984375,0.03060088996887207,-0.06654664809703827,0.11617555220611393
1746483203947135700,3.5971357421875,0.015037410134077072,-0.08210691306143998,-0.002801120226923376
1746483203957114600,3.607114501953125,-0.10437924288511276,-0.08030234785750508,0.14063487068004904
1746483203967092700,3.6170927734375,-0.031074352699518203,-0.08009491565190255,0.08754439140763133
1746483203977071900,3.62707177734375,0.013519991308450698,-0.09863909179791808,0.09280753610022366
1746483203987049700,3.6370498046875,0.02220306397974491,-0.07804722587447613,0.036619880830333566
1746483203997027600,3.647027587890625,0.028628128591179847,-0.07737020339574664,0.03756107523716055
1746483204007006700,3.6570068359375,-0.006408113476634025,-0.07994001735113561,0.06395001463338267
1746483204016984600,3.666984619140625,-0.04487608355879783,-0.06540555177051574,0.025944985887850634
1746483204026963700,3.676963623046875,-0.07930792999267577,-0.04379143012724816,0.06915459753915201
1746483204036941800,3.68694189453125,-0.0470125110656023,-0.07101148201879114,0.06962928867908194
1746483204046920000,3.696919921875,0.05068681566417217,-0.07305405722968279,0.05476128029515966
1746483204056898800,3.70689892578125,0.0717734428346157,-0.042874534478038545,0.06574539188386407
1746483204066877000,3.716876953125,0.035247838991880415,-0.04163655364830047,0.06557719571010674
1746483204076855800,3.726855712890625,-0.014736965882778168,-0.0717308823345229,0.11236834194287657
1746483204086833700,3.736833740234375,-0.08850772001445292,-0.0787410533575341,0.09292339016539045
1746483204096811800,3.746811767578125,-0.11619593740701675,-0.06268960734270512,0.05350533911704551
1746483204106790700,3.756790771484375,-0.050966801649332046,-0.051607656836137175,0.08373606689954176
1746483204116768800,3.766768798828125,0.012029460489749908,-0.11470189945697784,0.07682878086226992
1746483204126747000,3.776746826171875,0.049288639304041856,-0.06776617995463312,0.11634769390262663
1746483204136726000,3.78672607421875,0.0857943694025278,-0.06597056524213403,0.07487039506980217
1746483204146703600,3.79670361328125,-0.023282675909996033,-0.05384896948952227,0.059161405817093324
1746483204156682800,3.806682861328125,-0.12264964359104633,-0.032084625720605255,0.09457229901673271
1746483204166660900,3.816660888671875,-0.07762216886281967,-0.0645398748518899,0.09805312686981632
1746483204176638700,3.826638671875,0.04627659800648689,-0.08514047207105904,0.07172213733906392
1746483204186617900,3.836617919921875,0.05676233618557453,-0.07446041689626873,0.07504675171712878
1746483204196596000,3.846595947265625,-0.0059440030962228775,-0.06507880403418094,0.06726130830557085
1746483204206574800,3.856574951171875,-0.03273030321300029,-0.09610120735075324,0.07528596730048302
1746483204216552700,3.866552734375,-0.031084874093532562,-0.0946076443247497,0.07479125628583133
1746483204226530800,3.87653076171875,-0.0035609073519706725,-0.08133439431898296,0.06950969002055934
1746483204236509700,3.886509765625,0.023669044879078862,-0.07758150805886835,0.07681121780611574
1746483204246487800,3.89648779296875,0.056737201744318004,-0.08344612577594816,0.0612354538784828
1746483204256467000,3.906467041015625,-0.01629354767501354,-0.08613686269726603,0.07269718378314283
1746483204266444800,3.91644482421875,-0.04069675204753875,-0.08453951050322503,0.07736263201064429
1746483204276422700,3.926422607421875,-0.02065466549396515,-0.08296517385859042,0.07798695618775672
1746483204286401800,3.93640185546875,0.011365443623065947,-0.07665675789676606,0.07105218392193782
1746483204296380000,3.9463798828125,-0.007184943068027496,-0.07682301784176379,0.08481981614879332
1746483204306357800,3.956357666015625,-0.027238720059394834,-0.07997150846794247,0.06963249441632069
1746483204316337000,3.9663369140625,-0.03008183453083038,-0.06223086725715547,0.057922324442234815
1746483204326315000,3.97631494140625,-0.038759646505117415,-0.05205189347229898,0.0598199016918661
1746483204336294000,3.9862939453125,-0.02992985883951187,-0.06266414410788565,0.08783243283508345
1746483204346271700,3.996271728515625,0.006273673442006111,-0.07681008529495448,0.07996243011234327
1746483204356249900,4.006249755859375,0.009259411254525184,-0.06513042462356389,0.09584922361737117
1746483204366228700,4.016228759765625,-0.001975099465250969,-0.07032707995120435,0.09526640049442649
1746483204376206800,4.026206787109375,-0.026080197674036024,-0.07975077838934957,0.1062548366317991
1746483204386186000,4.03618603515625,-0.015174188256263732,-0.07831515609566121,0.09092880054838023
1746483204396163800,4.046163818359375,0.005904255607724189,-0.06793561823740601,0.08086376286623999
1746483204406141700,4.0561416015625,0.01845160249173641,-0.06741849902812391,0.07945782332476228
1746483204416120800,4.066120849609375,0.007060439905524254,-0.06649203183297067,0.05847425466999411
1746483204426099000,4.076098876953125,-0.0275409178763628,-0.07615041580982505,0.0749412774820812
1746483204436076800,4.086076904296875,-0.04312427145540714,-0.050324777418747545,0.05692611647911835
1746483204446056000,4.096055908203125,-0.03297287979722023,-0.05029229992125183,0.059530604455666616
1746483204456034000,4.106033935546875,-0.01279050799012184,-0.04678604536596685,0.04569630933392327
1746483204466012700,4.1160126953125,0.0031949966490268707,-0.05363072362896055,0.04730597758684307
1746483204475990800,4.12599072265625,-0.00715162532031536,-0.05220726669710129,0.046065202011819927
1746483204485969000,4.135968994140625,-0.005392798954248428,-0.051056744955107564,0.06727356956552248
1746483204495947800,4.14594775390625,-0.0559925208568573,-0.05602116242945194,0.06650489588112105
1746483204505926000,4.15592578125,-0.030872108125686644,-0.06915241014864296,0.061746682203095406
1746483204515905000,4.165905029296875,-0.01308686058819294,-0.06364193963147699,0.05266983814097475
1746483204525882600,4.175882568359375,0.03104746469259262,-0.08278218197450041,0.05312743658220861
1746483204535860700,4.18586083984375,0.006804419317841529,-0.056944268623739476,0.055371617046114985
1746483204545839900,4.19583984375,-0.047074470385909076,-0.03134374422542751,0.05260409769469406
1746483204555817700,4.205817626953125,-0.05082300926446914,-0.05218308210391551,0.0672917856422253
1746483204565795800,4.2157958984375,-0.02778875515758991,-0.06262629631552845,0.04633023702302016
1746483204575775000,4.22577490234375,0.013503040173649786,-0.05054488644283264,0.03043668498364277
1746483204585752800,4.2357529296875,0.02950900307893753,-0.05769556191507726,0.04481465852803085
1746483204595731700,4.245731689453125,0.01992868930697441,-0.043203035780042406,0.04714023366507608
1746483204605709800,4.255709716796875,-0.03993979620039463,-0.052638607319071884,0.06034155551237054
1746483204615688000,4.26568798828125,-0.06763035168051719,-0.04908263187054544,0.07077969169006683
1746483204625666800,4.275666748046875,-0.04862988313436508,-0.05910703614819795,0.057343958298698997
1746483204635645000,4.28564501953125,-0.00135024556517601,-0.04196194967776537,0.06339351326178293
1746483204645623800,4.295623779296875,0.02543254742026329,-0.0653439212437719,0.07229135206176433
1746483204655601700,4.3056015625,0.01630231550335884,-0.06643840194959193,0.06729302775124088
1746483204665579800,4.315579833984375,-0.02620236274898052,-0.06243862825632095,0.0688211049681995
1746483204675559000,4.325558837890625,-0.050149640047550195,-0.049232232941687104,0.06925249582252
1746483204685536800,4.335536865234375,-0.03504676346182823,-0.06699351508170366,0.05235565305869095
1746483204695516000,4.345515869140625,0.0014583821147680282,-0.057159263081289824,0.047040997374569994
1746483204705494000,4.355493896484375,0.035576340293884276,-0.05218045175541192,0.04287337913399096
1746483204715472000,4.365471923828125,0.018816928672790525,-0.06678279494047165,0.055090503116371106
1746483204725450800,4.37545068359375,-0.03445698087513446,-0.05390541238449514,0.053214840871025806
1746483204735428900,4.385428955078125,-0.05286474422514438,-0.06603672581352293,0.05632493114899843
1746483204745407000,4.395406982421875,-0.01993862617909908,-0.0698859120549634,0.07518844347645062
1746483204755385900,4.4053857421875,0.016577040791511535,-0.07876216921079904,0.06502244790417608
1746483204765364000,4.415364013671875,0.02450666474699974,-0.06911028803996741,0.06497137530406472
1746483204775342800,4.4253427734375,0.0010106383472681046,-0.07184172229785472,0.07304955458450131
1746483204785320700,4.43532080078125,-0.03625204759836197,-0.06633622021675109,0.07540884932805783
1746483204795298800,4.445298828125,-0.0545154340416193,-0.05189867567196488,0.07509863260141574
1746483204805278000,4.45527783203125,-0.023549217891693112,-0.05792246600612998,0.06445790022343863
1746483204815255800,4.465255859375,0.03195931884050369,-0.05333448062874376,0.0589732080349233
1746483204825235000,4.47523486328125,0.03704115214943886,-0.04417717804182321,0.054676963012572376
1746483204835213000,4.485213134765625,-0.0127922615557909,-0.04464775469563901,0.062416092197527175
1746483204845190700,4.495190673828125,-0.06292611951231956,-0.03611154314912855,0.046338854154315774
1746483204855169800,4.505169677734375,-0.06084346801936626,-0.04246734191663563,0.05786165746329352
1746483204865148000,4.51514794921875,-0.024340076008439064,-0.05344155773241072,0.04001692569036968
1746483204875125800,4.525125732421875,0.022195465195178985,-0.06233673878442496,0.0729877961935941
1746483204885105000,4.53510498046875,0.046881578162312504,-0.07059216062817722,0.05368039885642938
1746483204895083000,4.5450830078125,-0.019412556478381155,-0.05909216737262904,0.05189506807592697
1746483204905061600,4.5550615234375,-0.06879939545989036,-0.053981217567063866,0.057443441184377296
1746483204915039700,4.565039794921875,-0.046513913893699646,-0.05666300399694591,0.05807793512905482
1746483204925017900,4.575017822265625,0.001367196699976921,-0.05387012187540531,0.06716275243507698
1746483204934996700,4.584996826171875,0.025455343773961067,-0.041932577452808616,0.05201117330284323
1746483204944974800,4.594974853515625,0.023956629648804663,-0.03737670424673706,0.03848862471112516
1746483204954954000,4.6049541015625,-0.0005903671085834502,-0.02938249062243849,0.04172817745450884
1746483204964931800,4.614931884765625,-0.041597500279545785,-0.05028945037703961,0.03980146544193849
1746483204974909700,4.62490966796875,-0.043401919353008266,-0.046867038180306554,0.03772533045473974
1746483204984888800,4.634888916015625,-0.017220014870166778,-0.02619114723522216,0.05023291615052149
1746483204994867000,4.644866943359375,0.018978256714344024,-0.04656005459036678,0.04277568634659983
1746483205004844800,4.6548447265625,0.04396130680143833,-0.03781867586057633,0.06081168464161455
1746483205014824000,4.664823974609375,0.018072832307219504,-0.04403367791790515,0.05637618184562306
1746483205024801800,4.6748017578125,-0.058546296992897984,-0.03745265555977821,0.07732952432548627
1746483205034780700,4.68478076171875,-0.08653905028998851,-0.061229033270850775,0.046836830271710636
1746483205044758800,4.6947587890625,-0.014720599269866942,-0.044516200737841426,0.04912442518565804
1746483205054737000,4.70473681640625,0.03345978653132915,-0.05968271714430302,0.05269532420868054
1746483205064716000,4.714716064453125,0.021188333979248998,-0.052456419152580196,0.03247394698188873
1746483205074694000,4.72469384765625,-0.013082768934965133,-0.03673595865778625,0.053607169223437084
1746483205084673000,4.734673095703125,-0.050340778705477714,-0.035429369571246205,0.043257314117392524
1746483205094651000,4.74465087890625,-0.05094458981752396,-0.02043952490594238,0.04545830389354378
1746483205104629000,4.75462890625,-0.026111177334189415,-0.03787420544009656,0.044608829191047694
1746483205114608000,4.764608154296875,0.009494389054179191,-0.03356448901481926,0.05142337261068169
1746483205124586000,4.7745859375,0.029988311028480527,-0.043228462482243775,0.038425916472147215
1746483205134563800,4.784563720703125,-0.01117021331191063,-0.048074952665343874,0.061692956421594135
1746483205144543000,4.79454296875,-0.03212590757906437,-0.04428995423391461,0.05876890850132331
1746483205154521000,4.80452099609375,-0.04350362616181373,-0.049051506079919635,0.042465296090021726
1746483205164500000,4.8145,-0.028394904357194897,-0.05816073174141347,0.051464238910609854
1746483205174478000,4.82447802734375,0.008270400217175483,-0.05676781607829034,0.05037630667658522
1746483205184456200,4.834456298828125,0.016948212191462517,-0.05148457844574004,0.046059466390777376
1746483205194435000,4.84443505859375,-0.015528408521413802,-0.039490371932461854,0.04634401438662317
1746483205204413000,4.854412841796875,-0.06342004050910473,-0.035521139507927,0.06351050440468825
1746483205214391000,4.86439111328125,-0.0498141244828701,-0.03353877005167305,0.061410993108479306
1746483205224370000,4.874369873046875,0.008535188633203506,-0.05213043860122561,0.05606759082048665
1746483205234348000,4.88434814453125,0.046537879291176795,-0.04477773775085807,0.056619274453073735
1746483205244327200,4.8943271484375,0.007478373056650161,-0.05524838795866817,0.04797694935069885
1746483205254304800,4.9043046875,-0.04206102613806724,-0.031012795238010583,0.043947671001730484
1746483205264283000,4.914282958984375,-0.05897650510370731,-0.03171729024555534,0.05445393137903884
1746483205274262000,4.924261962890625,-0.02860650128126144,-0.03886076879203319,0.047534991436591366
1746483205284240100,4.934240234375,0.008204349243640899,-0.05185713808517903,0.041367340218904425
1746483205294219000,4.944218994140625,0.021216975551843643,-0.055242944598570466,0.04646052147233858
1746483205304197000,4.954197021484375,0.005201075774431229,-0.031140878597088157,0.040230449710041284
1746483205314175000,4.964175048828125,-0.04658054938912391,-0.03421392936687916,0.044933850761177015
1746483205324153900,4.97415380859375,-0.052282560423016544,-0.03392071857396513,0.03339163493225351
1746483205334132000,4.984132080078125,-0.028494857600331304,-0.04347779760081321,0.023583318807405884
1746483205344110000,4.994110107421875,0.00561842440366745,-0.052454702119529246,0.05614169723631348
1746483205354089000,5.0040888671875,0.004115618625283241,-0.040732590545900164,0.06208315218242351
1746483205364067000,5.014067138671875,0.008593056300282478,-0.03142356799598783,0.06280117339182179
1746483205374046200,5.024046142578125,-0.02883329577445984,-0.03212378868721425,0.054456388197606426
1746483205384023800,5.03402392578125,-0.051882747450470924,-0.03675228873807937,0.05109915932472795
1746483205394002000,5.044001953125,-0.04905073889493942,-0.04197572247479111,0.0427694027362857
1746483205403981000,5.05398095703125,-0.018989362630248068,-0.03210376881249249,0.04669752683229744
1746483205413959000,5.063958984375,0.04189794453084469,-0.045900312040001154,0.04084215186759829
1746483205423937000,5.07393701171875,0.026468904730677603,-0.04275083503313362,0.04950999957029707
1746483205433916200,5.083916259765625,-0.03399520858228206,-0.03918634748458862,0.0446787343557924
1746483205443894000,5.09389404296875,-0.05315700516998768,-0.0516922298470512,0.03246755377372028
1746483205453873000,5.103872802734375,-0.03760755386054516,-0.03696333767287433,0.03991541981096379
1746483205463851000,5.11385107421875,0.01984802528619766,-0.05104015914648771,0.026422850798978468
1746483205473829000,5.1238291015625,0.039597850894927976,-0.056510772577300666,0.03245669445298845
1746483205483808000,5.13380810546875,0.022390110984444617,-0.04168715132437646,0.03451369319816586
1746483205493786000,5.1437861328125,-0.012622165685892105,-0.05087846577875316,0.02475975130879087
1746483205503765000,5.153764892578125,-0.07875847941637039,-0.04782675005793571,0.04556086921887472
1746483205513742800,5.163742919921875,-0.04987725284695625,-0.03379329280201346,0.04590378263872116
1746483205523721000,5.173720947265625,-0.0034931028127670287,-0.0250032526249066,0.03359731585547561
1746483205533700000,5.1837001953125,0.04259703271090984,-0.024617212449386715,0.04542417786165606
1746483205543678000,5.193677978515625,0.004592588487267494,-0.027114947549253702,0.0370537833021488
1746483205553656000,5.203656005859375,-0.03191664874255657,-0.0202965362386778,0.03008165643431712
1746483205563635200,5.21363525390625,-0.05046820447742939,-0.01755264435801655,0.046633270523627285
1746483205573613000,5.223613037109375,-0.03221358586251735,-0.02827219129297882,0.04158083227253519
1746483205583592000,5.233592041015625,0.030634207716584205,-0.041425979637540876,0.054149792766734026
1746483205593570000,5.243570068359375,0.05442600219249725,-0.03299198635648936,0.034195044286607294
1746483205603548200,5.253548095703125,0.01882277389168739,-0.0322111747097224,0.04346049027298577
1746483205613527000,5.263527099609375,-0.06436813501417636,-0.027595899466611444,0.041266715688910334
1746483205623505200,5.273505126953125,-0.09280103329420089,-0.027686244631186126,0.02173438017220469
1746483205633483000,5.28348291015625,-0.060033320680260654,-0.028343320300430058,0.044863164711720305
1746483205643462000,5.2934619140625,0.003119593325257301,-0.02489409316200763,0.01730804478006903
1746483205653440000,5.30343994140625,0.04427285696864128,-0.01719071571044624,0.03717862895794678
1746483205663419100,5.313419189453125,0.02571487149298191,-0.015604834758490322,0.05045507100122049
1746483205673397000,5.32339697265625,-0.030239070919156074,-0.00824694627635181,0.034966779861063696
1746483205683374800,5.333374755859375,-0.05312894811928272,-0.02931822974719107,0.04111793203509878
1746483205693354000,5.34335400390625,-0.04235679421424866,-0.03659775576349348,0.047728596046240995
1746483205703331800,5.353331787109375,-0.027695816177129743,-0.029457820880971847,0.05718226493096444
1746483205713310000,5.36331005859375,0.026612697115540502,-0.028120544395223258,0.04027771835129242
1746483205723289000,5.3732890625,0.01913432405889034,-0.030913426516763865,0.033425457286753224
1746483205733267000,5.383266845703125,-0.03533610179722309,-0.04415270118769258,0.04849387219715863
1746483205743246000,5.39324609375,-0.07499065131545066,-0.03663728405628353,0.06071389595610089
1746483205753224000,5.403223876953125,-0.03998129725456238,-0.042005386960692705,0.04146877759965136
1746483205763202000,5.4132021484375,-0.0024257658421993253,-0.03321823286041617,0.0311465343030286
1746483205773181000,5.423180908203125,0.014931027150154113,-0.041710787928290666,0.041381702104397115
1746483205783159000,5.433158935546875,-0.0024304420173168182,-0.04924202368333935,0.011831650062440894
1746483205793138000,5.443137939453125,-0.034896541336178775,-0.030700185624882578,0.050728545047203075
1746483205803116000,5.453115966796875,-0.08098200068473815,-0.026001616012491284,0.05962465768097899
1746483205813094000,5.463093994140625,-0.04432780202627182,-0.03328486835584044,0.03460648376486497
1746483205823073000,5.473072998046875,0.025102877074480057,-0.04762227699439972,0.039232561246491965
1746483205833051000,5.48305078125,0.0580272415548563,-0.03201459269169718,0.034117656785016874
1746483205843029000,5.493029052734375,0.025859832921624182,-0.040040370498038824,0.04491292670415714
1746483205853008100,5.503008056640625,-0.027263269978761672,-0.043259990131668744,0.04235692664498929
1746483205862986000,5.512986083984375,-0.043429391881823536,-0.040108540363423525,0.062006219055270775
1746483205872965000,5.522965087890625,-0.023384382718801496,-0.0316853242047131,0.037645150491152884
1746483205882943000,5.53294287109375,0.0066916065931320184,-0.03341733562909067,0.019942774914542678
1746483205892921000,5.542921142578125,0.025395722541213035,-0.05207487248908728,0.04399719553214963
1746483205902900000,5.55289990234375,0.011178981140255928,-0.02958963056709617,0.021789176816074177
1746483205912878000,5.562878173828125,-0.058555064821243286,-0.02427457302417606,0.031277798283169976
1746483205922856200,5.572856201171875,-0.07457622529566288,-0.014410875733569263,0.035347883566562086
1746483205932835000,5.5828349609375,-0.038518238964676856,-0.024455665212124583,0.027869604124745817
1746483205942813000,5.59281298828125,0.02806932566463947,-0.04236494098808616,0.05331233729559462
1746483205952791800,5.602791748046875,0.0593430003285408,-0.02604216721858829,0.03908515213243663
1746483205962770000,5.61277001953125,-0.0002098433583974838,-0.021923406788147984,0.03711284741247073
1746483205972748000,5.622748046875,-0.04914075526595115,-0.032253735209815206,0.05078816627995111
1746483205982727200,5.63272705078125,-0.06695405985414982,-0.02848477459773421,0.044640393373090774
1746483205992705000,5.642705078125,-0.02505903793275356,-0.014319836449250578,0.03575651916638017
1746483206002683000,5.652682861328125,0.03359305752217769,-0.029132205655798313,0.03733394053395604
1746483206012662000,5.662662109375,0.037923195680975914,-0.023914544072747228,0.0302324516654131
1746483206022639900,5.672639892578125,-0.012514613658189773,-0.025422975874319673,0.018752916676003952
1746483206032619000,5.682618896484375,-0.04289572339653969,-0.019443682269006966,0.023456557472446002
1746483206042597000,5.69259716796875,-0.05861059440076351,-0.02068148043565452,0.025692853740707504
1746483206052575200,5.7025751953125,-0.022405308553576468,-0.029757461414672434,0.018637548951315693
1746483206062553900,5.712553955078125,0.024874329015612602,-0.036454036443866786,0.015819646552950144
1746483206072531200,5.72253125,0.016802666240930558,-0.02817099594082683,0.036714406696392685
1746483206082509300,5.73250927734375,-0.011030512580275535,-0.040411286169663066,0.03196228026585886
1746483206092488200,5.74248828125,-0.03796878838837146,-0.009188318779692053,0.03609344808672322
1746483206102466300,5.75246630859375,-0.043808162066340445,-0.029874219662137328,0.0256059837414301
1746483206112445400,5.762445556640625,0.013352233526110648,-0.034617249470762904,0.044593389593320897
1746483206122423300,5.77242333984375,0.02367839722931385,-0.041540290199592704,0.04677850138032809
1746483206132401200,5.782401123046875,0.00916062705516815,-0.04054510514978319,0.05266115707759745
1746483206142380300,5.79238037109375,-0.0010094693034887314,-0.03423347431756556,0.03475289736507693
1746483206152358400,5.8023583984375,-0.053387891316413874,-0.015376798156276345,0.026878695674543266
1746483206162336300,5.812336181640625,-0.05159691624641418,-0.030786256473138925,0.02821153573048068
1746483206172315400,5.8223154296875,0.00930266587436199,-0.029209435610473154,0.028003158243384677
1746483206182293500,5.83229345703125,0.02920271360874176,-0.015830862066708504,0.021829773687943813
1746483206192272400,5.8422724609375,0.011242109504342079,-0.017791238886862994,0.026463447670848107
1746483206202250200,5.852250244140625,-0.028120179069042205,-0.020112631039135156,0.03279284705519676
1746483206212228400,5.862228271484375,-0.043698271951079365,-0.021168715963326392,0.024878041642927562
1746483206222207200,5.872207275390625,-0.023510639446973798,-0.02634326905701309,0.04025899995109066
1746483206232185300,5.882185302734375,-0.015137947899103164,-0.0298807955333963,0.026311106653348543
1746483206242163500,5.89216357421875,0.0029617724150419232,-0.03254785931818187,0.04533787868453655
1746483206252142300,5.902142333984375,-0.003919803792238235,-0.038434469671361146,0.04273334504221566
1746483206262120200,5.9121201171875,-0.048508887103199956,-0.032825945607200264,0.05536962601842824
1746483206272099300,5.922099365234375,-0.05658990222811699,-0.024745076612755657,0.04840612084846943
1746483206282077400,5.932077392578125,-0.02951192568838596,-0.024859642903134225,0.044558770371088754
1746483206292055300,5.94205517578125,0.04052256452441215,-0.03245839093644172,0.044023448784835634
1746483206302034400,5.952034423828125,0.04037117335498333,-0.03420830334369093,0.04357316600037738
1746483206312012500,5.962012451171875,0.017773557099699973,-0.03758954327981919,0.04154190676794387
1746483206321990100,5.971990234375,-0.05150806891918182,-0.026657851431518793,0.041371194410114547
1746483206331969300,5.98196923828125,-0.0699216774880886,-0.033906032461486754,0.014897183104412397
1746483206341947400,5.991947509765625,-0.018147651109099387,-0.03731759447064251,0.02581708975844085
1746483206351926300,6.00192626953125,0.010433131209015846,-0.030574221157655117,0.025990690476389133
1746483206361904400,6.011904296875,-0.0049812955439090725,-0.010778510580584407,0.03816429041087394
1746483206371882500,6.021882568359375,-0.00827624543607235,-0.023717925522103903,0.028774329845549073
1746483206381861400,6.031861328125,-0.059608957788348196,-0.029966354924999175,0.031107464951253494
1746483206391839200,6.041839111328125,-0.04225859453678131,-0.02289349392931908,0.02403107855792623
1746483206401817300,6.0518173828125,-0.021018238109350204,-0.03179634683113545,0.026617560520325784
1746483206411796200,6.061796142578125,0.02657061153948307,-0.032661914151906966,0.035801531918463296
1746483206421774300,6.0717744140625,0.029415479576587675,-0.02823120169546455,0.03062474120191764
1746483206431753500,6.08175341796875,0.013557985231280326,-0.021309074282087385,0.034806858325307256
1746483206441731300,6.0917314453125,-0.047943069913983345,-0.01189823532551527,0.03815865297124255
1746483206451709200,6.101709228515625,-0.07219254502952098,-0.0040508462933823465,0.030637112059723585
1746483206461688300,6.111688232421875,-0.03180032888650894,-0.022643208962678907,0.020560637384827714
1746483206471666400,6.12166650390625,0.02146890448629856,-0.023637809490598738,0.03264741526909638
1746483206481644300,6.131644287109375,0.05573182409405708,-0.03518788896556944,0.03381473288226407
1746483206491623400,6.14162353515625,0.01966156280338764,-0.022725736146979033,0.05810742608502041
1746483206501601300,6.151601318359375,-0.044537645384669304,-0.0215285987842828,0.04483599357700441
1746483206511580200,6.161580078125,-0.07866261782646179,-0.042267545028217134,0.03421238586376421
1746483206521558300,6.171558349609375,-0.024493805265426636,-0.022229550127871332,0.03295456325581763
1746483206531536400,6.181536376953125,0.022344518277049065,-0.025849457658082244,0.03387276951270178
1746483206541515300,6.191515380859375,0.02534311557114124,-0.01716927106361836,0.031629200970148666
1746483206551493400,6.201493408203125,-0.01895136870741844,-0.011451843264885245,0.019270328146230895
1746483206561471200,6.21147119140625,-0.036461306434869764,-0.01630859911367297,0.023737938546959776
1746483206571450000,6.2214501953125,-0.027034721919894217,-0.021519502162374554,0.027299434987397397
1746483206581428200,6.23142822265625,-0.009382745373249053,-0.023452260323241353,0.03556439869434107
1746483206591407400,6.241407470703125,0.021588146951794625,-0.028411124839633702,0.029296040748269296
1746483206601385500,6.251385498046875,0.01260755263864994,-0.01876768270358443,0.04965125293820165
1746483206611363300,6.26136328125,-0.030793197670578955,-0.003648293374478817,0.05090967833434697
1746483206621342500,6.271342529296875,-0.05564589937627315,-0.023342041414417324,0.03719842050380539
1746483206631320300,6.2813203125,-0.059554012730717656,-0.026443551093712447,0.0493247837630799
1746483206641298200,6.291298095703125,0.007319383102655411,-0.03651763973198831,0.043939149768557395
1746483206651277300,6.30127734375,0.04965455000698566,-0.03888246916718781,0.052216573381563644
1746483206661255400,6.31125537109375,0.0533779544442892,-0.02674392227977514,0.045337307862378655
1746483206671234300,6.321234375,-0.0008165770798921585,-0.009747779293358325,0.04660043226652778
1746483206681212400,6.33121240234375,-0.035998949620127674,-0.0224379321815446,0.030485227699950334
1746483206691190300,6.341190185546875,-0.03331424058079719,-0.011144677011854946,0.06937793513336218
1746483206701169200,6.351169189453125,0.05919160915911197,-0.04473598096836358,0.021025467001157813
1746483206711147300,6.361147216796875,0.0363420639693737,-0.004648410327732563,-0.006383640047436347
1746483206721125400,6.37112548828125,-0.048481414574384686,0.01652812361586839,0.04201549279617611
1746483206731104300,6.381104248046875,0.006764671829342842,-0.012970248471200466,0.03920736287315376
1746483206741082400,6.391082275390625,-0.014869652351737022,-0.03437704750671983,-0.010432654001691844
1746483206751060200,6.401060302734375,-0.10864683720171452,-0.02776106343306601,0.028274497414496724
1746483206761039400,6.411039306640625,-0.13123042493164538,-0.035670484850741924,0.05790188444240484
1746483206771017200,6.421017333984375,-0.03844809633791446,-0.05456044222712517,0.06820300960247404
1746483206780996400,6.430996337890625,0.17396715837419033,-0.08388411533441394,0.029922844576835632
1746483206790974500,6.440974365234375,0.2544897248536348,-0.06853522809837014,0.020388141778577118
1746483206800952300,6.450952392578125,0.07807517332732677,-0.026263445286452768,0.023668412408127913
1746483206810931500,6.460931396484375,-0.11724632324278354,0.021111615481227634,0.018030253540817647
1746483206820909300,6.470909423828125,-0.23452245710194108,-0.012562873246707022,-0.008115106907475274
1746483206830887400,6.480887451171875,-0.3164122202813625,0.05467800419218838,0.028695065480703486
1746483206840866300,6.4908662109375,-0.1057891096830368,0.007797047084383666,-0.000014511440898058934
1746483206850844400,6.500844482421875,0.03315758871436119,0.0339482276353985,0.042610490414104425
1746483206860823300,6.5108232421875,0.15566694705188275,0.00688124741371721,0.047498467951640484
1746483206870801400,6.520801513671875,0.19487492184638977,-0.019422420285269616,0.057496308449353085
1746483206880779300,6.530779296875,0.03221884655952453,0.023053433731384573,0.1080758597801905
1746483206890758400,6.54075830078125,-0.04095511072278023,0.021851437530480324,0.09134542765840888
1746483206900736300,6.550736328125,-0.05786182186007499,0.001664316483028233,0.10027101298184134
1746483206910714400,6.56071435546875,-0.031662966242432596,0.0426257838813588,0.1482478847007267
1746483206920693500,6.570693603515625,-0.0021668226450681687,0.03991780356429517,0.1724041468411684
1746483206930671000,6.580671142578125,0.02658054841160774,0.0197801111491397,0.11006646734182722
1746483206940650200,6.590650146484375,0.031980946150422095,0.07202800211757421,0.09259750094558111
1746483206950628400,6.60062841796875,0.018500117808580397,0.06146543584261089,0.06591804503703023
1746483206960606500,6.6106064453125,0.048262803387641905,0.040884895030781625,0.07861186488675885
1746483206970585300,6.62058544921875,-0.06893266645073891,0.0738068483583629,0.04948687898961361
1746483206980563500,6.6305634765625,-0.17211363946199415,0.15387936951536685,0.030049608195084145
1746483206990541300,6.640541259765625,-0.1348456928193569,0.11467365974318236,0.050739559631561855
1746483207000520200,6.650520263671875,-0.04733107549548149,0.17068422771338373,0.10889405342843383
1746483207010498300,6.660498291015625,0.010881459498405455,0.18366770099233834,0.0576052395833889
1746483207020477200,6.670477294921875,0.002819733595848083,0.12151154293920845,-0.019932548064761794
1746483207030455300,6.680455322265625,0.004782558101415634,0.13803458852116018,0.06925216246237978
1746483207040433400,6.690433349609375,0.055817748811841005,-0.2825029729494825,-0.136679255788913
1746483207050412500,6.70041259765625,0.053901101535558694,-0.1544798196265474,-0.1960786168140359
1746483207060390100,6.71039013671875,-0.13559212727248668,0.031863091924414035,0.04271541665988043
1746483207070369000,6.720369140625,-0.07250058806538581,-0.04226546266898513,0.09764996202955953
1746483207080348000,6.730347900390625,0.04859948799610138,-0.19697496286556124,-0.06860535245882347
1746483207090326000,6.740325927734375,0.030282910060882566,-0.018577457361109554,-0.04626604007985442
1746483207100304100,6.75030419921875,-0.0906178440362215,0.009072400782443582,0.15785309545192866
1746483207110283300,6.760283203125,-0.03542670269012451,-0.19871424428094178,-0.022654392510396425
1746483207120261000,6.77026123046875,0.05424421588480472,-0.13187712533734738,-0.054918818077584725
1746483207130240300,6.780240234375,-0.0004804769933223724,-0.02251501600574702,0.023758421929273753
1746483207140218000,6.790218017578125,-0.008224222987890243,-0.14994761955700814,-0.09116042648032308
1746483207150196000,6.800196044921875,0.024159458744525908,-0.17020013399086892,-0.10729730402259155
1746483207160175000,6.810175048828125,0.012545008796453476,-0.08949278552904724,-0.0361224253027467
1746483207170153200,6.8201533203125,-0.023025486278533933,-0.07387680832203478,0.056654765891563146
1746483207180131000,6.830131103515625,-0.015334931775927542,-0.10204480858817697,0.09074101375816389
1746483207190110000,6.84010986328125,0.011706804406642913,-0.059695430495403705,0.0480332689480856
1746483207200088000,6.850088134765625,-0.028737434184551238,-0.023724136067181826,0.11686897783037274
1746483207210067000,6.86006689453125,-0.015491583642363548,-0.023330570172332227,0.1499943265092559
1746483207220045000,6.870045166015625,0.02917699464559555,-0.07994710467904806,0.13726851778579874
1746483207230023200,6.880023193359375,-0.003347556862235069,-0.052140265875495966,0.1424060450710356
1746483207240002000,6.890001953125,-0.03482464514374733,-0.051370998536050316,0.14949372004335745
1746483207249980000,6.89997998046875,-0.04881459205150604,-0.054108278012834486,0.11290677793482318
1746483207259958000,6.9099580078125,-0.060131520357728,-0.07468498289976269,0.08442545566949992
1746483207269937200,6.919937255859375,-0.03747369834780693,-0.09332673766873777,0.060532758102379736
1746483207279915000,6.9299150390625,-0.053873629006743425,-0.07884535398222506,0.05957436139900237
1746483207289893000,6.93989306640625,-0.08661503813564776,-0.05686320274416357,0.07610008299523033
1746483207299872300,6.949872314453125,-0.053986441731452936,-0.05480871789976954,0.03873824752406217
1746483207309849900,6.959849853515625,0.0061859951585531234,-0.05210420818142593,0.022903786994470283
1746483207319829000,6.9698291015625,0.026872809356451033,-0.07575615579523146,-0.015153460562066174
1746483207329807000,6.97980712890625,0.011363105535507201,-0.03359006184749305,0.026049619872681794
1746483207339785200,6.98978515625,-0.002647299638390541,-0.042187867388129234,0.04321575826429762
1746483207349764000,6.99976416015625,0.046530280506610865,-0.026019845788925886,0.043163091928721406
1746483207359742200,7.0097421875,0.03377718191742897,-0.04441120599340647,-0.005294444013154134
1746483207369720000,7.019719970703125,0.024759178203344345,0.02859042692929506,-0.036626328837429174
1746483207379699000,7.029698974609375,-0.011638999867439269,-0.04296816757824272,-0.05962500930742826
1746483207389677000,7.039677001953125,-0.0320025734603405,-0.08704930136706679,-0.04992340267677791
1746483207399656000,7.049656005859375,0.012735562932491302,-0.03512644110191613,0.004172308115428313
1746483207409634000,7.059634033203125,0.0031868133425712584,-0.04289875560384244,0.025757952582882715
1746483207419612200,7.069612060546875,-0.008612345522642135,-0.0332028891608119,0.0021860022695735096
1746483207429591300,7.07959130859375,0.025234394499659536,-0.0153542209982872,0.0019338450062554328
1746483207439569000,7.08956884765625,0.03167874833345413,0.014143822295218706,0.02578415560321882
1746483207449547000,7.099547119140625,0.007740823385119438,0.06502100943233817,0.06696306057793554
1746483207459526100,7.109526123046875,-0.03419277698099613,-0.009188245714455843,0.07493690270106308
1746483207469504000,7.11950390625,-0.005056698867678642,0.011004574421420693,0.07389288267400115
1746483207479482000,7.129482177734375,0.0009036708414554595,0.0015973521940410135,0.017786192818987183
1746483207489461200,7.139461181640625,0.007644377273321151,0.048987427867762744,0.04904857433731667
1746483207499439000,7.149439208984375,0.0009130231916904449,-0.015277210239320993,-0.006448778847162611
1746483207509418000,7.15941796875,-0.0009019172757863998,-0.02614573719091713,-0.07215275187524967
1746483207519396000,7.16939599609375,-0.04312017980217933,-0.0008282309850677847,0.02140406822231598
1746483207529374200,7.179374267578125,-0.015286416459083556,0.07865472678095102,0.036590230044163764
1746483207539353000,7.18935302734375,-0.02456803954541683,-0.024655900491960345,-0.06391924503578339
1746483207549331200,7.199331298828125,0.02556055771410465,0.0460032609578222,-0.0036579927845858035
1746483207559309000,7.20930908203125,0.005464695146679878,-0.018828655643202363,-0.0014142552786739543
1746483207569288000,7.219287841796875,0.023511223968863487,-0.016216281187720595,0.03575875678923912
1746483207579266000,7.22926611328125,0.012228782454133034,-0.043914545050263404,-0.04632579374334309
1746483207589245200,7.2392451171875,-0.06366203257143498,0.05095664558149874,0.09303972828774712
1746483207599223000,7.24922314453125,-0.0517354479342699,-0.002725954365171492,0.0808057125360705
1746483207609201200,7.259201171875,0.011975099954009055,-0.008515095693245529,0.056125919711869206
1746483207619180300,7.26918017578125,-0.0661924278318882,-0.0032274010812863704,0.02764332337148953
1746483207629158100,7.279158203125,-0.07571312037110328,0.030778073166683316,0.038166333954199216
1746483207639136000,7.289135986328125,-0.08259995727539061,0.008814918890036641,0.02618946673478931
1746483207649115100,7.299115234375,-0.09327449602484703,-0.019968108001910147,0.008144992872374131
1746483207659093200,7.30909326171875,-0.003818681505322456,0.13912680420465767,0.07047714681322687
1746483207669071000,7.319071044921875,-0.02733575069308281,-0.11335238454416394,0.0036582941786851733
1746483207679050000,7.329050048828125,0.011288286733627318,-0.03168130561672151,0.15775171743668615
1746483207689028000,7.339028076171875,-0.012203063490986822,0.029752091119810937,0.05458077262910083
1746483207699007000,7.349007080078125,-0.0005780921489000321,0.033303244262747465,0.04783091477639973
1746483207708985000,7.358985107421875,0.0592646743953228,-0.003136106068640947,0.05960293903951533
1746483207718963200,7.368963134765625,0.08263853572010993,0.038043461059778926,0.006942384750116616
1746483207728942000,7.378942138671875,0.038515900877118106,-0.029552111568301915,-0.005298005943419412
1746483207738920000,7.388919921875,-0.041376551005244254,-0.10530121656823903,-0.030936533397715536
1746483207748898000,7.39889794921875,-0.08669920928776263,-0.11715992360096424,-0.02276903643258847
1746483207758877000,7.408876953125,-0.051956981730461115,-0.15845142667125908,-0.016586009549256413
1746483207768855000,7.41885498046875,0.030681553989648818,-0.18983477225471287,0.005762627780484035
1746483207778834200,7.428834228515625,0.08806172981262206,-0.21231332870759068,-0.011111989451805129
1746483207788812300,7.438812255859375,0.056713820868730544,-0.22323194187860934,-0.04005077316104434
1746483207798790000,7.448789794921875,-0.02729892581403255,-0.053673576389998194,0.09635007667844184
1746483207808769000,7.45876904296875,-0.12272037073969841,-0.03939374315757304,0.0372963142205961
1746483207818747100,7.4687470703125,-0.13418109143078327,-0.05236201886739582,0.05361512420102953
1746483207828725000,7.47872509765625,-0.08949614652991295,0.03338357948996126,0.04979090800406411
1746483207838704000,7.4887041015625,-0.058149406629800796,0.039240598422475154,0.09234918874031864
1746483207848682200,7.49868212890625,0.015963877329230308,0.04568272376656532,0.06961778090437874
1746483207858660000,7.50866015625,0.0555173045605421,0.016347542884573338,0.07454467024677433
1746483207868639000,7.518638916015625,0.03372808207869529,0.017283252832107247,0.06412300114668905
1746483207878617000,7.5286171875,-0.011848843225836753,-0.01810425035879016,0.03158246661843732
1746483207888596000,7.538595947265625,-0.04441898744106292,-0.007716565726697444,0.015972654290730134
1746483207898574000,7.548573974609375,-0.036140403917431826,-0.0331732246749103,-0.0023935258067212997
1746483207908552200,7.55855224609375,0.003297287979722023,0.05721767873764038,0.050505668677296486
1746483207918531000,7.568531005859375,-0.05322071805596351,-0.06523790358603,0.007412669142987579
1746483207928509000,7.578509033203125,-0.0037900399327278136,0.041343635116331275,0.02233485539956018
1746483207938487000,7.588487060546875,0.0013216039925813673,0.0909067805128172,0.0061016322101932014
1746483207948466200,7.598466064453125,0.02123451120853424,0.06041483081113547,0.05344347569486126
1746483207958444000,7.608444091796875,0.01107084459066391,0.04703494209311902,0.040258132301410655
1746483207968422100,7.618422119140625,0.019179916766285894,0.013582608215883373,0.06185209707263857
1746483207978401300,7.6284013671875,-0.019814707538485524,-0.005141673737391829,0.08059239857895299
1746483207988379000,7.63837890625,-0.015702011522650716,-0.012152319684438407,0.0646766621072311
1746483207998358000,7.64835791015625,-0.05230360321104526,-0.04225928865652531,0.08039133218205534
1746483208008336100,7.658336181640625,-0.03623042028844356,-0.0735233187092468,0.042156677665421735
1746483208018314200,7.668314208984375,-0.0012877017229795456,-0.13196958939377218,0.031005424782307816
1746483208028293000,7.678293212890625,0.03054769847691059,-0.06172927441056818,0.03551307493248023
1746483208038271200,7.688271240234375,-0.027245734322071075,-0.06680084205381571,0.04777580532198772
1746483208048249000,7.6982490234375,-0.038518238964676856,-0.11767510658148675,-0.024390828948142006
1746483208058228000,7.70822802734375,0.04632978949844837,-0.035844818504340945,0.02450749586406164
1746483208068206300,7.718206298828125,0.055799628633260726,0.040792759767919774,0.1088233080134727
1746483208078184400,7.728184326171875,0.014683774390816688,-0.04097878385931253,0.03101746227997355
1746483208088163300,7.738163330078125,-0.02582593065202236,-0.03397734413202852,-0.022067920692218468
1746483208098141400,7.748141357421875,-0.11915303364694117,-0.027356793481111526,0.031039765443326903
1746483208108120300,7.758120361328125,-0.09097206430137157,-0.059960328509286044,0.008495623807795345
1746483208118098200,7.76809814453125,-0.024170564660429952,-0.08976056961975991,-0.008619889508280902
1746483208128076300,7.778076171875,0.012729717713594435,-0.07255670216679573,0.04730002277009189
1746483208138055400,7.788055419921875,0.009991232660412788,-0.05925228983778506,0.030888182477653025
1746483208148033300,7.798033203125,-0.004852700728178024,-0.07767886748611927,0.0172503826089669
1746483208158011400,7.808011474609375,-0.07747136221528053,-0.03293024623189121,0.03790263695013709
1746483208167990500,7.817990478515625,-0.11494038438796997,0.004868775080144405,0.07253883771654218
1746483208177968400,7.827968505859375,-0.028368016350269316,-0.0804752932716161,0.0195924430899322
1746483208187946200,7.8379462890625,-0.0026817864298820495,-0.02136836672127247,0.040423396732565016
1746483208197925400,7.84792529296875,0.03393091117441654,-0.022094087179936467,0.07899964949479327
1746483208207903500,7.857903564453125,-0.012975801429152488,-0.05565134273637086,0.16041556635107845
1746483208217882400,7.86788232421875,-0.004395020088553428,0.08299060056079179,0.12495334482300094
1746483208227860500,7.877860595703125,0.046996144452691076,0.0308367080187425,0.036666199623513966
1746483208237838300,7.88783837890625,0.00234627086520195,-0.07628069112598895,0.01575930380099453
1746483208247817200,7.897817138671875,0.008290273961424828,-0.066286280127801,-0.037632679168647154
1746483208257795300,7.90779541015625,0.0006119944185018539,-0.07696257244292647,-0.07442792113246395
1746483208267773400,7.9177734375,-0.007027706679701804,-0.1050715359982103,-0.05470822580051608
1746483208277752300,7.92775244140625,-0.06956102748215198,-0.045962527088634665,-0.009615083691244945
1746483208287730400,7.93773046875,-0.09397826038002967,-0.07620572619363665,0.059604783936729654
1746483208297708300,7.947708251953125,-0.010983750829100608,0.14308281182143837,0.16524404595345257
1746483208307687200,7.957687255859375,0.05084697466194629,-0.2335158738752827,0.02997167955408804
1746483208317665300,7.967665283203125,0.1266775839328766,0.02078435628823936,0.1074119981771335
1746483208327644400,7.97764453125,-0.03106441582739353,0.026721089393459258,0.10704406904703936
1746483208337622500,7.98762255859375,-0.06673837127685546,0.07237758274022489,0.06236565435165539
1746483208347600400,7.997600341796875,-0.01936228759586811,0.05196878176610917,0.02623316887919791
1746483208357579500,8.00757958984375,0.0035205753415822982,0.028604966911301016,0.0007215831396635621
1746483208367557400,8.017557373046875,-0.012632102558016776,0.058508156939595934,-0.0525988598305732
1746483208377535200,8.02753515625,-0.025491584131121636,0.03732201491743326,-0.13158465432994998
1746483208387514400,8.037514404296875,-0.04721709372699261,0.011468830932304263,-0.1485166095063556
1746483208397492500,8.047492431640626,-0.0481669417977333,0.01507291983887553,-0.15051354634407907
1746483208407470600,8.057470703125,-0.03475508703887462,0.015722579386644064,-0.07879179716408252
1746483208417449500,8.067449462890625,-0.06296411343514918,-0.0028343101104721423,-0.028098816620605066
1746483208427427300,8.07742724609375,-0.08103519217669963,0.023339593729004262,0.05318405757369473
1746483208437406200,8.08740625,-0.10825637657940387,-0.0033032427964732047,0.08651509402566589
1746483208447384300,8.09738427734375,-0.14954466477930545,-0.03913136589433998,0.029956673781201242
1746483208457362400,8.107362548828124,0.346311099460721,0.058253451526165005,0.36541944882813837
1746483208467341300,8.11734130859375,1.013988826739788,-0.04366981304157525,0.42929348018243907
1746483208477319400,8.1273193359375,0.4109001837491989,-0.17384597967993468,0.1470571679456625
1746483208487297300,8.13729736328125,-0.8778151001870632,-0.09807510123960674,0.055375968994246794
1746483208497276400,8.1472763671875,-1.0129349337726832,0.16871639823913573,-0.12575631350264885
1746483208507254300,8.157254150390624,-0.30728374193012714,0.13876779816653578,-0.36437965745162215
1746483208517232400,8.167232421875,0.21069909844398496,-0.06980638054534792,-0.13623153942087665
1746483208527211500,8.17721142578125,0.2778109792083502,-0.05721862858571112,-0.027464546438213437
1746483208537189400,8.187189453125,0.11910568737387657,0.007162585105746984,-0.05419566403534263
1746483208547168500,8.19716845703125,0.08926409133970736,-0.05255684731975197,-0.04504615202923305
1746483208557146400,8.207146484375,0.05895604683756828,-0.08786105614136903,0.0036258440806530416
1746483208567124500,8.21712451171875,-0.03728255968987942,-0.043738165570050475,0.07140343591186683
1746483208577103400,8.227103271484374,-0.10397533825933933,-0.014472031336277722,0.04105521922954358
1746483208587081500,8.23708154296875,-0.058604749181866644,-0.012159114751406012,0.033844429334206505
1746483208597059600,8.2470595703125,-0.03436637998223305,-0.06784264272432775,0.11026530524902045
1746483208607038200,8.2570380859375,-0.13070552427470683,-0.053989839264936744,0.12830309364232234
1746483208617016300,8.267016357421875,-0.17842589134871958,-0.08857618214078247,0.14269690864323636
1746483208626994400,8.276994384765626,-0.19380349322259424,-0.06693345545753836,0.21062373165283352
1746483208636973300,8.286973388671875,-0.22771803778409958,0.006235277660377323,0.1916909763143398
1746483208646951400,8.296951416015625,0.012815642431378364,-0.12341291958112269,0.21603881550412624
1746483208656930600,8.3069306640625,0.11148936715126037,-0.03996686687041074,-0.4049526735216379
