time,seconds_elapsed,z,y,x
1746483218550544100,0.021544189453125,-0.8212614383161068,0.09650222589969634,-0.10376432585716247
1746483218560522000,0.03152197265625,-0.807269737842679,0.19799860682487486,0.009548749589920044
1746483218570500000,0.0415,-0.7979355077862739,0.2854606171786785,0.1358744513452053
1746483218580478200,0.051478271484375,-0.748693630233407,0.3152250563234091,0.25350305190384387
1746483218590457000,0.06145703125,-0.6608329759508371,0.2830471262961626,0.3447328903585672
1746483218600435000,0.07143505859375,-0.507993945801258,0.26932489041388036,0.4011082730531692
1746483218610413000,0.0814130859375,-0.2636228793799877,0.21284312473535535,0.3414163131564855
1746483218620392200,0.09139208984375,-0.004472176977992058,0.09832184254229068,0.2816752534210682
1746483218630370000,0.1013701171875,0.20716975527405737,-0.03372866660058498,0.3035381256610155
1746483218640348200,0.11134814453125,0.39628012224435805,-0.09976385804414749,0.3652379182487726
1746483218650327300,0.121327392578125,0.533221910560131,-0.12263970671892166,0.41883039222657675
1746483218660305000,0.131304931640625,0.679399144732952,-0.11743863094449043,0.4425146346747875
1746483218670283000,0.141282958984375,0.8020283300578593,-0.09131167151927948,0.44508302385807036
1746483218680262100,0.15126220703125,0.8751508494138717,0.014404957449436187,0.4605395361870527
1746483218690240300,0.161240234375,0.9040472735524177,0.11558043585717677,0.58615270575881
1746483218700218000,0.171218017578125,0.9454653256118297,0.13909808956682682,0.7548924848735332
1746483218710197200,0.181197265625,1.0408774181872607,0.14130816683173178,0.9360796576291323
1746483218720175000,0.191175048828125,1.165474104192853,0.12231295898258686,1.1262485937416553
1746483218730153000,0.201153076171875,1.2937544471472502,0.06568798544108867,1.2897042949736117
1746483218740131000,0.211131103515625,1.38070090919435,0.0026689269483089447,1.3760662351310253
1746483218750110200,0.221110107421875,1.3817334671124815,-0.09296586846709251,1.3140747661203145
1746483218760088300,0.23108837890625,1.2522966475993393,-0.22707389466166494,1.1373153466790913
1746483218770066000,0.24106591796875,1.0333110745862126,-0.2926058127582073,0.9839093302965164
1746483218780045000,0.251045166015625,0.8317588669329882,-0.27615035251975056,0.8723743704378605
1746483218790023200,0.261023193359375,0.6548609158039093,-0.21790683786571025,0.6929068610817194
1746483218800001000,0.2710009765625,0.5678565860897302,-0.16075111844837664,0.46243280258774755
1746483218809980200,0.280980224609375,0.48117666602432724,-0.14052490749955177,0.23451602736115454
1746483218819958300,0.290958251953125,0.325699104064703,-0.13548808237612248,0.03471358598470688
1746483218829936000,0.30093603515625,0.10872048695981502,-0.13357611127495764,-0.11293138265311717
1746483218839915000,0.3109150390625,-0.12453414216339588,-0.08322948735058307,-0.2693663914680481
1746483218849893000,0.32089306640625,-0.312151640227437,0.01624210974872112,-0.39576574298143385
1746483218859871200,0.330871337890625,-0.3968319109082222,0.18786708891093729,-0.5457575670063496
1746483218869849000,0.34084912109375,-0.4315039958387613,0.3792161747187376,-0.7150707620948553
1746483218879828200,0.350828125,-0.5267030301854014,0.5460591803014279,-0.8861492132902145
1746483218889806000,0.36080615234375,-0.6986234851628541,0.6074339787185192,-0.9786796129494905
1746483218899784200,0.3707841796875,-0.8943789892360567,0.5778688615381717,-1.0003554381847382
1746483218909763000,0.38076318359375,-1.1113576063409447,0.5420768326669931,-1.0287509270638227
1746483218919741200,0.3907412109375,-1.3870783352717757,0.4592459892451763,-1.049983684706688
1746483218929719300,0.40071923828125,-1.6810262102887032,0.3029325609833002,-1.1082955884218215
1746483218939698200,0.4106982421875,-1.896293347300589,0.25483693085610865,-1.2043453943789004
1746483218949676000,0.420676025390625,-2.057076906713843,0.2980173164129257,-1.2365572266757487
1746483218959654100,0.430654052734375,-2.117097367912531,0.34832243928313256,-1.1725626011490822
1746483218969633000,0.440633056640625,-2.084954216937721,0.30952129172384735,-0.9945049585908651
1746483218979611100,0.450611083984375,-2.0590933611027897,0.25621698703765866,-0.8326789043873548
1746483218989589200,0.46058935546875,-2.0198614209108054,0.22492460767328737,-0.7292021632999182
1746483218999568100,0.470568115234375,-1.97971762657091,0.19101006311178206,-0.6597387509733438
1746483219009546000,0.4805458984375,-1.9344049051605163,0.13567279129326343,-0.5353250203192234
1746483219019524000,0.490524169921875,-1.9850215781979261,-0.029653964507579803,-0.49871875245571134
1746483219029502200,0.500502197265625,-2.0783856522023676,-0.1745335600852966,-0.5636316618710756
1746483219039481000,0.510481201171875,-2.0802428243763744,-0.21496961537003517,-0.5314426259279251
1746483219049459200,0.520459228515625,-1.9636403519950807,-0.28080139319598674,-0.3836176245480776
1746483219059437000,0.53043701171875,-1.7372833734311162,-0.353178062620759,-0.1498743351250887
1746483219069416000,0.540416015625,-1.3825797086782752,-0.402265041872859,0.1298135438710451
1746483219079394300,0.550394287109375,-0.9978571916282176,-0.49193654496967787,0.3945008376121521
1746483219089372200,0.5603720703125,-0.6712292822808027,-0.6643687488615513,0.6256640474140643
1746483219099351000,0.57035107421875,-0.4065998562067747,-0.8479279114454984,0.8498638479441404
1746483219109329200,0.5803291015625,-0.21457389405071733,-1.0550251860052346,0.9560153611987828
1746483219119307300,0.590307373046875,-0.04625380165278911,-1.2490502130240202,1.0366641844063997
1746483219129286400,0.600286376953125,0.05646130741238594,-1.4314011688619852,1.1619307324975727
1746483219139264300,0.61026416015625,0.11530220343768596,-1.635519135349989,1.3997867179363965
1746483219149242000,0.6202421875,0.1474813025087118,-1.8121248255342244,1.5954291170239447
1746483219159221200,0.63022119140625,0.21179449246525764,-1.9141496142476795,1.6923440153777598
1746483219169199000,0.64019921875,0.2534844933338463,-2.005931825888157,1.7219968108415602
1746483219179177200,0.65017724609375,0.2532996382862329,-2.1257699191898105,1.7361849106699228
1746483219189155300,0.6601552734375,0.18656776981540024,-2.291461416649818,1.7711317208886146
1746483219199134500,0.670134521484375,0.04389642487168312,-2.4442630373984575,1.835512715384364
1746483219209112000,0.680112060546875,-0.21951536904089153,-2.57568577003181,1.937806384167075
1746483219219090200,0.690090087890625,-0.5340233631361275,-2.582098559683561,2.2210013945013283
1746483219229069300,0.7000693359375,-0.8076865019500256,-2.4645786801964045,2.6359575756430624
1746483219239047200,0.710047119140625,-1.105301082780957,-2.159286988866329,2.9994676471859214
1746483219249025300,0.720025390625,-1.3895651836514473,-1.7186147671878338,3.2141292195200917
1746483219259004400,0.73000439453125,-1.572078636574745,-0.8799614645659923,3.341217722341418
1746483219268982300,0.739982177734375,-1.7290519900500774,0.11521394063234329,3.4075814150869843
1746483219278960000,0.749960205078125,-1.968677907770872,0.8277017004966736,3.544930615159869
1746483219288939300,0.759939208984375,-2.237594217383861,1.2087673024743795,3.908158947151899
1746483219298917400,0.76991748046875,-2.4914661026000977,1.3005658807277678,4.333400959986448
1746483219308895200,0.779895263671875,-2.6747008555352685,1.2141986798733473,4.389114079380035
1746483219318873000,0.789873046875,-2.911151650351286,1.3369541219264267,3.974302859666943
1746483219328852200,0.799852294921875,-3.2368414020657537,2.0335159983843565,3.1947201701730488
1746483219338830300,0.809830322265625,-3.2244936694070696,2.8836674310982224,2.555845343530178
1746483219348808200,0.81980810546875,-2.806496220873296,3.3158553175479173,2.0319939033836123
1746483219358787300,0.829787353515625,-2.1947500780440867,3.39446065222919,1.3673375697523356
1746483219368765400,0.839765380859375,-1.5157774881601334,3.067063512074947,0.6223211667269468
1746483219378743300,0.849743408203125,-0.7883974257208406,3.1020693590044974,-0.3060591685712337
1746483219388722200,0.85972216796875,-0.12235102597065269,2.9340339287668464,-1.3127818037003278
1746483219398700300,0.8697001953125,0.4093279659964144,2.30009305139482,-1.8043401630073785
1746483219408678400,0.879678466796875,0.9372445366900414,2.3486259038954973,-1.421831961005926
1746483219418657300,0.8896572265625,1.4471464350044727,3.0947353628545997,-0.45152679316997524
1746483219428635400,0.899635498046875,1.814841098755598,3.559747660541534,0.6824842512667179
1746483219438613200,0.90961328125,2.2713059328496454,3.3111160140663385,1.8146727564513683
1746483219448591400,0.91959130859375,2.78842601891458,2.500309334269166,2.9682477485358714
1746483219458570200,0.9295703125,3.3103561356097457,1.4744891999602316,3.8871997457534073
1746483219468548400,0.93954833984375,3.7429397433787583,0.37594051404893397,4.65828056436181
1746483219478526500,0.9495263671875,3.9926691219627855,-0.5347562805205583,5.185322909504175
1746483219488505000,0.959505126953125,3.9059839412003754,-0.9704460376113653,5.2338861571431154
1746483219498483200,0.969483154296875,3.926977044868469,-0.870620220246911,4.712129058927298
1746483219508461300,0.97946142578125,4.336077485719323,-0.0030775077491998672,3.647804714179039
1746483219518440200,0.989440185546875,4.892333650386333,1.352311850056052,2.662480256387591
1746483219528418300,0.999418212890625,5.3766152966886755,2.7770500538975,2.793958518600464
1746483219538396400,1.009396484375,4.982132579255103,4.321904583460093,4.370690533939004
1746483219548375000,1.019375,3.144265409699082,6.241082839524745,5.738046808391809
1746483219558353200,1.029353271484375,0.43574470214843747,8.760298534315824,6.038687459045648
1746483219568331300,1.039331298828125,-2.5151485914826393,11.543429369431733,5.753664648762345
1746483219578309400,1.049309326171875,-5.722152489167452,13.815288259989023,5.519768214604258
1746483219588288300,1.059288330078125,-8.615698340201376,15.026349810880422,5.359837180367112
1746483219598266000,1.06926611328125,-10.695567508959769,16.22885513035059,4.5604988200455905
1746483219608244200,1.079244140625,-11.602346837824582,15.884444311553239,4.493230287414789
1746483219618223000,1.08922314453125,-11.35064937403798,15.373576856142282,5.981974222698807
1746483219628201200,1.099201171875,-9.944590151703357,14.564379949629306,7.568788071590662
1746483219638179300,1.109179443359375,-7.641084661516547,13.571689931505917,8.248693412280081
1746483219648158200,1.119158203125,-5.674742503216862,13.360394620734452,8.499992816659807
1746483219658136000,1.129135986328125,-4.895894849999249,13.16520873324275,8.200698904439806
1746483219668114200,1.1391142578125,-3.901530468922853,13.127634497129916,7.798031711506843
1746483219678093300,1.14909326171875,-2.59511820025444,13.288413088107108,7.222606151467561
1746483219688071200,1.1590712890625,-1.0516250221729277,13.270671679711342,6.061793609344959
1746483219698049300,1.16904931640625,1.1723409942876546,13.409583306795358,4.123238452637195
1746483219708027100,1.179027099609375,2.906962381967902,12.656887455183266,2.6320219897598025
1746483219718006000,1.189006103515625,4.531314811137318,10.977135210353135,2.620029354149103
1746483219727984000,1.198984130859375,6.737804280683398,8.75691006092131,3.20704539873898
1746483219737962200,1.208962158203125,7.880808778914809,6.914769451829791,4.289494598242641
1746483219747941400,1.21894140625,7.1392813870489595,5.825526938924193,4.777668575808406
1746483219757919200,1.228919189453125,5.620923819267749,4.789376549258828,4.627146590429544
1746483219767897000,1.23889697265625,3.9402608893334863,3.213058375418186,4.497862623390555
1746483219777876200,1.248876220703125,2.564893742382526,1.6512421896606684,3.322670258259773
1746483219787854000,1.25885400390625,2.364613746622205,0.3480190724223852,0.3314394012823701
1746483219797832200,1.268832275390625,2.4538749153524635,-0.3355354384243488,-2.8849896196126936
1746483219807811300,1.278811279296875,2.225032257452607,-2.4917343981474636,-2.7873908306479454
1746483219817789400,1.28878955078125,0.9966361254006624,-16.681086856919524,3.9841272113278507
1746483219827767000,1.29876708984375,2.059074802532792,-44.9514868825674,17.84346591770649
1746483219837745200,1.3087451171875,-0.6200140588283538,-61.451613945746416,32.10865015479326
1746483219847724300,1.318724365234375,-32.81140913232565,-37.20555243804455,37.869241972470284
1746483219857702100,1.3287021484375,-54.152787308907506,-6.7021782560288905,45.18020328373909
1746483219867680300,1.33868017578125,-82.91789977397919,12.612760728687046,46.62097959918975
1746483219877659400,1.348659423828125,-86.51305543251037,16.379911953258514,36.28467327215672
1746483219887637200,1.35863720703125,-50.83603708834648,-0.09098346247822046,10.44873209825158
1746483219897615000,1.368614990234375,-47.18949961762428,3.5879259995386,-3.807144796785712
1746483219907594200,1.37859423828125,-35.17901972267627,9.37574221648872,-8.372537234091759
1746483219917572400,1.388572265625,-13.440119899356365,8.603847743409872,-14.48708511302471
1746483219927550200,1.39855029296875,2.79282746874392,11.70651214569807,-17.58340628376603
1746483219937529300,1.408529296875,13.081667695724963,15.075392366468906,-13.930087190079687
1746483219947507200,1.418507080078125,17.095542102801797,14.9216140096426,-10.293949532818793
1746483219957485300,1.4284853515625,15.916702905601262,13.715967469537258,-6.1203720550417895
1746483219967463200,1.438463134765625,12.426053915727138,13.07091483104229,-1.579645272436738
1746483219977442300,1.4484423828125,8.66326965419352,12.4983744710505,1.7354244476914404
1746483219987420400,1.45842041015625,5.9202048720061775,12.297690570664406,3.4950898949310183
1746483219997398000,1.46839794921875,3.956459159940481,12.520631895565986,3.673836688797176
1746483220007377200,1.478377197265625,2.741569575193524,12.819627701622247,2.8709838906139136
1746483220017355300,1.488355224609375,2.84797593999207,13.2455325622797,2.1350614791482685
1746483220027333400,1.49833349609375,3.7983711232215165,13.84526371153593,1.6314540778681634
1746483220037312300,1.508312255859375,4.3393724356114864,14.060208776986599,1.4583261467970907
1746483220047290400,1.518290283203125,4.360187844625115,13.949923524928092,1.7342852145284413
1746483220057268200,1.528268310546875,4.3455344653725625,14.083603681099413,2.0092386123485864
1746483220067246000,1.53824609375,4.169453091323375,14.081605785280466,2.555914317113161
1746483220077225200,1.54822509765625,3.681094404840469,13.526169704824685,3.5471260793775317
1746483220087203000,1.558203125,3.0446020894199606,12.82456574254632,4.586521150052548
1746483220097181200,1.56818115234375,2.6237358074516055,12.120809570670128,5.59526038570106
1746483220107160000,1.57816015625,2.461037062066793,11.32808098387718,6.634095484405756
1746483220117138000,1.588137939453125,2.6168168218433854,10.55930961125493,7.7135478401809925
1746483220127116000,1.598115966796875,3.195694568163156,9.050332450759411,8.451905954360962
1746483220137095000,1.608094970703125,4.713632449227571,6.66907444332838,8.598473649156093
1746483220147073000,1.618072998046875,7.352731245505809,4.802085224184394,7.983122905963659
1746483220157051100,1.628051025390625,10.07244963889718,3.213612502169609,7.274546766585111
1746483220167030000,1.638030029296875,11.764660383284092,0.8595511292219161,7.034590009474754
1746483220177007900,1.6480078125,11.566369515514372,-0.6811041950851678,6.595344021207094
1746483220186986000,1.657986083984375,10.33610291341543,-0.9382973336786031,6.623226299867033
1746483220196964000,1.667964111328125,9.139669607335328,-0.1908463969826698,6.994000809454917
1746483220206943000,1.67794287109375,8.317290563166141,1.0905126789718866,7.609841381990909
1746483220216921000,1.687921142578125,7.601269953000545,1.961227591764927,8.049580706733465
1746483220226899000,1.69789892578125,6.609028847688436,2.5904659905344247,7.770591915917396
1746483220236877800,1.7078779296875,5.617488584122062,2.9239912581801413,7.171783142203092
1746483220246856000,1.71785595703125,4.909212304472923,3.0217572204053402,6.420350442394614
1746483220256834000,1.727833984375,4.360072109290957,3.1244787592113017,5.400891075289249
1746483220266813000,1.73781298828125,4.187630553048849,2.9306103840589524,4.248471390719711
1746483220276791000,1.747791015625,4.480223798586428,2.230322180554271,2.7796584828302264
1746483220286769000,1.757768798828125,5.2479637823343275,1.6730805119812489,1.342127432911098
1746483220296748000,1.767748046875,6.4571420036971565,1.7005372587054968,0.6292334303334355
1746483220306726000,1.777725830078125,7.774448591345548,2.361241055318713,0.6796040196552873
1746483220316704000,1.7877041015625,8.68410259886384,3.4914556300818917,1.2652806323349475
1746483220326682000,1.79768212890625,9.223310598096251,4.889118779993057,1.6578443644046783
1746483220336661000,1.807660888671875,9.433467260226607,6.431737513327598,1.8395473777279256
1746483220346638800,1.817638916015625,9.475793074780702,7.813504005926847,2.059119518457353
1746483220356617000,1.827616943359375,9.251314457309245,8.944894054210186,2.1956050874382256
1746483220366596000,1.83759619140625,8.76366245779097,9.884227745199203,2.196512265411019
1746483220376574000,1.847573974609375,7.888502840548753,10.557877532625199,2.077471459966898
1746483220386552000,1.857552001953125,5.719961701124906,11.522048727750777,1.5969088341876863
1746483220396531200,1.86753125,1.3417173908054827,11.80530335931778,1.1308812219783664
1746483220406508800,1.8775087890625,-6.313076647111773,9.109170424175263,-1.2857917977049946
1746483220416487000,1.88748681640625,-20.74131268080473,4.734871636611223,-7.075595389080047
1746483220426465000,1.897465087890625,-42.1524921233654,7.451212662523984,-14.198501979911326
1746483220436444200,1.907444091796875,-63.256163952112196,8.407140345439315,-17.485075673395393
1746483220446422000,1.917422119140625,-64.60546492991448,5.556302586275339,-10.92414362487793
1746483220456400000,1.92739990234375,-49.544580396747584,5.63645865752995,-8.350542259904742
1746483220466379000,1.93737890625,-33.16202172837257,6.885292012932896,-4.639048332886397
1746483220476356900,1.94735693359375,-17.274214077866077,9.110749217799306,-0.16798004678860307
1746483220486335000,1.9573349609375,-4.864384151709079,9.387057391229272,2.006840611296147
1746483220496314000,1.967314208984375,1.145792667645216,8.658035260671376,3.3115967833206055
1746483220506292200,1.977292236328125,3.7356969326436515,8.65730051665604,3.359755834072828
1746483220516269800,1.987269775390625,5.731505423924326,8.025869576278328,3.8136888116016983
1746483220526249000,1.9972490234375,8.172591000330447,6.9073501154839985,5.014131645584106
1746483220536227000,2.00722705078125,10.444634599804878,5.820224740862846,5.2913212780237195
1746483220546205000,2.017204833984375,11.758499522566794,4.366339937514066,5.11940403791666
1746483220556183000,2.02718310546875,12.377198407143354,3.2199779455482958,5.022879015663266
1746483220566162200,2.037162109375,12.813666747391224,2.38668587769866,4.890245445935427
1746483220576140000,2.04714013671875,13.25377432092428,1.594829982087016,4.860585928469896
1746483220586118000,2.057117919921875,13.409949217498301,0.8687117562770843,4.753326453973353
1746483220596097000,2.067096923828125,13.16270814859867,0.18893267231583594,4.483150791949034
1746483220606075100,2.0770751953125,12.745809601217507,-0.3380991514325142,4.161964489133656
1746483220616053000,2.087052978515625,12.220896084797381,-0.6868178965568542,3.849838567869365
1746483220626031900,2.097031982421875,11.594463975620268,-0.7075532260715961,3.5989059509754178
1746483220636010000,2.107010009765625,10.923352182239293,-0.39347207908630366,3.424977371045947
1746483220645988000,2.116988037109375,10.202621494686603,0.01156535010933876,3.064709934686124
1746483220655967000,2.126967041015625,9.554199087497592,0.48417350975275036,2.408786358086765
1746483220665945000,2.136945068359375,8.730758551576733,0.942855727635324,1.0697677048459648
1746483220675923200,2.146923095703125,7.166883679723739,1.0013432801783084,-1.0918848441079259
1746483220685900800,2.15690087890625,4.258296326902508,0.9243664234817027,-2.601217393912375
1746483220695880000,2.1668798828125,1.1076853475689887,2.6929823621571063,-4.950570150777697
1746483220705858000,2.176858154296875,-1.9497277081072328,4.224110856445133,-8.218401734390854
1746483220715836200,2.186836181640625,-9.27460297843814,3.708605512100458,-10.030001659268141
1746483220725815000,2.19681494140625,-18.210732711434364,3.5218446308657523,-11.778831531977653
1746483220735793000,2.20679296875,-23.36300792233944,2.51689017445296,-11.362780541336535
1746483220745771000,2.21677099609375,-20.599000305366516,0.8342189003709704,-7.392461198347807
1746483220755750000,2.22675,-14.3935195250988,1.044703040890023,-4.294934743469954
1746483220765728000,2.23672802734375,-9.398655474564432,1.8987809263326227,-3.3056711926639077
1746483220775706000,2.2467060546875,-5.901761452820897,1.7067819983139634,-1.854120092959702
1746483220785685000,2.25668505859375,-2.8003075953662395,1.6862134036682546,-0.21028788729459047
1746483220795662800,2.266662841796875,0.06267126796841621,2.008165868550539,0.40413288157135246
1746483220805641000,2.276640869140625,2.224533075758815,1.9456034677840768,0.8067322699651122
1746483220815619000,2.286619140625,3.7254286366075275,1.5366390744030474,1.2940423241779206
1746483220825598000,2.296597900390625,4.702330133968592,0.9941242887102066,1.7987679158329963
1746483220835576000,2.306576171875,5.148458867487311,0.39375060376673937,2.278623562386632
1746483220845554000,2.316553955078125,5.2874704478144645,-0.06636223144084215,2.5539158367723225
1746483220855532800,2.32653271484375,5.168513813522458,-0.25426585296988485,2.5344915898561475
1746483220865511000,2.336510986328125,4.741299039310217,-0.37254751060977576,2.3633768983036276
1746483220875489000,2.346489013671875,4.038067183569074,-0.44751025100499386,1.9771745179593563
1746483220885468000,2.356468017578125,3.2201036177545785,-0.41356633421853184,1.4954919482395053
1746483220895446000,2.366446044921875,2.318070606634021,-0.2804761067643761,1.0497899157002568
1746483220905424000,2.376423828125,1.2284522461533545,-0.12214637024402618,0.5553314510375261
1746483220915402000,2.386402099609375,-0.08960369855761527,0.023349676731601356,0.06822831757366657
1746483220925380900,2.396380859375,-1.5321616367280482,0.1692881337124854,-0.2329994853183627
1746483220935359000,2.40635888671875,-2.880250316131115,0.4010440487105399,-0.39718291630297897
1746483220945337000,2.416337158203125,-3.9011154583811756,0.4741721210245043,-0.3497244150355458
1746483220955316000,2.42631591796875,-4.379813751593232,0.5167217343971133,-0.17090864758640525
1746483220965293800,2.4362939453125,-4.419679313513637,0.6054118983063846,-0.18039689916074275
1746483220975272000,2.44627197265625,-3.9794817236095663,0.5228907784208655,-0.09853548529297113
1746483220985251000,2.4562509765625,-3.1058348490178584,0.41496962514519686,0.09219722218215465
1746483220995229000,2.46622900390625,-2.009061356085539,0.2798993297897279,0.4264057959169149
1746483221005207000,2.47620703125,-1.0133440990954636,0.3382408979907632,0.6393665556825697
1746483221015185000,2.486184814453125,-0.16656828029453755,0.40323564047068355,0.9593367607064545
1746483221025163800,2.496163818359375,0.600296966445446,0.5172521880120039,1.3207163960918784
1746483221035142000,2.506141845703125,0.8893564848989248,0.6775453335598111,1.578133844960481
1746483221045120000,2.5161201171875,0.884825855731964,0.7155171906881034,1.7744528281353413
1746483221055099100,2.52609912109375,0.7099263849437236,0.6517692333988845,1.7969366087526082
1746483221065077000,2.536076904296875,0.3721744395136833,0.6433014109134674,1.6412191005572676
1746483221075054800,2.546054931640625,0.10186462971568107,0.701704792304337,1.2898179844811557
1746483221085034200,2.5560341796875,-0.7807219226568937,1.371976627729833,0.046263154003024096
1746483221095012000,2.56601220703125,-1.2128811675339937,0.3483855676472187,0.11921557748913764
1746483221104990000,2.575989990234375,0.37722178603112694,-0.3612263445198536,0.5764937737926841
1746483221114968000,2.585968017578125,0.9154255766570567,0.42044513394683597,-0.6133432027623057
1746483221124947000,2.595947021484375,0.34836043320596216,-0.12653817546218632,-1.101057599992305
1746483221134925000,2.605925048828125,0.3998807770848274,-0.6200470843151211,-1.1257032348185776
1746483221144903200,2.615903076171875,0.9166402131438255,-0.8706541225165129,-0.8212184759572148
1746483221154882300,2.62588232421875,1.3051988012254236,-0.8736571037247777,-0.47763095624148844
1746483221164860000,2.63585986328125,1.5394956328779459,-0.6337032692238688,-0.1738468929953873
1746483221174838000,2.645838134765625,1.657721614807844,-0.2849889080137014,0.1158034309580922
1746483221184817200,2.655817138671875,1.5652847386509179,0.001993219643831253,0.3127947604365647
1746483221194795000,2.665794921875,1.4936322918474674,0.25578560988307,0.40224999043419957
1746483221204773000,2.675773193359375,1.6463035642147064,0.314904446066916,0.39920726173743604
1746483221214751000,2.6857509765625,1.8697651135981082,0.141857909668982,0.355073813239485
1746483221224730000,2.695730224609375,1.8904700479745864,-0.1580626100167632,0.15912760889977215
1746483221234708000,2.7057080078125,1.7194266680926082,-0.5053264801576733,-0.18584230508506297
1746483221244686000,2.71568603515625,1.422276197642088,-0.8125409562438726,-0.40722617141157386
1746483221254665200,2.725665283203125,1.022226493731141,-0.9786024560600518,-0.6537069234631955
1746483221264643000,2.73564306640625,0.47858781857490534,-1.023368064981699,-0.8797649190805852
1746483221274621000,2.745620849609375,-0.026088965502381323,-0.9261875014290213,-0.9639387015439569
1746483221284600000,2.75560009765625,-0.3717781336724758,-0.7778560118317603,-0.8983549071297049
1746483221294578200,2.765578125,-0.6399561921387911,-0.6113774556472897,-0.7312459440872072
1746483221304556000,2.77555615234375,-0.8899147033035755,-0.4679977432385087,-0.514914977236092
1746483221314534100,2.7855341796875,-1.0911024615585803,-0.32015169907063246,-0.31320509480312464
1746483221324513000,2.795512939453125,-1.2076818453252314,-0.14899375289827585,-0.14352218961939214
1746483221334491100,2.8054912109375,-1.2934125018417835,-0.05116787717938423,0.011910948676615954
1746483221344469000,2.815468994140625,-1.2175871532678604,-0.014214987835288047,0.12528218405172228
1746483221354448100,2.8254482421875,-1.033103277054429,0.021318390099704265,0.24133184485584497
1746483221364426200,2.83542626953125,-0.8761924674212932,-0.04406155230551958,0.4090273756146431
1746483221374404000,2.845404052734375,-0.7236778469204902,-0.0396904976144433,0.5105018369689583
1746483221384382000,2.8553818359375,-0.5281166963756084,0.01019201592952013,0.6136034611336887
1746483221394361000,2.865361083984375,-0.33542905544042584,0.10436842923015355,0.7136877833038568
1746483221404339200,2.875339111328125,-0.0830932937502861,0.2310389989003539,0.7580990258298814
1746483221414317000,2.885317138671875,0.09685995329618453,0.24277912105470895,0.6845340234033763
1746483221424296200,2.895296142578125,0.16865326987504958,0.09855974295139312,0.54787806629166
1746483221434274000,2.905274169921875,0.21901859849989413,-0.08997603900134563,0.27523747545853255
1746483221444252000,2.915251953125,0.2363824057549238,-0.21641952191740274,0.011115998906642197
1746483221454231000,2.92523095703125,0.19033610937297343,-0.2858192213580012,-0.17897081188037992
1746483221464209200,2.935209228515625,0.13688742778003216,-0.30605390787422654,-0.31588498153686523
1746483221474187000,2.94518701171875,0.08546294549107551,-0.3439902552977204,-0.29538682177886366
1746483221484165000,2.9551650390625,0.030855156990885733,-0.3176914464369416,-0.21038637923300266
1746483221494144000,2.96514404296875,0.03186462629437446,-0.250757552587986,-0.11753186218589544
1746483221504122000,2.9751220703125,0.08577215757071971,-0.24724282246530055,0.0029696634605526923
1746483221514100000,2.985099853515625,0.16290157448053358,-0.2754138549387455,0.07988748344630002
1746483221524079000,2.9950791015625,0.24641104781627654,-0.28260318192094563,0.06860869519338011
1746483221534057200,3.00505712890625,0.30998014140725133,-0.30734540898948903,0.053149990907311435
1746483221544035000,3.01503515625,0.3213105137169361,-0.29952041445225475,-0.004431991098076105
1746483221554013000,3.025012939453125,0.22587971644103524,-0.29850451540797945,-0.06166296770870685
1746483221563992000,3.034991943359375,0.019857377636432645,-0.28177228405475613,-0.16265212976410984
1746483221573970200,3.04497021484375,-0.23265081801116466,-0.25392361540347336,-0.22810338383987544
1746483221583948000,3.054947998046875,-0.4968769239813089,-0.2332175119832158,-0.19001710655167697
1746483221593927200,3.06492724609375,-0.7516378669917583,-0.1828328941360116,-0.09636851651743054
1746483221603905000,3.074905029296875,-0.8744465005367994,-0.12740589820742607,0.01768807077333331
1746483221613883100,3.084883056640625,-0.8549024266332388,-0.09263941299170256,0.16504603916332125
1746483221623861000,3.094861083984375,-0.6944084978163242,-0.021051263596117496,0.2774975293450057
1746483221633840000,3.104840087890625,-0.41379941232204437,0.02244622508585453,0.3635360827669501
1746483221643818200,3.114818359375,-0.07002104620933532,0.025846096657216548,0.3873869139537215
1746483221653795800,3.1247958984375,0.24339433034360408,-0.028068741142749785,0.40181335258260364
1746483221663775000,3.13477490234375,0.5169669413298368,-0.12052607556581496,0.36706703337207436
1746483221673753000,3.144753173828125,0.700251963147521,-0.18751988290846347,0.3167597185447812
1746483221683731200,3.154731201171875,0.7866536507934332,-0.23024843304455278,0.27198081175014377
1746483221693710000,3.1647099609375,0.798944392567873,-0.27377631686478854,0.2053552531979978
1746483221703688200,3.174688232421875,0.7340303141087293,-0.2861170352607965,0.13202259822264312
1746483221713666000,3.184666015625,0.6099643739789724,-0.2952311928257346,0.02386924362629652
1746483221723644000,3.194643798828125,0.5206482601910829,-0.28720424597561356,-0.0586260842308402
1746483221733623000,3.204623046875,0.3741904555112123,-0.2793152462914586,-0.09788125916793942
1746483221743601200,3.21460107421875,0.21184125421643255,-0.26030367182940245,-0.11761238007619976
1746483221753579300,3.224579345703125,0.08318097203373909,-0.2626210088610649,-0.09720423668920994
1746483221763558100,3.23455810546875,-0.024803601866960526,-0.2618476864010095,-0.05151859031319618
1746483221773536000,3.244535888671875,-0.08754910411536693,-0.2340910799473524,-0.0026063831061124802
1746483221783514000,3.25451416015625,-0.1547048240214586,-0.20441168873757123,0.038785657729208466
1746483221793492000,3.264491943359375,-0.14498364047408102,-0.21206717192679642,0.07535115519091487
1746483221803471000,3.27447119140625,-0.115274146386981,-0.19567951622754334,0.10668240526095032
1746483221813449200,3.28444921875,-0.11985679800212383,-0.17499474785625935,0.14900047490000723
1746483221823427000,3.294427001953125,-0.14185235671103,-0.18985563237965106,0.16636632798165082
1746483221833406000,3.304406005859375,-0.16239420948028563,-0.17811171083301305,0.14752791812941432
1746483221843384000,3.314384033203125,-0.17225041758418083,-0.19569705188423395,0.10818652621358632
1746483221853362200,3.324362060546875,-0.13259995971918107,-0.19494827934354542,0.06665975308269262
1746483221863340000,3.334340087890625,-0.05515548551082611,-0.19105448677539824,0.036545769847929475
1746483221873319200,3.344319091796875,0.022467267873883246,-0.19260200847834347,0.03784136261641979
1746483221883297000,3.354297119140625,0.0773199710458517,-0.17328560585081576,0.035954233695566655
1746483221893275100,3.364275146484375,0.11180617801547049,-0.18471008618474005,0.07773600450083613
1746483221903254000,3.37425390625,0.06693944680690765,-0.16168869155943394,0.08549743228256702
1746483221913232100,3.384232177734375,-0.0776595782637596,-0.1622995169341564,0.05829714453741908
1746483221923210200,3.394210205078125,-0.22533844917118548,-0.1828679654493928,0.0444930755905807
1746483221933189000,3.404189208984375,-0.3216746708542108,-0.14469985509663819,0.061307870660722255
1746483221943167000,3.4141669921875,-0.3841904559999704,-0.09492547810226679,0.11476312812492251
1746483221953145000,3.42414501953125,-0.31841829940676686,-0.10290390963554381,0.16686682484969495
1746483221963123200,3.434123291015625,-0.18807927035689354,-0.08818827880173921,0.1931260323524475
1746483221973102000,3.44410205078125,-0.05581015002727508,-0.12835048558115958,0.20985724079236387
1746483221983080200,3.454080078125,0.060440147915482516,-0.16436375598758457,0.18366218456700442
1746483221993058000,3.46405810546875,0.1777589518725872,-0.16102204434424638,0.12534998859092591
1746483222003037000,3.474036865234375,0.29012919351160527,-0.17290917375385761,0.08632672271355986
1746483222013015000,3.48401513671875,0.4242202685713768,-0.18200930279344318,0.04183072451353073
1746483222022993200,3.4939931640625,0.5095762465566397,-0.17280074494332073,0.03116290776580572
1746483222032971300,3.50397119140625,0.5175748440951109,-0.23479952047765254,0.021914164035767316
1746483222042950100,3.5139501953125,0.4835702831625938,-0.27764906664490696,0.007763473608344793
1746483222052928000,3.523927978515625,0.40832711839079855,-0.2932742135390639,-0.010452274300903081
1746483222062906000,3.533906005859375,0.2933510781675577,-0.29265988103300333,0.00897226487621665
1746483222072885000,3.543885009765625,0.17253274165689944,-0.27123072403520343,-0.019894348645955323
1746483222082863000,3.553863037109375,0.05457213266491889,-0.2539624861091375,-0.04003288131132721
1746483222092841200,3.56384130859375,-0.05473346070647239,-0.24015783264040946,-0.013915420366823672
1746483222102819000,3.573819091796875,-0.15445172604322432,-0.23240911820977925,0.023862083233147858
1746483222112798000,3.5837978515625,-0.23050679171979427,-0.21072481740713117,0.05311199698448181
1746483222122776000,3.593776123046875,-0.2498801852315664,-0.1654649952277541,0.0902444806791842
1746483222132754200,3.603754150390625,-0.26471009009480473,-0.14016834914684295,0.10708148758113384
1746483222142733000,3.613733154296875,-0.26487083361446856,-0.14624942262619733,0.13388006265759467
1746483222152711200,3.623711181640625,-0.20581717162132263,-0.15510726734250782,0.1113727550342679
1746483222162689000,3.63368896484375,-0.07658581155240535,-0.1416883983209729,0.08739084481373428
1746483222172667100,3.643667236328125,-0.026429741764068603,-0.15642098028957843,0.08710720556676388
1746483222182646000,3.65364599609375,0.011685761618614196,-0.18634937782436609,0.03925765915513038
1746483222192624000,3.6636240234375,0.05502689069509506,-0.19834084439128635,0.04022752710059285
1746483222202602200,3.673602294921875,0.10981120480597019,-0.20378595805466174,0.026981968819350003
1746483222212581000,3.6835810546875,0.15645195994973182,-0.21487989125996826,0.052709407532960176
1746483222222559000,3.69355908203125,0.18300795844197273,-0.23774025010466573,0.03486483102366328
1746483222232537000,3.703537109375,0.1569879665225744,-0.22225421942025422,0.053014674089848994
1746483222242515200,3.71351513671875,0.11861468898653983,-0.20530922209918498,0.04475917918086052
1746483222252494000,3.723494140625,0.033358079722523686,-0.19152385785281656,0.07323986212536693
1746483222262472200,3.73347216796875,-0.03876198459267616,-0.15193594383001327,0.08637100024670362
1746483222272450000,3.743449951171875,-0.10323474902510642,-0.126924836692214,0.09919526437595486
1746483222282429000,3.753428955078125,-0.12435703203082084,-0.1292141166731715,0.1120545998185873
1746483222292407000,3.763406982421875,-0.12392097870111465,-0.13330138598680497,0.12576222265362738
1746483222302385200,3.77338525390625,-0.09885843363702297,-0.15353665702491998,0.11497194857001304
1746483222312363300,3.78336328125,-0.030322073027491566,-0.15135346776694059,0.10332695735320448
1746483222322342100,3.793342041015625,0.010407412245869637,-0.18005056994110344,0.10502060952857135
1746483222332320000,3.803320068359375,0.05550678316652775,-0.19871464613974094,0.08577434952780603
1746483222342298000,3.813298095703125,0.06932429611682892,-0.2050596312522888,0.0650596244096756
1746483222352277000,3.823277099609375,0.034305005183815955,-0.22479075216054914,0.07101166468188166
1746483222362255000,3.833255126953125,0.059604866135120387,-0.2102691825941205,0.05835428155213594
1746483222372233200,3.843233154296875,0.11006605634987354,-0.22010902408510447,0.08704305428937077
1746483222382211000,3.853211181640625,0.16323884361088276,-0.18970248764455316,0.10080869092196225
1746483222392190000,3.86318994140625,0.21055004536211488,-0.15096972914636134,0.1002067795060575
1746483222402168000,3.87316796875,0.23107436247467994,-0.16139263122230768,0.08235606551691889
1746483222412146200,3.883146240234375,0.20551438928246496,-0.21762334474921224,0.07712590977847576
1746483222422125000,3.893125,0.18193126912117003,-0.25842501847594973,0.04316401894390583
1746483222432103200,3.903103271484375,0.1751788722515106,-0.2612161104992032,0.013111702768504619
1746483222442081000,3.9130810546875,0.1753968989163637,-0.24286212316304445,-0.01619841673746705
1746483222452059100,3.92305908203125,0.1083159978121519,-0.20829379086792468,-0.0037719197541475295
1746483222462038000,3.9330380859375,0.006792144358158111,-0.20500819332599637,0.005007306768000126
1746483222472016100,3.94301611328125,-0.07023322765529155,-0.222316178740561,0.03653407941013574
1746483222481994200,3.952994140625,-0.082356796169281,-0.21758622760921714,0.06460150537863374
1746483222491973000,3.96297314453125,-0.01667524046897888,-0.1929033295124769,0.10100099862366914
1746483222501951000,3.972950927734375,0.08629296657443046,-0.15742986507117748,0.11332491201534867
1746483222511929000,3.98292919921875,0.0735386989414692,-0.18951748646646738,0.11434592562615871
1746483222521907200,3.9929072265625,-0.00618482611477375,-0.20752602136582135,0.08203720882609486
1746483222531886000,4.002885986328125,-0.03785363757610321,-0.20047376476675272,0.08130757937729358
1746483222541864200,4.0128642578125,-0.05607669200897217,-0.20546762753129005,0.050985506349802014
1746483222551842000,4.022842041015625,-0.07305588386058808,-0.18788140969723463,0.06558510958850383
1746483222561821000,4.032821044921875,0.021377134549617767,-0.14493892454952,0.05037891875877976
1746483222571799000,4.042799072265625,0.08697042744457721,-0.1401268480926752,0.011741875720024109
1746483222581777200,4.052777099609375,0.05157236632704734,-0.17869827854931353,0.03512538165599108
1746483222591755300,4.06275537109375,-0.0028057050704956054,-0.2248497888714075,0.033284137703478336
1746483222601734100,4.072734130859375,-0.018629297146201134,-0.25249913555830716,0.04841653264462947
1746483222611712000,4.0827119140625,-0.008004442757368087,-0.24669541771560907,0.07198167875781655
1746483222621690000,4.092690185546875,0.03138239573538303,-0.21597937693446873,0.0916271672092378
1746483222631669000,4.1026689453125,0.10404723445177078,-0.2068964912906289,0.09346285820379853
1746483222641647000,4.112647216796875,0.1832750849455595,-0.19335779528170824,0.11342471912801265
1746483222651625200,4.122625244140625,0.18119710962772367,-0.1874073624446988,0.11356515051200985
1746483222661603000,4.13260302734375,0.12519231381118298,-0.1622521706610918,0.0755754654660821
1746483222671582000,4.14258203125,0.053639820250868796,-0.19315058227181434,0.04364171945825219
1746483222681560000,4.15256005859375,-0.014265841239690779,-0.19801818830817935,0.025961247469484805
1746483222691538200,4.1625380859375,-0.04844225160777568,-0.18608312810361385,0.03821706406101584
1746483222701517000,4.17251708984375,-0.014370470657944678,-0.17395137628316878,0.051449032208323475
1746483222711495200,4.1824951171875,0.03675006024837494,-0.17769523898661135,0.07134688798561692
1746483222721473000,4.19247314453125,0.06271393806636333,-0.16062983015626667,0.0675885583654046
1746483222731451100,4.202451171875,0.0049491468399763105,-0.16163228519707917,0.06661006872206926
1746483222741430000,4.212429931640625,-0.025576924327015874,-0.19000906937569378,0.03603621289059519
1746483222751408000,4.222408203125,-0.03031681233048439,-0.21177958715707063,0.03790434485003352
1746483222761386200,4.23238623046875,0.016343232035636902,-0.1858262307330966,0.030111937408149242
1746483222771365000,4.242365234375,0.07889934919178486,-0.1939104607284069,0.055388125222921365
1746483222781343000,4.252343017578125,0.13352934952378273,-0.211189512309432,0.06995484910532832
1746483222791321000,4.262321044921875,0.15747954943180084,-0.20566022749394178,0.1024393608637154
1746483222801299200,4.27229931640625,0.13259236093461513,-0.17777999466061592,0.12347761884778738
1746483222811278000,4.282278076171875,0.09957447295188904,-0.18930735084712505,0.13741685848161578
1746483222821256200,4.292256103515625,0.09198854786753653,-0.1662318879470229,0.13351985104307532
1746483222831234000,4.302234130859375,0.12429215010106563,-0.1590583430558443,0.08810016212686896
1746483222841213000,4.312212890625,0.13423954361975193,-0.18148440213650463,0.04921469728499651
1746483222851191000,4.32219091796875,0.13568623529672622,-0.21110329533070324,0.02545753573104739
1746483222861169200,4.332169189453125,0.02566635617613792,-0.2532487848818302,0.00849821762368083
1746483222871147300,4.342147216796875,-0.0860258400708437,-0.28341566734761,-0.02926233484148979
1746483222881126100,4.352126220703125,-0.1949082395941019,-0.26392770754545924,-0.01194894259944558
1746483222891104000,4.36210400390625,-0.286071442553401,-0.2036515180200338,0.03347527636140585
1746483222901082000,4.37208203125,-0.2951794626384973,-0.1358691906481981,0.09188201875314116
1746483222911061000,4.38206103515625,-0.28033845185935496,-0.12234276959896087,0.1079601701118052
1746483222921039000,4.3920390625,-0.2133165874660015,-0.16084376516789198,0.11517506992667913
1746483222931017200,4.402017333984375,-0.10310615420937537,-0.15809592776447534,0.10940028591752052
1746483222940995000,4.4119951171875,-0.00578092148900032,-0.15765139886736868,0.08712766383290291
1746483222950974000,4.421973876953125,0.06408639546334743,-0.18572189357578753,0.03800254452750087
1746483222960952000,4.4319521484375,0.10458908624351024,-0.21172522662132978,0.031011808857321736
1746483222970930200,4.44193017578125,0.13043430611789225,-0.2168696037724614,0.048789019218832254
1746483222980909000,4.451908935546875,0.15552490823268889,-0.18761808258593082,0.04120850096195936
1746483222990887200,4.46188720703125,0.19274550860226153,-0.18243015855401754,0.0767448015064001
1746483223000865000,4.471864990234375,0.17620061651468277,-0.19694412933588026,0.09516410916373133
1746483223010843100,4.481843017578125,0.159763860976696,-0.21892010656148195,0.08801832906231284
1746483223020822000,4.491822021484375,0.11066519128680229,-0.23183482545316217,0.04634747128561139
1746483223030800100,4.501800048828125,0.0385556483656168,-0.1948597242772579,0.0004566577263176441
1746483223040778200,4.5117783203125,-0.02862052980661392,-0.19709259789586067,0.03205342686474323
1746483223050756000,4.521756103515625,-0.09639233578443526,-0.21727000126689672,0.02275090712085366
1746483223060735000,4.53173486328125,-0.12602058132886887,-0.19888620331436394,0.011325111612677574
1746483223070713000,4.541713134765625,-0.16210720923244953,-0.24302900416254997,-0.10240195146277546
1746483223080691200,4.551691162109375,-0.14995733723342416,-0.2358835163220763,-0.1835783056758344
1746483223090670600,4.561670654296875,-0.07747954552173614,-0.18582213907986878,-0.15862857333645225
1746483223100648700,4.571648681640625,0.032716859209537506,-0.17056085706204174,-0.029187369909137485
1746483223110626600,4.58162646484375,0.1454559341609478,-0.17389058600664137,0.13815540188923478
1746483223120604400,4.5916044921875,0.19712357755601406,-0.14179799617528915,0.20153598717078566
1746483223130583600,4.60158349609375,0.19630933856368063,-0.12179624163210391,0.23197364940196274
1746483223140561700,4.611561767578125,0.14260054472982883,-0.14089023368060588,0.27227321882545946
1746483223150539500,4.62153955078125,0.09215864373743533,-0.15866846695542336,0.26949118689149615
1746483223160518700,4.6315185546875,0.035521395236253736,-0.19328882169872522,0.19450579627305267
1746483223170496500,4.64149658203125,0.01918108581006527,-0.20707623177170753,0.12747151078954339
1746483223180474600,4.651474609375,-0.015378770917654036,-0.20794103190749882,0.07431479788050055
1746483223190452500,4.661452392578125,-0.05278291116058826,-0.20528204183131454,0.03325710356608033
1746483223200431600,4.671431640625,-0.03901917422413826,-0.1952458009853959,0.025540391708910464
1746483223210409700,4.68140966796875,-0.026723171752691267,-0.16236206077635287,0.010417495248466729
1746483223220387600,4.6913876953125,0.031054478955268857,-0.14821721556782722,-0.01036167340800166
1746483223230366500,4.701366455078125,0.08931786735355854,-0.1656532112762332,0.015442776064574717
1746483223240344600,4.711344482421875,0.14447043025493622,-0.22117840688228607,0.03987535266205668
1746483223250322700,4.72132275390625,0.12948445804715156,-0.23531448426246643,0.052459232164174315
1746483223260300500,4.731300537109375,0.05610007288455963,-0.23310469925850627,0.016320581812411545
1746483223270279700,4.74127978515625,-0.15080840110480784,-0.2178498469814658,-0.01850815498456359
1746483223280257500,4.751257568359375,-0.47598318903446196,-0.10859306118786334,-0.04917626497074962
1746483223290235400,4.7612353515625,-0.7427829448848963,-0.2767047715321183,0.15590543198287485
1746483223300213500,4.771213623046875,-0.7423182499825954,-0.30396453437954185,0.15638167119249702
1746483223310192600,4.781192626953125,-0.4990554370641708,-0.1340913673207164,0.13641674152836203
1746483223320170800,4.791170654296875,-0.10807926644682883,0.020366496202349663,0.22701661151647567
1746483223330148400,4.8011484375,0.3403419619232416,0.037058687806129455,0.36311537313684816
1746483223340127500,4.81112744140625,0.7752548894226551,0.013724573969841003,0.4191647387474775
1746483223350105600,4.821105712890625,1.0721031620562076,-0.10132979218661785,0.35948987611606714
1746483223360083500,4.83108349609375,1.2571417495429515,-0.2291837264224887,0.28496143548488617
1746483223370061600,4.8410615234375,1.2651631434351205,-0.28369886820316315,0.14271335745453834
1746483223380040700,4.851040771484375,1.116771155822277,-0.24069325469136238,-0.05338935262113809
1746483223390018600,4.8610185546875,0.9383230526417493,-0.2082344618961215,-0.1353796535655856
1746483223399996400,4.870996337890625,0.6675631609886884,-0.2722168124631047,-0.16871522919535636
1746483223409975600,4.8809755859375,0.32549569044709203,-0.3260246827572584,-0.14569003517776727
1746483223419953700,4.89095361328125,-0.03138239573538303,-0.3721355688080191,-0.0960772784858942
1746483223429931500,4.900931640625,-0.345831791511178,-0.36443829230368135,-0.05338233835846185
1746483223439909400,4.910909423828125,-0.6245201380759478,-0.32662410995513197,-0.00011515081226825714
1746483223449888500,4.920888427734375,-0.8207377067029475,-0.23229981261640786,0.02376373742520809
1746483223459866600,4.93086669921875,-0.9260141906887293,-0.11111585766375064,0.05120090266615152
1746483223469844500,4.940844482421875,-0.9155570940822363,-0.019246552261710168,0.11917802195772528
1746483223479823600,4.95082373046875,-0.8379887012332677,0.0453153517588973,0.17124050988927483
1746483223489801700,4.9608017578125,-0.6672165395081043,0.040272096894681454,0.150204736123234
1746483223499779600,4.970779541015625,-0.3937473888963461,-0.0015673954471945761,0.10311462977677584
1746483223509757400,4.98075732421875,-0.13677403053343296,-0.08241583288013934,0.04519304055348038
1746483223519736600,4.990736572265625,0.1297404786348343,-0.19533406379073856,-0.0019699848987162114
1746483223529714700,5.000714599609375,0.3223515472024679,-0.30067396840155125,-0.015771861888468266
1746483223539692500,5.010692626953125,0.4665174415528774,-0.3518120349645614,-0.0016964286543428896
1746483223549670400,5.02067041015625,0.5535106653511523,-0.3330000747278333,0.03230813227817416
1746483223559649500,5.0306494140625,0.5431365708529949,-0.28512276352643967,0.07239069795012473
1746483223569627600,5.040627685546875,0.44695349390506744,-0.26064035643786193,0.08901727697178721
1746483223579605500,5.05060546875,0.27834698578119277,-0.2264160152748227,0.07898176677823067
1746483223589584600,5.060584716796875,0.12507950108647345,-0.2204009927690029,0.06341331850737333
1746483223599562800,5.070562744140625,-0.015873860958218574,-0.21025223145931957,0.06315671339780092
1746483223609540400,5.080540283203125,-0.07905366297066212,-0.19172084172964096,0.06773381205499172
1746483223619518500,5.0905185546875,-0.1256698681950569,-0.17607494430840015,0.07317366502135991
1746483223629497600,5.10049755859375,-0.14544015206992625,-0.186327165992558,0.10731880346834659
1746483223639475700,5.110475830078125,-0.14465747725963593,-0.17715061071589588,0.1195562076203525
1746483223649453600,5.12045361328125,-0.08127835328280925,-0.1812378800295293,0.14222659685090183
1746483223659432700,5.1304326171875,-0.005894318735599518,-0.19052067215964197,0.1284526307813823
1746483223669410600,5.14041064453125,0.11515373487770557,-0.18571034926846622,0.12143617614805698
1746483223679388400,5.150388427734375,0.20739304263591765,-0.19215850249454378,0.09671075408384203
1746483223689366500,5.160366455078125,0.296920168825984,-0.22618366782367227,0.05629764128327369
1746483223699345700,5.170345703125,0.36460488104224203,-0.25658479743674395,0.04487082286179066
1746483223709323500,5.180323486328125,0.37177053488790984,-0.2893117396488786,0.0519089048050344
1746483223719301400,5.19030126953125,0.3592991758495569,-0.2859378793016076,0.05940612869262695
1746483223729280500,5.200280517578125,0.3426765423506498,-0.27321006128415465,0.03786401283964515
1746483223739258600,5.210258544921875,0.32277064939737315,-0.29388211630433797,0.03269245542064309
1746483223749236500,5.220236572265625,0.3185083157777786,-0.3175347945705056,0.04891235333755612
1746483223759214600,5.230214599609375,0.3090495825588703,-0.3236316501408815,0.03462488478794694
1746483223769193700,5.24019384765625,0.33528877018690106,-0.31886648156568403,0.04199804390445351
1746483223779171600,5.250171630859375,0.38723932217657564,-0.3370348832018673,0.034419717604666944
1746483223789149400,5.2601494140625,0.4257493778347969,-0.3464047690935433,0.020167174237966535
1746483223799127600,5.27012744140625,0.49344227335751056,-0.3319127178825438,0.08145765537247061
1746483223809106700,5.280106689453125,0.5826899980843067,-0.3154845840424299,0.1006551077954471
1746483223819084500,5.29008447265625,0.6770669023931026,-0.3232392898224294,0.1425754102885723
1746483223829062400,5.3000625,0.7278922497451304,-0.30508462445065376,0.17664032310619948
1746483223839041500,5.31004150390625,0.7129384262412786,-0.26815511598214503,0.15507248829007148
1746483223849019600,5.32001953125,0.49404725351333617,-0.20946692630052566,0.12483560932800174
1746483223858997500,5.32999755859375,0.005144961673021317,-0.18562866233438252,0.09431114559620618
1746483223868975600,5.3399755859375,-0.6435778897672891,-0.19679872951582073,0.021681670454144476
1746483223878954800,5.349954833984375,-1.1649994724184274,-0.20737689521871505,-0.07554448580592871
1746483223888932400,5.359932373046875,-1.5109668730080126,-0.1553022053927183,-0.1451595815628767
1746483223898910500,5.369910400390625,-1.6721283258229493,-0.060427507629618044,-0.2021492967635393
1746483223908889600,5.3798896484375,-1.665694493383169,0.004152005112916231,-0.1385147367209196
1746483223918867700,5.38986767578125,-1.486482420092821,0.07568813206031919,0.006251607740670442
1746483223928845600,5.399845458984375,-1.144037348410487,0.1280940266020596,0.16457213804125784
1746483223938823400,5.409823486328125,-0.6956926924079656,0.1414743902441114,0.28509572938904165
1746483223948802600,5.419802490234375,-0.2496376086473465,0.1336196581557393,0.2712709099151194
1746483223958780400,5.429780517578125,0.10186696780323981,0.04084244412854313,0.23227263234853743
1746483223968758500,5.439758544921875,0.4083201041281223,-0.11392170886471867,0.2029134130038321
1746483223978736600,5.449736572265625,0.6035778878122567,-0.2792497798398137,0.16210487114489078
1746483223988715800,5.4597158203125,0.7209709260493516,-0.36091216400414705,0.09876476400420069
1746483223998693400,5.469693359375,0.776788090339303,-0.43967137407287954,-0.008213409332931042
1746483224008671500,5.47967138671875,0.7800947306692599,-0.4601816626600921,-0.05944529165923595
1746483224018650600,5.489650634765625,0.6864782893389463,-0.4560989233911037,-0.07017974390238522
1746483224028628500,5.49962841796875,0.5354974542766809,-0.4051449812233448,-0.02079334331229329
1746483224038606600,5.509606689453125,0.38380467155277725,-0.33451442481353877,0.00897854848653078
1746483224048584400,5.51958447265625,0.20050445216596124,-0.27935828171558674,0.03583323766440153
1746483224058563600,5.5295634765625,-0.039248891326785086,-0.23962986324355004,0.009454933826625347
1746483224068541400,5.53954150390625,-0.2279296347081661,-0.2102314809322357,0.017237696657329795
1746483224078519600,5.54951953125,-0.3497323060810566,-0.1975215638976544,0.05058993116095662
1746483224088498700,5.559498779296875,-0.399154216375947,-0.1694742308691144,0.07970058257207274
1746483224098476500,5.5694765625,-0.39841538070738314,-0.12789843096472323,0.10896598615348338
1746483224108454700,5.57945458984375,-0.3657312547236681,-0.09836970027200877,0.11121098860129713
1746483224118432500,5.5894326171875,-0.3415712114572525,-0.10109547197408973,0.12994608420953155
1746483224128411600,5.59941162109375,-0.2598135502249002,-0.1060774251051247,0.1327994278140366
1746483224138389500,5.609389404296875,-0.15985621543526649,-0.14349990472234786,0.10302607471048832
1746483224148367600,5.61936767578125,-0.04091185610294342,-0.18477664861492812,0.05365735590755939
1746483224158345700,5.629345703125,0.04897884270250797,-0.22689349659346042,0.029120588283240795
1746483224168324600,5.63932470703125,0.10390461111068724,-0.25834187023714184,0.007967325617372989
1746483224178302500,5.649302490234375,0.13208441141247748,-0.2746592371791601,0.02262669621929526
1746483224188280600,5.659280517578125,0.03807049519717693,-0.2946431638047099,0.021163053407520054
1746483224198259700,5.669259765625,-0.035920039165019985,-0.2866272498052567,0.0096301442630589
1746483224208237600,5.679237548828125,-0.08102642434835433,-0.24103680743202566,0.026941052287071943
1746483224218215700,5.689215576171875,-0.14107377355396747,-0.1768570345968008,0.01799158376455307
1746483224228193500,5.699193603515625,-0.1682294915050268,-0.12487754877358674,0.0363745049342513
1746483224238172400,5.70917236328125,-0.14520458974838257,-0.1255524523604661,0.09086334322988987
1746483224248150500,5.719150634765625,-0.07357493929862975,-0.13693250903077422,0.11599880739971995
1746483224258128600,5.729128662109375,0.005179448464512825,-0.15520963173843919,0.10997574771791696
1746483224268107800,5.739107666015625,0.09506780918240547,-0.17874314060434698,0.10373203102275728
1746483224278085600,5.749085693359375,0.14875029953122137,-0.2133712402626872,0.06898717311695218
1746483224288063500,5.7590634765625,0.1684779133081436,-0.22766747664064169,0.03931771877929568
1746483224298041600,5.76904150390625,0.1700339105784893,-0.2452765638936311,0.04827303252071142
1746483224308020500,5.7790205078125,0.1724082384943962,-0.2401986761074513,0.041455753721296784
1746483224317998600,5.78899853515625,0.1167600010305643,-0.2351746374003589,0.0681691347323358
1746483224327976700,5.798976806640625,0.05441548079848289,-0.243329156152904,0.06038768707588315
1746483224337954600,5.80895458984375,-0.04277063571214676,-0.2307053830318153,0.05191372711062431
1746483224347933400,5.818933349609375,-0.09439677805304526,-0.22430888692773876,0.0641726124420762
1746483224357911600,5.82891162109375,-0.12343699457645416,-0.2116032076768577,0.05748538976311683
1746483224367889700,5.8388896484375,-0.16258651718199252,-0.21121004364080725,0.0907832637310028
1746483224377868500,5.84886865234375,-0.12891922537982464,-0.1872338325086981,0.09033698126822709
1746483224387846700,5.8588466796875,-0.1282885262608528,-0.16266951929032802,0.06966682594418526
1746483224397824500,5.868824462890625,-0.0896896232753992,-0.14957710574418306,0.0696307317174971
1746483224407802600,5.878802734375,-0.035085926428437234,-0.16073979333676397,0.07790989976301789
1746483224417781500,5.888781494140625,-0.03835983353257179,-0.17005736451931297,0.0647457361549139
1746483224427759600,5.898759521484375,-0.04264320994019508,-0.18885368879549205,0.08859349860176444
1746483224437737700,5.90873779296875,-0.030361820515990255,-0.21019458298794924,0.054434623890370126
1746483224447716600,5.918716552734375,-0.01106207676231861,-0.2011582398995757,0.04856880059689283
1746483224457694500,5.928694580078125,0.040272973677515984,-0.1937923873066902,0.024980273608118293
1746483224467672600,5.938672607421875,0.10262859982550143,-0.20313728488758206,0.07340396664589643
1746483224477650700,5.948650634765625,0.1417909819126129,-0.2328807543095201,0.09582710311710833
1746483224487629600,5.958629638671875,0.14693535906374453,-0.2318951773382723,0.07430266905128956
1746483224497607700,5.968607666015625,0.09767477681040763,-0.21041399789229034,0.032863428073376416
1746483224507585500,5.97858544921875,0.0017407061874866485,-0.21913974066153166,-0.01208820493966341
1746483224517563600,5.988563720703125,-0.059814124971628184,-0.2281025070570409,0.018011895900219677
1746483224527542500,5.99854248046875,-0.06737608465850353,-0.19718568300679326,0.04409516231417656
1746483224537520600,6.008520751953125,-0.06992869175076484,-0.1451535902135074,0.05512494424208998
1746483224547498800,6.018498779296875,-0.05430032998621463,-0.12329174088686704,0.11527560769170522
1746483224557477600,6.0284775390625,-0.045617257314920424,-0.10159633416831493,0.15443755138739942
1746483224567455500,6.03845556640625,-0.02825929527878761,-0.11504910545945167,0.16651640397682785
1746483224577433600,6.04843359375,-0.02942132479548454,-0.15347075218185782,0.1332280284896493
1746483224587411700,6.05841162109375,-0.018733342042565344,-0.17201207878366112,0.07614274396002292
1746483224597390600,6.068390625,0.0016600421667098998,-0.19377397486716508,0.06701368108689784
1746483224607368700,6.07836865234375,0.03820844236314296,-0.2175096552416682,0.032809944320470096
1746483224617346600,6.0883466796875,0.039430093112587924,-0.25434417890310285,0.0416739265166223
1746483224627324700,6.09832470703125,0.06687514939904213,-0.23587957079932093,0.01360094759017229
1746483224637303600,6.108303466796875,0.06535480796396732,-0.22870821786522863,0.04578472283631563
1746483224647281700,6.11828173828125,0.02062894653081894,-0.24902868296876549,0.05819865259900689
1746483224657259800,6.128259765625,-0.03218845142126083,-0.2357229189328849,0.04781710544675588
1746483224667238700,6.13823876953125,-0.04938333185017109,-0.20034297799393533,0.07000424120500684
1746483224677216500,6.148216552734375,-0.05445347472131252,-0.16943974407762288,0.05564736068099737
1746483224687194600,6.158194580078125,-0.04926292034089565,-0.15516995731517672,0.041469343855231995
1746483224697172700,6.1681728515625,0.013936170893907546,-0.16608721877932547,0.05113134456127882
1746483224707151600,6.178151611328125,0.06282558174729347,-0.1647663454391062,0.0639633536055684
1746483224717129700,6.188129638671875,0.10509528219997882,-0.19464374343901872,0.06422697297781706
1746483224727107600,6.198107666015625,0.15439678098559378,-0.19460574951618909,0.04920066875964403
1746483224737085700,6.208085693359375,0.1705003590464592,-0.20812997860834,0.06319602249488235
1746483224747064600,6.218064697265625,0.1895791535258293,-0.2367860181197524,0.06921937443763017
1746483224757042700,6.228042724609375,0.14975217005014418,-0.2341733514033258,0.07040215448141098
1746483224767020800,6.238020751953125,0.11798574343323708,-0.21327523254230618,0.07974924401938915
1746483224776999700,6.247999755859375,0.09010930999219417,-0.20730127269923684,0.06959712170884012
1746483224786977500,6.2579775390625,-0.11155950977802276,-0.24768968944996594,0.048419016862660647
1746483224796955600,6.26795556640625,-0.49385962198674677,-0.32131986606717106,0.008925941516458988
1746483224806933800,6.277933837890625,-0.8954185614168644,-0.34780820615068075,0.013486819691210985
1746483224816912600,6.28791259765625,-1.2071470077961683,-0.2341052546031773,0.06355798767507076
1746483224826890800,6.297890869140625,-1.2990847022593022,-0.0447077412545681,0.11810498589873313
1746483224836868600,6.30786865234375,-1.11023795466125,0.15428864443600177,0.1741620964244008
1746483224846847500,6.317847412109375,-0.7877233258515596,0.2946148144930601,0.18399200104326008
1746483224856825600,6.32782568359375,-0.41974399994015693,0.3011262422136962,0.20245733979940414
1746483224866803700,6.3378037109375,-0.07495499548017978,0.1861097238495946,0.2382017301365733
1746483224876781800,6.34778173828125,0.2807236517846584,0.028982933378219604,0.2000140383005142
1746483224886760700,6.3577607421875,0.685432579678297,-0.10693389580398797,0.20538199507445096
1746483224896738600,6.367738525390625,1.0652250929802656,-0.2017024297788739,0.2332870700880885
1746483224906716700,6.377716552734375,1.3429437177300452,-0.27381314174383875,0.23417992727458475
1746483224916694500,6.387694580078125,1.4823860906898974,-0.39492242402508854,0.1602884693726897
1746483224926673700,6.397673583984375,1.4227262794971465,-0.47794952067136764,0.01252776540070772
1746483224936651800,6.40765185546875,1.1386954028606413,-0.5092655731722712,-0.18755963039696216
1746483224946629600,6.417629638671875,0.7287649409264325,-0.5191685430273414,-0.3121241676986217
1746483224956608500,6.4276083984375,0.3674310443788767,-0.4612894777715206,-0.37141339201331136
1746483224966586600,6.437586669921875,0.13150631926357745,-0.34411125132888554,-0.3183320824280381
1746483224976564700,6.447564697265625,-0.014962006810307502,-0.21049831517487763,-0.1619295145779848
1746483224986542600,6.45754248046875,-0.19256606038212776,-0.11054930982217193,0.017583002963662147
1746483224996521700,6.467521728515625,-0.35042671808600423,-0.06349529770240188,0.13365122233778237
1746483225006499600,6.47749951171875,-0.3994271880984306,-0.04714782788306474,0.24095365919321773
1746483225016477700,6.487477783203125,-0.40102410190105436,-0.03068710694760084,0.36032092011272904
1746483225026455600,6.49745556640625,-0.3287023775339126,-0.020461481009423733,0.397800171418488
1746483225036434700,6.5074345703125,-0.3459825981587171,-0.049804187610745426,0.3763166538849473
1746483225046412800,6.517412841796875,-0.357346288216114,-0.13825798548087476,0.2987611205175519
1746483225056390400,6.527390380859375,-0.3585316986083984,-0.16942147776857017,0.20604542741924523
1746483225066369500,6.53736962890625,-0.29866262857913967,-0.1638683736860752,0.06303250249624252
1746483225076347600,6.54734765625,-0.22020751602351665,-0.1823927491530776,-0.06602350100576877
1746483225086325200,6.5573251953125,-0.0886310541331768,-0.2533642279550433,-0.11675064868032932
1746483225096303000,6.56730322265625,0.07964578364491462,-0.29250761308073997,-0.1198795943558216
1746483225106282000,6.577281982421875,0.21523615735173224,-0.30341581445559856,-0.07222294016778469
1746483225116260000,6.587260009765625,0.3274649446934461,-0.2759086527183652,-0.016919862879812717
1746483225126238200,6.59723828125,0.3406488359153271,-0.2478771748460829,0.0676803283020854
1746483225136216000,6.607216064453125,0.2961497689753771,-0.2014053465284407,0.13145342003256083
1746483225146195200,6.6171953125,0.21959844421446323,-0.1633607164248824,0.1427712251216173
1746483225156173000,6.627173095703125,0.12342588866055011,-0.15037833912447093,0.09927958165854216
1746483225166151200,6.637151123046875,0.06776186910569668,-0.16052753882557153,0.06274053381234407
1746483225176130000,6.647130126953125,0.021261399215459824,-0.20918913227245212,0.08106383374929428
1746483225186108200,6.657108154296875,0.01075403372645378,-0.251350550045073,0.11767536230981349
1746483225196086300,6.667086181640625,-0.05092179346382618,-0.2388255611233413,0.08760755630433559
1746483225206063900,6.67706396484375,-0.1465051509529352,-0.2564955117180943,0.023153496572375296
1746483225216043000,6.68704296875,-0.37347500071823597,-0.2616660462237894,0.025071897414326666
1746483225226021000,6.697021240234375,-0.5680857186704874,-0.21766119254156946,0.09480915824621915
1746483225235999200,6.706999267578125,-0.6099526835411787,-0.09344882967844605,0.10365034408867359
1746483225245977000,6.71697705078125,-0.526629088166356,0.0031577333785593508,0.11770926457941532
1746483225255956200,6.726956298828125,-0.38131285473704335,0.019741203910857437,0.15634820731431245
1746483225265934000,6.73693408203125,-0.23988310735225676,-0.029098960973322388,0.1748176377236843
1746483225275912000,6.746911865234375,-0.13451017725467682,-0.10572408162280916,0.19384002584069965
1746483225285891000,6.75689111328125,-0.047265609043836594,-0.16323402130529283,0.16325579474568366
1746483225295869200,6.766869140625,0.10347381847798824,-0.17101473830938338,0.1806207710444927
1746483225305847000,6.776846923828125,0.27935411699712276,-0.15431012561544774,0.17480419372022152
1746483225315825000,6.786824951171875,0.45235915234088897,-0.1316018885925412,0.13479951559007167
1746483225325804000,6.796803955078125,0.6396376277089119,-0.169609255425632,0.13197072190493345
1746483225335782100,6.8067822265625,0.8263724977195263,-0.2182994904451072,0.07638648958802223
1746483225345760000,6.816760009765625,0.9693360305428504,-0.2776465824268758,-0.03575023555606603
1746483225355738000,6.826738037109375,1.0323433985978365,-0.3854527310207486,-0.14048837488144636
1746483225365717200,6.83671728515625,1.0326309833675622,-0.492061340393126,-0.19929127698391674
1746483225375695000,6.846695068359375,0.9248772956132888,-0.5563441352114081,-0.21216069542914628
1746483225385673000,6.8566728515625,0.640513826021552,-0.5693766352638602,-0.18123948746472596
1746483225395652000,6.866652099609375,0.1996668322980404,-0.45937867571413515,-0.07165887654423714
1746483225405630200,6.876630126953125,-0.24788755010962485,-0.3244455968722701,-0.016556582525372503
1746483225415608000,6.886608154296875,-0.6487064848273992,-0.19690686606541274,0.004765606966614723
1746483225425586000,6.8965859375,-0.922974676862359,-0.061807783006876706,0.027148995949327945
1746483225435565000,6.90656494140625,-1.0303098469436167,0.021446838784962893,0.12722148155122995
1746483225445543200,6.916543212890625,-1.0447826089322567,0.07036036116629839,0.2576236389651894
1746483225455521000,6.92652099609375,-0.9465005138784647,0.11599252378940582,0.3842708277598023
1746483225465499100,6.9364990234375,-0.7084703409165144,0.1501471607170999,0.4081815724402666
1746483225475478300,6.946478271484375,-0.3902700681746006,0.1253733694665134,0.38294045593887566
1746483225485456000,6.956455810546875,-0.046373628640174865,0.04578106957450509,0.33254502443671224
1746483225495434000,6.96643408203125,0.24457740264832972,-0.09419497187063097,0.20153379521369932
1746483225505413000,6.9764130859375,0.4517997648924589,-0.22520240170136094,0.02188420728892088
1746483225515391200,6.98639111328125,0.5477256522089242,-0.36203166955336924,-0.07881810064911841
1746483225525369000,6.996369140625,0.5341238278359174,-0.47252720336169,-0.1423755038022995
1746483225535347000,7.006346923828125,0.3943547071397304,-0.49667657910361884,-0.17790128295272586
1746483225545326000,7.016326171875,0.24799568665921687,-0.3847632874518633,-0.19360241769254208
1746483225555304000,7.026303955078125,0.10824117901027203,-0.24290669295713305,-0.17426029610186813
1746483225565282000,7.036281982421875,0.00902384893298149,-0.1769043808698654,-0.04738222116082907
1746483225575260200,7.04626025390625,-0.07863222268819808,-0.12854250102192163,0.10299071113616227
1746483225585239300,7.0562392578125,-0.11636661779880524,-0.08352540155723691,0.15302257002294062
1746483225595217000,7.066216796875,-0.11572247467637062,-0.05265139373540878,0.20420652155429123
1746483225605195000,7.076195068359375,-0.11890694993138312,-0.08180150037407874,0.20583909119218588
1746483225615174100,7.086174072265625,-0.10535071826577186,-0.1521171456158161,0.1436541454359889
1746483225625152000,7.096152099609375,-0.10931026954650878,-0.20267025189772248,0.10262421591132878
1746483225635130000,7.106130126953125,-0.13260580493807791,-0.22880758658647535,0.05961831013858318
1746483225645108000,7.11610791015625,-0.13412906898260116,-0.2299927047178149,0.011546937669813632
1746483225655087000,7.126087158203125,-0.1382271519511938,-0.18040902798995376,-0.03760083185881376
1746483225665065000,7.13606494140625,-0.14722586644291877,-0.17189049823060631,-0.017588263660669325
1746483225675043000,7.14604296875,-0.16180793402493,-0.1914471393547952,-0.02582388482540846
1746483225685021200,7.156021240234375,-0.13512392523884773,-0.17824205921441316,0.02846943089812994
1746483225695000000,7.166,-0.04943360073268413,-0.1783759147271514,0.07907938193380833
1746483225704978000,7.17597802734375,0.0974754548460245,-0.13962167504951356,0.10986410403698682
1746483225714956000,7.1859560546875,0.26441490654051303,-0.14417100891694426,0.12703209645897148
1746483225724935200,7.19593505859375,0.3900052797585726,-0.18351970735639334,0.15754355457872152
1746483225734913000,7.2059130859375,0.45665012753307815,-0.2190171371951699,0.17752894250899554
1746483225744891100,7.21589111328125,0.47089492598474025,-0.2325822828195989,0.13479922332912683
1746483225754869000,7.225868896484375,0.3674515026450157,-0.2755908189408481,0.07370031924396753
1746483225764847900,7.235847900390625,0.19467501536011694,-0.26558161223232746,0.03760083185881376
1746483225774826000,7.245825927734375,0.004314940589666367,-0.2268124672465026,-0.006066460432112217
1746483225784804000,7.25580419921875,-0.1184808334738016,-0.19497545961141585,-0.009858838452398776
1746483225794782200,7.2657822265625,-0.17735095559358596,-0.17289251488000154,0.04115297138243913
1746483225804761000,7.275760986328125,-0.2048638164192438,-0.15366744379773736,0.05427402650117874
1746483225814739000,7.285739013671875,-0.19409166251420973,-0.12566679945513606,0.0790454796642065
1746483225824717000,7.295717041015625,-0.20786299823522567,-0.13710472379252314,0.11872077970951794
1746483225834695200,7.305695068359375,-0.1835965719848871,-0.1360007080733776,0.1232145839974284
1746483225844674000,7.315674072265625,-0.09796586871147155,-0.14156287224516273,0.10513064577430487
1746483225854652200,7.325652099609375,-0.025249592068791387,-0.14832842085734008,0.0720151426360011
1746483225864630000,7.335630126953125,0.013482581907510756,-0.16744520925953985,0.022526889106631278
1746483225874609000,7.34560888671875,0.03162263423204422,-0.1858633478730917,0.0041685178562998765
1746483225884587000,7.3555869140625,0.028899346747994423,-0.19269684715494512,0.021339725148677824
1746483225894565000,7.365565185546875,0.038459786775708195,-0.19072788516953587,0.06526069993972777
1746483225904543200,7.375543212890625,0.010861001232266425,-0.16811375617086885,0.07597264809012412
1746483225914522000,7.385522216796875,0.015957447588443755,-0.15544439034238458,0.10040478629618882
1746483225924500000,7.3955,-0.029679098948836326,-0.16342632900699972,0.09594050036370753
1746483225934478000,7.40547802734375,-0.08838906207084656,-0.1765849396571517,0.06790040079355239
1746483225944456200,7.415456298828125,-0.05260463198423385,-0.1826471623055637,0.06968260803520679
1746483225954435000,7.42543505859375,0.03739128076136112,-0.14110533773601056,0.07384323484599589
1746483225964413200,7.4354130859375,0.08794657900035381,-0.1450881237618625,0.03180705088824034
1746483225974391000,7.44539111328125,0.026232173365354536,-0.20105609469935296,0.010166004705429077
1746483225984370000,7.455369873046875,-0.03194061414003372,-0.21305866718217728,0.036849136708676816
1746483225994348000,7.46534814453125,0.02549567578434944,-0.18030439857169986,0.04938742350339889
1746483226004326100,7.475326171875,0.09894552739858627,-0.1813349106632173,0.0333770766839385
1746483226014304300,7.48530419921875,0.13751169715821743,-0.2098290376111865,0.06697597942501306
1746483226024283100,7.495283203125,0.10600070660710334,-0.24477350974231957,0.04992547590285539
1746483226034261000,7.505260986328125,0.052660746085643764,-0.2078396173596382,0.09707534961253404
1746483226044239000,7.515239013671875,0.03177811705470085,-0.17952289280518888,0.13505056774169205
1746483226054217200,7.52521728515625,-0.011799158865213393,-0.15667437052875757,0.11631664117723703
1746483226064196000,7.535196044921875,-0.037139351826906204,-0.16281564976274968,0.10464140095263719
1746483226074174200,7.54517431640625,-0.034682021802663804,-0.16329831871315836,0.08541355339139699
1746483226084152000,7.555152099609375,-0.008885901767015456,-0.1608797132641077,0.07378010648190975
1746483226094131500,7.56513134765625,0.022703414717316628,-0.16600713928043842,0.05585632725656032
1746483226104109600,7.575109619140625,0.027211247530579564,-0.19027721879258752,0.031081074701249597
1746483226114087700,7.585087646484375,0.01438040753006935,-0.2309703175783157,0.02557195589095354
1746483226124065300,7.595065185546875,0.013119593814015387,-0.22522139866277574,0.0046533787637948985
1746483226134044400,7.60504443359375,0.0697258626550436,-0.19892273593246937,0.011150631828606128
1746483226144022500,7.6150224609375,0.1062508819758892,-0.18717545338496563,0.020682722544670105
1746483226154000600,7.625000732421875,0.11318974132835864,-0.17301774869486689,0.07295154670327901
1746483226163978500,7.634978515625,0.10117898553907871,-0.1730010898210108,0.1350771634876728
1746483226173957600,7.64495751953125,0.07993570650219917,-0.17299685203731058,0.13593056544661522
1746483226183935500,7.654935546875,0.027127660900354383,-0.16556845560222863,0.10263064565211534
1746483226193913300,7.664913330078125,-0.03148351802229881,-0.1708183389544487,0.06523059706240893
1746483226203891500,7.674891357421875,-0.07469546776115894,-0.17221037783473728,0.03856237036734819
1746483226213870600,7.68487060546875,-0.07086334225237369,-0.17647607245519756,0.00289046074450016
1746483226223848700,7.6948486328125,-0.08562368901073932,-0.17393807841017841,0.007388941207528114
1746483226233826300,7.704826416015625,-0.0831710351616144,-0.2022100870400667,0.009455810609459877
1746483226243805400,7.714805419921875,-0.028434651845693586,-0.18713424459174274,0.05165536843538284
1746483226253783600,7.724783447265625,-0.007106032612919807,-0.17585282599031923,0.07077332588136195
1746483226263761400,7.734761474609375,0.01018061775267124,-0.15465791613981128,0.09633651394397019
1746483226273739500,7.744739501953125,0.006216974818706512,-0.1631352371059358,0.13306553140431643
1746483226283718700,7.75471875,0.0581663577646017,-0.15294760509058833,0.1098255255922675
1746483226293696500,7.764696533203125,0.09942483534812926,-0.13813158262223005,0.084053955475986
1746483226303674400,7.77467431640625,0.0912497121989727,-0.1557050871051848,0.05500146399289369
1746483226313652500,7.784652587890625,0.03806523450016975,-0.1725986464999616,0.00673252312541008
1746483226323631600,7.794631591796875,-0.00828968943953514,-0.19009309439733624,0.023440789081156252
1746483226333609500,7.804609375,-0.052420507588982576,-0.18409385398253797,0.04549158510863781
1746483226343587300,7.81458740234375,-0.05675999809801578,-0.15371332876607774,0.052131461514532566
1746483226353566500,7.82456640625,-0.04125087879896164,-0.13981705149114132,0.05205167427659035
1746483226363544600,7.834544677734375,0.012247487154603004,-0.1430541337162256,0.046940322612226006
1746483226373522400,7.8445224609375,0.09674538700580597,-0.18063173082992434,0.07754998040944337
1746483226383500500,7.85450048828125,0.14414192895293235,-0.23284371023476122,0.05007511350661516
1746483226393479700,7.864479736328125,0.15972352896630762,-0.2686636500261724,0.028679566517472267
1746483226403457300,7.874457275390625,0.1673182218790054,-0.2723229031860828,0.043370647431910034
1746483226413435400,7.884435302734375,0.17643968596756457,-0.21508009000718592,0.0637540947690606
1746483226423413500,7.89441357421875,0.03601239362359047,-0.15966873003914953,0.04308656979352236
1746483226433392600,7.904392578125,-0.20948796908855438,-0.19131328384205698,0.02401566635966301
1746483226443370500,7.91437060546875,-0.38172611171305176,-0.20563085526898503,0.02884878560453653
1746483226453348400,7.924348388671875,-0.3521054649531841,-0.147369074305892,0.09367898517251014
1746483226463326500,7.934326416015625,-0.24023089787662028,-0.08524594173952936,0.13959844030439852
1746483226473305300,7.944305419921875,-0.10393091459572315,-0.09365253555700183,0.14607961901724337
1746483226483283500,7.954283447265625,0.04476034822463989,-0.1425058521836996,0.17001725170463322
1746483226493261600,7.964261474609375,0.20406535951793192,-0.18815598885491489,0.13732640371918678
1746483226503240700,7.97424072265625,0.337702261069417,-0.20685382119268178,0.09830196879804134
1746483226513218300,7.98421826171875,0.4114484652817249,-0.22389351105988026,0.04255027095973491
1746483226523196400,7.994196533203125,0.4231114305466413,-0.22879253514781592,0.008454816873371601
1746483226533174500,8.004174560546875,0.3567816400706768,-0.23211744178682564,-0.013512392523884772
1746483226543153400,8.0141533203125,0.24616730218827723,-0.23185966763347385,-0.019336860893666742
1746483226553131500,8.024131591796875,0.14175123442411422,-0.20811185842975974,-0.005945756661891937
1746483226563109400,8.034109375,0.04573357717096805,-0.20372385260388254,0.017899521566927434
1746483226573087500,8.04408740234375,-0.03465805640518665,-0.1958737236253917,0.0582972906678915
1746483226583066400,8.05406640625,-0.09865852715075016,-0.1621712143793702,0.10739391453117132
1746483226593044500,8.06404443359375,-0.11765022786855697,-0.13864523123279213,0.10423194336891174
1746483226603022600,8.074022705078125,-0.1475204654753208,-0.1368399353764951,0.10345306795090436
1746483226613000400,8.08400048828125,-0.2005155580818653,-0.14446604634076357,0.11622428671866655
1746483226622979300,8.093979248046875,-0.2006757170796394,-0.16113047315478324,0.1082809264987707
1746483226632957400,8.10395751953125,-0.16123568709492683,-0.1567448054164648,0.09822890356183052
1746483226642935600,8.113935546875,-0.17931261105537413,-0.16688786763772367,0.0659022127136588
1746483226652914400,8.12391455078125,-0.18933833050727844,-0.19459069807752966,0.06669657796174287
1746483226662892500,8.133892578125,-0.15058686730861662,-0.1753198881573975,0.036082536250352855
1746483226672870400,8.143870361328124,-0.03167231859266758,-0.17876637534946202,0.009136369396746159
1746483226682848500,8.1538486328125,0.09583528642356395,-0.18663900842070577,0.01685994938611984
1746483226692827400,8.163827392578124,0.20523732590675353,-0.2170937679171562,0.04163578646332025
1746483226702805500,8.173805419921875,0.2538531805157661,-0.20638854176849125,0.0661243310317397
1746483226712783600,8.18378369140625,0.21947511009573936,-0.19159999182894824,0.10017039301842451
1746483226722761500,8.193761474609374,0.10956979726552962,-0.16723010520413517,0.16851590723097323
1746483226732740400,8.203740234375,-0.06220072784721851,-0.148821903462708,0.1658700688973069
1746483226742718500,8.213718505859376,-0.174348266646266,-0.10568228830769658,0.11905161909908056
1746483226752696600,8.223696533203125,-0.2219955684840679,-0.10686506835147738,0.0680441931784153
1746483226762675500,8.233675537109375,-0.1773012712329626,-0.1485614989608526,-0.014682897607982158
1746483226772653600,8.243653564453124,-0.07592354825139046,-0.17853563533350825,-0.09119418261945247
1746483226782631400,8.25363134765625,0.00020750527083873748,-0.18474924915134905,-0.08595102126896381
1746483226792609500,8.263609619140626,0.05161445190310478,-0.19232041505798697,-0.04740940142869949
1746483226802588400,8.27358837890625,0.06580722790658473,-0.17654446151629088,-0.004938333185017109
1746483226812566500,8.28356640625,0.029987141984701156,-0.13259309158697724,0.052307402603328224
1746483226822544600,8.293544677734374,-0.03491173890531063,-0.11645225025564432,0.09476268875598907
