time,seconds_elapsed,z,y,x
1746482475419841300,0.01484130859375,0.20052286460548638,0.14475158528387547,-0.06938683995902538
1746482475429819400,0.0248193359375,0.017156594245135784,0.104983053997159,-0.06963117010891437
1746482475439798300,0.03479833984375,-0.048052375507354736,-0.030308629024028776,-0.021430326041579247
1746482475449777400,0.04477734375,0.07387275320142507,-0.08721417307257652,-0.02665770530104637
1746482475459756300,0.05475634765625,0.2753641705781221,-0.1709481028139591,-0.06998129872083664
1746482475469735200,0.064735107421875,0.4768152559444308,-0.32595161752104757,-0.01489887844622135
1746482475479713800,0.0747138671875,0.6949632090896367,-0.4347913469463587,0.03877133694291115
1746482475489693000,0.08469287109375,0.8282619647279381,-0.4693377596706152,0.016468904241919515
1746482475499672000,0.094672119140625,0.7650868388906121,-0.37245442549884317,-0.05445931994020939
1746482475509651000,0.10465087890625,0.600854600328207,-0.26302199087738987,-0.08337327973544598
1746482475519630000,0.114630126953125,0.4171338174417615,-0.18542963263094425,-0.04541384369730949
1746482475529609000,0.12460888671875,0.23514994135051964,-0.17631518280506134,0.04639057977497577
1746482475539587800,0.134587890625,0.14319558801352977,-0.12721592859327793,0.13281272568702698
1746482475549565700,0.144565673828125,0.10373188489228487,-0.08614508253633975,0.13733692511320114
1746482475559544800,0.154544921875,0.02480857030302286,0.05596738641560077,0.02714695012271404
1746482475569523700,0.164523681640625,-0.10799684886038302,0.25263094524443147,-0.04633680376112461
1746482475579502800,0.1745029296875,-0.22118600566685198,0.3352279799103737,-0.030661680245399472
1746482475589481700,0.184481689453125,-0.26639351313710213,0.288771933683753,0.07928396459519862
1746482475599460900,0.1944609375,-0.2895382418811321,0.212636788508296,0.17503858699798583
1746482475609439700,0.204439697265625,-0.1882531656190753,0.1807745003014803,0.20893150424957274
1746482475619419000,0.2144189453125,-0.12824760972857474,0.22761750001907347,0.13537643869519234
1746482475629397800,0.224397705078125,-0.1652536905646324,0.3270177854478359,0.0370393985837698
1746482475639377000,0.234376953125,-0.18146540517508983,0.3450929558426142,0.05332300938665867
1746482475649355800,0.244355712890625,-0.15964549529403446,0.26184827092289925,0.19768822570145128
1746482475659335000,0.2543349609375,-0.09886398659497499,0.16596972987949848,0.3337403717011213
1746482475669313000,0.26431298828125,0.034876667591929436,0.08268179033994674,0.39520752457678315
1746482475679292000,0.2742919921875,0.14733838690668344,0.01526011297404766,0.3682318393677473
1746482475689270800,0.284270751953125,0.23233429940789938,0.0522714545071125,0.2985316956758499
1746482475699249700,0.294249755859375,0.2339008180722594,0.07475275090634823,0.32051556394696235
1746482475709228800,0.304228759765625,0.2711684724539518,0.005552373430132865,0.381028192576766
1746482475719207700,0.314207763671875,0.25914719527065755,-0.0955325040847063,0.48411739565134043
1746482475729186800,0.324186767578125,0.29390988109409805,-0.19735563274621962,0.5928805527091026
1746482475739165700,0.334165771484375,0.3585349134787917,-0.2806155152350664,0.6635369742125272
1746482475749144800,0.344144775390625,0.36318595415502786,-0.2685252644687891,0.5693810191780329
1746482475759123700,0.354123779296875,0.1634638845384121,-0.15952245343625546,0.3710843061894178
1746482475769102800,0.364102783203125,-0.07333207045346499,-0.05680033010840416,0.24208675487637518
1746482475779081700,0.374081787109375,-0.24624855073094368,-0.1319581546843052,0.23644319603145122
1746482475789059800,0.384059814453125,-0.379843951228261,-0.26905425677895545,0.30098259595930577
1746482475799039000,0.3940390625,-0.35314795974344015,-0.3810083188325166,0.30086101540625093
1746482475809017900,0.404017822265625,-0.3202750331893563,-0.3824339677214622,0.22607553127408025
1746482475818997000,0.4139970703125,-0.3367521207377314,-0.3163859167963266,0.1568669704914093
1746482475828975900,0.423975830078125,-0.3459282376229763,-0.2817173389971256,0.09311199893951415
1746482475838955000,0.433955078125,-0.3337760275363922,-0.3287923939049244,0.0769587365180254
1746482475848934000,0.443933837890625,-0.30643194740638136,-0.3812579096794128,0.10787234569787979
1746482475858913000,0.4539130859375,-0.26487726335525513,-0.4125947127074003,0.1443967804968357
1746482475868892000,0.463891845703125,-0.19460604177713392,-0.4508750512629747,0.15102292063832282
1746482475878871000,0.47387109375,-0.18010580725967884,-0.39971827999949455,0.11639701293706893
1746482475888849700,0.483849609375,-0.23253157554566858,-0.295560570910573,0.06981529450416564
1746482475898828800,0.493828857421875,-0.29869463115260003,-0.24423779543042182,0.0455745872169733
1746482475908807000,0.503806884765625,-0.3634956046260893,-0.28081425267755983,0.06109422791004181
1746482475918785800,0.513785888671875,-0.38560850610435005,-0.3098305038034916,0.11999883682131766
1746482475928765000,0.523764892578125,-0.3796059777539223,-0.3953694371402263,0.09946575188040732
1746482475938743800,0.533743896484375,-0.4261100278407335,-0.4135083204209804,-0.11179098044633864
1746482475948723000,0.543722900390625,-0.6059434478998184,-0.31095278583168984,-0.3937105640172958
1746482475958701800,0.553701904296875,-0.8020960615318268,-0.17354396452605722,-0.5709235724449158
1746482475968681000,0.563680908203125,-0.940643604543805,-0.1752671350568533,-0.5896610061407089
1746482475978659800,0.573659912109375,-1.0319389094501734,-0.26176877594590187,-0.5238093545705079
1746482475988639000,0.583638916015625,-1.0519266354680061,-0.29964930152893066,-0.5235170936256647
1746482475998617900,0.593617919921875,-1.076442068043351,-0.24510171878337858,-0.6089192488402128
1746482476008597000,0.603596923828125,-1.1492295832913368,-0.1463835703998804,-0.6415683035105466
1746482476018576000,0.613575927734375,-1.1290396126996725,-0.11561726073622702,-0.5346241785734892
1746482476028555000,0.623554931640625,-1.091921961247921,-0.17641630509197712,-0.4441472043126821
1746482476038532600,0.63353271484375,-1.0726099425345659,-0.2494020463258028,-0.3669897303521633
1746482476048511700,0.64351171875,-1.0381167213022708,-0.3066431059390306,-0.33279227719604965
1746482476058491000,0.653490966796875,-1.0374006819874049,-0.31154373746216296,-0.41099429177343844
1746482476068469800,0.6634697265625,-1.0986088916659356,-0.3019213381141424,-0.4472755654662847
1746482476078449000,0.673448974609375,-1.1351467704683542,-0.3685024730026722,-0.43880116710960865
1746482476088427800,0.683427734375,-1.1424836892277002,-0.4735363804042339,-0.4076192623823881
1746482476098407000,0.693406982421875,-1.1334376284629106,-0.5746662661045789,-0.4140788137853145
1746482476108385800,0.7033857421875,-1.1029717630505562,-0.5985223579883575,-0.4893745855271816
1746482476118365000,0.713364990234375,-1.131538516843319,-0.594312046816945,-0.5636836843192577
1746482476128343800,0.72334375,-1.168458088439703,-0.5891314293086528,-0.6067185239255428
1746482476138323000,0.733322998046875,-1.2090145552337168,-0.6353478215605021,-0.5971200899749994
1746482476148300800,0.74330078125,-1.2455448352515697,-0.7262059040933847,-0.5713602102965116
1746482476158280000,0.753280029296875,-1.2495453030645847,-0.7916700176507234,-0.5621633428841829
1746482476168258800,0.7632587890625,-1.26367202809453,-0.7816396220237016,-0.608523527520895
1746482476178238000,0.773238037109375,-1.287721596723795,-0.7450450445979833,-0.6415864236891269
1746482476188216800,0.783216796875,-1.338369249421358,-0.7887544224649667,-0.6358709686517715
1746482476198196000,0.793196044921875,-1.3509364700496196,-0.8561983116626739,-0.583021421995759
1746482476208174800,0.8031748046875,-1.327263333517313,-0.9544400747060775,-0.4984849436998367
1746482476218154000,0.813154052734375,-1.2739385705649853,-1.0327233378261327,-0.4135656035661697
1746482476228132900,0.8231328125,-1.223867256450653,-1.0986696819424628,-0.3047714668482542
1746482476238111700,0.83311181640625,-1.1434417206048966,-1.2174784321963787,-0.17953122224211693
1746482476248090600,0.843090576171875,-1.0338099640190601,-1.3038403723537921,-0.03121639151871204
1746482476258068700,0.85306884765625,-0.9117547791898251,-1.3484469913214445,0.02846972315907478
1746482476268048000,0.8630478515625,-0.7974678902745247,-1.3066875784784555,-0.025335516786575314
1746482476278026800,0.87302685546875,-0.762162768137455,-1.2204735223591328,-0.08550561558902263
1746482476288006000,0.883005859375,-0.7747673981666564,-1.1257961737990378,-0.08101122677922248
1746482476297984800,0.89298486328125,-0.8319243596930056,-1.105242046070099,-0.09624094461500644
1746482476307964000,0.9029638671875,-0.9097136287510394,-1.0985440097361803,-0.21374270392358302
1746482476317942800,0.91294287109375,-1.0321160195827483,-1.1474234837174415,-0.47273324732780453
1746482476327922000,0.922921875,-1.2518038956463335,-1.1640905408799647,-0.7157248420894146
1746482476337900800,0.93290087890625,-1.459111598086357,-1.1572738466024397,-0.8909364475667476
1746482476347880000,0.9428798828125,-1.6314274821221828,-1.18896019372046,-1.0923773037999869
1746482476357858800,0.95285888671875,-1.707582501041889,-1.203034896302223,-1.3209177638828753
1746482476367838000,0.962837890625,-1.7485656688153743,-1.1420353609383105,-1.567328811699152
1746482476377816000,0.972816162109375,-1.7704338017523287,-1.0833879416584968,-1.8609616294175386
1746482476387794700,0.982794677734375,-1.78242351475358,-1.0331149674922226,-2.215769339066744
1746482476397773800,0.99277392578125,-1.9220599489808081,-1.1245330219954253,-2.5428379779189823
1746482476407752700,1.002752685546875,-1.93919579269886,-1.3198334757775068,-2.7202684284895655
1746482476417731800,1.01273193359375,-1.7996552200615406,-1.5463953292638062,-2.838132006847858
1746482476427710700,1.022710693359375,-1.6872703653752803,-1.8306652753531931,-2.861144049122929
1746482476437689900,1.03268994140625,-1.4322487256020306,-2.0579285551071167,-2.7140321644484997
1746482476447668700,1.042668701171875,-0.9974082788169384,-1.9322066644638776,-2.4988398462384938
1746482476457647900,1.05264794921875,-0.37956688785254955,-1.5219412714868783,-2.131412308990955
1746482476467626800,1.062626708984375,0.36023382635116574,-1.1476216366380452,-1.5843863294839857
1746482476477606400,1.0726064453125,0.9018342736780643,-0.9506003504127264,-0.9366741163909434
1746482476487584300,1.082584228515625,1.3348825763493775,-1.1339783112108708,-0.05319850622415542
1746482476497563400,1.0925634765625,1.6707529458165167,-1.542744405540824,0.9675175829440354
1746482476507542300,1.102542236328125,1.9847586894780396,-1.8724223501086235,1.907108463564515
1746482476517521400,1.112521484375,2.3430805447280405,-2.283902379572391,2.6931203093230724
1746482476527500300,1.122500244140625,2.7893711908102032,-2.8365274942606686,3.2457115217417476
1746482476537479400,1.1324794921875,3.162561529368162,-3.5119928066760298,3.5453304281324147
1746482476547458300,1.142458251953125,3.393544121906161,-4.547763841634988,3.923834655189514
1746482476557437400,1.1524375,3.5430946319043635,-6.043645958235859,4.359834793403745
1746482476567416300,1.162416259765625,3.4015368742257355,-7.7547800142794845,4.817862639030814
1746482476577395500,1.1723955078125,2.854285853791237,-9.655160046371817,5.373326776537299
1746482476587374300,1.182374267578125,2.0088404068112373,-11.78694703389406,5.497392716667056
1746482476597353500,1.192353515625,1.165371228340268,-14.115624959260224,4.913056704941392
1746482476607331300,1.202331298828125,0.5000350957512856,-15.93267321267128,3.7125773383408784
1746482476617310200,1.212310302734375,-0.04129522939734161,-15.596591830801962,1.4862059412389992
1746482476627289300,1.222289306640625,-0.9920892757512628,-12.985724272751808,-1.3481319340229034
1746482476637268200,1.232268310546875,-2.7437635781064627,-9.987480029881,-3.224845259323716
1746482476647247400,1.242247314453125,-5.165739088112115,-6.58555970929563,-4.312259387758374
1746482476657226200,1.252226318359375,-7.738343258741498,-3.046175622346997,-4.880890465351939
1746482476667205400,1.262205322265625,-10.673285534524917,0.2957975945368409,-4.8687645587503905
1746482476677184300,1.272184326171875,-14.749274744731187,2.3655682708680628,-4.315730278739333
1746482476687163400,1.282163330078125,-19.02113957825899,2.839570222957432,-3.995416959366202
1746482476697142300,1.292142333984375,-22.6585912407279,2.611411163407564,-4.230936026290059
1746482476707120400,1.302120361328125,-24.414469278383255,2.1831888195879756,-4.585234032851457
1746482476717099500,1.312099609375,-23.912926116156576,1.6587870520822703,-5.609353208461403
1746482476727078400,1.322078369140625,-22.327267867040632,0.8612522340513765,-6.953396996387839
1746482476737057500,1.3320576171875,-20.870248857319353,0.3429560899443924,-8.403122926491498
1746482476747036400,1.342036376953125,-20.174539213776587,-0.08119520504400134,-9.011742900124192
1746482476757015600,1.352015625,-19.78863318603039,-0.6139437990039587,-8.896547664192319
1746482476766994400,1.361994384765625,-18.847478124833106,-1.213819471297413,-8.73169612468779
1746482476776973600,1.3719736328125,-17.091882995772362,-1.6169849691413343,-8.535176942765712
1746482476786952400,1.381952392578125,-14.908496169394255,-1.6698992515966296,-8.046258868834375
1746482476796931600,1.391931640625,-11.897047577035426,-0.46920985897462814,-7.541999433386326
1746482476806910200,1.40191015625,-7.916747522780299,1.8905324456863104,-7.117147296652197
1746482476816888300,1.411888427734375,-3.5432699884712693,5.906091590979695,-6.487990146425366
1746482476826867500,1.421867431640625,-0.18237784384489059,11.664224325066805,-5.2629532616734505
1746482476836846300,1.431846435546875,1.8289619785666464,18.13309885213375,-3.1018846500873565
1746482476846825500,1.441825439453125,3.410085506862402,24.39828737438917,0.13795476475059984
1746482476856804400,1.451804443359375,5.225349214944243,29.218049125039578,4.238718058468401
1746482476866783500,1.461783447265625,6.9284379116982215,31.10240507404804,7.5085823169529435
1746482476876762400,1.471762451171875,7.022925290644168,30.435444555127617,8.122649450075626
1746482476886741500,1.481741455078125,5.0882151189267635,29.686124901950357,7.377294608876109
1746482476896720400,1.491720458984375,1.561925491350889,30.261039589858054,5.411169308197498
1746482476906699500,1.501699462890625,-0.6387210973858833,33.958100794637204,6.507721851855516
1746482476916678400,1.511678466796875,12.52840252956748,39.010995593857764,9.354785353177785
1746482476926656500,1.521656494140625,43.793460171771045,34.28439026581049,20.617295840513705
1746482476936635400,1.531635498046875,99.13546427950858,28.06449751383066,25.62176884639263
1746482476946614500,1.541614501953125,37.85107503213882,30.667064861047265,17.72911706947088
1746482476956593200,1.55159326171875,-7.20740741329193,2.3585545927137135,1.598466877284646
1746482476966572300,1.561572265625,-10.47989763636589,-14.373901801437139,-12.773334737002848
1746482476976551200,1.57155126953125,15.98832320370078,-12.244178760707378,3.343485959534347
1746482476986530300,1.5815302734375,46.948293152713774,-5.666598944249749,18.50829994599223
1746482476996509400,1.591509521484375,42.36664691522121,-1.4157640392690896,11.667323460125923
1746482477006488300,1.60148828125,18.09430530335903,0.9479510049477219,2.832389663803577
1746482477016467500,1.611467529296875,-4.304793289661407,4.024258146186173,-1.819389555840194
1746482477026445300,1.6214453125,-20.60992385044098,4.322487059523165,-1.5715888072311877
1746482477036424400,1.631424560546875,-30.2742310798645,1.1670771554753183,-0.510319758400321
1746482477046403300,1.6414033203125,-28.839253221559524,-0.558688652510941,-3.123767396071553
1746482477056382500,1.651382568359375,-16.156678367412088,0.755198774343729,-7.827876814672351
1746482477066361300,1.661361328125,-4.202600743165612,-0.137592653439939,-7.333433255317807
1746482477076340500,1.671340576171875,2.2677029399216173,0.1565463602349162,-3.473879641380906
1746482477086319400,1.6813193359375,4.7661505719721315,-0.22867782272696494,0.2705655381247401
1746482477096298500,1.691298583984375,2.376326980769634,-0.5864873445406555,0.5689376593247055
1746482477106277400,1.70127734375,-3.812417184230685,-0.705309831058979,-0.812025407937169
1746482477116256500,1.711256591796875,-8.663813844072818,-1.7150000838220119,-0.1844382835060358
1746482477126235400,1.7212353515625,-4.843724810039997,-2.0646245456144214,1.8425728630289435
1746482477136213200,1.731213134765625,5.213854007461666,-1.8173259013086556,3.463758060339093
1746482477146192400,1.7411923828125,12.772616944122314,-0.9576330255284905,3.1743247401371595
1746482477156171300,1.751171142578125,12.13852175297141,0.5274249147191643,1.9914970578223465
1746482477166150400,1.761150390625,6.178322139707207,1.8435615818053483,1.7808014665096996
1746482477176129300,1.77112939453125,-0.04725742573738098,2.6963793111190197,1.4552704124882816
1746482477186108400,1.7811083984375,-2.8446833281874655,3.0257606108278035,0.9718246324881911
1746482477196087300,1.79108740234375,-3.6282512879252433,2.766702847406268,0.8776374055325984
1746482477206066400,1.80106640625,-2.374080078625679,1.4948070347152649,0.9512333876192569
1746482477216045300,1.81104541015625,-1.0575491515249014,0.2996773585796356,0.029080840794742106
1746482477226024400,1.8210244140625,-1.2192413502156734,-0.6419872595749795,-0.310502996237576
1746482477236002600,1.83100244140625,-0.20574585995078085,-1.243644408457726,-0.40910540928691624
1746482477245981400,1.8409814453125,1.8381249437093734,-1.6807035542055964,-0.32902181874662634
1746482477255960600,1.850960693359375,1.9656202737659214,-2.028217891976237,0.2320145659342408
1746482477265939500,1.860939453125,0.5290846646249294,-2.0713691975690423,0.9587953473061323
1746482477275918600,1.870918701171875,-0.1466109494149685,-1.4525873108841478,1.5539643032133579
1746482477285897500,1.8808974609375,0.6646200932741165,-0.5004116739787161,2.1254060543134807
1746482477295876600,1.890876708984375,1.3837825085967779,0.13168196809142826,2.672774271386862
1746482477305855200,1.900855224609375,0.8191793713450432,0.29273177722543475,2.85110897732079
1746482477315834400,1.91083447265625,0.3221814513325691,0.9097175742737948,2.8966683669686315
1746482477325813200,1.920813232421875,-0.06491817011237144,0.7403908621165901,2.6977304334670302
1746482477335791400,1.930791259765625,0.0028121348112821578,0.6322200449287891,2.058312001466751
1746482477345770200,1.940770263671875,-0.19379589443802833,0.7724974074080586,1.425822784207761
1746482477355749400,1.950749267578125,-0.9231436036884784,1.245659693802893,1.3083714399121702
1746482477365728300,1.960728271484375,-0.7391010415017605,1.6797906771443782,0.8125282428927719
1746482477375707400,1.970707275390625,-0.6440262180566787,1.9689634467139838,-0.1633364587664604
1746482477385686300,1.980686279296875,-0.33623803373575206,1.6165782880365847,-1.4864413574300706
1746482477395665400,1.99066552734375,-0.5456804101169109,1.1959230184704064,-2.352411121522635
1746482477405644500,2.00064453125,-0.7944833215057849,0.9475990497048944,-3.1789187899291513
1746482477415623400,2.01062353515625,-0.7810966011881828,0.888509220419824,-3.835483587041497
1746482477425602600,2.0206025390625,-0.27019465898573397,0.8607427501592785,-3.5690666930288075
1746482477435580400,2.030580322265625,0.18281039004325866,1.2840956613115966,-3.449205803373456
1746482477445559600,2.0405595703125,0.3327507761418819,2.189998061211407,-2.9312480974406
1746482477455538200,2.0505380859375,0.35731940020918845,3.335526524962485,-1.4203753324568271
1746482477465517300,2.060517333984375,0.3554559444248676,4.246631900332868,0.5137337315622716
1746482477475496200,2.07049609375,0.21025544632971285,4.782399988244474,1.8777355079554021
1746482477485475300,2.080475341796875,-0.45664603587985036,4.5908992190063,2.0017899037778375
1746482477495454200,2.0904541015625,-1.1995873861968516,3.947843307286501,1.6215138447426258
1746482477505433300,2.100433349609375,-2.022348707681894,3.058338061566651,1.2251595612835138
1746482477515412200,2.110412109375,-2.5284569858670234,1.9826171474047003,0.5053785391384735
1746482477525391400,2.120391357421875,-2.601485981720686,0.8351121228836477,-1.010463136831671
1746482477535369200,2.130369140625,-2.2061539539813992,-0.5948970801632851,-3.070407854066789
1746482477545348000,2.14034814453125,-0.4102361668825149,-1.9685719631783662,-4.711517649030685
1746482477555327200,2.1503271484375,3.433080598002672,-3.753604637517035,-6.527714838570356
1746482477565306000,2.16030615234375,6.348640712445974,-5.0794297549247736,-7.31115887966752
1746482477575285200,2.17028515625,5.27835892059803,-4.78683504808247,-6.406047191753983
1746482477585264000,2.18026416015625,2.8955981073886154,-3.7020524371951815,-5.032157131618261
1746482477595243300,2.1902431640625,1.274315587183833,-2.273150245542079,-3.332135128958523
1746482477605222100,2.20022216796875,1.0361118112206458,-1.2073762865073978,-1.2514879615649581
1746482477615201300,2.210201171875,1.5602128422141075,-0.05252966705188155,0.43046800385452805
1746482477625180200,2.22018017578125,2.1149773070186377,0.9149472916208207,2.0056511092506346
1746482477635158300,2.230158203125,2.581254510074854,1.6359601571157574,3.452534071013331
1746482477645137400,2.240137451171875,2.794051457580924,1.5273919381082057,3.65423679305315
1746482477655116300,2.2501162109375,3.072557433316111,0.8958958235397935,2.7983663981705904
1746482477665095400,2.260095458984375,2.3322861789911986,0.6247112767338753,1.93135355476588
1746482477675074300,2.27007421875,1.9723568885445593,0.5849751864120364,1.6505987771905957
1746482477685053200,2.28005322265625,3.0038392863988874,0.18540274462401865,1.5271334333024917
1746482477695032000,2.290031982421875,4.058278781470656,0.11596417447775602,1.1060299815773964
1746482477705011200,2.30001123046875,4.794923077470064,0.7062921200945973,0.4664749175854027
1746482477714990000,2.309989990234375,5.209709747263789,1.3891735539853571,-0.8414028935909271
1746482477724969200,2.31996923828125,5.975489536854624,1.9076538224875925,-2.459804597662389
1746482477734947300,2.329947265625,6.965727485650778,2.5861089643687007,-3.7456659534722565
1746482477744926200,2.33992626953125,8.043662422600388,3.2494998081088062,-4.441437556335329
1746482477754905300,2.3499052734375,8.75551188456118,3.383441245564818,-3.9389603281289336
1746482477764884200,2.35988427734375,8.60468828588724,3.2037673999816176,-2.929230620138347
1746482477774863400,2.36986328125,6.921020913439989,3.5963854925870895,-1.39918349134624
1746482477784842200,2.37984228515625,4.939200030979514,4.120173219847679,0.42202615606058386
1746482477794821400,2.3898212890625,4.329547207167744,4.483282309374213,1.1197522174596786
1746482477804800300,2.39980029296875,4.218049072188139,4.733720128488541,0.8455697309467941
1746482477814779400,2.409779296875,4.0530110702008,4.850840195003151,0.3056690732751041
1746482477824758300,2.41975830078125,3.686335228103399,4.7781361933201545,-0.4707096325457096
1746482477834736000,2.429736083984375,3.114587479794025,4.624369526931643,-1.650303593636304
1746482477844715000,2.439715087890625,1.7582938666254282,4.720824991080165,-2.958581510046124
1746482477854694100,2.449694091796875,-0.29710429322123527,4.834494624879956,-3.878504982644319
1746482477864673000,2.459673095703125,-2.4124457573771476,4.742716212631762,-4.155858281213045
1746482477874652200,2.469652099609375,-4.307009796667098,4.452255010686814,-3.8101635600849986
1746482477884631000,2.479631103515625,-5.942590891337394,3.9695015968650575,-3.014207243417203
1746482477894610200,2.489610107421875,-7.40534172270894,3.3907910238057375,-2.1731788822270928
1746482477904589000,2.499589111328125,-8.621653449213504,2.7578710139140483,-1.4776581853851676
1746482477914568200,2.509568115234375,-9.481206916522979,2.1212422126322985,-1.0457670899249614
1746482477924546300,2.51954638671875,-10.040655155229567,1.344277888943255,-0.9428595270276069
1746482477934525200,2.529525146484375,-10.334958419555425,0.6085139559749514,-1.1073965937554835
1746482477944504300,2.53950439453125,-10.388308901470898,-0.06468739356379956,-1.376253282135725
1746482477954483200,2.549483154296875,-10.220514878773688,-0.6418091265290975,-1.6985215349689124
1746482477964462300,2.55946240234375,-9.791402161985635,-1.135649605423957,-1.9569418772697447
1746482477974441200,2.569441162109375,-9.041160133266448,-1.5713324943825602,-2.146017465187609
1746482477984420400,2.57942041015625,-8.180693642765283,-1.9002289331838487,-2.293750696630776
1746482477994399200,2.589399169921875,-7.470552153766155,-2.1848004925683138,-2.3938231822326776
1746482478004378400,2.59937841796875,-6.761495537394285,-2.435604222385585,-2.427046529659629
1746482478014357200,2.609357177734375,-5.882656354856491,-2.610436180895567,-2.4320482834696766
1746482478024335000,2.619335205078125,-4.9895297037690876,-2.7886329396635294,-2.329304825092852
1746482478034314200,2.629314208984375,-4.190173223268985,-2.997135404846072,-2.2101441926613448
1746482478044293000,2.639293212890625,-3.47683790666461,-3.217955207549035,-2.1686428462326526
1746482478054272300,2.649272216796875,-3.0330992831528185,-3.4428041196376085,-2.13918118942678
1746482478064251100,2.659251220703125,-2.7824767551213503,-3.682458386670053,-1.9215552143290637
1746482478074230300,2.669230224609375,-2.4343162284016606,-3.8644294032797215,-1.628454019269347
1746482478084209200,2.679209228515625,-2.1225719999313353,-3.964668769881129,-1.4217062887996434
1746482478094188300,2.689188232421875,-1.8550737404227255,-4.125073851370812,-1.336813836672902
1746482478104167200,2.699167236328125,-1.5964742421627043,-4.321037152975798,-1.6338146695196627
1746482478114146300,2.709146240234375,-1.4667425313562155,-4.637551080065966,-2.093172010184824
1746482478124124400,2.71912451171875,-1.570855232259631,-5.003771579611301,-2.372738893149793
1746482478134103300,2.729103271484375,-1.9794214201033113,-5.221891767966747,-2.3613629281327126
1746482478144082400,2.73908251953125,-2.4910481694489714,-5.21418309328556,-2.0430466277956962
1746482478154061300,2.749061279296875,-2.6634862185597417,-5.268468810224533,-1.4086875250115989
1746482478164040400,2.75904052734375,-2.8126562048077584,-4.984933023628592,-1.165949320489168
1746482478174019300,2.769019287109375,-2.767905793455243,-4.694631103898584,-1.0509148280769587
1746482478183998200,2.778998291015625,-2.652925661578774,-4.4512332664236425,-0.9541226793199777
1746482478193977000,2.78897705078125,-2.524503279805183,-4.201257804124057,-1.100310727147758
1746482478203956200,2.798956298828125,-2.6053730522871015,-3.9684523800730704,-1.490332081258297
1746482478213934000,2.80893408203125,-2.931586535614729,-3.9505248014554377,-2.0725112072110177
1746482478223913200,2.818913330078125,-3.20298004899621,-4.022913161318004,-2.8288547676756974
1746482478233892000,2.82889208984375,-2.976491845268011,-3.9701884100854397,-3.337234205663204
1746482478243871200,2.838871337890625,-2.8181232380419967,-3.6182761296167967,-3.5371810239464043
1746482478253850000,2.84885009765625,-3.064590984481573,-3.0919810957103966,-3.7158240651771424
1746482478263829200,2.858829345703125,-3.366438088315725,-2.6672031932562588,-3.907994988761842
1746482478273808100,2.86880810546875,-3.4977076762139796,-2.367556229814887,-4.2976562773883344
1746482478283787300,2.878787353515625,-3.5141333258360623,-2.4664532418966294,-4.9823348238289356
1746482478293766100,2.88876611328125,-3.4107588760793206,-2.809054673184454,-5.710336379167437
1746482478303744300,2.898744140625,-3.396205450069904,-2.9645880569845438,-6.065978786075115
1746482478313723400,2.908723388671875,-3.3090859695434567,-2.937795034866035,-6.007435411691666
1746482478323702300,2.918702392578125,-2.7999545441448688,-2.767013813051581,-6.000957155588269
1746482478333681200,2.92868115234375,-2.0420441727548835,-2.5553850325420497,-5.882926403969526
1746482478343660000,2.938659912109375,-1.085808446803689,-2.1045281014576553,-5.38087763030827
1746482478353639200,2.94863916015625,0.14297756134867667,-1.5481643847629427,-4.858897244730591
1746482478363618000,2.9586181640625,1.4211854797959327,-1.1908717264302073,-4.554547802686691
1746482478373597200,2.96859716796875,2.710952318611741,-0.8499732996679842,-4.2881361693710085
1746482478383576000,2.978576171875,4.1264007160604,-0.327351218653284,-3.9160625598832963
1746482478393555200,2.98855517578125,5.357636455452442,0.26877361320666965,-3.4767747783005234
1746482478403533300,2.998533203125,6.29756635876894,1.0550573347091674,-2.9150851904079316
1746482478413512200,3.00851220703125,7.088194173890352,2.0065832755342123,-1.988865978666395
1746482478423491300,3.0184912109375,7.589593543732166,2.7932278662383556,-0.9058823800250887
1746482478433470200,3.02847021484375,7.476538242438435,3.4549989998221395,-0.033833620245824564
1746482478443449300,3.038449462890625,6.933627881556749,3.9945901531532404,0.5789462449787184
1746482478453428200,3.04842822265625,6.238410405445099,4.3227860424697395,0.841283651125431
1746482478463407400,3.058407470703125,5.4242783806174995,4.551563818439841,0.7487017404746263
1746482478473386200,3.06838623046875,4.449726661252975,4.693557629448176,0.18864797362294047
1746482478483364900,3.07836474609375,3.4969828690707683,4.981882988408207,-0.37946514451112595
1746482478493343000,3.088343017578125,2.854735351124406,5.19273581610918,-0.8490715285226702
1746482478503321900,3.09832177734375,2.8583050263047216,5.420108401456475,-1.6897580905377865
1746482478513301000,3.108301025390625,3.0007524262994525,5.5073693362802265,-2.7546365620374678
1746482478523280000,3.11827978515625,3.447159392237663,6.942077729994058,-1.4859060815095901
1746482478533259000,3.128259033203125,5.324112956035137,9.63219476584792,1.461936884640157
1746482478543238000,3.13823779296875,8.634826234519482,12.69737027221918,4.482271671026945
1746482478553217000,3.148217041015625,7.989117762464285,13.767732728087902,6.187267078185081
1746482478563196000,3.15819580078125,2.4294494991481304,14.384239655578135,5.508477005261183
1746482478573175000,3.168175048828125,-2.6285516833007336,11.68603283677101,3.0544279023855925
1746482478583153000,3.17815283203125,-0.35348493661284447,4.5674268657431005,0.8397152327649294
1746482478593131800,3.1881318359375,0.7895254068374633,0.17016528187319635,0.3594740940250456
1746482478603111000,3.19811083984375,-0.879540608805418,-2.4300848744422194,-0.8309259232401848
1746482478613089800,3.20808984375,-1.2496329813480376,-3.5979742230832574,-1.8015572542905807
1746482478623069000,3.21806884765625,0.032114217141270635,-2.6315990881726146,-1.6893990479670464
1746482478633047800,3.2280478515625,0.6879816796392202,-0.7811696664243936,-0.7245794719353318
1746482478643027000,3.23802685546875,0.522843139886856,0.42185010537393386,-0.01680734241604805
1746482478653005800,3.248005859375,0.21869185076355932,0.7740194293435663,-0.3037725189387798
1746482478662985000,3.25798486328125,-0.34394670841693875,0.7439506734900176,-0.7578194782361388
1746482478672962800,3.267962890625,-0.8685714710235595,0.4762839255467057,-0.7643168774314224
1746482478682942000,3.27794189453125,-1.0347674108743667,0.14474720136970282,-0.3569843230359256
1746482478692920800,3.2879208984375,-0.8717062619179486,-0.06110124217271804,0.1152566107302904
1746482478702900000,3.29789990234375,-0.49211190153658385,-0.23654461057931184,0.396953491461277
1746482478712878800,3.30787890625,-0.14786416434645652,-0.33950368446819484,0.6419064494237303
1746482478722858000,3.31785791015625,0.037678281009197234,-0.5494716190934181,0.8025155290529131
1746482478732836900,3.3278369140625,0.05224924267530441,-0.7449653304252774,0.529876107263565
1746482478742815700,3.337815673828125,-0.0987567268282175,-0.686411288517341,0.2087076323658228
1746482478752794600,3.347794677734375,-0.22415946851968763,-0.43918059488125144,-0.282747120436281
1746482478762772700,3.357772705078125,0.09938158072829247,-0.21979352839514613,-0.6012159809865057
1746482478772752000,3.367751953125,0.6095137076020241,-0.03099186204783618,-0.3199740044161677
1746482478782730800,3.377730712890625,0.6691472153097391,0.026130758817493913,-0.1759308596625924
1746482478792710000,3.3877099609375,0.07549392466247082,0.3900117094993591,-0.19280016139894723
1746482478802688800,3.397688720703125,-0.5970055236846208,0.4292018563762307,-0.3444162256248295
1746482478812668000,3.40766796875,-0.9845108033210038,0.39225086672827597,-0.23660744668245315
1746482478822646800,3.417646728515625,-0.8668179053544998,0.5583586899042129,-0.6414326944321393
1746482478832626000,3.4276259765625,-0.4536380862355232,0.5106587810963392,-0.8845848865829408
1746482478842604800,3.437604736328125,-0.7541589099019765,0.3172963096395135,-0.26487492526769635
1746482478852583000,3.4475830078125,-0.7837690352678298,0.17633271846175191,-0.26549378781840205
1746482478862562000,3.45756201171875,-0.784113903182745,-0.11562471339032053,-0.38393969610929485
1746482478872541000,3.467541015625,0.034006899020075795,-0.27164675749018785,0.9031326429255306
1746482478882520000,3.47752001953125,1.4800211151242255,-0.7302348673485219,0.9972489966019987
1746482478892498700,3.487498779296875,1.742338757124543,-1.1824383907362819,0.7446133751824497
1746482478902477800,3.497477783203125,2.1271955680787564,-1.0488508812844752,0.5354137215159833
1746482478912456700,3.507456787109375,2.391055763345957,-0.9812981248848139,0.3525103924922645
1746482478922435800,3.517435791015625,2.199834103310108,-1.0936819566577671,0.11190013990923761
1746482478932414700,3.527414794921875,1.6488655236572025,-1.0241736822761596,0.32670039006173607
1746482478942392800,3.537392822265625,0.9071113372981547,-0.8167746482908725,0.2579530170500278
1746482478952371700,3.547371826171875,0.09624971244335175,-0.6378275095470249,0.25599179997965693
1746482478962350800,3.557350830078125,-0.47942836105227465,-0.24257000834867357,0.338585327514261
1746482478972329700,3.567329833984375,-0.7799000848799943,0.12403086881637572,0.44714609386771914
1746482478982308900,3.577308837890625,-1.2089011579871176,0.3842272808790207,0.185594175542891
1746482478992288000,3.5872880859375,-1.509170052719116,0.5839671784132718,-0.25435484642758965
1746482479002267000,3.597266845703125,-1.4582517663866281,0.8898143116690218,-0.5951771392136812
1746482479012246000,3.60724609375,-1.3510826005220413,1.0085517502523957,-0.8241765951104462
1746482479022225000,3.617224853515625,-0.813599525386095,0.6135971775233745,-1.0368382257990538
1746482479032203000,3.627203125,0.058691842943429946,0.03732099200412631,-0.9820544962100685
1746482479042181600,3.637181640625,0.9922422743558883,-0.3373552011974156,-0.8261915881946682
1746482479052160800,3.647160888671875,1.521139891976118,-0.4801617898933589,-0.5009883048228919
1746482479062139600,3.6571396484375,1.4076222338676452,-0.41989889824092386,-0.2545987381860614
1746482479072118800,3.667118896484375,0.9422808503568172,-0.24457623360455036,0.05482449999079108
1746482479082097700,3.67709765625,0.30224340967535973,-0.3572165243566036,0.39687516552805896
1746482479092076800,3.687076904296875,0.029906477963924406,-0.45950405565947294,0.33834815775752064
1746482479102055700,3.6970556640625,0.13987491915822028,-0.5647212106734514,0.21369564991146325
1746482479112033800,3.70703369140625,-0.17281038955450057,-0.6274579450935125,0.20146175289079546
1746482479122013000,3.717012939453125,-0.43559272645711894,-0.5583583976432681,0.12127923202067613
1746482479131991800,3.72699169921875,-0.5122837519496679,-0.4149988512396812,0.24096242702156304
1746482479141971000,3.736970947265625,-0.6020207214981317,-0.17885346911102531,0.3004929127462208
1746482479151949800,3.74694970703125,-0.6518769315570593,-0.021316636534035205,0.20619944893717765
1746482479161929000,3.756928955078125,-0.7035398987770081,0.06944967606216669,0.08197817211523652
1746482479171907800,3.766907958984375,-0.8313549623072147,0.044888066257536406,-0.011288578994572161
1746482479181887000,3.776886962890625,-0.8181775008261203,0.14544073659181594,-0.11465119218304752
1746482479191865900,3.786865966796875,-0.8813181398719548,0.1080345505222678,0.004884264910221099
1746482479201843700,3.79684375,-0.9973130017489195,0.07161269931495189,-0.005403758739680051
1746482479211822800,3.80682275390625,-0.4114963960766792,0.011744506068527697,0.07013532023876905
1746482479221801700,3.8168017578125,0.1441571265220642,-0.1255292906805873,0.2311464047975838
1746482479231780900,3.82678076171875,0.3032838586390018,-0.337217400161922,0.18227423733994363
1746482479241759700,3.836759765625,0.678830404934287,-0.5241856405369937,0.2316189907453954
1746482479251739000,3.84673876953125,1.3408166425734758,-0.6441401998251676,0.2557695355311036
1746482479261717800,3.8567177734375,1.8080378484815358,-0.6017888124383985,0.20949980565682053
1746482479271697000,3.86669677734375,1.5399544825613498,-0.37555093020945784,0.20333456102535127
1746482479281675800,3.87667578125,0.9652864628911018,-0.1825840339414775,0.05184066187441349
1746482479291654000,3.88665380859375,0.5311866053402423,-0.2043050134927034,-0.07637099975794553
1746482479301632800,3.8966328125,0.2673883693933487,-0.20705285089612005,-0.2568900639936328
1746482479311612000,3.90661181640625,0.21799451614916324,-0.18244199512228368,-0.21384484912380575
1746482479321590800,3.9165908203125,0.11792729124426841,-0.18538316314071415,-0.12108341718763112
1746482479331570000,3.92656982421875,0.2102875950336456,-0.20646409122273324,-0.13851385993808507
1746482479341548800,3.936548828125,0.06776712980270386,-0.18865049437358974,0.022176614364236593
1746482479351528000,3.94652783203125,0.021972177833318708,-0.1103837439969182,0.06349456705003977
1746482479361506800,3.9565068359375,-0.0163607676923275,-0.14985329233705996,0.09130626469179988
1746482479371484700,3.966484619140625,-0.057684127205610274,-0.13075740059241653,0.06443915442377328
1746482479381463800,3.9764638671875,-0.12837386645674706,-0.02575856450423598,0.053022126743942494
1746482479391442700,3.986442626953125,-0.6354045201838017,0.16033800760284064,0.08750058879852295
1746482479401421800,3.996421875,-0.7721341270536184,0.1406364050500095,0.0664050476692617
1746482479411400700,4.006400634765625,-0.48691608645915985,0.216302471408993,-0.036939591471105815
1746482479421379800,4.0163798828125,-0.6145674838602543,0.2820832497000694,0.013988631733506916
1746482479431358700,4.026358642578125,-0.6189478909015655,0.22477730815708635,0.023841478836536405
1746482479441337900,4.036337890625,0.09247370103597641,0.14026640269383786,-0.08712269539684056
1746482479451316000,4.04631591796875,0.4831441667050123,0.15099559423997996,-0.08660553965494036
1746482479461294800,4.056294921875,0.11785597957372665,0.012779548204690218,0.030144232242554424
1746482479471274000,4.06627392578125,0.13701076189875602,-0.10824702422916889,-0.12872238763347268
1746482479481253000,4.076253173828125,-0.06598609160482884,-0.30221272227615115,-0.20153949430212378
1746482479491232300,4.086232177734375,-0.2616319978237152,-0.4778879997424781,-0.15255159151032566
1746482479501211100,4.096211181640625,0.12096972768008708,-0.4884745679475367,-0.12480316836312412
1746482479511190300,4.106190185546875,0.25682079814970493,-0.5421500440336764,0.03378726492002606
1746482479521169200,4.116169189453125,0.4169073152095079,-0.6443462437912821,0.09694105570837855
1746482479531148300,4.126148193359375,0.7687427310496568,-0.7023617949083447,0.0988350527614355
1746482479541126000,4.1361259765625,0.79926704865098,-0.5747020680703222,0.11943652676343917
1746482479551105000,4.14610498046875,0.5000865336775779,-0.34755145491063594,-0.07139233456254004
1746482479561084200,4.156084228515625,-0.1439735866487026,-0.2194166579067707,-0.14770181339159608
1746482479571063000,4.16606298828125,-0.5884270804315805,-0.1520617621667683,-0.1690698878519237
1746482479581042200,4.176042236328125,-0.37811259739100933,-0.08616334884539247,-0.12987798740938306
1746482479591021000,4.18602099609375,-0.08498948276042938,-0.14378522446975112,-0.01074497363716364
1746482479601000200,4.196000244140625,0.18234511061906813,-0.13134382217824458,0.10041121603697538
1746482479610979000,4.20597900390625,0.1445797358483076,-0.13558189813941715,0.10807210605368017
1746482479620957200,4.215957275390625,-0.24037001408636569,-0.03206029499694705,-0.045468642624467606
1746482479630936000,4.22593603515625,-0.495080688214302,-0.0007389817990362643,-0.1325920686736703
1746482479640915200,4.235915283203125,-0.6832166571944952,-0.11576280668675899,-0.0863674931153655
1746482479650894000,4.24589404296875,-0.6161667357504368,-0.12062997433170676,0.00084156539067626
1746482479660873200,4.255873291015625,-0.5627548790365458,-0.21529417114928365,0.15897592546939848
1746482479670852000,4.26585205078125,0.011716156756877899,-0.04915580670461058,0.23098873001784084
1746482479680831200,4.275831298828125,0.3802811736017465,0.2417109073013067,0.387068934045732
1746482479690810000,4.28581005859375,0.43986675051450724,0.622869155998528,0.42190673093199726
1746482479700788000,4.2957880859375,0.15789806710481644,0.9790044609896839,0.3430085507839918
1746482479710767000,4.30576708984375,-0.17170096700787543,1.174480417469144,0.17993118134513497
1746482479720746000,4.31574609375,-0.5867091705977916,0.8047028099641204,0.15767930978760122
1746482479730725000,4.32572509765625,-0.4189893821805715,0.11566183053031563,0.0965222457744181
1746482479740704000,4.3357041015625,0.39976387270689007,-0.490297983982414,-0.012628595426678657
1746482479750683100,4.34568310546875,0.953642786848545,-0.9581338146574795,-0.015027034870535135
1746482479760662000,4.355662109375,1.070914244532585,-1.2541782235622405,-0.034431261911988253
1746482479770641200,4.36564111328125,0.8760416607737541,-1.3612130955226718,0.022293957133591173
1746482479780620000,4.3756201171875,0.5558417386472225,-1.2431808825992048,0.22379969529658555
1746482479790598100,4.38559814453125,0.28758476972579955,-0.904724588292092,0.3203792242161929
1746482479800577300,4.395577392578125,0.08114800490140914,-0.5234279540374874,0.27069223324432967
1746482479810556200,4.40555615234375,-0.06911386823654174,-0.19356778477057812,0.15263240166157482
1746482479820535300,4.415535400390625,-0.10012626161575316,0.11149886563196777,-0.043672552987933155
1746482479830514200,4.42551416015625,-0.10383856013715266,0.2933491784714162,-0.19352979084774852
1746482479840493300,4.435493408203125,-0.19083353750109672,0.34806145025938745,-0.20081337198466062
1746482479850472200,4.44547216796875,-0.4664613274514675,0.4881994042679667,-0.2965774928681552
1746482479860451000,4.455451171875,-0.8432686874628067,0.4316834440588951,-0.2433444998525083
1746482479870429000,4.465428955078125,-1.0284709410786628,0.3191886992573738,-0.06331964887455105
1746482479880408000,4.475407958984375,-0.7803338001221418,0.2707992007501423,-0.07785159370452165
1746482479890387000,4.485386962890625,-0.7456827579796313,0.5122167511280625,-0.2682142988234758
1746482479900366000,4.495365966796875,-0.7276508422046899,1.0225845864538103,-0.37367271524742246
1746482479910345000,4.505344970703125,-0.3253220874458551,1.3222891983665526,-0.4199775164350867
1746482479920324000,4.515323974609375,-0.2765162632226944,2.486066581644118,-1.0335087891153991
1746482479930303000,4.525302978515625,-0.34398294877409935,3.6521670010417697,-0.8427179217122495
1746482479940282000,4.5352822265625,2.3683517641067504,2.969944031059742,-1.9589633000947533
1746482479950260200,4.54526025390625,6.177541802984476,3.581721299679577,-1.11333628600277
1746482479960239000,4.555239013671875,6.522126809304952,5.186906963825225,0.2375582446012646
1746482479970218200,4.56521826171875,5.61790067205429,6.19444968316555,1.1157564258217811
1746482479980197000,4.575197021484375,3.7639246637403962,7.500941446810961,1.2766631732232867
1746482479990176300,4.58517626953125,2.6191964104562997,8.799716352468728,2.883547604110837
1746482480000155100,4.595155029296875,0.8814426430344581,9.18237477659583,3.9539442545101045
1746482480010134000,4.605134033203125,-0.928627588057518,8.1686150824368,4.110567479373515
1746482480020113000,4.61511279296875,-1.4052712868273258,7.2012629191875455,3.500752742998302
1746482480030092000,4.625092041015625,-2.2241695031434294,6.256064720079302,3.3370012736901637
1746482480040070100,4.635070068359375,-2.7177555688858033,5.245985760259628,2.5190610887512563
1746482480050049000,4.645049072265625,-3.1396880187809466,4.395507579809427,1.3695919245503843
1746482480060028200,4.655028076171875,-2.4672131203532217,3.541745263122022,0.6563317190088331
1746482480070007000,4.665007080078125,-1.806664806562662,3.076239921221137,0.19113818300347774
1746482480079986200,4.674986083984375,-1.1025561679869889,2.557308986341953,-0.06414336808128282
1746482480089965000,4.684965087890625,-0.15645780516862867,2.242300203117728,0.020741393929347395
1746482480099944200,4.694944091796875,0.624672698289156,2.4079022687286136,-0.005396123422496021
1746482480109923000,4.704923095703125,0.8033440888315438,2.874371194964647,-0.42129294641520826
1746482480119901200,4.714901123046875,0.4399953453302383,3.0531758564978837,-0.7708616228997707
1746482480129880000,4.724880126953125,-0.21321955683231353,2.6799522001922127,-1.2887763664737344
1746482480139859200,4.734859130859375,-0.6202753401130437,2.3079963718652725,-2.0651438933134076
1746482480149838300,4.74483837890625,-0.7186778466761112,2.3548159907072783,-2.985191869074106
1746482480159817000,4.75481689453125,-0.8003764711976051,2.36236567543447,-3.848027426794171
1746482480169796000,4.764796142578125,-0.6789525700092315,2.043425982502103,-4.926438164561986
1746482480179775000,4.77477490234375,-0.29398060824275013,1.4554028066962956,-6.261845641568303
1746482480189754000,4.784754150390625,0.08328150979876518,0.7851625354528426,-7.44538264119625
1746482480199732000,4.79473193359375,0.16159107640385625,0.17510229988396167,-8.340636367440224
1746482480209711000,4.804711181640625,-0.09726327340006828,-0.471152700138092,-9.059968878632784
1746482480219690000,4.81468994140625,-0.6070335812240839,-1.1661541954115033,-9.337550140738486
1746482480229669000,4.824669189453125,-1.32238257573843,-1.8478230386421084,-9.095681412526964
1746482480239648000,4.83464794921875,-2.184396880203485,-2.412669044739008,-8.429698798727989
1746482480249627100,4.844627197265625,-3.1349288415551184,-2.857181575232744,-7.577732425546646
1746482480259606000,4.85460595703125,-4.141225944748521,-3.0546272243499755,-6.7820730459988114
1746482480269585200,4.864585205078125,-5.0412359256088735,-3.115845078639686,-6.057554656600952
1746482480279563300,4.874563232421875,-5.66452622962892,-3.368012498025596,-5.558678667756915
1746482480289542100,4.884542236328125,-5.971688391005992,-3.9445743686184285,-5.218039768713712
1746482480299521300,4.894521240234375,-6.016814649933576,-4.574898516798019,-5.070868262806535
1746482480309500000,4.9045,-5.789358477956056,-5.0761073325037955,-5.2082022653102875
1746482480319479000,4.91447900390625,-5.146293213886023,-5.307653988665342,-5.457195730835199
1746482480329458000,4.9244580078125,-4.001394864732027,-5.347702505937218,-5.438653527450561
1746482480339437000,4.93443701171875,-2.6366040568530558,-5.131814022156596,-5.2106408906340596
1746482480349416000,4.944416015625,-1.2748609461069107,-4.673877361944317,-4.794241232685745
1746482480359394000,4.95439404296875,-0.2827238856911659,-4.122653930747509,-4.138208058232069
1746482480369373200,4.964373291015625,0.20908464898467063,-3.3095085788697003,-3.7534564612179993
1746482480379352000,4.97435205078125,0.396953491461277,-2.5151310558259485,-3.37963308545351
1746482480389331200,4.984331298828125,0.3158943338871002,-1.9545878614895045,-2.904021067818999
1746482480399310000,4.99431005859375,-0.2789174791455269,-1.6765300679132342,-2.5271546710968016
1746482480409289200,5.004289306640625,-1.0888345166265965,-1.4878379263550041,-2.134435456204414
1746482480419268000,5.01426806640625,-1.754554680097103,-1.0467542012661695,-1.9466770883649587
1746482480429247200,5.024247314453125,-2.743880774745345,-0.7333131057500839,-1.94002552152127
1746482480439225000,5.03422509765625,-4.387428318250179,-1.1699790143966675,-2.0100243558987976
1746482480449204200,5.044204345703125,-6.203943487697839,-1.9493254109166562,-1.4979185908645392
1746482480459183000,5.05418310546875,-7.755337063640356,-2.077372383506596,-0.8000804108604789
1746482480469162000,5.064161865234375,-9.232463626366853,-1.8061365449048579,-1.293612700589001
1746482480479141000,5.07414111328125,-9.808666600519418,-1.3706708058282733,-2.630969265836477
1746482480489120500,5.08412060546875,-9.163789318591355,-0.985919647205621,-3.4995652867794034
1746482480499099400,5.094099365234375,-7.566805373340845,-0.6495201392978429,-3.3314714043527838
1746482480509078500,5.10407861328125,-5.378064910975098,0.24678134243339298,-3.215833100828528
1746482480519056400,5.114056396484375,-2.843074723947048,1.2896050723828374,-3.8894291122406717
1746482480529035300,5.12403515625,-0.2758499082684517,2.201104561637342,-4.530004020799696
1746482480539014400,5.134014404296875,2.1115327195227147,3.1777690353721377,-4.384809075662494
1746482480548993300,5.1439931640625,3.696829734110832,4.848882631194591,-2.9939494682863352
1746482480558972400,5.153972412109375,4.0749686349868774,7.08137163439393,-1.5906415904864668
1746482480568951300,5.163951416015625,2.4487924975216386,8.330493743610381,-0.22109949642717838
1746482480578930400,5.173930419921875,-1.577363883501291,8.668444426482916,0.6752417327925563
1746482480588909300,5.183909423828125,-6.122868548032641,8.637391116571425,1.1461235070347786
1746482480598887400,5.193887451171875,-8.330824582999945,8.59659674936831,1.318147860778123
1746482480608866600,5.203866455078125,-10.593881742942333,8.368470130783319,1.659590623550117
1746482480618845400,5.213845458984375,-11.881557746958732,8.894297839438915,2.4005527827486395
1746482480628824600,5.223824462890625,-12.286481778907776,9.18012027566731,2.8123624825581905
1746482480638803500,5.233803466796875,-11.471250268405676,8.64653946866691,2.9605896349981426
1746482480648782600,5.243782470703125,-8.307863394129276,7.730568533086776,2.938519842009246
1746482480658761500,5.253761474609375,7.081862048259377,6.979200715208053,6.327950975638628
1746482480668740400,5.263740234375,48.45423664460182,7.751343610090017,21.455822886407375
1746482480678718200,5.27371826171875,25.641060406839845,-1.100018612333387,16.23890656876564
1746482480688697300,5.283697265625,1.7877227902054786,-0.42734234611466526,5.979490589189529
1746482480698676200,5.29367626953125,-0.6259212370455265,-3.5169419535160062,11.186183618980646
1746482480708655400,5.3036552734375,-6.156788937813043,-6.127137895914911,8.458665365493298
1746482480718634200,5.31363427734375,-0.022337504014372823,-4.339534055913984,1.8628392598576842
1746482480728613400,5.32361328125,8.813937770044802,-6.605920360279083,-1.2491178714327513
1746482480738592500,5.333592529296875,5.9870659928798675,-7.105596559590101,-3.5773365087240934
1746482480748571400,5.3435712890625,-4.364370098745822,-1.4324239360384643,-4.964302323532104
1746482480758549500,5.353549560546875,-12.369088750445842,5.035751941239834,-2.251264284687489
1746482480768528400,5.3635283203125,-6.942800199049711,6.599219985857606,1.893822281011939
1746482480778507500,5.373507568359375,1.2405951038897036,4.936069916260243,2.385413811936229
1746482480788486400,5.383486328125,6.243715526115894,3.881054667127132,1.2208768424630165
1746482480798465500,5.393465576171875,7.983471281009912,3.246654355549812,-1.249259179599583
1746482480808444400,5.4034443359375,6.877226195377111,1.4009646756745875,-1.4733093425258994
1746482480818423300,5.41342333984375,5.468976184999942,-1.6476269217729567,0.6732068659640849
1746482480828402200,5.423402099609375,4.238848699110746,-2.0749933794155715,1.2700238813392817
1746482480838380300,5.43338037109375,1.6966437583982943,-0.5492129681572318,0.9407736606642604
1746482480848359400,5.443359375,0.08255202648043632,0.49172728613317007,0.053723553011566394
1746482480858338300,5.45333837890625,-1.8039514559507368,0.15240100405849516,-0.42808571182787414
1746482480868317400,5.4633173828125,-2.8966876561909913,-0.207616695323959,-0.4528726548209786
1746482480878296300,5.47329638671875,-2.0519535723507403,0.17646606251783667,-0.3710677934460342
1746482480888275500,5.483275390625,-1.0947627376317977,0.2844891417980194,0.056065293832123275
1746482480898254300,5.49325439453125,-0.5068962136924267,-0.08299012563675641,0.0892798734307289
1746482480908233500,5.5032333984375,-0.2564636552751064,-0.6061326868616044,-0.10819880117326974
1746482480918211600,5.513211669921875,0.5621662654936314,-1.0911981770180166,-0.2573012751430273
1746482480928190500,5.5231904296875,1.5136176797777414,-1.1888741228722035,0.27506869476288553
1746482480938169600,5.533169677734375,2.0563918470591305,-0.9879550985559821,0.1775192978978157
1746482480948148500,5.5431484375,2.1114134770572184,-0.6965846728116274,0.16472352921068667
1746482480958127600,5.553127685546875,1.5175158562600612,-0.7378155317358672,0.2514008189275861
1746482480968106200,5.563106201171875,0.9370563937067985,-0.5708674583435058,0.0840627233043313
1746482480978085400,5.57308544921875,0.6394692854046822,-0.20643661869391797,-0.05010638542771339
1746482480988064300,5.583064208984375,0.06478606816530227,-0.016841536946594713,-0.005955985794961452
1746482480998042400,5.59304248046875,-0.49828737530112266,0.11441402242630719,-0.18602233782708644
1746482481008021200,5.603021240234375,-0.725754068672657,0.23038696473240852,-0.4311082745194435
1746482481018000400,5.61300048828125,-1.120508588784933,0.3149162826351821,-0.39451340483278036
1746482481027979300,5.622979248046875,-1.3399497966110705,0.13109846911504863,-0.29332828181385995
1746482481037958400,5.63295849609375,-0.7959644999742508,-0.18237492123544216,-0.2835582906886935
1746482481047937300,5.642937255859375,-0.03515548453330993,-0.14602788883000611,-0.26090397581011054
1746482481057916400,5.65291650390625,0.5270119500041007,-0.00939677389860153,-0.2269406236708164
1746482481067894500,5.66289453125,0.24377836122512817,0.07296075292304158,-0.1947185622408986
1746482481077873400,5.672873291015625,-0.27056056968867775,0.20622925955355167,-0.3229781546682119
1746482481087852500,5.6828525390625,-0.6316647491335868,0.1399579212665558,-0.34787498777657744
1746482481097831400,5.69283154296875,-0.6128910750806331,0.07881079412549734,-0.3946770709618926
1746482481107810600,5.702810546875,-0.26023031433224675,0.08253112982288002,-0.2865609796360135
1746482481117789400,5.71278955078125,0.1524316183924675,-0.04236556204259395,-0.10314999335110187
1746482481127768300,5.722768310546875,0.6117874977529049,-0.08455664430111647,-0.14401245735436677
1746482481137747200,5.732747314453125,0.6886719999909401,-0.0021427111171185968,-0.16662848604917524
1746482481147725300,5.742725341796875,0.3173603147864342,0.08480491997376084,-0.22926643626987933
1746482481157704400,5.752704345703125,-0.10228080930113792,0.14524667532444,-0.17906711186170576
1746482481167683300,5.762683349609375,-0.579032060098648,0.0531450224712491,-0.13823036682158707
1746482481177662500,5.772662353515625,-0.4441489578783512,-0.05117211496308446,-0.1661035853922367
1746482481187641300,5.782641357421875,0.2921089691519737,-0.1192011105723679,-0.1720686312764883
1746482481197620500,5.792620361328125,0.5471148268342018,-0.042653146812319756,-0.04758183538615703
1746482481207599400,5.802599365234375,0.2034568722307682,-0.09651990768685936,-0.01528407837152481
1746482481217577500,5.812577392578125,-0.0837514653980732,-0.24849589126631616,-0.06885229469090699
1746482481227556400,5.822556396484375,-0.1334732354223728,-0.2630813198491931,-0.047699324285984036
1746482481237535500,5.832535400390625,-0.016909633746743202,-0.3710220546081662,0.015586568449437618
1746482481247514400,5.842514404296875,0.3070259677767753,-0.21733210671767592,0.06303600962758064
1746482481257493500,5.852493408203125,0.31916298029422757,-0.14320830136463045,-0.0033183307677507397
1746482481267472400,5.862472412109375,0.022824995270371434,-0.2254486315473914,-0.04106850796937942
1746482481277451300,5.872451171875,-0.22492869932651519,-0.18629764763712883,-0.16397417214810847
1746482481287430400,5.882430419921875,-0.44904842035770415,-0.10582505777925252,-0.17885083876252172
1746482481297408300,5.892408203125,-0.4362672647178173,-0.05115384865403175,-0.1897209000840783
1746482481307387400,5.902387451171875,-0.23195932861566543,-0.179213096203655,-0.08274550322592258
1746482481317366300,5.9123662109375,0.07192308043837548,-0.3866413562834263,-0.01606821448653936
1746482481327345400,5.922345458984375,0.3946609966099262,-0.4593756069742143,0.12221797417551278
1746482481337324300,5.93232421875,0.4278443042874336,-0.38331381929591296,0.2379620761618018
1746482481347303400,5.942303466796875,0.05573357765972614,-0.3189363319315016,0.2009206317514181
1746482481357282300,5.9522822265625,-0.3807020293623209,-0.14849749381393193,0.02587035431563854
1746482481367260400,5.962260498046875,-0.609062456703186,-0.08066928147375584,-0.19444763634502887
1746482481377239600,5.972239501953125,-0.7220008536189794,-0.22907895087376234,-0.23335399784445762
1746482481387218400,5.982218505859375,-0.3775765908181667,-0.26414251933991906,-0.16125614536106586
1746482481397197600,5.992197509765625,0.22337737823128698,-0.3439608830727637,-0.11851444348245858
1746482481407176400,6.002176513671875,0.7460702959924936,-0.3695011286512017,0.07169131750911474
1746482481417155600,6.012155517578125,0.8394178572535514,-0.3747540807433426,0.15640665950328111
1746482481427134200,6.02213427734375,0.5101888254970312,-0.3132626702092588,0.15334522610604762
1746482481437113300,6.03211328125,0.030310382589697836,0.02617474408969283,0.08928951804190874
1746482481447091500,6.042091552734375,-0.611261428052187,0.26727336471155283,-0.1076841296494007
1746482481457070300,6.0520703125,-1.2869763313144444,0.38186668922752137,-0.3981096757590771
1746482481467049500,6.062049560546875,-1.1967945406079292,0.46244522367790336,-0.4790910919219255
1746482481477028400,6.0720283203125,-0.718417149913311,0.22225144294127822,-0.3312546923652291
1746482481487007500,6.082007568359375,-0.07936579765975475,-0.1321332189902663,-0.1159518995180726
1746482481496986000,6.091986083984375,0.6147089381575584,-0.37318873112276196,-0.06399199517816305
1746482481506965200,6.10196533203125,0.7352958039999008,-0.6132581548273563,0.1570472954943776
1746482481516943000,6.111943115234375,0.5552572167575359,-0.5611376530982554,-0.04165741377323866
1746482481526922200,6.121922119140625,0.20996844608187673,-0.5846826332062482,-0.12656740155667065
1746482481536901000,6.131901123046875,-0.012694646400213241,-0.6622811289325357,-0.1825724896341562
1746482481546880300,6.14188037109375,-0.06246025556623935,-0.7435583131715655,-0.1781149257034063
1746482481556859100,6.151859130859375,-0.1575157897889614,-0.43338922506347294,-0.6633455432936549
1746482481566838300,6.16183837890625,0.12812193752229212,-0.7513419527851045,-0.6678828944623469
1746482481576817200,6.171817138671875,0.32435236563086506,-0.4792461363531649,0.000976151555776596
1746482481586796300,6.18179638671875,0.3763549400687217,0.05776756770536303,-0.06925503027290106
1746482481596774400,6.1917744140625,0.21739187408089636,0.03752732823118567,-0.005105944836884737
1746482481606753300,6.201753173828125,-0.5864601642727851,0.1442645324192941,-0.3593573357775807
1746482481616732400,6.211732421875,-0.8667045081079006,0.16456526990905404,-0.2857826887398958
1746482481626711300,6.221711181640625,-0.619491496258974,0.48367505871132016,-0.29327684388756753
1746482481636690400,6.2316904296875,-0.46259880680441856,1.0111644169688223,-0.28745266777873035
1746482481646669000,6.2416689453125,-0.5746762029767036,1.0301727765604853,-0.06470978805869818
1746482481656648200,6.251648193359375,-1.0465139627695084,0.7003149453811347,0.11492051064372062
1746482481666626300,6.261626220703125,-1.011204164457321,0.12120455934926867,0.03381795231923461
1746482481676605200,6.271605224609375,-0.310978504794836,-0.1341746616899967,-0.0946117359779775
1746482481686584300,6.281584228515625,0.5613660550266504,-0.1521846578940749,0.11347922579422592
1746482481696563200,6.291563232421875,0.9010258799046278,0.08180515363588929,0.16400792828723787
1746482481706542300,6.301542236328125,0.5187912341475487,0.2865095417097211,-0.056070554529130456
1746482481716521200,6.311521240234375,-0.5897147821545601,0.1685825427263975,-0.1374311792679131
1746482481726500400,6.321500244140625,-0.9736866269677877,0.28304084268584845,-0.25678251196593044
1746482481736478200,6.331478271484375,-0.7023439669907092,0.05600713390409946,-0.08931699057072401
1746482481746457300,6.341457275390625,-0.20516952136754987,-0.2657555074945092,0.02891688240468502
1746482481756436200,6.351436279296875,0.7041875490307807,-0.38251156300231814,-0.1810251140616834
1746482481766415400,6.361415283203125,1.2563479688167571,-0.4518715149544179,-0.152194740896672
1746482481776394200,6.371394287109375,1.0432534996688365,-0.4326502432644367,-0.13202742052823305
1746482481786373400,6.381373291015625,0.5633773948490619,-0.4756088027641177,-0.06374474241882562
1746482481796352300,6.391352294921875,-0.03949848217368126,-0.5121734234429896,-0.050932607118785375
1746482481806331100,6.4013310546875,-0.47111061456203457,-0.49548985353708264,-0.06746814685612916
1746482481816309200,6.411309326171875,-0.3554699729502201,-0.2745990314245224,-0.13404460556954145
1746482481826288000,6.4212880859375,-0.2232242334961891,-0.09003580636456608,-0.29770386654958125
1746482481836267300,6.431267333984375,-0.4901005617141723,-0.13521598743647337,-0.18600304860472677
1746482481846246100,6.44124609375,-0.5429506928920745,-0.12781228705123066,0.029560441005229948
1746482481856225300,6.451225341796875,-0.010157821398973465,0.025400983238220213,0.17689210591018198
1746482481866204200,6.4612041015625,0.4097568589329719,0.20977876872867346,0.03852379192262888
1746482481876183300,6.471183349609375,0.36973113801479335,0.25622370903939007,-0.21040537619441746
1746482481886161400,6.481161376953125,-0.06305296076238155,0.22166516748592255,-0.3457230704396963
1746482481896140300,6.491140380859375,-0.307416428399086,0.23354791298136113,-0.4579501042157411
1746482481906119400,6.501119384765625,-0.5450117170751094,0.07133227493837475,-0.45527357848286626
1746482481916098300,6.511098388671875,-0.6943301718831062,-0.16744316343292592,-0.12387392468899487
1746482481926077400,6.521077392578125,-0.3243453513681888,-0.41105464365854855,0.14824936427175997
1746482481936056300,6.531056396484375,0.3127496061205864,-0.514131717903912,0.10128419947922229
1746482481946035200,6.54103515625,0.7783294745624065,-0.34752982760071754,-0.08655366333723068
1746482481956013300,6.551013427734375,0.5689888049900531,-0.3314458310231566,-0.08667904328256845
1746482481965992200,6.5609921875,-0.009352350234985351,-0.3992804731041193,-0.07069763029664755
1746482481975971300,6.570971435546875,-0.05356792405843734,-0.5563322986431419,-0.0503258733972907
1746482481985950200,6.5809501953125,0.11320318533182143,-0.35779783137589694,-0.2305097143292427
1746482481995929300,6.590929443359375,0.11577391260266304,-0.2141246889784932,-0.3169245537176728
1746482482005908200,6.600908203125,-0.6425614062011241,-0.4607753907695412,-0.4688938152953982
1746482482015887400,6.610887451171875,-1.4733645798444748,-0.6111033148810268,-0.6020674832493066
1746482482025865200,6.620865234375,-1.6920891638338564,-0.6950768985971808,-0.36660394590497014
1746482482035844400,6.63084423828125,-0.3153483904421329,-0.36713308434560893,0.23518735075145958
1746482482045823200,6.6408232421875,1.630384695070982,-0.16433993672057987,0.9570840133436024
1746482482055802400,6.65080224609375,1.7394202393293379,-0.30895269805565473,0.8102762261822819
1746482482065781200,6.66078125,0.6623556554734706,-0.6552176202870905,0.2248106259047985
1746482482075760400,6.670760498046875,-0.06694763011336326,-0.7681047254070639,0.08743556073829531
1746482482085739300,6.6807392578125,0.07490764920711517,-0.33970629436820743,0.10167407557964324
1746482482095718100,6.69071826171875,1.1328934385836125,-0.10922960552573203,0.0849579185783863
1746482482105696300,6.7006962890625,1.7992068917721509,-0.28559140395149585,0.21071458827406167
1746482482115675100,6.710675048828125,1.4928221445083618,-0.37562867162078617,0.4183560527130961
1746482482125654300,6.720654296875,0.8396902444541454,-0.32727526734024287,0.42656200939193367
1746482482135633200,6.730633056640625,0.34540275244414803,-0.2625632873244583,0.49898193343654274
1746482482145612300,6.7406123046875,0.09791443078517913,-0.18009426295235753,1.375393450435996
1746482482155591200,6.750591064453125,-0.06453823088407516,0.1603032285504043,1.0924063837639988
1746482482165570300,6.7605703125,-0.744644647103548,0.42314628266431387,1.0594596613213418
1746482482175548400,6.77054833984375,-0.97996731467247,0.5383738864958286,1.3125360122457146
1746482482185527300,6.78052734375,-0.7554547949314117,0.5733898164279758,1.6034107634276151
1746482482195506400,6.79050634765625,-0.15770283679366112,0.39950361433550713,1.6949159116923809
1746482482205485300,6.8004853515625,1.2550561754405498,0.12981120578348637,1.5146537448272108
1746482482215464400,6.81046435546875,2.6025305223375557,-0.1343603204552084,1.0605847928937524
1746482482225443300,6.820443359375,3.314737127172947,0.09904945356394164,0.7616713313587009
1746482482235422500,6.83042236328125,4.745602289462089,-0.14052549202144146,0.8454469082847237
1746482482245400000,6.840400146484375,7.497341376492381,0.045720644624158736,0.9936053794026374
1746482482255379200,6.850379150390625,8.286378707551956,0.7978684338994324,0.3890956175677478
1746482482265358300,6.8603583984375,6.408418597060441,1.6489173999749123,1.4147016707345843
1746482482275337200,6.870337158203125,4.102991783422231,2.8420459654211996,2.553416362817585
1746482482285316400,6.88031640625,2.5845687491893767,3.1888848881483076,1.9010890571445225
1746482482295295200,6.890295166015625,2.119769801992178,3.918442440757155,0.6230208394289016
1746482482305274400,6.9002744140625,1.3220879767060278,3.4723028935834765,-0.2078606601476669
1746482482315252200,6.910252197265625,-0.03168050189912319,2.918663633416593,-0.9313035292685031
1746482482325231400,6.9202314453125,-1.6048703145861625,2.4657407097131014,-1.2668360450834035
1746482482335210200,6.930210205078125,-3.2293314648270606,2.0444566407240927,-1.3970873958498238
1746482482345189400,6.940189453125,-4.2694525116890665,1.4667740955382584,-1.788430646213889
1746482482355168300,6.950168212890625,-3.7422166898012157,0.6868927884239703,-3.043523646533489
1746482482365147400,6.9601474609375,-2.649925895240903,0.04657594627924263,-4.097603076121211
1746482482375126300,6.970126220703125,-1.6327765586435794,-0.38467743579931557,-4.752976033100485
1746482482385104100,6.980104248046875,-0.5163812503963708,-0.8689578399926423,-5.129798006159067
1746482482395083300,6.990083251953125,0.48144803031161426,-1.0921969787970185,-4.353481624984741
1746482482405062100,7.000062255859375,1.0634478541746735,-0.5715947497047483,-2.6871833204895257
1746482482415041300,7.010041259765625,1.4030490807332097,0.19068605532180516,-0.7981693165421485
1746482482425020200,7.020020263671875,1.6601592172183095,0.8819087992414831,1.0797744273364542
1746482482434999300,7.029999267578125,1.762546263372898,1.299166827584803,2.597522338786721
1746482482444978200,7.039978271484375,1.7746927743710577,1.5041136461123823,3.5738048274666068
1746482482454956300,7.049956298828125,1.6538360055461525,1.5844344064094125,3.947941506963968
1746482482464935400,7.059935302734375,1.1692612215161322,1.218473215387389,3.603213877302408
1746482482474914300,7.069914306640625,0.6846235283177345,0.5423715778298676,2.8628578673034903
1746482482484893400,7.0798935546875,0.40324294699430463,0.08540595460683106,1.8640835608303545
1746482482494872300,7.089872314453125,0.2686439224123955,-0.09761106392443179,0.8773083197087049
1746482482504851500,7.0998515625,0.27009455961212514,-0.16132438829168677,0.19000351641774177
1746482482514830300,7.109830322265625,0.21126133543662726,-0.704607674138993,0.21781389888525007
1746482482524808400,7.119808349609375,0.05837371690496802,-2.565541392636299,1.8680577251583337
1746482482534787300,7.129787353515625,0.12899345965981482,-5.425118338572979,5.570148740798235
1746482482544766500,7.139766357421875,0.5821720386248082,-5.392822335124015,9.855388604205846
1746482482554745300,7.149745361328125,-0.6616893005192279,-1.4770897378474472,12.743220169246197
1746482482564724500,7.159724365234375,-3.4456758756816384,1.378338271716237,13.165630758047103
1746482482574703400,7.169703369140625,-5.0208331890493625,1.013128995040059,10.44207673201561
1746482482584682500,7.1796826171875,-5.021444014424086,-0.7210197336271404,5.478587478432059
1746482482594660400,7.189660400390625,-4.2810201998859645,-1.7826169914990662,-0.38326866497993467
1746482482604639200,7.19963916015625,-3.120706839457154,-1.8836738119632004,-5.704108298432827
1746482482614618400,7.209618408203125,-2.1840444135040045,-0.9752163207530975,-8.04811764844358
1746482482624597200,7.21959716796875,-1.5875181977689266,0.5796355789497495,-7.039747246107459
1746482482634576400,7.229576416015625,-1.5067999625869095,1.9941385122418402,-3.7977778335034844
1746482482644555300,7.23955517578125,-1.9304449154883623,2.82483121124804,-0.3201356247186661
1746482482654534400,7.249534423828125,-2.33267488604784,3.2616701383739706,2.2691999004811048
1746482482664512500,7.259512451171875,-2.423823475959897,3.311171835906803,3.6229724707394837
1746482482674491400,7.269491455078125,-2.240441423508525,2.9699171430528164,4.0377246537417175
1746482482684470500,7.279470458984375,-1.9225792966797948,2.5696692862212656,4.0607840422898525
1746482482694449400,7.289449462890625,-1.4690548999518156,2.46913736641407,3.5580665755867957
1746482482704428500,7.299428466796875,-1.1751824282586574,2.3802388935163616,2.4193197347998616
1746482482714407400,7.309407470703125,-1.0875383393362164,1.9666817655175923,0.5832295117884874
1746482482724386600,7.319386474609375,-1.2065975572198628,1.3372554429605603,-1.6365268510878086
1746482482734364200,7.3293642578125,-1.3941858291894196,0.866354964017868,-2.900391771405935
1746482482744343300,7.33934326171875,-1.661037607488036,0.6218184779018163,-2.592834473231435
1746482482754322200,7.349322265625,-2.10204826734066,0.735526690146327,-1.4616583599597215
1746482482764301300,7.35930126953125,-2.5523715299397707,0.8443380702599883,-0.7037737075328826
1746482482774280200,7.3692802734375,-3.2637638957828283,0.2589490423500538,-0.522841386321187
1746482482784259300,7.37925927734375,-4.1576574395895,-0.3786120713457465,-0.06115618723034858
1746482482794238200,7.38923828125,-4.7583851986676455,-0.4693244617976248,0.7266168229818344
1746482482804216300,7.39921630859375,-5.20892356532216,-0.4047980674818158,1.7317729394465684
1746482482814195500,7.409195556640625,-5.531966601920128,-0.34798034784719345,2.673314954134822
1746482482824174300,7.41917431640625,-5.393998393166065,-0.08260112631916999,2.7247657399088143
1746482482834153500,7.429153564453125,-4.516712869811058,-0.26689941683262586,1.5741519357174634
1746482482844132400,7.43913232421875,-3.6532758390665054,-0.4937310271710157,0.3451636829912662
1746482482854111500,7.449111572265625,-2.7354759344935418,-0.45516953358650203,0.07322305712103844
1746482482864090400,7.45909033203125,-1.7259411645531653,-0.43287762227952475,-0.10152677606344222
1746482482874068200,7.469068115234375,-0.5797253030598163,-0.4623842872709036,-0.8326315581142902
1746482482884047400,7.47904736328125,0.3970107746064663,-0.5397828765109182,-2.1473802779734132
1746482482894026200,7.489026123046875,1.420923613989353,-0.5687620104968547,-3.0783634892463683
1746482482904005400,7.49900537109375,2.161194868314266,-0.2232309554979205,-3.9427334169268606
1746482482913984300,7.508984375,2.211607543212175,-0.12540361847430467,-4.449733675515652
1746482482923963400,7.51896337890625,1.6211106707692144,-0.4106409482911229,-4.22071390748322
1746482482933942300,7.5289423828125,0.8749848451972008,-0.07677695021033287,-4.119731321299076
1746482482943920400,7.53892041015625,0.007358546069264412,0.042459670066833495,-4.094332676148414
1746482482953899300,7.548899169921875,-1.1583277395695448,-0.09547054476439952,-4.144236232480407
1746482482963878400,7.55887841796875,-1.789428425079584,0.5552279906630516,-3.8242502453655
1746482482973857300,7.568857177734375,-2.0094184989601374,1.1926456042349338,-3.197937086392939
1746482482983836400,7.57883642578125,-2.2852409346997735,1.459932266819477,-2.033615074844658
1746482482993815300,7.588815185546875,-2.567291451174021,2.0058149215102197,-0.6005962416529655
1746482483003793200,7.598793212890625,-2.5096166763186454,2.595496970438957,0.7920914579331875
1746482483013772300,7.608772216796875,-2.4969097549587485,2.7884926544100046,1.7770009051829576
1746482483023751200,7.618751220703125,-2.41352244669795,2.8655934297472236,2.647346400141716
1746482483033730300,7.628730224609375,-2.0948446195721626,3.0199434489816426,3.7442373819738624
1746482483043709200,7.638709228515625,-1.4694365927457809,3.0723721398770807,5.030637374705076
1746482483053688300,7.648688232421875,-0.6568576425790786,3.113220867615938,6.130628076118231
1746482483063667200,7.658667236328125,0.30945816335976123,3.1354268542051313,6.754301826497912
1746482483073645300,7.668645263671875,1.394504393619299,2.932325955805182,7.02208416364491
1746482483083624400,7.67862451171875,2.436870589059591,2.849608509629965,6.9186758116185665
1746482483093603300,7.688603271484375,3.1180782445192334,2.9480419958531856,6.355562620663642
1746482483103582500,7.69858251953125,3.58610842872262,2.9674750105977057,5.452534753286838
1746482483113561300,7.708561279296875,4.050544972348213,2.933395046341419,4.422943868267536
1746482483123540500,7.71854052734375,4.504125190916657,2.921772413086891,3.5625942821443077
1746482483133519400,7.728519287109375,4.953427293774485,3.0895325335144994,2.979540711444616
1746482483143497200,7.738497314453125,5.379522708567976,3.2105262265920635,2.4605782123833895
1746482483153476400,7.748476318359375,5.575568427759409,3.243586784672737,1.6789599254086613
1746482483163455200,7.758455322265625,5.521086895987391,3.2855987109720703,0.8152350176334381
1746482483173434400,7.768434326171875,5.406367460873723,3.337922187927365,0.49521059820428487
1746482483183413200,7.778413330078125,5.165193729189038,3.323494434124231,0.6043209612645208
1746482483193392400,7.788392333984375,4.8673535229086875,3.207403126135468,0.7480345818027854
1746482483203371300,7.798371337890625,4.807701895022392,2.929523173344135,0.836878401903808
1746482483213349400,7.808349365234375,4.998816587552428,2.8618653491348027,0.33750220845267176
1746482483223328300,7.818328369140625,5.274707412353158,2.954583964842558,-0.6286844181485474
1746482483233307400,7.828307373046875,5.432705432701111,2.967623479157686,-1.5238045811407268
1746482483243286300,7.838286376953125,5.491811117142438,3.1679332855343816,-2.4881004255592822
1746482483253265400,7.848265380859375,5.418921237498521,3.2753467815488575,-3.209410958826542
1746482483263244300,7.858244384765625,4.444414526319504,3.1858336838841437,-4.051507095378637
1746482483273223400,7.868223388671875,2.6533032627195117,3.5691508641809224,-4.312702163089812
1746482483283201500,7.878201416015625,1.2353273926198483,3.842861422333121,-3.410299441874027
1746482483293180200,7.88818017578125,0.11197627388536929,4.106526387289167,-2.06210876340121
1746482483303159300,7.8981591796875,-1.0028326419532299,4.517650442922115,-1.3603933035723865
1746482483313138200,7.90813818359375,-1.9727800823926924,4.953198161193728,-1.965403854536265
1746482483323117300,7.918117431640625,-2.66063667434752,5.278322680240869,-3.9144244372874497
1746482483333096200,7.92809619140625,-0.40865854230225085,3.28272753944993,-4.554525006332994
1746482483343074300,7.93807421875,1.762917434772849,4.52921491624862,-7.1869584995031355
1746482483353053400,7.948053466796875,-1.4443062431424856,5.452539429461956,-10.639452238506077
1746482483363032300,7.9580322265625,-5.77657615327239,3.2555665608018636,-12.03260989369154
1746482483373011500,7.968011474609375,-7.942866883420944,0.07074132330790162,-9.92408746190071
1746482483382990300,7.977990234375,-8.788781701478362,-1.1902918807156384,-9.223184925889969
1746482483392969500,7.987969482421875,-8.752299936777353,-1.4009192290976642,-10.18912488425374
1746482483402948400,7.9979482421875,-8.598037011304497,-2.276988070139289,-10.240278732907772
1746482483412926500,8.007926513671874,-8.609620481592417,-1.787544803290069,-10.345074155378342
1746482483422905300,8.0179052734375,-8.248427454820275,-1.0128678598858416,-9.601927053356171
1746482483432884500,8.027884521484374,-7.785366291201115,-1.070825178009644,-7.564226462763547
1746482483442863400,8.03786328125,-7.1393299023658034,-1.1546310770086943,-5.2486114325881
1746482483452842200,8.04784228515625,-5.820723922556638,-0.8110504254251718,-3.026790830658376
1746482483462821000,8.057821044921875,-3.952629957041144,-0.08213299735076725,-1.1652791661426425
1746482483472800300,8.06780029296875,-2.3159154744267463,0.6256259073607623,0.32393063308745623
1746482483482778400,8.0777783203125,-0.9728595284938811,1.1377471622250974,1.6033298071458935
1746482483492757500,8.087757568359375,0.11922259175181388,1.4495681091934443,2.7887518898680805
1746482483502736600,8.097736572265624,0.9178326377987861,1.6767304127909242,3.9144238527655597
1746482483512715500,8.107715576171875,1.4954314502239225,1.7861429736681282,4.874299104262888
1746482483522694700,8.117694580078124,1.9065145893245934,1.8842866831645368,5.5968134603619575
1746482483532673500,8.127673583984375,2.2267618577241897,1.8841703633084892,5.964503447937965
1746482483542651600,8.137651611328126,2.261198380333185,1.6466075155973434,6.13978636508584
1746482483552630800,8.147630859375,2.2443659034758805,1.6695248653262853,5.907193414741754
1746482483562609700,8.157609619140626,2.0518039347469808,1.8802090584620832,5.097731135290861
1746482483572588800,8.1675888671875,1.5171932001769541,1.8895371510386465,4.106672810022532
1746482483582567700,8.177567626953126,0.6409264984756707,1.6981149999946354,2.9825664890065786
1746482483592546800,8.187546875,-0.0593470919817686,1.59496237629503,1.6370000215575098
1746482483602525700,8.197525634765626,-0.7394190214097499,1.404117294486612,0.723707219145447
1746482483612503600,8.207503662109374,-1.4993722968041896,0.46701881520375604,1.0038729447863994
1746482483622482400,8.217482421875,-2.013440009561181,0.24686624423786996,1.1433106415711343
1746482483632461600,8.227461669921874,-1.9222779756456612,0.7512392230629921,0.4009340855300426
1746482483642440400,8.2374404296875,-1.959315620663762,0.5330208350300789,-0.8122904886141419
1746482483652419600,8.247419677734374,-1.6525193699896334,-0.2417512393116951,-1.8896229296259581
1746482483662398500,8.2573984375,-0.9895774390608072,-0.7017423478357493,-2.782186247742176
1746482483672376600,8.26737646484375,-0.3161111915081739,-0.8858673276089132,-3.277100054956972
1746482483682355700,8.277355712890625,0.08002338478565216,-1.3798657735444604,-3.1453795084208247
