time,seconds_elapsed,z,y,x
1746483116962645200,0.021645263671875,0.062060442593693727,-0.6371832202941179,-0.37143092767000196
1746483116972624400,0.031624267578125,-0.0982990461885929,-0.6984013668447733,-0.5918459489643574
1746483116982600000,0.041599853515625,-0.35495471690446134,-0.6734773534685373,-0.8917313973367214
1746483116992579000,0.0515791015625,-0.6540571982055902,-0.5664642549484968,-1.1689607772648334
1746483117002558000,0.061557861328125,-0.957947206044197,-0.5453542469024658,-1.321502285772562
1746483117012537000,0.071537109375,-1.162283199197054,-0.6715624597579241,-1.2709335435301066
1746483117022516000,0.081515869140625,-1.1995499767959117,-0.7664362076729535,-1.1347247456640004
1746483117032495000,0.0914951171875,-1.1367810936719178,-0.8174953637808561,-1.0256968001902103
1746483117042474000,0.101473876953125,-1.1205635338425635,-0.8198439727336168,-0.9614666123419999
1746483117052453000,0.111453125,-1.135085687930882,-0.8453723817437887,-0.8904600622266531
1746483117062432000,0.121431884765625,-1.2924839888200164,-0.8070078720360994,-0.8307710249394178
1746483117072411100,0.1314111328125,-1.3923124365329742,-0.7400538121819495,-0.7102209839761257
1746483117082390000,0.14139013671875,-1.4851909189775585,-0.7143009467661381,-0.5594768802791834
1746483117092369200,0.151369140625,-1.5218272897183893,-0.6873813756585121,-0.43069151041209697
1746483117102348000,0.16134814453125,-1.4963918196886776,-0.6166665019661188,-0.3574702068567276
1746483117112326100,0.171326171875,-1.418714121246338,-0.5395663111507892,-0.27043197487294673
1746483117122305300,0.18130517578125,-1.239783495245874,-0.5210013114124536,-0.18366437652409076
1746483117132284200,0.1912841796875,-1.0167430938839912,-0.4808429040253162,-0.1504232011795044
1746483117142263300,0.20126318359375,-0.7471861482799053,-0.4167939179629087,-0.13354571613669394
1746483117152242000,0.211241943359375,-0.5666711756974459,-0.4303133247494697,-0.07290916886627674
1746483117162221000,0.221220947265625,-0.42828970996737475,-0.512649078130722,-0.026094226199388504
1746483117172200000,0.231199951171875,-0.3015495821923017,-0.5111158772140741,0.02924363014101982
1746483117182179000,0.241178955078125,-0.21000877809226512,-0.5160697002291679,0.1360661745250225
1746483117192158000,0.251157958984375,-0.11256897908151149,-0.5919219368100166,0.37506139312684533
1746483117202137000,0.26113720703125,-0.054640229465067386,-0.793459239155054,0.6474743126839398
1746483117212116000,0.271115966796875,0.005112228447198867,-0.9774468562841415,0.7894260381162166
1746483117222095000,0.28109521484375,0.030277357102930544,-1.014037342056632,0.831128752335906
1746483117232074000,0.291073974609375,0.004080839572846889,-1.042896356794238,0.671396455541253
1746483117242053000,0.30105322265625,-0.052851884743571276,-0.985719010066986,0.4186369154810905
1746483117252032000,0.311031982421875,-0.11762421664446591,-0.8441577452570199,0.16424655934870241
1746483117262011100,0.32101123046875,-0.1442009656637907,-0.6406237161368131,-0.11438625763654708
1746483117271990000,0.330989990234375,-0.17549100694060324,-0.42313188881278035,-0.25841420482099053
1746483117281969200,0.34096923828125,-0.2924392240196466,-0.25603520072996616,-0.35792438036501406
1746483117291948000,0.350947998046875,-0.4355173231333494,-0.113513566455245,-0.3844780407696962
1746483117301927200,0.36092724609375,-0.5032026198714972,-0.046803836750984186,-0.4070265571862459
1746483117311906000,0.370906005859375,-0.5833589833870529,0.01876782883405685,-0.4713070139169693
1746483117321885200,0.38088525390625,-0.6251157658815384,0.12153379130363463,-0.44564942556917664
1746483117331864000,0.390864013671875,-0.5978913666084409,0.20774375576972962,-0.3694774555146694
1746483117341843200,0.40084326171875,-0.4695891040831804,0.3067337068319321,-0.2366962940096855
1746483117351822000,0.410822021484375,-0.3212517692670226,0.4039426196962595,-0.06582417904138564
1746483117361801200,0.42080126953125,-0.13747194966971873,0.5403524930924177,0.08638473651111125
1746483117371780000,0.430780029296875,0.0355514981135726,0.6420066949278116,0.2390840659290552
1746483117381759200,0.44075927734375,0.11385346593409776,0.6606587884277105,0.3782429457724094
1746483117391737900,0.45073779296875,0.09058131141811608,0.6430582498073577,0.5095902750819922
1746483117401717000,0.460717041015625,0.08377250818610191,0.6366022055357694,0.6637134998232126
1746483117411695900,0.47069580078125,0.05514496411681175,0.6660469112068415,0.7006172893285751
1746483117421675000,0.480675048828125,0.03882862008810043,0.839192816326022,0.6349088456213474
1746483117431654000,0.49065380859375,0.00997545056939125,1.0813234103441238,0.5352390956014395
1746483117441633000,0.500633056640625,0.06944821475744246,1.2731249160945415,0.5500713385522366
1746483117451612000,0.51061181640625,0.16519669968038797,1.3419091139852999,0.7099737312167882
1746483117461591000,0.520591064453125,0.19758885698020456,1.3413970728099345,0.7567723072707653
1746483117471570000,0.53056982421875,0.22097440874278543,1.3870353729128837,0.829993026304245
1746483117481549000,0.540549072265625,0.3481386071488261,1.4643939224034548,0.9880611892789601
1746483117491528000,0.55052783203125,0.560064909300208,1.5092659143090248,1.1207190166652201
1746483117501507000,0.560507080078125,0.7416916425168514,1.5222335324317215,1.1916764669418334
1746483117511486000,0.57048583984375,0.8488765904724598,1.5199340233176946,1.223061785286665
1746483117521465000,0.580465087890625,0.9269164002254605,1.4939526098430156,1.245018181028962
1746483117531444000,0.59044384765625,1.057258644145727,1.4558803610801696,1.2843372149825096
1746483117541423000,0.600423095703125,1.1864800673425198,1.4186796344548462,1.2945312767386437
1746483117551402000,0.610402099609375,1.3400672855108975,1.4296639698058367,1.3782289661228655
1746483117561380000,0.620380126953125,1.533924554747343,1.439741711705923,1.5315379518717527
1746483117571359200,0.630359130859375,1.7931173427253961,1.4270073178172111,1.7459405810087918
1746483117581338000,0.640338134765625,2.1143004306703803,1.3245248484641312,2.0998948886990547
1746483117591317000,0.65031689453125,2.358473051910102,1.3276537941396236,2.2265695500224827
1746483117601296000,0.6602958984375,2.6659184141427277,1.6454694514781236,2.0980337710022927
1746483117611275000,0.67027490234375,3.0277561685591934,1.916677671420574,2.1058196025729177
1746483117621254000,0.68025390625,3.3366979068294165,1.8480857812315226,2.4401614472985265
1746483117631233000,0.69023291015625,3.5820959782108663,1.6072797138154507,2.922716415938735
1746483117641212000,0.7002119140625,3.7748888330861923,1.4240601584494113,3.5239486174076795
1746483117651191000,0.71019091796875,3.814110836406052,1.292596509283781,4.148547665938735
1746483117661170000,0.720169921875,3.6157869431495664,1.1476204675942658,4.629432655540108
1746483117671149000,0.730149169921875,3.2442081314414737,1.1922300091713667,4.734507479473948
1746483117681128000,0.7401279296875,2.749684492588043,1.1825433124154805,4.407483848807216
1746483117691107000,0.750107177734375,2.289934937734902,0.981239234304428,3.7756472502380607
1746483117701086000,0.7600859375,1.9508526204839347,0.8417308103710412,3.2186785533875226
1746483117711065000,0.770065185546875,1.6270774702191353,0.9360393256187438,2.7076445092380044
1746483117721044000,0.7800439453125,1.2554245703615248,1.1123591845989227,2.208475090405345
1746483117731023000,0.790023193359375,0.7821054859697818,1.1157581793874503,1.7370172698408364
1746483117741002000,0.800001953125,0.31919732095524667,0.8396335458308458,1.379365861198306
1746483117750981000,0.809981201171875,-0.14444018124714492,0.538141831305623,0.8869500082790851
1746483117760960000,0.8199599609375,-0.5096909589774906,0.2820195368140936,0.2346007830351591
1746483117770939100,0.829939208984375,-0.8095727540880441,-0.11439385642111301,-0.46250703686773775
1746483117780918000,0.83991796875,-1.1284756221413612,-0.6784247467428446,-1.0475783771306275
1746483117790897200,0.849897216796875,-1.4390198271721601,-1.2832710470557211,-1.482898131865263
1746483117800876000,0.8598759765625,-1.7265058126986026,-1.8623083678513763,-1.5998814202576874
1746483117810855200,0.869855224609375,-1.6970009012728928,-2.337893497478962,-1.2182324654340744
1746483117820834000,0.879833984375,-1.1600701993227005,-2.4719711285352703,-0.6537503242135048
1746483117830813200,0.889813232421875,-0.3420540265381336,-2.3424124362081287,-0.23511107064485548
1746483117840792000,0.8997919921875,0.4874135145872831,-2.2103794627219435,0.09314239407777786
1746483117850771000,0.90977099609375,1.2487971150457857,-2.2056442508935925,0.6623387043386697
1746483117860750000,0.91975,1.8326982424855232,-2.4084920513153074,1.1785241399019957
1746483117870729000,0.92972900390625,2.2602760047912596,-2.6161346847981215,1.3644716589272021
1746483117880708000,0.9397080078125,2.54246972912848,-2.580666481053829,1.334130296677351
1746483117890687000,0.94968701171875,2.659412685510516,-2.1711884390622376,1.2756015353411436
1746483117900666000,0.959666015625,2.5945751794189214,-1.9893442637026308,1.2488146507024764
1746483117910645000,0.96964501953125,2.3795360059440136,-2.030224555623531,1.2191501648008822
1746483117920624000,0.9796240234375,2.083366947746277,-2.0116022727400065,1.1947837853074073
1746483117930603000,0.98960302734375,1.7579624427139757,-1.7266384991675614,1.0530459948867559
1746483117940582100,0.99958203125,1.5842939750254152,-1.4420587564766407,0.9032873950958251
1746483117950560000,1.00956005859375,1.598039591783285,-1.2851228124022482,0.829454097121954
1746483117960539100,1.0195390625,1.7009458395063877,-1.2817559663176536,0.9372259050548076
1746483117970518000,1.02951806640625,1.9227150518886744,-1.412048233616352,1.4144576328456402
1746483117980498000,1.039497802734375,2.3952988077431914,-1.468979496628046,2.0117349592089653
1746483117990476800,1.049476806640625,2.9170179120361803,-1.417632171228528,2.571291918987036
1746483118000456000,1.0594560546875,3.4280034408688542,-1.2328326531946658,3.079458298745751
1746483118010434800,1.069434814453125,3.8813223781526087,-1.0002607456386088,3.443811835375428
1746483118020414000,1.0794140625,4.113036792096495,-0.7714917374968528,3.645482408711314
1746483118030392800,1.089392822265625,4.195679419469833,-0.478870142647624,3.813170048424601
1746483118040372000,1.0993720703125,4.2548704441070555,-0.3344827145010233,3.962360492938757
1746483118050350800,1.109350830078125,4.257788377380371,-0.24833237126767635,3.855254455438256
1746483118060330000,1.119330078125,4.29859677310884,0.00045358898639678955,3.7186142804175613
1746483118070308900,1.129308837890625,4.403244311541319,0.5404986235648394,3.6730274182409044
1746483118080287700,1.139287841796875,4.550201297914982,0.9682312841713427,3.5242426319181916
1746483118090266600,1.1492666015625,4.683620172801613,1.3554349505126475,2.882475006443262
1746483118100245800,1.159245849609375,4.791246434783935,1.805840630698204,1.7020353883087633
1746483118110224600,1.169224609375,4.90431225747168,2.2746178338766097,0.2804892585068941
1746483118120203800,1.179203857421875,4.894659462985396,2.794211616578698,-1.1433318304896354
1746483118130182700,1.1891826171875,4.593663423022628,3.2734114295721053,-2.6121307098537683
1746483118140161800,1.199161865234375,3.9842467460542914,3.655115329453349,-3.620728491204977
1746483118150140700,1.209140625,3.19177125723958,3.5034798298746344,-4.0074809066474435
1746483118160119800,1.219119873046875,2.4954402669280764,2.935086068168282,-4.023216820439696
1746483118170098700,1.2290986328125,2.0268238072693348,2.591355048328638,-4.2493566491216415
1746483118180077800,1.239077880859375,1.6586510046124456,2.6606746682703495,-4.7673985262066125
1746483118190056700,1.249056640625,1.2350637732475995,3.2873113601088524,-5.12941923597455
1746483118200035800,1.259035888671875,0.7770271597921847,4.2461920476108785,-5.260876455399393
1746483118210014700,1.2690146484375,0.2654524694273248,5.4468765813946725,-5.046317758917808
1746483118219993900,1.278993896484375,-0.0400759898006916,6.606399083706736,-4.376823922127485
1746483118229972700,1.28897265625,-0.04635127067789435,7.773226940596103,-3.2285867839396
1746483118239952000,1.298951904296875,0.04583937563300133,9.30766704365015,-1.6231939067840575
1746483118249930800,1.3089306640625,-0.4953390468895435,10.457639042806624,0.13671908547580242
1746483118259910000,1.318909912109375,-1.9923276634275913,10.800056641960143,1.6226479633390902
1746483118269888800,1.328888671875,-3.84515742431581,10.249615885573625,2.2704367487996815
1746483118279868000,1.338867919921875,-5.337375173190236,9.367592812302709,1.9550585477411746
1746483118289846800,1.3488466796875,-6.421748034232855,8.832096527069806,1.5861363880217074
1746483118299826000,1.358825927734375,-7.049291319522261,8.420362815105914,1.4499585698157549
1746483118309803800,1.3688037109375,-6.732341339102387,7.734495351141691,1.338227795124054
1746483118319782700,1.37878271484375,-6.259114755299687,7.91227066962719,0.8910855006486177
1746483118329761800,1.38876171875,-6.724638509640097,8.437394613927601,1.9524229385405778
1746483118339740700,1.39874072265625,-7.410182732999324,7.9897537222802635,4.256210168278217
1746483118349719800,1.4087197265625,-7.856965546512603,6.841597832635045,5.742810661792754
1746483118359698700,1.41869873046875,-8.282122803673147,5.8058297202855345,6.451980675411224
1746483118369677800,1.428677734375,-8.530916947233676,4.864579382020235,6.459343313133716
1746483118379656700,1.43865673828125,-8.428449090927838,4.405811531680822,4.973773331710696
1746483118389635800,1.4486357421875,-8.081710705965756,4.416608235505223,2.020724321350455
1746483118399614700,1.45861474609375,-7.258714406681061,4.459850580382347,-1.4186790499329567
1746483118409593900,1.46859375,-5.778857542207837,4.87307423864305,-3.6686446731120346
1746483118419572700,1.47857275390625,-4.436473211926222,6.240919173395634,-3.9350422779023644
1746483118429551900,1.4885517578125,-4.199980916056036,7.7584245082616805,-3.16002879602015
1746483118439530800,1.49853076171875,-3.8909295799314974,9.091280547219514,-2.3945851065158843
1746483118449510000,1.508510009765625,-3.2895331278115507,10.195496172851323,-1.70838271150887
1746483118459488800,1.51848876953125,-2.430723756867647,10.28690955117941,-0.6967939316481352
1746483118469468000,1.528468017578125,-0.7262710782840848,9.04775821635723,0.8588105399876832
1746483118479446800,1.53844677734375,1.9582127739883959,6.565082738456129,2.2349135999977587
1746483118489426000,1.548426025390625,4.561081588369608,4.161698823934794,1.876479516544938
1746483118499404800,1.55840478515625,6.089127606472372,2.9328607933342457,0.3039420302867889
1746483118509384000,1.568384033203125,6.822988993754983,1.9654881718188524,1.0735077681571246
1746483118519362800,1.57836279296875,6.637001727241278,1.2352099037200213,3.3411370583206415
1746483118529341700,1.588341796875,5.85097176130414,0.8357780394464731,5.1744718451440335
1746483118539320800,1.59832080078125,3.9140141029208895,-1.6148457651555537,5.446673167777061
1746483118549299700,1.6082998046875,-0.14459142628610133,-13.217699967980383,7.838250324648619
1746483118559278800,1.61827880859375,-4.400802179086208,-39.332506014060975,22.166442514312266
1746483118569257700,1.6282578125,-12.9020371047616,-47.9304676220417,21.760693137454986
1746483118579236900,1.63823681640625,-18.549528612959385,-37.548028489387036,25.73518245960474
1746483118589215700,1.6482158203125,-19.597936426651476,-26.798841618442534,27.868853361177443
1746483118599195000,1.65819482421875,-21.415369295465943,-12.971984501212834,26.933478052425382
1746483118609172700,1.6681728515625,-24.3350070346117,-7.423298235160112,23.659472748613357
1746483118619152000,1.67815185546875,-23.407071520471572,-4.038355937382579,19.56814685306549
1746483118629130800,1.688130859375,-22.78498591606617,0.24261428588181733,15.008009852069616
1746483118639110000,1.69810986328125,-20.218116489696502,2.2844114981383083,7.979680656555295
1746483118649088800,1.7080888671875,-14.506665427285432,4.05263931427896,1.4949503887087106
1746483118659068000,1.71806787109375,-7.026895947840809,7.518496392723917,-4.913187637844682
1746483118669046800,1.728046875,-0.5544061528861522,10.121375290107727,-8.576541218811274
1746483118679026000,1.73802587890625,4.235332799944281,11.582288384658098,-8.788949459260701
1746483118689004800,1.7480048828125,6.925928559225797,12.565137392246722,-7.192698504459858
1746483118698984000,1.75798388671875,7.523063262248039,13.13783089697361,-5.113028657665849
1746483118708962800,1.767962890625,7.218522097024321,13.014839308077097,-3.0654312346979973
1746483118718941700,1.777941650390625,7.154058100420237,12.554202156734465,-1.6387869049742816
1746483118728920600,1.787920654296875,7.259408818686008,11.562588827931881,-0.4937253280825913
1746483118738899700,1.797899658203125,7.441642870146036,9.762891522294282,0.25481647258996964
1746483118748878600,1.807878662109375,7.8699612216860055,8.276683827489615,0.40917774387076494
1746483118758857700,1.817857666015625,8.545464528024196,6.937379343044757,0.6405860144749284
1746483118768836900,1.8278369140625,9.267360752224922,5.464027622681856,0.8775964890003204
1746483118778815700,1.837815673828125,10.034343487864732,3.6071573542311786,1.5931703783117235
1746483118788795000,1.847794921875,10.792399405205249,1.5293798970550299,2.754149655303359
1746483118798773800,1.857773681640625,11.425376990503072,-0.5812579194545745,4.043319989530742
1746483118808753000,1.8677529296875,11.864503736305236,-2.3207862953335043,4.814733693355322
1746483118818731800,1.877731689453125,12.049703651833534,-3.663345397660136,5.25202504042387
1746483118828711000,1.8877109375,12.168023741787671,-4.338506174170971,5.37004117899537
1746483118838689800,1.897689697265625,12.298515915572642,-4.235900955221057,5.047387433975935
1746483118848669000,1.9076689453125,12.305427302396296,-3.475520394325256,4.413506470097601
1746483118858647800,1.917647705078125,12.165139710783958,-2.520367495174706,4.076562626180053
1746483118868627000,1.927626953125,11.457672993952036,-1.3138394960597157,3.5535146113708613
1746483118878604800,1.937604736328125,10.458015474903583,0.09768412916064262,2.9055238735973834
1746483118888584000,1.947583984375,9.53057329723835,1.6272276923447846,1.968488961070031
1746483118898562800,1.957562744140625,8.90387289251387,3.2397067283689975,0.9514895543374121
1746483118908542000,1.9675419921875,8.48846253786385,4.823190263794363,0.012179974876344203
1746483118918520600,1.9775205078125,7.9611729399621485,6.345673679333925,-1.1047064778886735
1746483118928499700,1.987499755859375,7.180318330836296,7.881596129900217,-2.122860315353423
1746483118938478600,1.997478515625,5.9742439207077025,9.148122378382086,-2.5973276929974554
1746483118948457700,2.007457763671875,3.9480747779548166,9.14188669886291,-2.4274010421857235
1746483118958436600,2.0174365234375,1.4200146824508904,7.821582098442316,-2.3271795035019514
1746483118968415700,2.027415771484375,-1.6082605415463447,6.092388654094934,-2.59008312869668
1746483118978394400,2.037394287109375,-7.153330370667576,4.0530110702008,-2.6848580924123526
1746483118988373200,2.047373291015625,-19.913935974478722,3.896556479902565,-1.0356529615372418
1746483118998352400,2.057352294921875,-53.83486819119453,11.160839918887614,2.0172607368931175
1746483119008331300,2.067331298828125,-44.31754717423916,6.404270829731225,-0.9531503271564841
1746483119018310400,2.077310302734375,-8.005863145560026,1.2105803432457147,-3.3456124501690265
1746483119028289300,2.087289306640625,-7.050473222783207,6.494073850253224,-5.8714072310894725
1746483119038268400,2.097268310546875,-5.023074830496311,4.4753398259371515,-1.5895681160360573
1746483119048247300,2.107247314453125,0.45258243970274925,2.2541234735108913,0.8397165479391813
1746483119058226400,2.117226318359375,3.9589848790258166,1.0047009931083768,1.6683461769357322
1746483119068205300,2.127205322265625,4.480793415167928,-0.2483306177020073,1.8209392695002258
1746483119078184400,2.137184326171875,2.797050054875016,-0.8227000928170979,1.108303771728277
1746483119088163300,2.147163330078125,1.2090262456715106,-0.8419508828625083,0.25530337932407854
1746483119098142200,2.15714208984375,0.4747217907965183,-0.8524312142141163,-0.3145233377948403
1746483119108121000,2.16712109375,0.5458049132794142,-0.922229557583481,-0.5456640435039997
1746483119118100200,2.177100341796875,1.293674367648363,-1.047558064994961,-0.6583107639968395
1746483119128079000,2.1870791015625,2.452342883479595,-0.9305758725810795,-0.6467331389278173
1746483119138057200,2.19705712890625,3.743337218263745,-0.4202329525008797,-0.3217176332131028
1746483119148036400,2.207036376953125,4.697030858516693,0.08057349294908345,0.20681845761835574
1746483119158015200,2.21701513671875,5.313367690137029,0.2579283210001886,0.5879165005609392
1746483119167994400,2.226994384765625,5.305294858318567,0.2652537685174495,0.5371928600177168
1746483119177973200,2.23697314453125,4.154577593752742,0.2202950481764972,-0.1446039935067296
1746483119187952400,2.246952392578125,1.4980688129901885,-0.013170593348890543,-1.2526049828961492
1746483119197931300,2.25693115234375,-1.9917735366761684,-0.20130298213250933,-2.382556815069914
1746483119207910400,2.266910400390625,-4.938153152275085,-0.22104608573950826,-3.3365523608788847
1746483119217889300,2.27688916015625,-6.470532815667987,-0.3420679819982499,-3.5344743953362103
1746483119227868400,2.286868408203125,-5.878411556893587,-0.39619171330854297,-2.801787312529981
1746483119237847300,2.296847412109375,-3.5238889961749313,-0.22110789892934263,-1.4951704612001775
1746483119247826400,2.306826416015625,-1.4656722717761992,0.03931589214839041,-0.35028555604964495
1746483119257805300,2.316805419921875,-0.264472774207592,0.18779446206614375,0.32619565540999174
1746483119267784400,2.326784423828125,0.33335517177581786,0.19908077603839336,0.7327338445574044
1746483119277763300,2.336763427734375,0.5905564936757087,0.10173924977034329,0.9986647086188196
1746483119287742500,2.346742431640625,0.6688076080918312,-0.06346702145598829,1.0894883043602108
1746483119297721000,2.35672119140625,0.586592850741744,-0.12973178387172518,1.0419725199475884
1746483119307700200,2.3667001953125,0.2790244466513395,-0.2261264577437192,1.1235647614851594
1746483119317679000,2.37667919921875,-0.20538170281350612,-0.26675609937179834,1.374694362255931
1746483119327658200,2.386658203125,-0.6914309433102608,-0.0258707561744377,1.447548878325522
1746483119337637000,2.39663720703125,-1.2155354814350605,0.2990597016053274,1.36788877389431
1746483119347616300,2.4066162109375,-1.6151526391476392,0.6863643806356936,1.1578864255428314
1746483119357595100,2.41659521484375,-1.9402724820196628,1.0850646426990627,0.8083055106312036
1746483119367574300,2.42657421875,-2.1843431041896344,1.3899994834154843,0.40899435012787577
1746483119377553200,2.43655322265625,-2.451477791082859,1.5860332199081777,-0.034569793599843975
1746483119387531300,2.44653125,-2.9325416443824768,1.6741871580488978,-0.21736966224908827
1746483119397510400,2.456510498046875,-3.573620118549466,1.5863482772067188,-0.24937808092832564
1746483119407489300,2.4664892578125,-4.128849278256297,1.4249994851261376,-0.15933774451911448
1746483119417468400,2.476468505859375,-4.401096193596721,1.4302809326604007,0.004755085572600365
1746483119427447300,2.486447265625,-4.393070708051324,1.6077628211572765,0.2982271597713232
1746483119437426400,2.496426513671875,-4.2873236839443445,1.7651953165769576,0.6590601210594177
1746483119447405300,2.5064052734375,-4.23540995683372,1.8786964619420468,1.1493383774280548
1746483119457384400,2.516384521484375,-4.256779492598771,2.0124951299265024,1.549329629150033
1746483119467363300,2.52636328125,-4.331853146022558,2.0145801195070145,1.6973896083295343
1746483119477342500,2.536342529296875,-4.325129975247383,2.02118141746819,1.705271886011958
1746483119487321300,2.5463212890625,-4.209290596193075,2.1509198502764106,1.6295231098055838
1746483119497300200,2.55630029296875,-3.857880127766728,2.1303914415106178,1.822640374329686
1746483119507279000,2.566279052734375,-3.358485960267484,2.164313584856689,1.937097943636775
1746483119517258200,2.57625830078125,-2.9581650381997227,2.341975798356533,1.9450269830703735
1746483119527237000,2.586237060546875,-2.695696297290921,2.43717161783278,1.8933406349748372
1746483119537216300,2.59621630859375,-2.477953417815268,2.3948440497130155,1.8843062646478412
1746483119547195100,2.606195068359375,-1.9441598448470234,2.31790343337357,1.8234505216687917
1746483119557174300,2.61617431640625,-0.9346744670063256,2.0765116750240327,1.7089304085195063
1746483119567153200,2.626153076171875,0.12018588382601737,1.8018869246363638,1.499198109281063
1746483119577132300,2.63613232421875,1.1488798200055956,1.4434166008263825,1.3533043682247399
1746483119587111200,2.646111083984375,1.999843007493764,1.2085557055503129,1.2540326776117086
1746483119597090300,2.65609033203125,2.5884178258329626,1.2926041080683468,1.171367253884673
1746483119607069200,2.666069091796875,3.365604560101032,1.5909060866415499,1.3559797249138354
1746483119617048300,2.67604833984375,4.450345669934153,1.2548802343517542,2.403138415327668
1746483119627026400,2.6860263671875,5.314901475575566,0.6473012942045927,3.403943350845575
1746483119637005300,2.69600537109375,5.558560594335198,-0.12656710929572582,3.970525094693899
1746483119646984400,2.705984375,4.991459210526943,-0.9855711260288953,3.9720015969872473
1746483119656963300,2.71596337890625,3.8121962349563834,-1.868687255233526,3.818831142926216
1746483119666942500,2.7259423828125,2.0697296136684713,-2.5272347505956887,3.41443493424356
1746483119676921300,2.73592138671875,-0.06663900255560874,-2.771068641400337,2.85924026132822
1746483119686900500,2.745900390625,-1.9409446821928023,-3.1828181354552507,2.6848317889273163
1746483119696879000,2.755879150390625,-3.1061013909995556,-3.6010680974453684,2.7317180432647463
1746483119706858200,2.765858154296875,-3.2705332437872885,-3.7013662084966894,2.759720148912072
1746483119716837000,2.775837158203125,-2.6110265480041503,-3.422814055532217,2.613324888074398
1746483119726816300,2.785816162109375,-1.586886914128065,-3.0675457426339388,2.45095347494781
1746483119736795100,2.795795166015625,-0.6251198575347662,-2.652847920167446,2.39992705206573
1746483119746774300,2.805774169921875,0.15055983317121863,-2.229077733451128,2.5670377686738965
1746483119756753200,2.815753173828125,0.7340032799713313,-1.9295254625558853,2.622642166996002
1746483119766732300,2.825732177734375,0.9530828148782252,-1.6549252620875834,2.8106764291673896
1746483119776711200,2.835711181640625,0.7333158822290599,-1.313824006229639,3.3370728776216505
1746483119786690300,2.845690185546875,0.1340893945593387,-0.9490452299252152,3.932945597884059
1746483119796669200,2.855669189453125,-0.6587987667094916,-0.49172202543616295,4.528406814736128
1746483119806648300,2.8656484375,-1.4500205291360615,-0.017304770544171334,4.976112588313222
1746483119816627200,2.875627197265625,-2.1370313179165126,0.4818599721133709,4.9709676266402
1746483119826606300,2.8856064453125,-2.547631641936302,1.1359779605954885,4.176882364541292
1746483119836584400,2.89558447265625,-2.306435698419809,1.48714614469856,2.0366455285817384
1746483119846563300,2.905563232421875,-1.3858511315643787,1.020122799450159,-0.6209177296698093
1746483119856542500,2.91554248046875,-0.5005260210733861,-0.02189326737821102,-2.7232933292686936
1746483119866521300,2.925521240234375,0.029136078113317487,-0.8118149800568819,-3.948786725616455
1746483119876500500,2.93550048828125,0.02352934414744377,-1.1321177780359983,-4.138759846895933
1746483119886479400,2.945479248046875,-0.39886714306287463,-1.3083936517439783,-3.665497607257962
1746483119896458200,2.955458251953125,-0.7927366970341653,-1.2720929426982999,-2.691041164961457
1746483119906437000,2.96543701171875,-0.9480464281462132,-0.8763502883315086,-1.440508019903302
1746483119916416300,2.975416259765625,-0.7962741504453122,-0.19952201699987052,-0.45442543722093104
1746483119926395100,2.98539501953125,-0.25613033166751265,0.3895017141506076,-0.1525625512957573
1746483119936374300,2.995374267578125,0.2458450844965875,0.16243132662028073,-0.7105699435442686
1746483119946353200,3.005353271484375,0.9006994244292378,-0.4667249468237161,-1.4441425770133733
1746483119956332300,3.015332275390625,1.8032216803714631,-1.0940389534018933,-1.9444810396254062
1746483119966311200,3.025311279296875,2.6183736958965658,-2.071388925182819,-2.3694851520508524
1746483119976290300,3.035290283203125,3.1991867941930887,-2.7146704623520375,-2.9633517931878566
1746483119986269400,3.04526953125,3.5632460240513084,-3.1135093291684983,-3.4454145943969485
1746483119996248600,3.05524853515625,3.4773867727190253,-3.0692320882856845,-3.246152835768461
1746483120006227500,3.0652275390625,3.2785999381259083,-2.6933921120017765,-2.5748937428712844
1746483120016206600,3.07520654296875,2.8361978239148855,-2.0873618626013397,-1.9161416648477314
1746483120026185500,3.085185546875,2.360086624586582,-1.4574226220861077,-0.9407096555173396
1746483120036164600,3.09516455078125,1.8037720077306032,-0.8126059843041002,-0.14367489596307276
1746483120046142500,3.105142578125,1.097988713940978,-0.4416783299811184,0.358940863931179
1746483120056121600,3.11512158203125,0.21839082199037074,-0.2512511082585901,0.6527209811657667
1746483120066100500,3.1251005859375,-0.7217319735497236,-0.08696516674757003,0.7414952431619167
1746483120076079600,3.13507958984375,-1.6328496238797903,0.03275039615295827,0.8726321445912122
1746483120086058500,3.14505859375,-2.4209651639193295,0.34136092970743775,1.0018892236232757
1746483120096037600,3.15503759765625,-2.9948306350350378,0.7474184226658195,1.2154349436700342
1746483120106016500,3.1650166015625,-3.4605659862995144,1.2137242672946302,1.4365397007942198
1746483120115995600,3.17499560546875,-3.7559161293298002,1.5846568169884383,1.5974632532000541
1746483120125974500,3.184974609375,-3.881664323458075,1.7635029795758426,1.7241051812976598
1746483120135953700,3.19495361328125,-3.7677737403839826,1.8773676975563167,1.802929127165675
1746483120145932800,3.204932861328125,-3.4354309605211015,2.13074157012254,1.8094722651988266
1746483120155911400,3.214911376953125,-3.056778264904022,2.4432430467009545,1.9260358668744564
1746483120165890600,3.224890625,-2.701304784822464,2.596701377792656,2.017791190508008
1746483120175869400,3.234869384765625,-2.3018670753300188,2.4561089580148456,2.1218021846026183
1746483120185848600,3.2448486328125,-1.948489106222987,2.038681126062572,2.1348411143958566
1746483120195827500,3.254827392578125,-1.763098344297707,1.3578022641658782,1.9527865111559628
1746483120205806600,3.264806640625,-1.5253084098324179,0.8242543365217745,1.3868565092146397
1746483120215785500,3.274785400390625,-1.2410603833138942,0.6184435946412384,0.5670750803232193
1746483120225764600,3.2847646484375,-0.8120242388933897,0.42448491085693235,0.10349953744113445
1746483120235743500,3.294743408203125,-0.22681612050831318,0.2791679467752576,-0.26171266184449193
1746483120245722600,3.30472265625,0.4030062156289816,0.19294746091514825,-0.6331693084776401
1746483120255700500,3.314700439453125,0.927844328725338,0.11097937180250883,-1.0685919390648604
1746483120265679600,3.3246796875,1.3322662563711405,0.2352954873010516,-1.5462527059227227
1746483120275658500,3.334658447265625,1.6065835482448338,0.617188187752664,-1.7182178768247365
1746483120285637600,3.3446376953125,1.5933867975413798,0.5976406067177653,-1.789191693714261
1746483120295616500,3.354616455078125,0.9237965146392584,-0.1385410402059555,-1.9685820461809633
1746483120305595600,3.364595703125,-0.2020493435204029,-0.7247323244094849,-1.822731559744477
1746483120315574500,3.374574462890625,-1.1594120276749134,-0.5355412934184074,-1.70513744597733
1746483120325553700,3.3845537109375,-1.6174018793791531,-0.20371113925278186,-1.5354747067987917
1746483120335532500,3.394532470703125,-2.145097719994187,0.3683987203672528,-1.5749299343526362
1746483120345511700,3.40451171875,-2.568601364728808,0.43554742601066826,-1.2858487885892391
1746483120355490600,3.414490478515625,-2.336483046159148,0.30761954975575206,-1.5390882211208343
1746483120365469400,3.424469482421875,-1.7710703460901975,0.5259492892086506,-2.357017007882893
1746483120375448600,3.434448486328125,-1.162068095141649,0.4474854088246822,-2.9944471886754034
1746483120385427500,3.444427490234375,-0.5900900452077389,0.5027162976592778,-3.482620873980224
1746483120395406600,3.454406494140625,-0.2822095064282417,0.42514176733046766,-3.390745138837397
1746483120405385500,3.464385498046875,-0.2046189017474651,0.45123453222513193,-3.2451024499326944
1746483120415364600,3.474364501953125,0.019728782820701597,0.886271378365159,-2.31124631357193
1746483120425343500,3.484343505859375,0.4734329200297594,1.2071610363215208,-0.783604492355883
1746483120435322600,3.494322509765625,0.8595838624477385,1.4980810879498718,0.25043226615637537
1746483120445301500,3.504301513671875,0.9739514153838157,1.8111603644162415,0.8807336179822682
1746483120455279600,3.514279541015625,0.8166460534751415,2.1213953573673963,1.2637713968157767
1746483120465258500,3.524258544921875,0.330464126509428,2.301450895744562,1.4428034373641012
1746483120475237600,3.534237548828125,-0.4665080892026424,2.3382041708633303,1.487279123428464
1746483120485216500,3.544216552734375,-1.2543185088157653,2.3139736927092076,1.4431065119639037
1746483120495195600,3.554195556640625,-1.8036872520565985,2.199146121045947,1.2198252875834703
1746483120505174500,3.564174560546875,-2.360918399235606,2.107165756484866,1.0485638810366391
1746483120515153700,3.574153564453125,-2.719939342665672,2.1252590470582247,0.9482724919870495
1746483120525132500,3.584132568359375,-3.027225422683358,2.3423323567092416,0.8004375537350773
1746483120535111700,3.594111572265625,-3.4049908140718936,2.548569799569249,0.5176730437725782
1746483120545090600,3.604090576171875,-3.801394854956865,2.7299738299459215,-0.012919687327742575
1746483120555069400,3.6140693359375,-4.284830698084831,2.8940076233267784,-0.666532648897171
1746483120565048600,3.624048583984375,-4.7592029447913164,2.962760841557383,-1.2742249862909316
1746483120575027500,3.63402734375,-5.106496041026711,3.0960487835407253,-1.8636515991538762
1746483120585006600,3.644006591796875,-5.4727896058082575,3.607939736780524,-2.4495890547268093
1746483120594985500,3.6539853515625,-5.376352846360207,4.307263479167223,-2.639696469910443
1746483120604964600,3.663964599609375,-4.885675361540914,5.064681683126092,-2.5056921963512897
1746483120614943500,3.673943603515625,-4.404814337337017,5.676734553816914,-2.2828867727890607
1746483120624922600,3.683922607421875,-4.078756336832046,6.174933081790805,-2.258304850848764
1746483120634901500,3.693901611328125,-3.8326924950182435,6.4818362999707455,-2.342800997134298
1746483120644880600,3.703880615234375,-3.445714454126358,6.609149843719601,-2.4205125978462396
1746483120654858500,3.7138583984375,-2.8998130947351455,6.613709114459157,-2.468373980826139
1746483120664837600,3.723837646484375,-1.8711802410930394,6.063265435463189,-2.2971612357266245
1746483120674816500,3.73381640625,-0.30882044997811314,5.386784224003553,-2.103528861287236
1746483120684795600,3.743795654296875,1.1863903432324527,4.598401557460427,-1.9716870264589785
1746483120694774500,3.7537744140625,2.7902929818302393,3.7900025233268737,-1.6161141776561736
1746483120704753700,3.763753662109375,4.282448186862468,3.272397284093499,-1.4372709376782178
1746483120714732500,3.773732666015625,4.889022918403148,2.8217320761889217,-1.238287411469221
1746483120724711700,3.783711669921875,4.7680035063624375,2.444655251586437,-1.0159721095114946
1746483120734690600,3.793690673828125,4.690464339607954,2.2908213651806113,-0.6940478478103875
1746483120744669400,3.80366943359375,4.8205309814572335,2.19859959307909,-0.3325850641861558
1746483120754648300,3.8136484375,4.913109896433353,2.068694279271364,-0.10837941843718289
1746483120764627500,3.82362744140625,5.003921801736951,1.814587416255474,0.1014057800322771
1746483120774606600,3.833606689453125,5.0728766800194975,1.5544687456041573,0.09779314249306917
1746483120784585500,3.84358544921875,5.054857039204239,1.4826988099008798,-0.09765957924127579
1746483120794564600,3.853564697265625,5.03023756173253,1.4757693028986454,-0.18330051164776084
1746483120804543500,3.86354345703125,5.048696178486943,1.3497136502563953,-0.3040358460500836
1746483120814522600,3.873522705078125,5.089005977043509,1.1165519601136444,-0.5970981704041362
1746483120824501500,3.88350146484375,5.212559875997901,0.8190233040004968,-0.8018846838034689
1746483120834480600,3.893480712890625,5.276652701202035,0.4856710548341274,-1.0060780536152423
1746483120844458500,3.90345849609375,5.187423681175709,0.21956337290108202,-1.2665702337540685
1746483120854437600,3.913437744140625,5.000837279725075,0.04232172290086746,-1.3953344147026538
1746483120864416500,3.92341650390625,4.777498479938507,0.07296528296768665,-1.6595114208340644
1746483120874395600,3.933395751953125,4.488564049169421,0.2434200493067503,-1.8840373845785856
1746483120884374500,3.94337451171875,4.088661060252785,0.39918636507987976,-2.005125477941334
1746483120894353700,3.953353759765625,3.576787058147788,0.5416168139398098,-2.0089109878294167
1746483120904332500,3.96333251953125,2.930754176443815,0.5516974784493446,-1.9937989050239324
1746483120914311700,3.973311767578125,2.1466034483820198,0.5521288556039333,-2.1018173811942336
1746483120924290600,3.98329052734375,1.2900661140233278,0.6376572675466537,-2.1866452436521646
1746483120934269700,3.993269775390625,0.3183259449481964,0.8179588896393776,-2.1095506057947873
1746483120944248300,4.003248291015625,-0.6802958013117313,0.9324012613773346,-1.9609914449214934
1746483120954227500,4.0132275390625,-1.5759049168646335,1.0183055208951235,-1.9672551814913748
1746483120964206300,4.023206298828125,-2.2375731745958327,1.1142799235284329,-1.9967982329703866
1746483120974185500,4.033185546875,-2.616186707246303,1.0657535007685421,-1.830040275322646
1746483120984164400,4.043164306640625,-2.8114111731827256,0.9275672653496265,-1.5900041693657636
1746483120994143500,4.0531435546875,-2.8682383912980556,0.857470231294632,-1.224613106381893
1746483121004122400,4.063122314453125,-2.8167852674365044,0.9168880504250526,-0.651879269644618
1746483121014101500,4.0731015625,-2.675105344682932,0.7928115889012813,0.0631565672673285
1746483121024080600,4.08308056640625,-2.4863141266644,0.6138754099428654,0.4175708936847746
1746483121034059500,4.0930595703125,-2.2255248632751403,0.41382513128519055,0.4794561258420348
1746483121044037600,4.10303759765625,-1.86664727383852,0.08312661149799823,0.515805642465502
1746483121054016500,4.1130166015625,-1.5745429808616638,-0.32123277230560776,0.597713964214921
1746483121063995600,4.12299560546875,-1.201612170022726,-0.6772405053943396,1.0318505005143581
1746483121073974500,4.132974609375,-0.7224784080028533,-0.982009634155035,1.7361761428415774
1746483121083953700,4.14295361328125,-0.31766543521285057,-1.3617255750894546,2.5500983243107793
1746483121093932500,4.1529326171875,-0.033864860200881954,-1.7650661372393368,3.2019641499519347
1746483121103911400,4.162911376953125,0.24611878687143324,-2.174348364397883,3.820767079424858
1746483121113890300,4.172890380859375,0.3749393741823733,-2.4160996037095783,4.159271304526925
1746483121123869400,4.182869384765625,0.29580665462613104,-2.485469492533803,4.449768746829033
1746483121133848300,4.192848388671875,0.02727130715474486,-2.5048738657057283,4.6851913676410915
1746483121143827500,4.202827392578125,-0.47770884378328915,-2.371191371446848,4.833537762546539
1746483121153806300,4.212806396484375,-1.0968882053531706,-2.219045584258437,5.040208336126804
1746483121163785500,4.222785400390625,-1.6917492643550038,-2.2299194449722766,5.183786785978079
1746483121173764400,4.232764404296875,-2.2397534412443636,-2.101968187841773,5.0413084063231945
1746483121183743500,4.242743408203125,-2.7839140944480896,-1.9646932220488786,4.750193708905577
1746483121193722400,4.252722412109375,-3.213071234899759,-1.9959581288844346,4.517924583688378
1746483121203701500,4.262701416015625,-3.3948563735485076,-2.2094453967422245,4.2443163168668745
1746483121213680400,4.272680419921875,-3.181205439561605,-2.482293200585246,3.864909588012099
1746483121223658500,4.282658447265625,-2.7153075912117957,-2.7416549153894185,3.3825708924710747
1746483121233637600,4.2926376953125,-2.0791116283893585,-3.039999564060569,3.097881551925838
1746483121243616500,4.302616455078125,-1.3805226300179958,-3.2062019336521623,3.0823201179176567
1746483121253595600,4.312595703125,-0.7192740590035915,-3.226419376772642,3.252410727119446
1746483121263574500,4.322574462890625,-0.2861667196214199,-3.11275091201663,3.447388817079365
1746483121273553700,4.3325537109375,-0.14765855877175926,-2.971709287166595,3.51071533408612
1746483121283532500,4.342532470703125,-0.05037672680169344,-2.733280470275879,3.549614973583817
1746483121293511700,4.35251171875,-0.10243629212379456,-2.5821406452596185,3.802496970979869
1746483121303490300,4.362490234375,-0.3612555706143379,-2.538239544212818,3.9866526381522416
1746483121313469400,4.372469482421875,-0.8009960644006728,-2.4357915616512296,3.941356575615704
1746483121323448300,4.3824482421875,-1.2673042471170424,-2.6645406960487366,3.8437893508329983
1746483121333427500,4.392427490234375,-1.5394146765962242,-2.838792516583204,3.535775248801708
1746483121343406300,4.40240625,-1.6532500223517417,-2.850788074803352,3.3618674193993208
1746483121353385500,4.412385498046875,-1.6775591187000274,-2.6858149547457693,3.6539518386319276
1746483121363364400,4.4223642578125,-1.674311661211401,-2.30956698218286,3.966492770437896
1746483121373343500,4.432343505859375,-1.6989594879947603,-1.962107297208905,4.150056024675071
1746483121383322400,4.442322265625,-1.72018830011487,-1.84236506549716,4.277754183827341
1746483121393300500,4.452300537109375,-1.7123546838797628,-2.042830354696512,4.306668728144467
1746483121403279600,4.462279541015625,-1.7442099578239023,-2.1751088273763655,4.143648787981271
1746483121413258500,4.472258544921875,-1.9593923391617833,-2.0017717835992572,4.0566587790533895
1746483121423237600,4.482237548828125,-2.278087409683317,-1.9277128601759672,4.197506050375104
1746483121433216500,4.492216552734375,-2.6106980467021463,-1.8129197753041981,3.952650415307283
1746483121443195600,4.502195556640625,-2.9243934092402455,-1.7417630030632019,3.5493574916914103
1746483121453174500,4.512174560546875,-3.198388629552722,-1.698227812719345,3.232695388302207
1746483121463153700,4.522153564453125,-3.419225091129541,-1.4645868146270513,2.905804151843488
1746483121473132500,4.532132568359375,-3.6366052747726436,-1.1433996350288391,2.8453756943657993
1746483121483111700,4.542111572265625,-3.7977147051393985,-1.0697516304939985,2.9316517098054287
1746483121493090600,4.552090576171875,-3.917443492847681,-0.90637425519526,2.5826366120830175
1746483121503069400,4.5620693359375,-3.8206677107036113,-0.8500579092115164,1.751311752653122
1746483121513048300,4.57204833984375,-3.283331935083866,-0.9933382528990506,0.8554927937418222
1746483121523027500,4.58202734375,-2.2102514524281025,-0.8812088342785834,0.2151797509893775
1746483121533006300,4.59200634765625,-0.9631026160459965,-0.48605917736887927,-0.1648512472435832
1746483121542985500,4.6019853515625,0.16149178074784576,-0.05388941109776497,-0.44525165842324493
1746483121552964400,4.61196435546875,1.0521289531070739,0.3244838830560446,-0.8465203827351331
1746483121562942500,4.6219423828125,1.787404810297489,0.7182184124708175,-1.3959616066902876
1746483121572921600,4.631921630859375,2.269393377226591,0.8227432013064623,-2.1869071094587444
1746483121582900500,4.641900390625,2.5185271280050276,0.8004927910536527,-3.42231399705559
1746483121592879600,4.651879638671875,2.6534827109396457,0.8205869000554085,-4.714079900734126
1746483121602858500,4.6618583984375,2.6715023517549037,0.7593839510738849,-5.777938089275359
1746483121612837600,4.671837646484375,2.599253108102083,0.7410586053103209,-6.485887621188163
1746483121622816500,4.68181640625,2.463338909268379,0.8343278406381607,-6.875238236430287
1746483121632795600,4.691795654296875,2.2921581667423245,0.9872218158453703,-6.983226901984215
1746483121642774500,4.7017744140625,2.134814226388931,1.3718822274446487,-6.766247700357437
1746483121652753700,4.711753662109375,2.0241922897219657,1.9284248078376054,-6.312663390135764
1746483121662732500,4.721732666015625,1.7969009529173372,2.633987152352929,-5.71187893243432
1746483121672711700,4.731711669921875,1.392045894551277,3.368187562331557,-5.025494751119614
1746483121682690600,4.741690673828125,0.7918599872648715,3.905814429852366,-4.299049193051457
1746483121692669700,4.751669677734375,0.15617591948732734,4.114140369424224,-3.6533737464830276
1746483121702648300,4.7616484375,-0.39162601282820103,4.245104252374172,-3.2907018793299794
1746483121712627500,4.77162744140625,-0.80332816061005,4.3565217233330005,-2.971506750331819
1746483121722606300,4.7816064453125,-1.186418108022213,4.483322056862711,-2.725360783192515
1746483121732584400,4.79158447265625,-1.6662825224041937,4.575262089413404,-2.367716973334551
1746483121742563600,4.8015634765625,-2.007649151200056,4.670566629961133,-1.8647241968214512
1746483121752542500,4.81154248046875,-2.1223110109075902,4.8868204399228095,-1.3226070321440695
1746483121762521600,4.821521484375,-2.153672948376834,5.307697827807068,-0.6616472149431705
1746483121772500500,4.83150048828125,-2.275382096247375,5.821469772487879,0.1722422342777252
1746483121782479600,4.841479736328125,-2.373800823292881,5.980323532882332,1.2497709285140037
1746483121792458500,4.85145849609375,-2.440915772797167,6.06436609018147,2.171497066619992
1746483121802437600,4.861437744140625,-2.334788663331419,6.411643988847732,2.8079648321211335
1746483121812416500,4.87141650390625,-2.1874776028230785,6.6522384593397375,3.4845892514437433
1746483121822395600,4.881395751953125,-2.0023533828794955,6.846887171214819,3.8955280136376618
1746483121832374500,4.89137451171875,-1.8295511766314505,7.029176167732476,3.9253742858469485
1746483121842353700,4.901353759765625,-1.7106034562982617,7.086776708307862,3.983012820345163
1746483121852332500,4.91133251953125,-1.8202888427674768,7.102158401834965,4.527307329061627
1746483121862311700,4.921311767578125,-2.1475848606348036,6.99535748476088,5.1268368182659145
1746483121872290600,4.93129052734375,-2.4837317089557645,7.008378294375539,5.429549599018693
1746483121882269700,4.941269775390625,-2.7588147245049477,6.859265591272711,5.627206260538101
1746483121892247600,4.95124755859375,-2.924099979251623,6.492880841076373,5.60764406645596
1746483121902226400,4.961226318359375,-2.9755951886892316,6.056354633161425,5.362942745167016
1746483121912205600,4.97120556640625,-2.977642184346914,5.345329347065091,5.191399599069356
1746483121922184400,4.981184326171875,-2.9064579395771024,4.706259290111064,4.734566516184807
1746483121932163600,4.99116357421875,-2.6349510289490223,4.28472139249146,4.062080511841177
1746483121942142500,5.001142578125,-2.1949708811879156,4.1747529512971635,3.3131144944071766
1746483121952121600,5.01112158203125,-1.7545161016523838,3.96629023360312,2.604810742229223
1746483121962100500,5.0211005859375,-1.3364146082222461,3.748915895178914,1.715359564784169
1746483121972079600,5.03107958984375,-0.8798048126995563,3.8116847783029075,0.6693821931093931
1746483121982058800,5.041058837890625,-0.41001751916315404,3.882302621361613,-0.14530863464474678
1746483121992038000,5.051037841796875,-0.10265377079937607,3.8882115531444548,-0.8859159890562296
1746483122002016800,5.061016845703125,0.07881342447400093,3.859326234921813,-1.562783569484949
1746483122011996000,5.070995849609375,0.19849311234354972,3.739602123388648,-2.159432534816861
1746483122021974800,5.080974853515625,0.17198270655870437,3.49241015432775,-2.6940648966968057
1746483122031954000,5.090953857421875,0.027219978826306758,3.2036388051658866,-3.295758285936713
1746483122041932800,5.100932861328125,-0.1577987714488059,2.926981087645888,-3.9938977869749066
1746483122051911000,5.110910888671875,-0.27420389462709427,2.6346967619270085,-4.605845443725586
1746483122061889800,5.120889892578125,-0.36852585387825965,2.3198376163065433,-5.196977691462636
1746483122071869000,5.130868896484375,-0.4051309892306104,2.005406925231218,-5.712162425550818
1746483122081847800,5.140847900390625,-0.43648119972944255,1.7253367689192294,-6.210146433991193
1746483122091827000,5.150826904296875,-0.5229109444260597,1.3990747702747584,-6.600635697874426
1746483122101805600,5.1608056640625,-0.6504150423109532,0.9882312851488589,-6.842367647963762
1746483122111784700,5.17078466796875,-0.7096668572247028,0.5073234991937875,-6.9932947070121765
1746483122121763600,5.180763671875,-0.7595580655317753,0.09982406379878521,-7.125279749703407
1746483122131742700,5.19074267578125,-0.8034405349433421,-0.1656973426789045,-7.211558687752484
1746483122141721600,5.2007216796875,-0.8094120105683803,-0.4085153344392776,-7.203419804960489
1746483122151700700,5.21070068359375,-0.8263421025812625,-0.6521282759696245,-7.111662727761268
1746483122161680000,5.220679931640625,-0.8022890268206596,-0.9480044887006283,-6.9652411634385585
1746483122171658800,5.23065869140625,-0.6163198804855347,-1.1604653361201285,-6.83703680832982
1746483122181638000,5.240637939453125,-0.38562074453141537,-1.243015024513006,-6.689455552577972
1746483122191616800,5.25061669921875,-0.14888006339073181,-1.3684937540501356,-6.410699401473999
1746483122201596000,5.260595947265625,-0.01683306137919426,-1.62757197573781,-6.028714346563816
1746483122211573800,5.27057373046875,0.005531910597416572,-1.8995891739755868,-5.6406829972267145
1746483122221553000,5.280552978515625,0.010543021324276923,-2.0520318982839583,-5.397382190385461
1746483122231531800,5.29053173828125,0.012255067672859877,-2.130195334416628,-5.16479800786972
1746483122241511000,5.300510986328125,0.08303838522527367,-2.1454718140035864,-4.9447255164027215
1746483122251489800,5.31048974609375,0.1727449596354738,-2.132684813144803,-4.789020283167064
1746483122261469000,5.320468994140625,0.2878969409475103,-2.2181851680368183,-4.600050493711233
1746483122271447800,5.33044775390625,0.4431892094681039,-2.39906897393167,-4.3782296972721815
1746483122281427000,5.340427001953125,0.6903261969387531,-2.480903792053461,-4.250389791561663
1746483122291405800,5.35040576171875,0.961039984427765,-2.514016957104206,-4.007551633796096
1746483122301384700,5.360384765625,1.305823070603609,-2.4763491974890233,-3.812303786984086
1746483122311363600,5.370363525390625,1.4956253653608262,-2.5688550472289324,-3.661256316426396
1746483122321342700,5.3803427734375,1.5575715339250862,-2.8093238455146547,-3.3840111544072626
1746483122331321600,5.390321533203125,1.5921937883645294,-3.055983315134048,-2.985350566767156
1746483122341300700,5.40030078125,1.8010453592456876,-3.286554988783598,-2.6157684818342326
1746483122351279600,5.410279541015625,2.1071708710514008,-3.5218484302580353,-2.29532773668915
1746483122361258800,5.4202587890625,2.423770430598408,-3.7010254322350025,-2.134117476296425
1746483122371236900,5.43023681640625,2.78383869112432,-3.7565105880916114,-1.9716957942873239
1746483122381215700,5.4402158203125,2.9608991393387316,-3.7775200583726165,-1.8514950051531194
1746483122391195000,5.45019482421875,2.962054154592752,-3.805141640269756,-1.6821230656147002
1746483122401173800,5.460173828125,2.892702093686163,-3.8540842426151034,-1.570516209563613
1746483122411153000,5.47015283203125,2.7999750024110077,-3.8184570489168164,-1.5057479693159461
1746483122421131800,5.4801318359375,2.647026666668057,-3.743407945412397,-1.4427867784902453
1746483122431111000,5.49011083984375,2.4414018027484414,-3.5693589539736506,-1.3740826600983738
1746483122441089800,5.50008984375,2.1521780336439607,-3.3904753819853064,-1.2553636339545249
1746483122451069000,5.51006884765625,1.8980512968838215,-3.190128750729561,-1.218867256206274
1746483122461047800,5.5200478515625,1.652791611059755,-2.8402795402705667,-1.4010478239133952
1746483122471027000,5.53002685546875,1.3814537733882666,-2.322166936036944,-1.5982394982695578
1746483122481005800,5.540005859375,1.0998419405922293,-1.8747148449599742,-1.8248080737575887
1746483122490985000,5.54998486328125,0.8121078255236148,-1.3562521121144293,-2.259046755257249
1746483122500963600,5.559963623046875,0.6174236039437353,-0.9386129754990339,-2.6462650346457957
1746483122510941700,5.569941650390625,0.6630564972192049,-1.083965449285507,-2.5959546510785816
1746483122520920800,5.5799208984375,0.8700814371950923,-1.2081833651065825,-2.701791691556573
1746483122530899700,5.589899658203125,1.2686813806891442,-1.2727274412095546,-2.8054864593088626
1746483122540878800,5.59987890625,1.928348089339584,-1.409164787134528,-2.4472128271147606
1746483122550857700,5.609857666015625,2.50199801800847,-1.3308546360075473,-1.9667855181530116
1746483122560836900,5.6198369140625,2.9089801515311002,-1.0703519344747066,-1.3869067780971527
1746483122570815700,5.629815673828125,3.173220286026597,-0.8504115449547767,-0.7341656309261918
1746483122580795000,5.639794921875,3.3476603226095434,-0.5459872841089963,-0.08606091138422489
1746483122590773800,5.649773681640625,3.379107600274682,-0.20593641408681868,0.449072970277071
1746483122600753000,5.6597529296875,3.2573511061310767,-0.007241057169437408,0.9324556219130754
1746483122610731800,5.669731689453125,3.114153180029988,0.05541209062039852,1.3790215778052806
1746483122620711000,5.6797109375,2.9801176345497367,0.013672551521658896,1.722131835398078
1746483122630689800,5.689689697265625,2.8803678050309416,-0.07598141591846942,1.8917028046399353
1746483122640669000,5.6996689453125,2.6481810974001885,-0.09385609530508518,1.8230431099116802
1746483122650647800,5.709647705078125,2.2682710951983927,-0.12000000586509704,1.554654039043188
1746483122660625700,5.719625732421875,1.8684645523935555,-0.10738953061699867,1.3550053269237279
1746483122670604800,5.729604736328125,1.4294307455718516,0.03911678937971592,1.176637887763977
1746483122680583700,5.739583740234375,0.9612013124693185,0.14236322884261607,1.062932013607025
1746483122690562800,5.749562744140625,0.5633569365829229,0.26496260355114937,1.0560492683559655
1746483122700541700,5.759541748046875,0.30066527363844214,0.33703181446194647,1.1150953315645455
1746483122710520800,5.769520751953125,0.18485504761338234,0.4494850582093,1.2553244709879159
1746483122720499700,5.779499755859375,0.18873561537377534,0.6014958208411931,1.3639081798255444
1746483122730478800,5.789478759765625,0.2307346821915358,0.840530202409625,1.4170324517697095
1746483122740457700,5.799457763671875,0.2552752492081374,0.979527169689536,1.4154115725696086
1746483122750436900,5.809436767578125,0.30246377442777156,1.0542869348585604,1.4920996754527092
1746483122760415700,5.819415771484375,0.30851240694224835,1.322110188537836,1.5084844085425138
1746483122770395000,5.829394775390625,0.29713001218438145,1.60468852827847,1.6057470974206924
1746483122780373800,5.839373779296875,0.2165764660447836,1.7767273489385842,1.704117455279827
1746483122790353000,5.849352783203125,0.007128847232926636,1.9411983646929263,1.7102543505996464
1746483122800330800,5.859330810546875,-0.2544581241389736,2.0406904200583695,1.7262918776869773
1746483122810310000,5.869309814453125,-0.5091705883651971,2.018825794252753,1.801789894002676
1746483122820289000,5.8792890625,-0.6557821223020553,1.9136673836886882,1.9569442153573036
1746483122830268000,5.889267822265625,-0.7306593763709068,2.1262860520184037,1.8889333399266004
1746483122840247000,5.8992470703125,-0.749633541432023,2.408423662254214,1.6723101121306418
1746483122850225700,5.9092255859375,-0.7211351767003535,2.5823610100120304,1.5525824934661387
1746483122860204800,5.919204833984375,-0.668871320977807,2.554153152659535,1.4942600683569907
1746483122870183700,5.92918359375,-0.5539145334443077,2.360120526856184,1.462545079666376
1746483122880162800,5.939162841796875,-0.3321790406685322,2.086703398692608,1.3314900113016366
1746483122890141700,5.9491416015625,-0.002259104038402438,1.8518261368036268,1.0417682295471429
1746483122900120800,5.959120849609375,0.2975818476051092,1.7220844891250133,0.7039782901942729
1746483122910099700,5.969099609375,0.5109488500840962,1.678772001621127,0.4298486298471689
1746483122920078800,5.979078857421875,0.6520744999557733,1.8150281457602977,0.2460509823322296
1746483122930057700,5.9890576171875,0.7491122940368949,1.9642098224461078,0.26907997574210163
1746483122940035800,5.999035888671875,0.7689170647032558,1.980196496129036,0.3303700184851885
1746483122950014700,6.0090146484375,0.726407710275799,1.9083575868427751,0.5387170008450746
1746483122959993900,6.018993896484375,0.7036737542897462,1.7254788077384233,0.8121762145847081
1746483122969972700,6.02897265625,0.6982593280255794,1.5584674598515034,0.831636117336154
1746483122979951400,6.038951416015625,0.6351001304097473,1.3961486536949872,0.7138239769041538
1746483122989930500,6.048930419921875,0.6347507324501872,1.2438707645595073,0.5338736524671316
1746483122999909400,6.058909423828125,0.6834872908294201,1.1229115582734346,0.3291395999073982
1746483123009888500,6.068888427734375,0.7795698300123214,1.0364525874823332,0.2769470558553934
1746483123019867400,6.078867431640625,0.933560368284583,1.0215051937192678,0.3590384790867567
1746483123029846500,6.088846435546875,1.0459975376799702,0.9930220265567302,0.5473305154114961
1746483123039825400,6.098825439453125,1.1274643992722033,0.823616477009654,0.7075006191015243
1746483123049804500,6.108804443359375,1.1427046385020017,0.6728273651272058,0.7834002019554376
1746483123059783400,6.118783447265625,1.1482219406187533,0.5840612864375114,0.8401566929221153
1746483123069762600,6.128762451171875,1.0875251875936984,0.4229021717101335,0.8606471077650785
1746483123079740200,6.138740234375,0.9537865792334079,0.2740267844945192,0.9410001628965139
1746483123089719300,6.14871923828125,0.6743950528353452,0.12986381275355816,1.01721129591763
1746483123099698400,6.158698486328125,0.38027591290473933,-0.04845861822068691,1.1228402466028928
1746483123109677300,6.16867724609375,0.13419395091235636,-0.17786007415950297,1.2337901000499725
1746483123119656400,6.178656494140625,0.0064233110457658765,-0.24175766905248164,1.3269243108212947
1746483123129635300,6.18863525390625,-0.06618804391771554,-0.23702245722413062,1.3345938225358724
1746483123139614500,6.198614501953125,-0.029416356359422205,-0.22270810066759586,1.356689334487915
1746483123149593300,6.20859326171875,0.0811591108173132,-0.15318798971772193,1.4202385543346405
1746483123159572500,6.218572509765625,0.2826344538420439,-0.20259645600914955,1.4090724326759576
1746483123169551400,6.22855126953125,0.5472942750543356,-0.30979718605577944,1.3401397662252188
1746483123179530500,6.238530517578125,0.7175298456847667,-0.3525508706331253,1.2140695005357265
1746483123189509400,6.24850927734375,0.8381494447529315,-0.3482026122957468,1.0535019219607114
1746483123199488500,6.258488525390625,0.8466016312777995,-0.36430326774716376,0.8652759366095065
1746483123209466400,6.26846630859375,0.6128904905587435,-0.4222515988469124,0.6660124244153499
1746483123219445500,6.278445556640625,0.27702362822294235,-0.44009705213904377,0.4805395371645689
1746483123229424400,6.28842431640625,0.00251227508187294,-0.3711667237758636,0.4040893346905708
1746483123239403500,6.298403564453125,-0.18043197047412393,-0.3587684299737215,0.39027415982782837
1746483123249382400,6.30838232421875,-0.17722995956242082,-0.3910474822878837,0.32905484423339365
1746483123259361500,6.318361572265625,-0.028638065463304517,-0.3766974698960781,0.24055881465673445
1746483123269340200,6.328340087890625,0.09494213697612285,-0.2990174333661795,0.2279822416782379
1746483123279319300,6.3383193359375,0.2328887184202671,-0.20720599563121794,0.24146599262952803
1746483123289298200,6.348298095703125,0.38583003990054127,-0.09993629200160503,0.2567395496070385
1746483123299277300,6.35827734375,0.49222179165184493,-0.010553542718291281,0.25192542732357975
1746483123309256200,6.368256103515625,0.4606131859451532,0.10430559312701225,0.25523382121920585
1746483123319235300,6.3782353515625,0.29848142679333683,0.22880524849891662,0.28651977084279057
1746483123329214200,6.388214111328125,-0.0036947628647089003,0.273463889914751,0.24213234758377072
1746483123339193300,6.398193359375,-0.37341011878848074,0.3121130617827177,0.04914426239728927
1746483123349171500,6.40817138671875,-0.7608271356195211,0.3531231175631285,-0.03953355348706245
1746483123359150300,6.418150390625,-1.1832114209353923,0.2942050646483898,-0.09170447022914886
1746483123369129500,6.42812939453125,-1.4803233129411935,0.19972469996511935,-0.1980143889158964
1746483123379108400,6.4381083984375,-1.6495979295849799,0.1625830100506544,-0.24057518126964567
1746483123389087500,6.44808740234375,-1.5537766716867685,0.12162906837165355,-0.2556768888115883
1746483123399066400,6.45806640625,-1.2359943320959805,0.07622165441513061,-0.30409283693432804
1746483123409045500,6.46804541015625,-0.8865922808825969,-0.0196241534024477,-0.4068494470536709
1746483123419024400,6.4780244140625,-0.5533469992220401,-0.08363923719525337,-0.4637725267589092
1746483123429003500,6.48800341796875,-0.31972762843966485,-0.07313362527191639,-0.4919599258452654
1746483123438982400,6.497982421875,-0.20331366436779497,-0.087384853464365,-0.4918447750329971
1746483123448961500,6.50796142578125,-0.14849895511865616,-0.13531155676543713,-0.457623941001296
1746483123458940400,6.5179404296875,-0.1555026964008808,-0.1761468405008316,-0.3802899414300918
1746483123468919300,6.527919189453125,-0.15203531255126,-0.20341946282982826,-0.30710429370999337
1746483123478897400,6.5378974609375,-0.11268354537189006,-0.20374621056616304,-0.17894494678676126
1746483123488876300,6.547876220703125,0.006714987468719482,-0.1501578282415867,-0.03819558288156986
1746483123498855400,6.55785546875,0.1415606802880764,-0.11935410917699336,0.09507920735925436
1746483123508834300,6.567834228515625,0.2782762586325407,-0.07986965552866458,0.18322744641155003
1746483123518813400,6.5778134765625,0.37807109633684155,-0.022737316986918447,0.24539924042522906
1746483123528792300,6.587792236328125,0.37235505677759645,-0.039302082818746566,0.2847518843874335
1746483123538771500,6.597771484375,0.3051227645039558,-0.06643091276288032,0.2865063268393278
1746483123548750300,6.607750244140625,0.14572013805508613,-0.07291618312895297,0.25816812110543247
1746483123558729500,6.6177294921875,-0.05155132353901863,-0.04290741383433342,0.19661884290426968
1746483123568708400,6.627708251953125,-0.25623510721623893,0.033837387672066684,0.12071662970185279
1746483123578687500,6.6376875,-0.4322013304531574,0.0777384887188673,0.11005728852152824
1746483123588666400,6.647666259765625,-0.5035258604764938,0.09433598777651786,0.09554653261005878
1746483123598645500,6.6576455078125,-0.5199146852195262,0.13520926543474196,0.03134849346578121
1746483123608623600,6.66762353515625,-0.5406038375049829,0.22241700876653192,-0.049445583431422704
1746483123618602200,6.677602294921875,-0.6138625504612922,0.18671090461313725,-0.11179974827468395
1746483123628581400,6.687581298828125,-0.6704097825914621,0.13974457077682018,-0.16019465360939503
1746483123638560300,6.697560302734375,-0.7467196998119354,0.05882686749994755,-0.2122735081538558
1746483123648539400,6.707539306640625,-0.7411153039336205,0.0322638547450304,-0.2107087430551648
1746483123658518300,6.717518310546875,-0.5509691641747951,0.005112812969088554,-0.16671031911373138
1746483123668497400,6.727497314453125,-0.38603053090870376,-0.00857552064359188,-0.08457564126253128
1746483123678476300,6.737476318359375,-0.2556277889728546,-0.03350304115116596,-0.05717442411780357
1746483123688455400,6.747455322265625,-0.060495092973113056,-0.017572481569647788,-0.04476940831393003
1746483123698434300,6.757434326171875,0.12452712790071964,0.0128401923507452,0.009786065477132797
1746483123708413400,6.767413330078125,0.24047639707028864,-0.009873743760585784,-0.0057125324279069896
1746483123718392300,6.777392333984375,0.29712650505304333,0.007274374917149543,-0.024570962154865265
1746483123728371500,6.787371337890625,0.20516601423621175,0.03634323301315307,-0.04052256452441215
1746483123738349300,6.797349365234375,-0.020141455274820325,0.01918459294140339,-0.0633645109295845
1746483123748328400,6.807328369140625,-0.18767653477489948,-0.024329554614424705,-0.0603252893641591
1746483123758307600,6.8173076171875,-0.27026947778761384,-0.009679390232264995,-0.11976795067489146
1746483123768286500,6.827286376953125,-0.2531131758034229,0.04722323120683431,-0.12145517310947179
1746483123778265600,6.837265625,-0.16453882029354572,0.025601766507327556,-0.08569821555167437
1746483123788244500,6.847244384765625,0.024402035328745842,0.00886398219615221,-0.04747369883656501
1746483123798223600,6.8572236328125,0.28211247579455373,0.0017506430596113203,0.0197092013373971
1746483123808202500,6.867202392578125,0.5325602317810059,-0.04238368222117424,0.09796557645052671
1746483123818181400,6.877181396484375,0.7188491115897894,-0.09129530490636825,0.17453969756513832
1746483123828160300,6.88716015625,0.7982365365594625,-0.1220607377871871,0.2141211818471551
1746483123838139400,6.897139404296875,0.7367565242022276,-0.14706950683742762,0.1964192286789417
1746483123848118300,6.9071181640625,0.5593517925947904,-0.1901110684454441,0.13934768041372297
1746483123858096400,6.917096435546875,0.2936176201492548,-0.18440233540982007,0.05779489410370588
1746483123868075300,6.9270751953125,0.11257891595363616,-0.1421630300953984,0.01952040076702833
1746483123878054400,6.937054443359375,-0.011752981635928153,-0.13980974496752022,-0.032360885378718375
1746483123888033300,6.947033203125,-0.0786275465130806,-0.11689268749952315,-0.00026157354563474656
1746483123898012400,6.957012451171875,-0.06187807176411152,-0.04809183073490858,0.021620587916672228
1746483123907991300,6.9669912109375,0.022481296399235726,-0.003478782026469707,0.0768669665813446
1746483123917970400,6.976970458984375,0.16120470743477344,0.009529168106615542,0.18611440002471208
1746483123927949300,6.98694921875,0.32634850788414477,-0.015640636724233627,0.24046236854493616
1746483123937928400,6.996928466796875,0.4399012373059988,-0.040083004063367844,0.24712796391397712
1746483123947907300,7.0069072265625,0.5520879390716552,-0.10326309833675622,0.26480653620660305
1746483123957886500,7.016886474609375,0.61729837012887,-0.1658881890758872,0.25244448276162146
1746483123967865300,7.026865234375,0.5645423469752073,-0.16612901209443806,0.18094547295421362
1746483123977844500,7.036844482421875,0.40003625990748404,-0.1477782396286726,0.08710779008865356
1746483123987822000,7.046822021484375,0.28950083248019215,-0.15790449684560298,0.04133504995107651
1746483123997801000,7.056801025390625,0.2765922510683536,-0.1382312436044216,0.04244651832431554
1746483124007780000,7.066780029296875,0.3587327741384506,-0.06362929934561252,0.1083855559170246
1746483124017759000,7.076759033203125,0.4790834931373596,0.016247662706673143,0.2304246663942933
1746483124027738000,7.086738037109375,0.48645782129764553,0.12323913391679525,0.32248511045426126
1746483124037717000,7.096717041015625,0.27297055343985555,0.27765637316852804,0.39387130753695965
1746483124047696100,7.106696044921875,0.10244038377702236,0.42990562073141336,0.4598217433065176
1746483124057675000,7.116675048828125,0.0808452225625515,0.46329058846086263,0.4803662264242768
1746483124067654100,7.126654052734375,0.19425123699009417,0.43944063405692574,0.4248591509968042
1746483124077633000,7.136633056640625,0.4691512971878051,0.37970512727946043,0.34618659629821774
1746483124087612200,7.146612060546875,0.7772656447231769,0.2848623590245843,0.19273089555501938
1746483124097591000,7.156591064453125,1.0420803642362355,0.17876082239151,0.07947831812351941
1746483124107569200,7.166569091796875,1.282059333178401,0.15438772089630365,-0.011830430786311626
1746483124117548300,7.17654833984375,1.4499264211118221,0.13600509198755026,-0.033521453590691086
1746483124127527200,7.186527099609375,1.5278566330105066,0.12530921818912027,-0.041189796261489386
1746483124137506300,7.19650634765625,1.4304799623638391,0.10917173785865306,-0.09464666116088628
1746483124147485200,7.206485107421875,1.2401333315968512,0.08763619787693024,-0.07783142769932747
1746483124157464000,7.216464111328125,1.012601171773672,0.12655308077037333,-0.054905602402985094
1746483124167443000,7.22644287109375,0.6649614540576935,0.15925065075755118,-0.09717676416039467
1746483124177422000,7.236422119140625,0.2476367902189493,0.21524112578779458,-0.18606354662030936
1746483124187401000,7.24640087890625,-0.14589783270955084,0.20254034190773962,-0.1861488868162036
1746483124197380000,7.256380126953125,-0.6425806954234838,0.1850730742782354,-0.39797085181027647
1746483124207359000,7.26635888671875,-1.042219480445981,0.20235563299059867,-0.614267624130845
1746483124217338000,7.276338134765625,-1.116937160038948,0.22665333116203545,-0.6557315611585974
1746483124227316200,7.286316162109375,-0.8904963025838136,0.27329993152469395,-0.5443167205482721
1746483124237295000,7.296295166015625,-0.40984453721642494,0.36590661129057406,-0.21773206582069396
1746483124247274200,7.306274169921875,0.1428460439234972,0.36081630241423845,0.2360346152305603
1746483124257253000,7.316253173828125,0.7600210799336433,0.22941519709080457,0.5970101998597384
1746483124267232300,7.326232177734375,1.1673796455532313,0.05564706842005253,0.8401865035384893
1746483124277211100,7.336211181640625,1.3373673789024352,-0.11208441043496131,0.9301344854891299
1746483124287190300,7.346190185546875,1.2250678644120692,-0.22749358137845993,0.8854970329917967
1746483124297169200,7.356169189453125,0.9230740455836057,-0.21801175954490898,0.7464572494834661
1746483124307148300,7.366148193359375,0.6540899314314127,-0.17261662054806948,0.6181194772534072
1746483124317127200,7.376127197265625,0.5232143112868071,-0.1818967823296785,0.531628357758373
1746483124327106300,7.386106201171875,0.4698942245095968,-0.25411855345368384,0.40853301622644067
1746483124337084200,7.396084228515625,0.5740139396756887,-0.31332331435531374,0.35053324720039963
1746483124347063000,7.40606298828125,0.8070213160395622,-0.36476416325718164,0.27041268565058707
1746483124357042200,7.416042236328125,1.099711884471774,-0.4009925377190113,0.2475017656624317
1746483124367021000,7.42602099609375,1.3616770597726107,-0.4350792239770293,0.28174539604783055
1746483124377000200,7.436000244140625,1.5013234308719634,-0.41398236767351626,0.29719197150468823
1746483124386979000,7.44597900390625,1.5950515158832073,-0.3449102927520871,0.3838502642601728
1746483124396958200,7.455958251953125,1.7524802119106053,-0.3155681706726551,0.5011947871804238
1746483124406937000,7.46593701171875,1.9902911891639232,-0.36276539065539837,0.5841480879381299
1746483124416916200,7.475916259765625,2.22931621838212,-0.4601842930085957,0.5809431544169783
1746483124426895000,7.48589501953125,2.3095348334789274,-0.583102524407953,0.46436552421599625
1746483124436874200,7.495874267578125,2.1581331426560877,-0.646246086063236,0.2925532057881355
1746483124446853000,7.50585302734375,1.7848446044206618,-0.6334750134259461,0.14638503170460462
1746483124456831200,7.515831298828125,1.2867676569998263,-0.5690317673489451,-0.04814297640025615
1746483124466810000,7.52581005859375,0.8063257349908352,-0.5526894120961428,-0.17897241931557653
1746483124476789200,7.535789306640625,0.45418461420238015,-0.5015218271777033,-0.1957739165127277
1746483124486768000,7.54576806640625,0.17292086419165134,-0.4743856907099485,-0.1502303089559078
1746483124496747300,7.555747314453125,-0.059307929015159605,-0.4210056904390454,-0.0444438296213746
1746483124506726100,7.56572607421875,-0.14557926827967166,-0.3379816625326872,0.18413813151568173
1746483124516705000,7.575705078125,-0.2876835539251566,-0.211693077917397,0.2764873293891549
1746483124526684200,7.58568408203125,-0.5009510415524244,-0.18963760571479796,0.24578473261147735
1746483124536663000,7.5956630859375,-0.7363391755729913,-0.16788228550255296,0.3355193640723824
1746483124546642200,7.60564208984375,-0.8390069383651018,-0.22785364686250686,0.34632162085473533
1746483124556621000,7.61562109375,-0.9433236374080181,-0.2732368031606078,0.29576340000629425
1746483124566599200,7.62559912109375,-1.1011375333607196,-0.4396232971474528,0.10699614738523959
1746483124576578000,7.635578125,-1.3282155196756125,-0.8326201599374413,-0.3388698435440659
1746483124586557200,7.64555712890625,-1.71410810341835,-1.2406529715567827,-0.8354588904947042
1746483124596536000,7.6555361328125,-2.3662182592093943,-1.6533792016893625,-1.5320543769612907
1746483124606515200,7.66551513671875,-3.1483038714349267,-1.9776111558109521,-2.175176631915569
1746483124616494000,7.675494140625,-3.7691689941346644,-2.0623092544093726,-2.5107635082662103
1746483124626473200,7.68547314453125,-4.066654980149865,-1.884794048164785,-2.448801703741401
1746483124636452000,7.6954521484375,-3.974310458451509,-1.5575608664005993,-2.0410499010205267
1746483124646431200,7.70543115234375,-3.57573901039958,-1.1879337732821702,-1.4036075913988053
1746483124656410000,7.71541015625,-2.8534616779267785,-0.7646133761599659,-0.7126278989873827
1746483124666389200,7.72538916015625,-1.9895634594112634,-0.3522393204659223,-0.03840235750004649
1746483124676368100,7.7353681640625,-1.1278928538173436,-0.03535831362903118,0.5912435991570353
1746483124686346000,7.745345947265625,-0.3718213882923126,0.1329223235413432,1.0821927405245602
1746483124696325000,7.7553251953125,0.37232056998610497,0.22577771737128494,1.4037566444806753
1746483124706304000,7.765303955078125,0.9339385539472103,0.21473785244077442,1.59082703005597
1746483124716283100,7.775283203125,1.4058902955085038,0.1786123538315296,1.6474930662602185
1746483124726262000,7.785261962890625,1.8370190282940864,0.2247565576300025,1.675950222198665
1746483124736241200,7.7952412109375,2.113258812662959,0.24272271469235418,1.6324088943749666
1746483124746220000,7.805219970703125,2.114154300197959,0.23757278458327052,1.5433818266615271
1746483124756199200,7.81519921875,1.8720862500220536,0.26839550060927864,1.41740420769155
1746483124766178000,7.825177978515625,1.5319669909387825,0.3252335323795676,1.3383604815930128
1746483124776157200,7.8351572265625,1.2174451144486664,0.2748535907074809,1.2510258970111607
1746483124786136000,7.845135986328125,0.9362018227040767,0.12720745302587746,1.1037377789869904
1746483124796114200,7.8551142578125,0.9297674057424068,0.06310995164662599,0.8762629023090004
1746483124806093300,7.86509326171875,0.9708762457221746,-0.03377367478609085,0.6228726631298661
1746483124816072200,7.875072265625,0.7518851197510957,-0.24762130038887262,0.3204945211589336
1746483124826051300,7.88505126953125,0.38365795655846596,-0.43201749831885095,-0.09601093525141477
1746483124836030200,7.8950302734375,-0.09344166928529739,-0.46448418215960263,-0.5600304225087166
1746483124846009300,7.90500927734375,-0.6217436590999365,-0.44045127240419385,-0.8268266712278127
1746483124855988000,7.914988037109375,-1.041820251995325,-0.394982191388309,-0.9314978827968239
1746483124865967000,7.924967041015625,-1.2805693868815897,-0.35858605914413927,-0.9254004427045583
1746483124875946000,7.934946044921875,-1.424265910154581,-0.30793139218389987,-0.8529211896881461
1746483124885925000,7.944925048828125,-1.5078133774131535,-0.26911417027264833,-0.717671007721126
1746483124895904000,7.954904052734375,-1.5123960290282963,-0.19785452217906713,-0.5727183469071984
1746483124905882000,7.964882080078125,-1.415401635697484,-0.07256108608096838,-0.43282077752575276
1746483124915861200,7.974861328125,-1.27993518063128,0.017380758389830588,-0.31352804314717647
1746483124925840100,7.984840087890625,-1.0718477259904144,0.04187807078659534,-0.16419073750823734
1746483124935819300,7.9948193359375,-0.7749135286390781,0.0861737241089344,0.03682780165970325
1746483124945798100,8.004798095703125,-0.44022038625776766,0.08601941033005714,0.1584723598614335
1746483124955777300,8.01477734375,-0.19804419953227043,0.0782110746666789,0.2619067231118679
1746483124965756200,8.024756103515625,0.09930208575129508,0.09110416624844074,0.3586836742997169
1746483124975735300,8.0347353515625,0.289866743183136,0.19288140994161365,0.40118601446449753
1746483124985714200,8.044714111328124,0.38984570528268814,0.2040793880432844,0.39685353821814057
1746483124995693300,8.054693359375,0.34867315241694447,0.2246817388281226,0.4232651598036289
1746483125005672200,8.064672119140624,0.23978256958723068,0.30296266386061904,0.33494857844710346
1746483125015650300,8.074650390625,0.04013794912099838,0.40174657095670696,0.23689210884273051
1746483125025629200,8.084629150390626,-0.23739012149274347,0.4868146719112992,0.21040391488969326
1746483125035608300,8.0946083984375,-0.3904641294419765,0.4465463744089007,0.2144467605397105
1746483125045587200,8.104587158203126,-0.44314767188131804,0.424993883292377,0.16412088714241982
1746483125055566300,8.11456640625,-0.467778839790821,0.37365737154781814,0.09032266048192977
1746483125065545200,8.124545166015626,-0.448300816860795,0.27689006497114893,-0.02170329776406288
1746483125075524400,8.1345244140625,-0.38657764339745043,0.15571078619360923,-0.15898030938357113
1746483125085503200,8.144503173828125,-0.2974725420117378,0.007833177843689918,-0.2854500957846641
1746483125095482400,8.154482421875,-0.15966566129922866,-0.1221384791985154,-0.33233985725343224
1746483125105461200,8.164461181640625,-0.058012628507614135,-0.22495354150682687,-0.38001463162004945
1746483125115440400,8.1744404296875,-0.03234042711257935,-0.3340770563095808,-0.4257172291308641
1746483125125418200,8.184418212890625,-0.02197919209599495,-0.41237873186916113,-0.40315263836234805
1746483125135397000,8.194397216796874,-0.052371407750248906,-0.413656496720016,-0.42046793030053375
1746483125145376300,8.204376220703125,-0.057574237090349194,-0.4253019263282418,-0.3396110173001885
1746483125155355100,8.214355224609376,0.036080782684683795,-0.41260318827480075,-0.22620821774303912
1746483125165334300,8.224334228515625,0.13128069381415844,-0.35680355964154004,-0.08662176013737917
1746483125175313200,8.234313232421876,0.24006080200672147,-0.35531361334472894,0.06066811145246029
1746483125185292300,8.244292236328125,0.26211422838270665,-0.3504571132242679,0.2128007468983531
1746483125195271200,8.254271240234376,0.25749358284473417,-0.3091393066689372,0.29678339070379733
1746483125205250300,8.264250244140625,0.2753133171737194,-0.1501937763378024,0.38121348601579663
1746483125215229200,8.274229248046876,0.29037761531472206,-0.1781470744073391,0.5331839166373014
1746483125225208300,8.284208251953125,0.3357844447493553,-0.2775830156713724,0.6060068685248494
1746483125235186400,8.2941865234375,0.4229132776260376,-0.18866203868091105,0.49440848804116244
1746483125245165300,8.304165283203124,0.407509372267127,-0.2241658982604742,0.425605585449934
1746483125255144400,8.31414453125,0.3693161274731159,-0.2335252627581358,0.4006318877130747
1746483125265123300,8.324123291015624,0.3107154699444771,-0.21595599605888127,0.3401517000481486
1746483125275102500,8.3341025390625,0.14689444253146647,-0.23513737412989139,0.162410283832252
1746483125285081000,8.3440810546875,-0.27249124549031256,-0.2715302915036678,-0.19852233843803405
1746483125295060200,8.354060302734375,-0.44410628778040406,-0.4264166095718741,-0.06541705954521894
1746483125305039000,8.3640390625,-0.2953594953805208,-0.45763212430775163,0.5238251366615295
1746483125315018200,8.374018310546875,-0.10879589028358459,0.032846330808103084,0.7325073423251509
1746483125324997000,8.3839970703125,-0.0897638575553894,0.16061200223863123,0.40600627422779795
1746483125334975200,8.393975341796875,-0.39932781937718387,0.03048369332998991,0.05038724819570779
1746483125344954400,8.403954345703125,-0.657487172654271,-0.003929740664362907,-0.17913228605240583
1746483125354933200,8.413933349609374,-0.7999263893425465,-0.005596212571859359,-0.39860447353869677
1746483125364912400,8.423912353515625,-0.9533265605062246,-0.036655659963190555,-0.6218541337370872
1746483125374891300,8.433891357421874,-0.9764783035129309,0.019753625001013277,-0.6506234243646264
1746483125384870400,8.443870361328125,-0.6616378625929356,-0.0006125789403915405,-0.47327013068348167
1746483125394849300,8.453849365234374,-0.25566870550513265,-0.09733107793927193,-0.3298638225287199
1746483125404828400,8.463828369140625,0.14806231726706026,-0.10378098473101854,-0.29189386509656906
1746483125414807300,8.473807373046874,0.38096447969079017,-0.16285130559802055,-0.39220015945434566
1746483125424786400,8.483786376953125,0.33272914883196353,-0.21753975811898707,-0.7563672336012125
1746483125434765300,8.493765380859376,-0.44133506950139995,0.13092822711467741,-1.503164967085421
1746483125444744400,8.503744384765625,-1.9538310517728328,0.4161398379683494,-2.300621166922152
