time,seconds_elapsed,z,y,x
1746482595681995300,0.023995361328125,0.4862427172422409,0.39173221314903345,-0.31748671764507885
1746482595691973400,0.033973388671875,0.5309767619818448,0.35759814408533275,-0.2368157556708902
1746482595701951200,0.043951171875,0.5472340692996979,0.35856227640975263,-0.12162957982830702
1746482595711930400,0.053930419921875,0.4728267708301544,0.31307291979081925,-0.12656425975151359
1746482595721908200,0.063908203125,0.35785131512880325,0.2017691018069163,-0.20849961563833055
1746482595731886300,0.07388623046875,0.20881050821840763,0.18960647992417215,-0.2522517366684973
1746482595741864400,0.083864501953125,0.050941082686185836,0.24203133489470927,-0.3059948711633682
1746482595751843300,0.09384326171875,0.026124621337652205,0.33273543244227766,-0.33643297178596254
1746482595761821200,0.1038212890625,0.03028349458277225,0.4215755992814898,-0.3492712644405663
1746482595771799300,0.11379931640625,0.005191138902306556,0.4810470117626711,-0.35726942358762026
1746482595781778400,0.1237783203125,-0.033547464814782144,0.6161180012378842,-0.23167656615152954
1746482595791756300,0.13375634765625,-0.180267719823122,0.8719367827381939,-0.0635663171119988
1746482595801734400,0.143734375,-0.2509615507274866,0.9986052335165441,0.06604410540238022
1746482595811713500,0.153713623046875,-0.2603957340270281,0.8966604512367397,0.024007190792262552
1746482595821691400,0.16369140625,-0.08819792341291904,0.6060325144227594,0.07896101625114679
1746482595831669200,0.173669189453125,0.2342693591237068,0.05624408446513116,0.31723990327715873
1746482595841648400,0.1836484375,0.40644904955923555,-0.380543002875708,0.2646913853943348
1746482595851626500,0.19362646484375,0.2912152351826429,-0.5874845388844608,0.04390110104680061
1746482595861604400,0.203604248046875,-0.0889531256943941,-0.9582958002861589,-0.046271629570424556
1746482595871583500,0.21358349609375,-0.8897077825546265,-1.0323430332716554,-0.16921499541103838
1746482595881561300,0.223561279296875,-1.723140720179677,-0.9249280028872191,-0.13581804498285055
1746482595891539500,0.23353955078125,-2.3028724529802798,-0.4972075441751629,0.0018424129962921142
1746482595901518300,0.243518310546875,-2.4471260256141423,-0.13719342498928308,0.07292144382596015
1746482595911496400,0.253496337890625,-2.001876997539401,-0.13944876616802065,0.14207199081107974
1746482595921474600,0.263474609375,-0.9538789336919784,-0.1446778076616116,0.05352423104718327
1746482595931452200,0.2734521484375,0.10410627116262912,0.03481664450038224,0.016881868956983088
1746482595941431300,0.283431396484375,0.8173959950596094,0.4501567469257861,0.2006735251225531
1746482595951409400,0.293409423828125,0.5949789862930774,0.6663636490058154,0.5326927721194923
1746482595961387500,0.303387451171875,0.5753969184666872,1.005725879176706,0.6804384246528148
1746482595971366400,0.313366455078125,1.1196113476842642,0.8711839916095138,0.4744268995031714
1746482595981344500,0.323344482421875,1.511544380635023,-0.015845365516096353,0.0209912039719522
1746482595991322400,0.333322265625,1.8588427375674246,-0.6417751511942595,-0.3729359254054725
1746482596001301200,0.34330126953125,1.9701468112796543,-0.6144312902599572,-0.3754857560187578
1746482596011279400,0.353279296875,1.8560533991098402,-0.4352352913215756,0.04452449364215135
1746482596021257500,0.363257568359375,1.4840397031158208,-0.3004564531933516,0.7133028756394982
1746482596031236400,0.373236328125,1.000450715252757,-0.01768704786002636,0.7993940360315144
1746482596041214200,0.383214111328125,1.1082833134621382,0.17268150247782468,-0.4203092326074838
1746482596051192300,0.3931923828125,1.0658446861833333,-0.13597045906558633,-0.8777516795620321
1746482596061171200,0.403171142578125,0.771780491310358,0.04542611865699291,-0.6988602165281772
1746482596071149300,0.4131494140625,0.41230478985011576,0.09798048175871371,-0.7818874593049288
1746482596081127400,0.42312744140625,0.20149463224709033,0.0882922506328672,-1.1014566823124885
1746482596091105500,0.43310546875,0.3296943111807108,0.22815949794128537,-1.661908545103669
1746482596101084200,0.443084228515625,0.6356231313705444,0.46739407825693485,-2.10271023838073
1746482596111062300,0.453062255859375,0.740312170857191,0.5317126750409603,-2.1763328162133693
1746482596121040400,0.463040283203125,0.8091057210981846,0.5240797690097242,-1.9036425410196185
1746482596131019300,0.473019287109375,0.961781669640541,0.46399369522891937,-1.7018091783374547
1746482596140997400,0.482997314453125,1.1878478485643862,0.4437615659959614,-1.4964394582226872
1746482596150975200,0.492975341796875,1.2366606870502233,0.4681781413067132,-1.1770897231847046
1746482596160954000,0.5029541015625,1.089784364697337,0.6307372590251267,-0.6999047571450472
1746482596170932200,0.51293212890625,0.936035233965516,0.6910899478528648,-0.23791385310590266
1746482596180910300,0.522910400390625,0.774950938040018,0.5706977277997881,0.05505319418013096
1746482596190889500,0.532889404296875,0.6058335577845573,0.5302548043828458,0.2077308962881565
1746482596200867300,0.542867431640625,0.5572825851052999,0.5172457582712173,0.2834253119587898
1746482596210845200,0.55284521484375,0.6121235978394747,0.46084779841862616,0.2726636794477701
1746482596220824300,0.56282421875,0.7158715570837259,0.4886351653367281,0.10906097096055746
1746482596230802200,0.57280224609375,0.8191407929003238,0.5354857273062691,-0.06533113482743501
1746482596240780300,0.5827802734375,0.9848223534882068,0.5213811045102775,-0.2265551314845681
1746482596250758400,0.59275830078125,1.0829536418944596,0.5324482227738946,-0.3408651090145111
1746482596260737500,0.602737548828125,1.0921674604415892,0.5749770125541835,-0.4372939774170518
1746482596270715100,0.612715087890625,1.0887871703535317,0.6305841142900288,-0.48181554844975466
1746482596280693200,0.622693359375,1.057534538477659,0.7553267115723341,-0.47608723393082614
1746482596290672400,0.63267236328125,1.0116355416119098,0.9602795945145189,-0.41990298989415165
1746482596300650200,0.642650146484375,1.1322007801443337,0.8967655921116471,-0.4877396778017282
1746482596310628400,0.65262841796875,1.32103934443593,0.8490130763337016,-0.6063122812122106
1746482596320607500,0.662607421875,1.5572043080478906,0.9217159089729189,-0.7009681485928595
1746482596330585300,0.67258544921875,1.6820348028093575,1.0098992193385958,-0.7762097059294581
1746482596340563200,0.682563232421875,1.7343413286298512,1.1657577434398234,-0.868384131757915
1746482596350542300,0.692542236328125,1.7930413548797368,1.3325462423563004,-1.147173162218183
1746482596360520400,0.7025205078125,1.9743395867943763,1.4112206967510281,-1.4322022561118006
1746482596370498300,0.712498291015625,2.2159616467684504,1.5137952283017337,-1.6461359525628387
1746482596380477400,0.7224775390625,2.3947242227256296,1.6324270145535469,-1.783610532581061
1746482596390455300,0.732455322265625,2.2928297823935746,1.7327971679277716,-1.881654581095278
1746482596400433400,0.742433349609375,2.055139216649532,1.876844404334575,-1.9198432958446443
1746482596410411300,0.752411376953125,1.9216478610485792,1.9415910172723232,-2.031425748106837
1746482596420390400,0.762390380859375,1.8345909243643284,2.0197703816264867,-2.112574045269191
1746482596430368500,0.772368408203125,1.660948175638914,2.0989562926746905,-2.113582491659373
1746482596440346400,0.782346435546875,1.4397037177830934,2.071682355171442,-2.186035295060277
1746482596450325200,0.7923251953125,1.3050181839615105,2.2004439057715235,-2.357762857814133
1746482596460303400,0.802303466796875,1.2366583489626646,2.4317636213093996,-2.587287360498309
1746482596470281500,0.812281494140625,1.237416473853588,2.571756029367447,-2.5331650174275038
1746482596480260400,0.82226025390625,1.2335621365129947,2.6808316133752466,-2.4075915953442455
1746482596490238500,0.832238525390625,1.1327502307206392,2.726884924019873,-2.341015867283195
1746482596500216300,0.84221630859375,0.8087620222270488,2.756474883380532,-2.1539646247997877
1746482596510195200,0.8521953125,0.39547815821170806,2.7397932131707665,-1.8129555772699415
1746482596520173300,0.86217333984375,-0.11914601938426495,2.6346836101844904,-1.4636327287726103
1746482596530151400,0.8721513671875,-0.8147849357783794,2.525838620062172,-1.0018228803887963
1746482596540130300,0.88213037109375,-1.433260532993078,2.3801868710681795,-0.5780630689360201
1746482596550108400,0.8921083984375,-1.9189578913122414,2.2527152141481634,-0.16061317128241062
1746482596560086300,0.902086181640625,-2.4147394212722775,2.159199310582876,0.28270459646880625
1746482596570064400,0.912064453125,-2.9884605154812336,2.0140677860707044,0.8021798673577606
1746482596580043300,0.922043212890625,-3.632618835484981,1.8507646450519561,1.3217425242692231
1746482596590021400,0.932021484375,-4.275882252475619,1.6565867655590176,1.9093755317136645
1746482596600000000,0.942,-4.786331190213561,1.5095450235113501,2.548437405361235
1746482596609979000,0.951978759765625,-4.963980836492777,1.3328706520050764,3.1192315062075853
1746482596619957000,0.96195703125,-4.863191727054119,1.1329957299143076,3.591205167339742
1746482596629935000,0.97193505859375,-4.55096877515614,0.8627858733594417,4.053527787551284
1746482596639914000,0.9819140625,-4.050133468937873,0.46793841426670546,4.4398213533103466
1746482596649891800,0.991891845703125,-3.4947073253542182,0.1098848545640707,4.683308622634411
1746482596659870000,1.001869873046875,-3.008027385738492,-0.07578793917298317,4.920038818913698
1746482596669848800,1.011848876953125,-2.6554735924959183,-0.1847252837538719,5.1791988736659285
1746482596679827000,1.021826904296875,-2.3974504328191277,-0.27018706020116806,5.344694556292891
1746482596689805000,1.03180517578125,-2.3050509660631415,-0.3952461030215025,5.502977823323011
1746482596699784000,1.041783935546875,-2.4043618196427823,-0.5612871445715427,5.670480169597268
1746482596709761800,1.05176171875,-2.4811744256883856,-0.7868336835354566,5.815979358378052
1746482596719740000,1.061739990234375,-2.417441665968299,-0.9413146356731653,5.810735027983784
1746482596729718000,1.071718017578125,-2.2998311855882405,-1.008376832076907,5.801891796314716
1746482596739697000,1.08169677734375,-2.095705620315671,-1.0112029954135417,5.805355673032999
1746482596749675000,1.091675048828125,-1.8018448390603063,-1.059842230898142,5.754651321712136
1746482596759652900,1.10165283203125,-1.5099100574314592,-1.144524255144596,5.618689192083478
1746482596769631700,1.1116318359375,-1.3075357197403907,-1.208783084565401,5.423827129718661
1746482596779609900,1.12160986328125,-1.1527812113583087,-1.2860972103923558,5.213381129252911
1746482596789588000,1.131587890625,-1.0928759009718894,-1.4518372231692074,5.027856219553947
1746482596799567000,1.141567138671875,-1.0774690730035303,-1.542059930408001,4.777729366084933
1746482596809545000,1.151544921875,-1.1586556563496588,-1.6008926431268453,4.5544837975397705
1746482596819522800,1.161522705078125,-1.310772801965475,-1.655161408931017,4.30039680826813
1746482596829502000,1.171501953125,-1.412066938316822,-1.806405278843641,4.024429703360796
1746482596839479800,1.181479736328125,-1.4887515340685844,-1.9792741205871105,3.795154207001626
1746482596849458000,1.1914580078125,-1.6404484084457158,-2.027889975196123,3.524694759599864
1746482596859437000,1.20143701171875,-1.8122569274812936,-1.9860013830155132,3.2722061454355713
1746482596869415200,1.211415283203125,-1.9427286430001258,-1.9055261628091333,3.0708786864489315
1746482596879392800,1.221392822265625,-2.1197984435647723,-1.7522388043701647,2.9355393648937342
1746482596889371000,1.231370849609375,-2.1620465167075396,-1.7444126407891511,2.86292362601608
1746482596899350000,1.24135009765625,-2.1422405769973993,-1.880627283874154,2.804897553505003
1746482596909328000,1.251327880859375,-2.127464448148012,-1.9627175380617379,2.7644202894270418
1746482596919306000,1.261305908203125,-2.0685662689775226,-1.993061238399148,2.720547537691891
1746482596929285000,1.27128515625,-1.9399059867948292,-2.054898978152871,2.704914792013168
1746482596939263000,1.281262939453125,-1.7684259690612554,-2.098679667690396,2.6939874475464225
1746482596949240800,1.29124072265625,-1.5953665731817483,-2.071318782556057,2.7078479228556156
1746482596959220000,1.301219970703125,-1.4322761981308458,-2.0007582226425407,2.7073534173369405
1746482596969198000,1.311197998046875,-1.2870429668098686,-1.8747826494991777,2.7333199255034324
1746482596979176000,1.321176025390625,-1.0710551143079996,-1.742497162556648,2.7079636581897732
1746482596989155000,1.331155029296875,-0.8141711877942085,-1.6244775168538093,2.7222455737814304
1746482596999133000,1.3411328125,-0.4998357737869024,-1.4363111527353525,2.7915403515428303
1746482597009111000,1.351111083984375,-0.11947042903304099,-1.223788930517435,2.9774376016855237
1746482597019089000,1.3610888671875,0.3122831576526165,-1.12581078684628,3.050257923224568
1746482597029068000,1.371068115234375,0.7572112832099199,-1.15641576846838,3.0522084727704524
1746482597039046100,1.381046142578125,1.2578431758105755,-1.2080670452505349,2.9880867137327787
1746482597049023700,1.391023681640625,1.6467922245144844,-1.1961597498357295,2.763094301520288
1746482597059003000,1.4010029296875,1.9071844514101743,-1.1864952649116516,2.475575290507078
1746482597068981000,1.41098095703125,2.0809861900895834,-1.0953349845618008,2.140715267126262
1746482597078959000,1.420958984375,2.138531785607338,-0.9477116432338952,1.7884525657847523
1746482597088938000,1.43093798828125,2.088869636815786,-0.8144774772644042,1.3083448441661893
1746482597098916000,1.440916015625,1.981677090075612,-0.9016144934475422,0.925356311301887
1746482597108894000,1.45089404296875,1.72794665915668,-0.7668611550867557,0.4878139120817184
1746482597118872800,1.460872802734375,1.5180191296070813,-0.6643792702555656,0.07489128259420394
1746482597128851000,1.470850830078125,1.4648101019889115,-0.9602928923875093,-0.396669998344779
1746482597138829000,1.4808291015625,1.4219634784311055,-1.1946972760677337,-1.0592334513500332
1746482597148807200,1.49080712890625,1.4165402843385935,-1.2743220169246197,-1.6704922490537166
1746482597158786000,1.5007861328125,1.3531143986105918,-1.256312897503376,-2.2124568535178897
1746482597168764000,1.510763916015625,1.2673328886896371,-1.2255454187959431,-2.6596412335693835
1746482597178742000,1.520741943359375,1.3048182774752377,-1.1176853480577469,-3.062080462965369
1746482597188721000,1.530720947265625,1.4418430678993464,-0.9562009468987583,-3.471732692480087
1746482597198699000,1.540698974609375,1.6024287666529415,-0.8875289772108197,-3.746583068317175
1746482597208677000,1.550677001953125,1.815683979320526,-0.8606944540381432,-3.9176711641237136
1746482597218656000,1.560656005859375,2.039378168416023,-1.090593635253608,-4.076431401015818
1746482597228633900,1.5706337890625,2.4501632013529537,-1.694671289281547,-4.413509684967995
1746482597238612000,1.580612060546875,3.0479823795080185,-2.8631930906072256,-4.827524201345444
1746482597248590800,1.5905908203125,3.5086978567838667,-4.243408262111246,-5.318814265105128
1746482597258569000,1.60056884765625,4.21966936686635,-5.424395869517326,-6.084068569517135
1746482597268547000,1.610547119140625,5.274770540717244,-6.608839462596178,-7.272521398237347
1746482597278525000,1.62052490234375,6.050237611585855,-8.167205215638875,-8.246821773189305
1746482597288503800,1.63050390625,6.168893217104673,-10.137441458767652,-8.807444900894165
1746482597298482000,1.64048193359375,5.542852737593651,-11.93687806764245,-8.656990720054507
1746482597308460000,1.6504599609375,3.374140917778015,-12.471670003998279,-7.434517548310756
1746482597318439000,1.66043896484375,-0.5865840829133987,-10.980272923856973,-5.61803160495758
1746482597328417000,1.6704169921875,-4.808195231497288,-7.808813802284002,-3.2588059811145067
1746482597338395000,1.680394775390625,-8.37740220977962,-4.506653248089552,-0.21929975352883338
1746482597348374000,1.6903740234375,-11.172495285367965,-2.61811446043849,3.449546871896088
1746482597358352000,1.700351806640625,-12.943332407224178,-2.652352245604992,7.237046764752268
1746482597368330000,1.710330078125,-13.681532115972042,-4.230329292568564,10.874622930383682
1746482597378308000,1.72030810546875,-13.298119658607243,-5.5557040358603,14.318371052873134
1746482597388287000,1.730286865234375,-11.684143662023544,-5.180962376207113,16.803263622301817
1746482597398264800,1.740264892578125,-9.024048254945873,-3.502708845502138,17.8472512814641
1746482597408243000,1.750242919921875,-5.856649806940555,-0.9887608619809151,17.331282118999958
1746482597418221800,1.760221923828125,-2.2610072416752574,1.3664993653625248,15.844292333906887
1746482597428200000,1.770199951171875,0.7740466826766729,3.21464564460963,13.810133945965767
1746482597438178000,1.780177978515625,2.658793676829338,4.948659933242202,11.587199537575245
1746482597448157200,1.7901572265625,3.8088317269593475,6.460187947264314,9.301210999378561
1746482597458134800,1.800134765625,4.374107064384222,7.645410708022117,6.9404463293999425
1746482597468113000,1.81011279296875,4.098720681974291,8.5098946174711,4.647208842988312
1746482597478092000,1.820092041015625,2.888883119919896,9.641844053202867,2.36878138769567
1746482597488070000,1.83006982421875,0.7533090150743722,11.259999381297826,-0.04971387897878885
1746482597498048000,1.840048095703125,-2.802176896369457,13.377048818415403,-2.5092300150886175
1746482597508025900,1.85002587890625,-7.014984560772776,15.310484732413292,-4.999679926383495
1746482597518005000,1.8600048828125,-9.276729469072817,14.480264911615848,-7.569227632051706
1746482597527982800,1.86998291015625,-12.408218983829022,14.069797274065017,-10.639182189393043
1746482597537961000,1.8799609375,-21.568675358605383,20.152521443235873,-20.044723916339873
1746482597547940000,1.889940185546875,-26.895404634618757,22.111448356842992,-23.954922844886777
1746482597557918000,1.89991796875,-24.01435703063011,17.06946658130288,-14.141626831001043
1746482597567895800,1.909895751953125,-18.346276323390008,13.715920707786083,-6.011976562252641
1746482597577875000,1.919875,-10.54763203294277,18.375433444291353,-7.379384274631739
1746482597587853000,1.92985302734375,-5.804762383314967,27.017361619770526,-10.600756889408826
1746482597597830700,1.93983056640625,-1.7341934445917606,31.31218530408144,-12.605655280596016
1746482597607809500,1.9498095703125,2.002066967153549,27.288273487114903,-12.617005526649951
1746482597617787600,1.95978759765625,7.392272982299327,18.835057034677266,-14.735130484044552
1746482597627765800,1.969765869140625,12.165254277074336,10.124505989348888,-17.317482726228235
1746482597637743600,1.97974365234375,13.582341089379787,1.5801345172584056,-14.619402164149284
1746482597647722800,1.98972265625,9.754461547601222,-2.034443634623289,-9.039529317194223
1746482597657700600,1.99970068359375,-1.0055717115283012,-1.1327134058415889,-5.119437940186262
1746482597667678700,2.0096787109375,-11.189264049339293,1.3034803068697451,-2.1480755667611957
1746482597677657600,2.01965771484375,-18.414597579944132,2.4801293005496263,2.23862297590971
1746482597687635700,2.0296357421875,-23.01380051691532,3.777299109098315,7.865172233843803
1746482597697613800,2.03961376953125,-19.984326438522338,6.558738922387361,8.944652062147854
1746482597707592700,2.0495927734375,-10.432981571412085,8.364208966207503,7.263221654972433
1746482597717570600,2.059570556640625,-0.9220563929736614,7.702864533603191,6.288716697359085
1746482597727548700,2.069548583984375,4.133335483759641,6.789103675287961,7.577636563956737
1746482597737526500,2.079526611328125,6.939055167302489,6.158097097802162,6.40873891505599
1746482597747505700,2.089505615234375,9.91418566108942,5.090791691416502,6.051718790054321
1746482597757483800,2.09948388671875,9.650895959186553,2.3552649035185573,6.740330584290623
1746482597767461600,2.109461669921875,6.374796897965669,-0.17166852604299782,7.416013923370838
1746482597777440500,2.1194404296875,2.3445728291124106,-1.4190338547199963,8.070359290868044
1746482597787418600,2.129418701171875,-0.8630915783077477,-2.117550664637983,8.851328466284274
1746482597797396700,2.139396728515625,-2.9226982957601546,-2.446953007134795,9.376713691869378
1746482597807375600,2.149375732421875,-3.2548540286183356,-2.625965466199815,8.750130191522835
1746482597817353700,2.159353759765625,-1.9341192200869322,-2.366474572058022,7.249232292586565
1746482597827331600,2.16933154296875,0.06297112769782542,-2.1810756268262863,4.842353521686792
1746482597837309700,2.179309814453125,1.0685089369565248,-1.9129694645524025,2.721601722919941
1746482597847288600,2.18928857421875,1.5753087045371532,-1.9259177934527396,2.002332340091467
1746482597857266700,2.1992666015625,1.5325672949194906,-2.7354475851818916,3.0182968508183956
1746482597867244800,2.209244873046875,-0.28271804047226906,-2.9078806658565997,2.12976220369637
1746482597877223700,2.2192236328125,-0.24639818833470342,-2.4674711867675185,-0.1376432145833969
1746482597887201500,2.229201416015625,1.6866723994821309,-0.7525660877525806,-0.8002338478565215
1746482597897179600,2.2391796875,4.164267213118076,1.6613786760106681,0.3704267190635204
1746482597907158500,2.249158447265625,6.922945159500837,2.4507959462985394,1.522937881308794
1746482597917136600,2.25913671875,9.409992276614904,2.7493632978096603,1.0282201811879872
1746482597927114800,2.26911474609375,10.877399409359693,2.97958922676146,0.20294366201162337
1746482597937092600,2.279092529296875,9.796382288485765,2.55692320189476,0.9473989240229129
1746482597947071500,2.289071533203125,7.986769153511524,1.9047572242632507,2.287734505081177
1746482597957049600,2.299049560546875,6.572459404703975,1.0628495960205793,2.775143343493342
1746482597967027700,2.30902783203125,4.948570501393079,-0.6233648305609822,2.006063343313336
1746482597977006600,2.319006591796875,1.4792387325748801,-2.2160084085196257,0.6332575712829828
1746482597986984700,2.328984619140625,-4.215570991636812,-2.6537609433591363,-0.24437691164016723
1746482597996962600,2.338962646484375,-10.486879165816307,-2.101198080252111,-1.2758043644368648
1746482598006941400,2.34894140625,-16.038557014900444,-1.6398168325439095,-2.7668863872796297
1746482598016919600,2.35891943359375,-16.099374179434776,-2.4141163209378718,-3.747100370189547
1746482598026897700,2.368897705078125,-11.376226882886886,-3.789567346780002,-3.723890759515762
1746482598036875800,2.378875732421875,-8.561479843279718,-2.8933687409013507,-2.66227742729187
1746482598046854700,2.388854736328125,-6.688584614962339,-0.6955199661895632,-0.50233928104043
1746482598056832500,2.39883251953125,-5.2412259985119105,1.3576418129071592,2.305559500107169
1746482598066810600,2.408810546875,-4.667207382661104,3.374959248423576,5.156038362830877
1746482598076789500,2.41878955078125,-5.103966814810037,5.799054527062177,7.5996449821472165
1746482598086767600,2.428767578125,-5.436182168900967,6.9087915464639655,6.470196715581417
1746482598096745700,2.438745849609375,-4.962570969694853,6.577457066860795,5.322175850492716
1746482598106724900,2.448724853515625,-3.6897272086292503,5.7193450305312865,4.338558781141042
1746482598116702500,2.458702392578125,-2.806492421481013,5.8039195027500385,1.6222878978550432
1746482598126680600,2.4686806640625,-2.064123318094015,5.629377174836397,-2.526217682507634
1746482598136659700,2.47865966796875,-1.5943997739762066,5.129413390755653,-6.570578997784852
1746482598146637600,2.488637451171875,-0.6273094765335321,5.559869338846206,-10.118595304000378
1746482598156615700,2.49861572265625,0.0009387421548366546,7.517327933466434,-11.937272035396099
1746482598166593500,2.508593505859375,1.923300304430723,8.809267440146208,-11.016036311155556
1746482598176572700,2.51857275390625,4.7902527475714685,8.324400687432288,-10.817298868662117
1746482598186550500,2.528550537109375,4.9692403644561765,8.320063535010814,-8.583395322489737
1746482598196528600,2.538528564453125,3.741106682732701,9.075769089832901,-6.358989672502875
1746482598206507800,2.5485078125,2.6934289368808266,9.149314218515157,-4.672250929786265
1746482598216485600,2.558485595703125,1.7423861033976078,8.793339218652248,-3.0322610787630078
1746482598226463500,2.56846337890625,2.047804635977745,8.21048438539505,-1.5439071657098828
1746482598236442600,2.578442626953125,3.3457167873263356,7.5814885632097715,-0.4805519582547247
1746482598246420700,2.588420654296875,6.3185220530360935,7.610950804537534,-0.4107908781558275
1746482598256398600,2.598398681640625,10.558144074606895,7.8191645159065715,-0.7233858782365917
1746482598266376700,2.608376708984375,15.045868165820837,7.074271446999907,-0.620381138575077
1746482598276355800,2.61835595703125,18.64446198210716,4.8973929796025155,0.7421233119323849
1746482598286333400,2.62833349609375,19.868698656392095,2.803270244564116,4.739860823200643
1746482598296311600,2.6383115234375,18.91567312465906,1.8272382235139608,10.695483337807655
1746482598306290700,2.648290771484375,15.97267555271387,2.2922759479030965,15.45301104286313
1746482598316268800,2.658268798828125,10.92932716499567,3.498408225698769,18.888845908010005
1746482598326246700,2.66824658203125,5.48826423831582,4.957050744968653,21.127917796730994
1746482598336225800,2.678225830078125,0.9271738821178674,5.348708468109369,22.553206620192526
1746482598346203600,2.68820361328125,-2.2118273234426975,3.6286850031673907,22.794462184941768
1746482598356181500,2.698181396484375,-7.133958146199584,0.15495720961363985,22.209157035923003
1746482598366159600,2.70815966796875,-16.89089280591607,-1.428000566638261,15.225243905240296
1746482598376138800,2.718138671875,-21.325039620721338,0.25018914158288386,3.2842496344506737
1746482598386116900,2.728116943359375,-15.407626425260304,-1.129249821384251,-5.726912835437059
1746482598396094500,2.738094482421875,-8.881859798148273,-4.475513428938388,-11.233300759464502
1746482598406073600,2.748073486328125,-7.664837877547741,-4.9369081206500525,-13.732724543070793
1746482598416051700,2.7580517578125,-9.50297100456357,-2.9819273143202065,-14.4639789627254
1746482598426029600,2.768029541015625,-9.182584035432338,-1.0883587158083916,-12.254781987786293
1746482598436008700,2.7780087890625,-6.13269786812961,-0.47883013943079855,-7.516210912135243
1746482598445986800,2.78798681640625,-2.9798119296014307,-0.13674023786168546,-4.133243713822961
1746482598455964700,2.797964599609375,-0.6172773273408413,0.24575989043116567,-3.2333360242933034
1746482598465942500,2.807942626953125,0.992459131976962,0.6442330657403915,-3.167431181231141
1746482598475921700,2.817921630859375,2.1587954059571026,0.8203205042041838,-2.809446887372434
1746482598485899800,2.827899658203125,3.2475492585629224,0.7734209519937634,-1.7423939944431184
1746482598495877600,2.837877685546875,3.9304748238563536,0.6103436556201428,-0.4023329194772988
1746482598505856800,2.847856689453125,4.1483547737151385,0.08051116830259561,0.602860241062194
1746482598515834600,2.857834716796875,3.4875305655926465,-0.7417083013907074,0.8896944116163998
1746482598525812700,2.867812744140625,1.858051294928789,-1.2470529017269611,0.3464522614970803
1746482598535791600,2.87779150390625,-0.7650035445213318,-1.4240401385746895,-0.19798779316991566
1746482598545769700,2.887769775390625,-4.154723139703274,-1.7546242382019757,-1.1446027272082864
1746482598555747800,2.897747802734375,-7.09433399181962,-1.9916911190897224,-1.9523174323394894
1746482598565725400,2.907725341796875,-8.26794230262935,-2.247085976089537,-2.2598351291559635
1746482598575704600,2.91770458984375,-6.677316201972961,-2.5773522419393062,-3.593159516277909
1746482598585682700,2.9276826171875,-5.158540701040625,-0.46528563473559914,-4.207344722822309
1746482598595660800,2.937660888671875,-4.302045452257991,1.5267022022783756,-3.6251843015700578
1746482598605639400,2.947639404296875,-4.001176838067174,1.3644741431452334,-3.251621038046479
1746482598615617500,2.957617431640625,-3.2884745586693285,0.3255716782927513,-4.787245674709975
1746482598625595600,2.967595703125,0.4414215787410736,1.5780463128075002,-4.924789228311181
1746482598635573500,2.977573486328125,3.448839892670512,4.223058424782753,-1.8189834592573344
1746482598645552400,2.987552490234375,4.4281034429877995,2.2890227913260457,0.26253091942481693
1746482598655530500,2.997530517578125,6.066194474652409,0.6497302749171853,1.6538393665470181
1746482598665508600,3.007508544921875,7.055721060308814,0.21138737296909094,2.0106337199687956
1746482598675487500,3.017487548828125,7.291975455769896,0.2844344890013337,2.111023454826325
1746482598685465600,3.027465576171875,5.32026446391344,0.27965456124842164,2.0818254173927007
1746482598695443500,3.037443359375,3.1441958515942097,2.17847567346096,1.1322625933341681
1746482598705422300,3.04742236328125,0.40801790631115437,3.9356674240633844,1.2390078346982598
1746482598715400400,3.057400390625,-2.365087209352851,5.111894685199856,2.3301240325212476
1746482598725378600,3.067378662109375,-3.734579326790571,8.266269985502959,3.929399595840275
1746482598735356700,3.077356689453125,-4.004711441934108,10.182751257568597,4.361688020054996
1746482598745335600,3.08733544921875,-4.645689962857961,7.014950073981285,3.262294407752156
1746482598755313400,3.0973134765625,-3.280271962991357,3.3593726799741384,3.087699765129387
1746482598765291500,3.10729150390625,-1.2553957826584576,3.042915743768215,3.8376872345656152
1746482598775270400,3.1172705078125,1.177555587130785,1.9363690448403357,3.0071280988112092
1746482598785248500,3.12724853515625,2.6512819860249754,0.10178308891206979,1.3954247233346104
1746482598795226600,3.1372265625,1.2592010201603174,-0.9339841466546058,0.6834013661116362
1746482598805205500,3.14720556640625,3.6611493489205835,-0.07023088956773281,-0.3768016974555328
1746482598815183400,3.157183349609375,10.236299307882785,1.8399106580823659,-2.1279820422813294
1746482598825161500,3.167161376953125,8.844461503124236,2.5541093135178086,-2.8093320288211108
1746482598835139600,3.1771396484375,4.487257642745972,2.2814036946244536,-2.84759395493716
1746482598845118500,3.187118408203125,1.801685264584422,1.6592010397106407,-2.1143891318671404
1746482598855096600,3.1970966796875,-2.4776608646094798,1.034938310461864,-0.7152090015217661
1746482598865074400,3.207074462890625,-7.99270731138885,-0.007885346422344446,1.5792726397320627
1746482598875053300,3.21705322265625,-12.336254986858368,-2.1017861092731356,2.654607038794458
1746482598885031400,3.227031494140625,-12.27892040374279,-3.930466640549898,-0.06481191499261185
1746482598895009500,3.237009521484375,-8.21661894262731,-2.441485535509139,-3.2241298045307394
1746482598904988400,3.246988525390625,-2.551997435930371,0.31723822277672586,-1.6364217832781374
1746482598914966500,3.256966552734375,1.3026029395133256,1.3343601599104702,0.356871144985035
1746482598924944400,3.2669443359375,3.6952643844902515,1.322990186242759,0.5715848858978599
1746482598934922500,3.276922607421875,4.867891867569089,0.8158329835265874,0.40558205746635795
1746482598944901400,3.2869013671875,4.809087796422839,-0.11829729360044001,0.11654641307881101
1746482598954879500,3.29687939453125,3.234567027392983,-1.0226631315827368,-0.1791460040505044
1746482598964857600,3.306857666015625,0.7471966696739196,-1.4132384663142263,-0.31049046554956583
1746482598974836200,3.316836181640625,-1.5441595330357551,-1.1982960312120616,-0.27079324593339116
1746482598984814300,3.326814453125,-2.9490643246382473,-0.41250601151064037,-0.22295350852971896
1746482598994792400,3.33679248046875,-2.943908841571212,0.06747749920636414,-0.3132757854191586
1746482599004770600,3.3467705078125,-1.569503233128786,-0.17210618680790066,-0.17842576348455622
1746482599014749400,3.35674951171875,-0.018320669588446616,-0.3500929560869932,0.0684874617001973
1746482599024727600,3.3667275390625,0.9065969580352305,-0.2708253581047058,-0.013277232061140239
1746482599034705400,3.376705322265625,1.0508628056287765,-0.14408727615624664,-0.014560166277457027
1746482599044684300,3.386684326171875,0.3458884901344776,-0.2058750392884016,0.09610104295397177
1746482599054662400,3.396662353515625,-0.4429331523478031,-0.14656141118481755,0.05143103989390656
1746482599064640500,3.406640625,-0.7428302911579608,-0.059063598865270614,-0.04765837122108787
1746482599074619600,3.41661962890625,-0.4336339936047792,-0.01170373566672206,-0.018600838236697018
1746482599084597200,3.42659716796875,0.18251754457652566,0.04107084605693817,-0.05442693377425894
1746482599094575400,3.436575439453125,0.4302981271803379,0.015577508360147475,0.0575955173403956
1746482599104553500,3.446553466796875,0.2198439434081316,0.04902867319360375,0.08110690570604055
1746482599114532400,3.456532470703125,-0.1523269889742136,0.037893385064601895,0.010654208347480744
1746482599124510500,3.466510498046875,-0.40535599362552166,-0.008910597816854715,-0.0867539534159936
1746482599134488600,3.476488525390625,-0.49089551148414606,-0.0030293577585369345,-0.12741464776946232
1746482599144467500,3.486467529296875,-0.34640696105062957,0.03602057693004608,-0.16654668951723722
1746482599154445300,3.4964453125,-0.06594926672577858,0.06908201179355382,-0.16354902380490674
1746482599164423400,3.50642333984375,0.027796938464045524,0.03730937463156879,-0.1344140051375143
1746482599174401500,3.516401611328125,0.08200900564491748,0.07510594825819135,-0.15812754674544557
1746482599184380400,3.52638037109375,0.15075871674418448,0.15669585170820355,-0.14004552648477256
1746482599194358500,3.536358642578125,0.2166495312809944,0.1851666708458215,-0.14493963693557307
1746482599204336400,3.54633642578125,0.2803910588294268,0.11873283547349274,-0.23198851817753163
1746482599214315500,3.5563154296875,0.21770517781376839,0.10080204198546706,-0.164907324812375
1746482599224293400,3.56629345703125,0.054009238085150714,0.07297463531792163,-0.13420923981303348
1746482599234271500,3.576271484375,-0.058491351935267444,0.04844466276057064,-0.1368017039916478
1746482599244250600,3.586250732421875,-0.0034971944659948346,0.12794168558456004,-0.1739487824672833
1746482599254228500,3.596228515625,0.13071838375627995,0.08312398114949464,-0.12673514107270165
1746482599264206300,3.606206298828125,0.2682107916921377,-0.07050999877005815,-0.15920198931023477
1746482599274184400,3.616184326171875,0.24102000242769717,-0.2452489452343434,-0.103106026345212
1746482599284163600,3.62616357421875,0.08832827179431915,-0.3420343719895929,-0.08172012396724894
1746482599294141400,3.636141357421875,-0.06514379556179047,-0.14092523192875087,-0.07100161821190268
1746482599304119600,3.64611962890625,-0.2368395018726587,-0.06691979225836694,-0.08973432093365118
1746482599314098400,3.656098388671875,-0.27847382703125473,-0.10346870391145348,-0.0844830493419431
1746482599324076300,3.666076171875,-0.13060498650968075,-0.10638035357445477,-0.028893282333388923
1746482599334054400,3.676054443359375,0.03709960433840751,-0.11892989241555332,0.008782733653485775
1746482599344032500,3.686032470703125,0.16298574563264845,-0.13886596131138504,-0.021187895587831733
1746482599354011600,3.69601171875,0.18987316803634166,-0.17641148278638719,-0.04314756099944934
1746482599363989200,3.7059892578125,0.048830374142527576,-0.1971332952324301,-0.037718448622804136
1746482599373967400,3.71596728515625,-0.18014380118250845,-0.17944303250201046,-0.06748518932247534
1746482599383946500,3.725946533203125,-0.3021522242605686,-0.07084997131414711,-0.18997123984964565
1746482599393924400,3.73592431640625,-0.2169938146740198,-0.042565176267921924,-0.15027454995643347
1746482599403902500,3.74590234375,-0.009811784440279006,-0.08867642764486372,-0.0426203770538792
1746482599413881600,3.755881591796875,0.09681026893556118,-0.10933854579292238,-0.06549061797177419
1746482599423859500,3.765859375,0.04255260904729366,-0.0954555663909763,-0.12302810324830933
1746482599433837300,3.77583740234375,-0.02633972539305687,-0.09271284355409443,-0.11346685950299724
1746482599443815400,3.7858154296875,-0.02411971125602722,-0.11300400949791073,-0.11877630928903818
1746482599453794600,3.795794677734375,-0.058737435650825495,-0.10352321057766675,-0.13427971123335883
1746482599463772400,3.8057724609375,-0.13055939380228518,-0.08081460822857917,-0.13504620209382845
1746482599473750300,3.815750244140625,-0.06855974148511886,-0.04568513491936028,-0.16479703283831476
1746482599483729400,3.8257294921875,0.08059913884699345,-0.021750863232836128,-0.15039072368200868
1746482599493707500,3.83570751953125,0.07774258037209511,0.003687383275851607,-0.14156239732112735
1746482599503685400,3.845685302734375,-0.021221651726961135,0.029612317322939632,-0.10532322747064754
1746482599513664500,3.85566455078125,0.018206687819957733,0.027648104577884077,-0.14507745623737572
1746482599523642600,3.865642578125,0.11902619239687919,0.02692475873939693,-0.14128474942352623
1746482599533620500,3.875620361328125,0.03375497008562088,-0.01917852852679789,-0.1358116517746821
1746482599543598300,3.885598388671875,-0.05289046318829059,0.0021495061840862036,-0.0785138752718456
1746482599553577500,3.895577392578125,-0.17668284707367418,-0.03235920487828552,-0.047500806039199234
1746482599563555600,3.9055556640625,-0.20469605863690374,-0.02278802426084876,-0.08017402703640981
1746482599573533400,3.915533447265625,-0.2320902615189552,-0.04758446573466062,-0.026903825549222528
1746482599583512600,3.9255126953125,-0.15731471425890922,-0.04997537945918738,-0.03183845067350194
1746482599593490400,3.935490478515625,-0.0437707526654005,-0.06328340851739049,-0.06963734412137419
1746482599603468300,3.94546826171875,-0.01842646805047989,-0.06322247211039066,-0.06196105560613796
1746482599613446000,3.95544580078125,-0.0363157604843378,-0.048787850175052876,-0.09391876701144501
1746482599623425000,3.965425048828125,-0.032742578172683716,-0.05373078646995127,-0.10046817038860172
1746482599633403100,3.975403076171875,-0.031132220366597175,-0.030611192167177795,-0.07127924784319475
1746482599643381000,3.985381103515625,-0.07505670228898524,-0.004382891259342432,-0.014998575961031019
1746482599653360000,3.995360107421875,-0.08521978438496589,0.013707915095984935,-0.025370350637938827
1746482599663338200,4.005338134765625,-0.08931669830977916,0.008202011156082153,-0.03526674462174997
1746482599673316000,4.015316162109375,-0.13783844489455221,0.0018299188409000634,-0.029377595251612362
1746482599683295000,4.025294921875,-0.09289806392788887,0.013550240316241979,-0.10306121908910572
1746482599693273000,4.035273193359375,-0.011557751324772833,0.00893324804008007,-0.16486443551871924
1746482599703251200,4.045251220703125,0.06325520533621311,-0.00027706337571144104,-0.18374281205516307
1746482599713229000,4.05522900390625,0.10047463666200637,-0.009345555168017744,-0.19056993639515712
1746482599723208200,4.065208251953125,0.08230185111165046,0.02275704460069537,-0.13650610031224786
1746482599733186000,4.07518603515625,0.007541501420736312,0.0535386248987168,-0.09765753341466188
1746482599743164200,4.0851640625,-0.09148293643295764,0.031479280238598584,-0.10319657243918627
1746482599753143000,4.09514306640625,-0.11799217317402362,-0.009843056361377238,-0.13201023193141445
1746482599763121200,4.10512109375,-0.08662614405155182,0.008030161720514297,-0.09344360551405698
1746482599773099300,4.115099365234375,0.0035579847425222396,-0.0755836487725377,-0.07658414931828156
1746482599783077000,4.1250771484375,0.12307283743917942,-0.13302680682912468,-0.13257637791419402
1746482599793056000,4.135055908203125,0.19523557185232637,-0.14033362271115182,-0.21815069309156387
1746482599803034000,4.1450341796875,0.24737317084670066,-0.12074724403582512,-0.3323794951440766
1746482599813012200,4.15501220703125,0.16139584609270094,0.02657316882275045,-0.3640564168466255
1746482599822991000,4.1649912109375,-0.07719312979578971,-0.18209288942366839,0.02609035374186933
1746482599832969200,4.17496923828125,-0.2892985879063606,-0.47336657679527994,0.17524527028491718
1746482599842947000,4.184947021484375,-0.2383879003584385,-0.11482172644436359,-0.21999261289751157
1746482599852925200,4.19492529296875,-0.09478840771913528,0.16599501045122741,-0.279177810582146
1746482599862904000,4.204904052734375,0.060090019303560255,0.07053995551690459,-0.11181797805111855
1746482599872882200,4.214882080078125,0.2485480598449707,0.022011779191344977,-0.027117829059506764
1746482599882860300,4.2248603515625,0.2470359017163515,-0.01368789522126317,0.05126645131618716
1746482599892839200,4.234839111328125,0.004312017980217933,-0.11263546844646334,0.11322126897778362
1746482599902817000,4.244817138671875,-0.26499709034264085,-0.12833207314163445,0.16508129313979297
1746482599912795100,4.254795166015625,-0.26663082902431484,-0.08452084233537316,0.09443248868724331
1746482599922774000,4.26477392578125,-0.20436580376923083,-0.20395291211940347,0.23829068706165998
1746482599932752100,4.274752197265625,-0.033732758253812785,-0.2469716773737222,0.0300756194191752
1746482599942730200,4.284730224609375,0.1992559134095907,-0.16324600400403141,-0.13243683244618587
1746482599952708000,4.2947080078125,0.45693478969335555,-0.13492701442725955,-0.26289655613312496
1746482599962687000,4.30468701171875,0.6069347970247269,-0.10084821921475232,-0.23903251840490847
1746482599972665000,4.3146650390625,0.3323655762165785,-0.0750543642014265,-0.07615249816905707
1746482599982643200,4.324643310546875,-0.21540274609029292,-0.017599588772282005,-0.045927519707335156
1746482599992622000,4.3346220703125,-0.5201987628579139,0.02216594683974981,-0.05873443540956359
1746482600002600200,4.34460009765625,-0.4150076190680265,0.03922777547352016,-0.16602971643842757
1746482600012578000,4.354578125,-0.02600187174081802,0.005180032986402511,-0.19019284671107306
1746482600022556200,4.36455615234375,0.2782540468007326,-0.03848879367448389,-0.13795782435736617
1746482600032535000,4.37453515625,0.3150561294972896,-0.057099093859270214,-0.12657138361204415
1746482600042513200,4.38451318359375,0.08865969570577144,-0.08690795666761696,-0.14801840506009756
1746482600052491300,4.3944912109375,-0.13838321929574013,-0.09364647114239633,-0.14622114637978373
1746482600062470100,4.40447021484375,-0.2213601931899786,-0.04573554993234574,-0.13246181162381543
1746482600072448000,4.414447998046875,-0.1635334426432848,-0.0419371805626899,-0.12626903053144922
1746482600082426000,4.424426025390625,-0.015609072542190551,-0.024234715937823056,-0.15535338759068398
1746482600092404200,4.434404296875,0.09175824624300002,0.019286372815445065,-0.1422850490398705
1746482600102383000,4.444383056640625,0.0684796619862318,0.0418473833873868,-0.11646017783377319
1746482600112361200,4.454361328125,-0.011516834792494773,0.028992724119871853,-0.07883410193584858
1746482600122339000,4.464339111328125,-0.03916238208711147,0.05974573591053486,-0.08270855048270896
1746482600132318000,4.47431787109375,-0.057877019429206845,0.034544659158587454,-0.059228589301789175
1746482600142296000,4.484296142578125,-0.052070963498950004,-0.008290858483314513,-0.1040696654792875
1746482600152274200,4.494274169921875,-0.0048334115058183665,-0.06234568927586078,-0.10790780973690561
1746482600162253000,4.504253173828125,0.030259529185295102,-0.07651113888099789,-0.12429562069978564
1746482600172231200,4.514231201171875,0.06656184566617011,-0.09167356363423168,-0.12793743866770527
1746482600182209000,4.524208984375,0.07471943315863609,-0.08906075078733265,-0.054146185170696116
1746482600192187100,4.534187255859375,0.032277883270382876,-0.06978088077791035,-0.0268459898481844
1746482600202166000,4.544166015625,-0.01485796191394329,-0.016152093377709387,-0.00007207885552197695
1746482600212144000,4.55414404296875,-0.015721300745010373,-0.040990620427578686,0.0188452688512858
1746482600222122200,4.564122314453125,-0.0220335526317358,-0.09517433829680085,-0.01887917112088762
1746482600232101000,4.57410107421875,-0.07510872473716736,-0.07186777005456388,-0.08992859226358123
1746482600242079000,4.584078857421875,-0.14436755440235138,-0.0692688396025449,-0.1301060788105242
1746482600252057000,4.59405712890625,-0.2101841346591711,-0.046404973626509305,-0.13899428213248027
1746482600262035200,4.60403515625,-0.12870996654331684,-0.03648629474565387,-0.1046353365380317
1746482600272014000,4.61401416015625,0.074257076343894,-0.04294584614858031,-0.1516387692480348
1746482600281992200,4.6239921875,0.17658815452754498,-0.1138234361220151,-0.18405520247258245
1746482600291970000,4.633969970703125,0.12586451398432255,-0.22358583335019647,-0.22313140411358326
1746482600301949000,4.643948974609375,0.011531447839736938,-0.17607560189552604,-0.17622797944564372
1746482600311927000,4.653927001953125,-0.03998655795156956,-0.09208937789350748,-0.04674742582205217
1746482600321905200,4.6639052734375,-0.09045943860411644,-0.07666318763755262,-0.053938689033011904
1746482600331883300,4.67388330078125,-0.08392156126797198,-0.03679981767423451,-0.10972003765748813
1746482600341862100,4.683862060546875,-0.026360183659195898,-0.018297215647622943,-0.11049330531861633
1746482600351840000,4.693840087890625,0.015450667110085487,-0.06602759265899658,-0.0991928532231599
1746482600361818000,4.703818115234375,0.08702069632709025,-0.08247326215580106,-0.12670759547865018
1746482600371797000,4.713796875,0.0902127703666687,-0.05230974069088697,-0.1155506435071118
1746482600381775000,4.723775146484375,0.037007249879837036,-0.04447071762830019,-0.08396008491376414
1746482600391753200,4.733753173828125,0.024334230789542197,-0.031072233807668086,-0.07789141425825655
1746482600401731000,4.74373095703125,0.0007329904496669769,-0.039801191447302695,-0.0724307468327228
1746482600411710000,4.7537099609375,-0.011909048980474471,-0.03289192351549863,-0.06774118251069448
1746482600421688000,4.76368798828125,-0.07010229475200176,0.028495953578874467,-0.07933786847321316
1746482600431666200,4.773666259765625,-0.0692985771536827,0.06013743864186108,-0.07983470294629223
1746482600441645000,4.78364501953125,0.028903438401222226,0.01727612897157669,-0.1214142109114211
1746482600451623200,4.793623046875,0.133909288752079,-0.05559884536415338,-0.13576569374110548
1746482600461601000,4.80360107421875,0.01988894181847572,-0.06705825088098645,-0.17131412311475722
1746482600471579100,4.8135791015625,-0.12495792053341864,-0.043007440142706035,-0.18074602312566712
1746482600481558000,4.82355810546875,-0.2204705508738756,-0.05391242664717138,-0.1510760481982026
1746482600491536100,4.8335361328125,-0.14689970322847365,-0.05577537097483873,-0.1061961561139673
1746482600501514200,4.84351416015625,0.01391688167154789,-0.012862477247789501,-0.08266627311040647
1746482600511493000,4.8534931640625,0.06473053858578205,0.01779474601820111,-0.06023088907897472
1746482600521471000,4.863470947265625,0.11271569407582283,-0.0022891338504850865,-0.06856976512221154
1746482600531449000,4.873448974609375,0.0752899265229702,-0.030321926897019146,-0.07358519583116285
1746482600541428000,4.883427978515625,-0.026021745485067367,-0.02714958047121763,-0.0633989611884579
1746482600551406000,4.893406005859375,-0.08260814058184623,-0.020222119295597075,-0.037260466589080166
1746482600561384200,4.90338427734375,-0.0945914238423109,-0.018044629126042128,-0.03410722215597052
1746482600571362000,4.913362060546875,-0.0537397734940052,-0.02871259200423956,-0.02980638315689284
1746482600581341000,4.9233408203125,-0.011070260068774223,-0.047679888933151955,-0.0653570044876309
1746482600591319000,4.933319091796875,-0.002029460000991821,-0.04143924097791314,-0.08585545194000005
1746482600601297700,4.943297607421875,-0.044188101294636725,-0.021905323142185806,-0.12250323912398889
1746482600611276500,4.953276611328125,-0.027839024040102956,-0.03960223480910063,-0.1316944896462839
1746482600621254700,4.963254638671875,-0.007575403690338134,-0.06293430281877517,-0.10647021468183956
1746482600631232800,4.973232666015625,-0.03952595470249653,-0.01693359914422035,-0.12080710273059084
1746482600641211000,4.9832109375,-0.028743279403448105,-0.021634397246316075,-0.13461860606521367
1746482600651189800,4.993189697265625,0.023062311157584187,-0.07130407175719737,-0.12322611003844067
1746482600661167600,5.003167724609375,0.058114919838309284,-0.056283320496976375,-0.11260680860755964
1746482600671145700,5.013145751953125,0.0016588731229305266,-0.045557270755991336,-0.10950860513020307
1746482600681124600,5.02312451171875,0.05366963086724281,-0.057088426334783435,-0.11752481139060109
1746482600691102700,5.033102783203125,0.10035831680595875,-0.051623073600977655,-0.09071998923644423
1746482600701080800,5.043080810546875,-0.0052589434415102,-0.04700184354111552,-0.11360648716939613
1746482600711058700,5.05305859375,-0.09894026670157909,-0.04277596947439015,-0.1252671508793719
1746482600721037600,5.06303759765625,-0.10108663108050822,-0.06459164157174527,-0.10969019050849602
1746482600731015700,5.073015625,-0.005621347013115882,-0.07041939787715673,-0.14043384994892402
1746482600740993800,5.082993896484375,-0.004563362392783165,-0.08563830205798148,-0.13181262700008228
1746482600750972700,5.09297265625,-0.002483048987388611,-0.05975428454317152,-0.11729715838087722
1746482600760950800,5.10295068359375,0.02115560075342655,-0.012143880649656057,-0.07097889949001837
1746482600770928600,5.1129287109375,0.017390110740065575,-0.02150602162629366,-0.07201485494163352
1746482600780906800,5.12290673828125,0.0047784664481878274,-0.05253500081412494,-0.0749881533976877
1746482600790885600,5.1328857421875,-0.00014437690675258636,-0.05509703332185745,-0.08514414359917864
1746482600800863700,5.14286376953125,-0.02888064204752445,-0.0577552196804434,-0.07834082025988028
1746482600810841900,5.152841796875,-0.029209143349528312,-0.043274931972473854,-0.11525690299123525
1746482600820820700,5.16282080078125,-0.002003156515955925,-0.03084244363978505,-0.10049230018286034
1746482600830798600,5.172798583984375,-0.005140285497903824,-0.027735125274211167,-0.08634626766424626
1746482600840776700,5.182776611328125,-0.03433832293152809,-0.02547017601691186,-0.07458118916514794
1746482600850754800,5.1927548828125,-0.03633738779425621,-0.062217313655838366,-0.10154283214909955
1746482600860733700,5.202733642578125,0.00851063871383667,-0.05852868827097118,-0.10231814563684165
1746482600870711800,5.2127119140625,0.03314765184223652,-0.04682561019137502,-0.11286345024975016
1746482600880689700,5.222689697265625,0.03558510812222957,-0.07145180966481567,-0.07945594189492985
1746482600890668500,5.23266845703125,0.05214402873516082,-0.06954210358597337,-0.0668937673345441
1746482600900646700,5.242646728515625,-0.001748304972052574,-0.02379844341240823,-0.07506146066249347
1746482600910624800,5.252624755859375,-0.10444003316164016,-0.0035850919451564547,-0.0855983810395468
1746482600920603000,5.262602783203125,-0.12158815183937549,0.009983122419193387,-0.0968128079525195
1746482600930581800,5.272581787109375,-0.03399403953850269,-0.009603548517078161,-0.1025299891560804
1746482600940559600,5.2825595703125,0.09016425504982471,-0.02881860966198146,-0.051917517369752746
1746482600950537700,5.292537841796875,0.07412848152816295,-0.033966713140159845,-0.043173563090385864
1746482600960516600,5.3025166015625,-0.02734568756520748,-0.0678814768973738,-0.013773335881857201
1746482600970494700,5.31249462890625,-0.1044511390775442,-0.1294422263406217,0.0007660616022069006
1746482600980472800,5.322472900390625,-0.0736561878412962,-0.13802161944173275,-0.030494991042139007
1746482600990450700,5.33245068359375,0.023155250138044356,-0.10915434833243488,-0.040755998820951204
1746482601000429600,5.3424296875,0.0818166979432106,-0.08214242276623844,-0.06478540144502185
1746482601010407700,5.35240771484375,0.07451192788779736,-0.07900354021862149,-0.08208616253435612
1746482601020385800,5.3623857421875,-0.020645897665619847,-0.04848002633489668,-0.1188703807806596
1746482601030364700,5.37236474609375,-0.10731178920567035,-0.04663264490254223,-0.13051823067483492
1746482601040342800,5.3823427734375,-0.07146890693008899,-0.04946706461086869,-0.14825372078646906
1746482601050320600,5.392320556640625,0.0033832126975059506,-0.05469407854415476,-0.1802203370174393
1746482601060298800,5.402298828125,0.092011928743124,-0.03356624258048832,-0.15757473516827447
1746482601070277600,5.412277587890625,0.12052256843447684,-0.025543095122650263,-0.1715742536219768
1746482601080255700,5.422255859375,0.0194236623942852,0.00813961344435811,-0.1862474883524701
1746482601090233900,5.43223388671875,-0.04172024987637996,0.0132236387103796,-0.15717976276762782
1746482601100212700,5.442212646484375,-0.06323065541684628,0.005316007390990853,-0.1328783839349169
1746482601110190600,5.452190673828125,-0.05138473480045795,-0.015964461851119993,-0.14325515444735065
1746482601120168700,5.462168701171875,-0.02424129180908203,-0.011329422461614011,-0.12037518671988509
1746482601130146800,5.472146728515625,-0.027298341292142866,-0.02293649282082915,-0.09628665605341084
1746482601140125700,5.482125732421875,-0.06373977398276329,0.014524346045404672,-0.06981699327090754
1746482601150103800,5.492103759765625,-0.05606909322440624,-0.0061969549439847465,-0.045435626270854845
1746482601160081700,5.50208154296875,-0.035545945155620574,0.01598104765973985,-0.02952733332007192
1746482601170060500,5.512060546875,0.012173252874612808,-0.002522138888761401,-0.04363918957444839
1746482601180038700,5.52203857421875,0.07367956871688365,-0.02678914966098964,-0.05141337637305259
1746482601190016800,5.532016845703125,0.05092763868272304,0.01906023590937257,-0.03186193201378919
1746482601199995000,5.541994873046875,0.015425532668828963,0.044050811715796584,-0.030358413849351926
1746482601209973800,5.551973876953125,-0.01383621765077114,-0.025640856408700344,-0.025635650510620323
1746482601219951600,5.56195166015625,0.01929389853477478,-0.027950083199143407,-0.020070262335287407
1746482601229929700,5.5719296875,0.048531098935008045,-0.035460312698781485,-0.005393082082038745
1746482601239908600,5.58190869140625,0.04053483948409557,-0.1390047121949494,-0.0398093382211402
1746482601249886700,5.59188671875,0.06437865640819072,-0.16074381192475556,-0.06976871541608125
1746482601259864800,5.60186474609375,0.021349662020802497,-0.11239471849314868,-0.11712141822148114
1746482601269843700,5.61184375,-0.11116378845870495,-0.12274221724532544,-0.13028540829964913
1746482601279821600,5.621821533203125,-0.269608968052268,-0.13842976185120642,-0.1688519342523068
1746482601289799700,5.631799560546875,-0.40482933940291405,-0.13071933360435067,-0.12546457314761356
1746482601299777800,5.64177783203125,-0.3891664908468723,-0.09330277227126062,-0.04937725830241106
1746482601309756700,5.651756591796875,-0.08618073837161064,-0.10760573065094649,0.04753686373326927
1746482601319734800,5.66173486328125,0.2702396671712398,-0.1751625787038356,0.0534143409319222
1746482601329712600,5.671712646484375,0.3861562031149864,-0.17201156732700765,0.0404972474200651
1746482601339690800,5.681690673828125,0.2462731006503105,-0.1353574417337775,-0.03427014393298886
1746482601349669600,5.691669677734375,0.08282967437803745,-0.08973119739480316,-0.14755424901391379
1746482601359647700,5.701647705078125,0.024861469534039497,-0.07482610840350389,-0.26963572819503023
1746482601369625900,5.7116259765625,0.07451660406291484,0.0020828706886619327,-0.36149898744877423
1746482601379604700,5.721604736328125,0.08549743228256702,0.09789221895337104,-0.40706608547903594
1746482601389582600,5.73158251953125,-0.009669161099195479,0.1976665983915329,-0.3673859631281346
1746482601399560700,5.741560791015625,-0.2347533432483673,0.2318727463107556,-0.1925819155383855
1746482601409538800,5.751538818359375,-0.3338525999039411,0.20673231370486317,-0.05245368833937682
1746482601419517700,5.761517578125,-0.19977613789141177,0.13263780751153825,0.010224785687960683
1746482601429495800,5.771495849609375,0.02976560818850994,0.08976962970905006,0.05976816693805158
1746482601439473700,5.7814736328125,0.1561906786650419,0.05000599379315972,0.08828565649529918
1746482601449452500,5.79145263671875,0.20627602130472658,-0.00975961586162448,0.05475049403966404
1746482601459430700,5.8014306640625,0.1467225930958986,-0.1203589023053646,-0.0416658162754029
1746482601469408800,5.81140869140625,0.04774316342771053,-0.17855981992669404,-0.10447380756707861
1746482601479387000,5.821386962890625,-0.03730594056546688,-0.19203538757152855,-0.1813007709315978
1746482601489365800,5.83136572265625,-0.05272212088406086,-0.07052227372974157,-0.24222652867324648
1746482601499343600,5.841343505859375,-0.07325052964985371,0.0487515367526561,-0.28290976365208625
1746482601509321700,5.85132177734375,-0.0670721332758665,0.04518018107190728,-0.24184279005266723
1746482601519300600,5.861300537109375,0.044160628765821455,0.09669606797136365,-0.13254727968387306
1746482601529278700,5.87127880859375,0.06916939781606198,0.02524805769883096,-0.09756990079698152
1746482601539256800,5.8812568359375,0.07564823844134808,-0.02911598517335951,-0.06614654286354779
1746482601549234700,5.891234619140625,0.045103462573885915,-0.0009204758457839489,0.030940670716715975
1746482601559213600,5.901213623046875,-0.1123246489316225,-0.0038098406117409466,0.11673432773319073
1746482601569191700,5.911191650390625,-0.18550445143282412,-0.10207834553159773,0.12138852848089299
1746482601579169800,5.921169677734375,-0.16435352685451507,-0.14210508936308325,0.0422456985225901
1746482601589148700,5.931148681640625,-0.1276695175796747,-0.13397716635651885,0.0028058877335861323
1746482601599126800,5.941126708984375,-0.011795651733875274,-0.1339720517899841,-0.030714488144870846
1746482601609104400,5.9511044921875,0.050528994753956794,-0.10671886481381952,-0.08383966427133419
1746482601619082500,5.96108251953125,0.015236732098460196,-0.017604411077871918,-0.1341071128791198
1746482601629061400,5.971061279296875,-0.00896422770023346,-0.12806962281316517,-0.18348264501532538
1746482601639039200,5.981039306640625,0.00035948096215724946,-0.14004143483154474,-0.2081581817895174
1746482601649017300,5.991017333984375,-0.09534779516756534,-0.036323578464612365,-0.22755937662366776
1746482601658996200,6.000996337890625,-0.10080430700778961,-0.0011241817243397235,-0.24546803134512155
1746482601668974300,6.010974365234375,0.00029459903240203856,0.017713278279826043,-0.21704576405696568
1746482601678952400,6.020952392578125,0.09039689476191996,0.05256064671203494,-0.14800117993066086
1746482601688930300,6.030930419921875,0.04630523957908153,0.06555296088457108,-0.11005979100586846
1746482601698909200,6.0409091796875,-0.058250528916716574,0.038814007040858266,-0.10706918522198684
1746482601708887300,6.05088720703125,-0.05990238777697086,0.08313625610917806,-0.08163763331556692
1746482601718865400,6.060865478515625,-0.0719172352194786,0.11232618330158292,-0.07594992480166256
1746482601728844300,6.07084423828125,-0.03042787148952484,0.025807664342969654,-0.07761996777257882
1746482601738822400,6.080822509765625,0.07985445795953273,-0.010948752580955625,-0.07676784445527009
1746482601748800300,6.09080029296875,0.13567571390271185,-0.07104564001671969,-0.0971712660013698
1746482601758778400,6.1007783203125,0.07984919726252555,-0.11488770435266196,-0.11525154182952828
1746482601768757200,6.11075732421875,0.004814122283458709,-0.16130685263499617,-0.14498027947321535
1746482601778735400,6.1207353515625,0.0014355857610702514,-0.11640928789675235,-0.1231419023537077
1746482601788713500,6.13071337890625,-0.012945406290888785,-0.160532215000689,-0.11424748848667368
1746482601798692400,6.1406923828125,-0.03209142078757286,-0.12419270831458269,-0.07235370867429301
1746482601808670200,6.150670166015625,-0.033190321940183634,-0.09074000911116599,-0.0940931919965893
1746482601818648300,6.1606484375,0.0063075757116079325,-0.094524569151178,-0.13217588908821343
1746482601828626400,6.17062646484375,-0.017287819409370422,-0.01941467537023127,-0.08280949923968874
1746482601838605300,6.180605224609375,-0.048237668946385384,-0.024843495485931632,-0.09293747348967007
1746482601848583400,6.19058349609375,-0.06733049195110798,0.008116890155896544,-0.053385589761473236
1746482601858561300,6.200561279296875,-0.12153905200064181,-0.021346812476590274,-0.02860671134381555
1746482601868540200,6.2105400390625,-0.14410393503010271,-0.05662402369342744,-0.05616813315209001
1746482601878518300,6.220518310546875,-0.04498597367405891,-0.09305946503467857,-0.023535034102713688
1746482601888496400,6.230496337890625,0.12806348533332348,-0.11344232784993946,0.0009565426730085163
1746482601898474500,6.240474609375,0.16988544201850891,-0.11332812688574194,-0.020904694732278583
1746482601908453000,6.250453125,0.10216273587942123,-0.0804429253719747,-0.035789371123211455
1746482601918431200,6.26043115234375,0.03115677028596401,0.003923237858340144,-0.08962499707397073
1746482601928409300,6.270409423828125,-0.08239128296077251,-0.05654518630355596,-0.18786900687338784
1746482601938387500,6.280387451171875,-0.0898509513169527,-0.03635243923291564,-0.2400914163406938
1746482601948366300,6.290366455078125,-0.03937280996739864,-0.018448095360398292,-0.24962580861169845
1746482601958344400,6.300344482421875,-0.05038695593476295,-0.06533259613215923,-0.2574674985554069
1746482601968322300,6.310322265625,-0.052747839847207066,-0.07664039128385484,-0.15506770251709967
1746482601978301200,6.32030126953125,-0.00561667083799839,-0.09147278036512434,-0.170959500990808
1746482601988279300,6.330279296875,0.07206570377945899,-0.10055493535660207,-0.10450194681617431
1746482601998257400,6.34025732421875,0.11431085431277752,-0.13460413914844394,-0.07422937548621557
1746482602008235500,6.350235595703125,0.11379939765930175,-0.09785364050865172,-0.04222458266932517
1746482602018214100,6.360214111328125,0.005394552519917488,-0.09868819163665175,-0.06802505921968259
1746482602028192300,6.370192138671875,-0.04076104945540428,0.05165215356498956,-0.09978568628346547
1746482602038170400,6.38017041015625,-0.15345686978697776,0.022452874022349713,-0.051065594981843605
1746482602048149200,6.390149169921875,-0.12528817540109158,-0.025866043466702102,-0.045070601483900095
1746482602058127400,6.40012744140625,-0.059068275040388106,0.0028882687874138353,-0.12329777790200896
1746482602068105500,6.41010546875,-0.11154080507755279,-0.015115151545405388,-0.27843764147302136
1746482602078083300,6.420083251953125,0.425215709349513,0.2692003141861409,-0.3569662028573453
1746482602088062200,6.430062255859375,1.4229483978152275,0.31717589813023805,0.09268093231217935
1746482602098040300,6.440040283203125,1.2013859600514172,-0.2397761398464441,0.27815659604193643
1746482602108018400,6.450018310546875,-0.8046575095176697,-0.5121083953827619,0.300899155459553
1746482602117997300,6.459997314453125,-2.0289982286989687,0.2415258330579847,0.16487656434793024
1746482602127975200,6.46997509765625,-1.2229250071644782,0.3108191495146602,-0.253236582987383
1746482602137953300,6.479953369140625,0.2628513104856014,0.025113325403258203,-0.1563170997899957
1746482602147931400,6.489931396484375,1.0942705702006816,0.12855828311294318,-0.1429852697310969
1746482602157910300,6.49991015625,1.0917711546003819,0.16703407117538152,-0.16661801945408805
1746482602167888400,6.509888427734375,0.3970663041859865,-0.03578194586858153,-0.1912719106520526
1746482602177866500,6.519866455078125,-0.3766103761345148,-0.2178147026028484,-0.10591994212162681
1746482602187845000,6.52984521484375,-0.7443734289467334,-0.25043475037440655,-0.07088770037549548
1746482602197823200,6.5398232421875,-0.6866805339127778,-0.020826661060005424,-0.09742354199569672
1746482602207801300,6.54980126953125,-0.37781507574915885,0.06207505564093589,-0.02481102712159045
1746482602217779500,6.559779541015625,0.23941081366539,0.03149674283005297,-0.01699154900969006
1746482602227758300,6.56975830078125,0.6347638841927051,0.05524287153333425,-0.04556548146191053
1746482602237736200,6.579736083984375,0.531569467177987,-0.03365867010429501,0.05037381332539953
1746482602247714300,6.58971435546875,0.1203325988203287,-0.14626820039190352,0.014859642414376139
1746482602257692400,6.5996923828125,-0.25520284155905243,-0.14140848540104925,-0.08292961848801933
1746482602267671300,6.60967138671875,-0.3862345290482044,-0.015314546575024722,-0.14650108669917097
1746482602277649400,6.6196494140625,-0.2964461215734482,-0.046039209054037925,-0.14043191372016445
1746482602287627500,6.62962744140625,-0.051177229529619214,-0.01598798885717988,-0.17962217019489035
1746482602297606100,6.639606201171875,0.18754677091538904,0.036414252422749996,-0.23098938760496673
1746482602307584300,6.649584228515625,0.2949421467512846,0.006438800875842571,-0.27541606516214084
1746482602317562400,6.659562255859375,0.22836451899409294,0.052706192662566896,-0.2847816219385713
1746482602327540500,6.66954052734375,0.07750351091921329,0.0402973774664104,-0.1929426934084855
1746482602337519400,6.679519287109375,-0.07449731484055519,0.08997859628461301,-0.04412493639793247
1746482602347497200,6.689497314453125,-0.1746644929885864,-0.07114113628044724,-0.03720279071824625
1746482602357475300,6.699475341796875,-0.2897819875091314,-0.019590251132845876,0.24218300005877388
1746482602367454200,6.7094541015625,-0.21443477784097192,0.18389497040957212,0.08679704363904893
1746482602377432300,6.719432373046875,0.1206985095232725,-0.20592808464989065,-0.3452670337678864
1746482602387410400,6.729410400390625,0.2648071207284927,-0.28490283716544507,-0.12047131317127495
1746482602397388500,6.739388427734375,0.10167933627665042,-0.15331570775061845,-0.2392983480005525
1746482602407367200,6.7493671875,0.0016419219881296156,-0.07493819047585129,-0.1354431472558528
1746482602417345300,6.75934521484375,0.13621055143177507,-0.06482932278513907,-0.1780957826115191
1746482602427323400,6.769323486328125,0.22932956463396548,0.012088935592025517,-0.4056474508527666
1746482602437301500,6.779301513671875,0.12630758157670496,0.04752484450191259,-0.30315793070439245
1746482602447280400,6.7892802734375,0.04598316801786422,-0.06379997973740101,-0.1828837475404143
1746482602457258200,6.79925830078125,-0.015204583394527434,-0.12408289126455783,-0.13232797437738628
1746482602467236400,6.809236328125,-0.2353103926092386,-0.17232070634141564,-0.10261230627782643
1746482602477215200,6.81921533203125,-0.5184966351151467,-0.008807868094742297,-0.0995182492526248
1746482602487193300,6.829193359375,-0.7279208913177252,0.21531229132786392,-0.22686489155348388
1746482602497171500,6.83917138671875,-0.6749439188897609,0.3832845932014286,-0.052898500364273786
1746482602507149600,6.849149658203125,-0.3459276531010866,0.22885610190331934,0.24830150120537728
1746482602517128200,6.859128173828125,0.31685061169862744,-0.2650435598328709,-0.3155349259901792
1746482602527106300,6.869106201171875,0.7661579752534627,-0.03697349374070763,-0.10723083292394876
1746482602537084400,6.87908447265625,0.6602484540611505,-0.07674158663600683,0.05407251257970929
1746482602547063300,6.889063232421875,0.24559271717071532,-0.2757017319694161,-0.08554379217494279
1746482602557041400,6.89904150390625,-0.25069793135523794,-0.28952231365963815,-0.12086378308758139
1746482602567019300,6.909019287109375,-0.4447270500272512,-0.19197277066409588,-0.13796689357981085
1746482602576997400,6.918997314453125,-0.3299339651554823,-0.05612564571723341,-0.12250077317226678
1746482602586976300,6.928976318359375,-0.060845806106925006,0.06206146550700068,-0.09769381030444055
1746482602596954400,6.938954345703125,0.12412380779683589,0.12528057661652564,-0.037430662923678755
1746482602606933000,6.94893310546875,0.17909283082485197,0.08831248970329761,-0.07984441148955375
1746482602616912000,6.958911865234375,0.10625146649777889,0.056195934474468225,-0.11306644374225287
1746482602626890000,6.968889892578125,-0.05524550188183784,-0.11907646127939224,-0.01396273010727018
1746482602636868000,6.9788681640625,-0.2990601034641266,-0.28563845796361564,-0.08503818074036389
1746482602646846000,6.988845947265625,-0.44330081661641596,-0.1376006906159222,-0.11185619116965681
1746482602656825000,6.9988251953125,-0.4864584058195352,-0.020404051733762026,-0.0708768958536908
1746482602666803000,7.008802978515625,-0.2754664619088173,-0.0567668662302196,-0.0940041620062664
1746482602676781000,7.018781005859375,0.04809504560530185,-0.04574570600017905,0.00204666686411947
1746482602686759000,7.028759033203125,0.22531389925181863,0.10842311144843697,-0.005384761778265238
1746482602696738000,7.038738037109375,0.3003308540523052,0.19495397843196988,-0.06614939240776002
1746482602706716200,7.048716064453125,0.4671902262479067,0.11006897895932197,-0.0355292497491464
1746482602716693800,7.05869384765625,0.3833423147380352,-0.13106602815017104,0.08631967191826552
1746482602726673000,7.0686728515625,-0.13443360488712786,-0.251110019287467,0.15706709617339074
1746482602736651000,7.078651123046875,-0.6273527311533689,-0.09445800672098993,0.14715966933891175
1746482602746629000,7.088629150390625,-0.6174784028708934,0.06586626461744308,-0.049873964911326764
1746482602756607000,7.09860693359375,-0.1477729789316654,0.10196531361117958,-0.18423023024592547
1746482602766586000,7.108586181640625,0.41303251960277554,0.12695625474378466,-0.13152648526877164
1746482602776564000,7.11856396484375,0.6122726509213448,0.0836468359798193,-0.13314740100149064
1746482602786541800,7.128541748046875,0.35842473110258577,0.009918313554674386,-0.1671864852581173
1746482602796521000,7.13852099609375,-0.08876432512402534,-0.04987345345467329,-0.1564227703878656
1746482602806499000,7.1484990234375,-0.4033049063146114,-0.1494384279258549,-0.15517766569759694
1746482602816477200,7.158477294921875,-0.46447979824542995,-0.11932590599581598,-0.11565298963673412
1746482602826454800,7.168454833984375,-0.26891455604732034,0.022587240991741416,-0.19419428263846783
1746482602836434000,7.178433837890625,0.040159576430916784,0.03048193976432085,-0.1894347766190767
1746482602846412000,7.188412109375,0.31572482253909107,0.13480769889652727,-0.17309943562895058
1746482602856390000,7.198389892578125,0.4450298323661089,0.08174202527180313,-0.06864274359345436
1746482602866368000,7.208367919921875,0.23329613017737863,0.005586275699734688,-0.05044000129625201
1746482602876347100,7.21834716796875,-0.2676169174522161,-0.02861000841259956,-0.03994984267037362
1746482602886325000,7.228324951171875,-0.5099199454277753,-0.027290157985687253,-0.019739121551625428
1746482602896302800,7.238302734375,-0.2691524564564228,-0.026147709952294824,-0.07718461769577116
1746482602906282000,7.248281982421875,0.10553484266102313,-0.10770824117735027,-0.038832273349910976
1746482602916260000,7.258260009765625,0.28323183521330353,-0.2092809022091329,-0.048384530071169135
1746482602926238000,7.268238037109375,0.06747486885786057,-0.23166195310428736,-0.10738061665818095
1746482602936215800,7.2782158203125,-0.3315273718267679,-0.15786314192190765,-0.14153269630260765
1746482602946195000,7.28819482421875,-0.46037937718927857,0.02687982361912727,-0.18102189919129014
1746482602956173000,7.298173095703125,-0.17727730583548545,0.1479673324599862,-0.1880620634937659
1746482602966151000,7.30815087890625,0.2873965536773205,0.09829685423150658,-0.1477196778418496
1746482602976130000,7.318130126953125,0.4220622137546539,0.07366217919066548,-0.05720134865734726
1746482602986108200,7.328108154296875,0.13121990353763102,0.03121098469123244,0.039276911844871934
1746482602996085800,7.338085693359375,-0.15957038423120976,-0.034938773042708635,0.10695523085296153
1746482603006063900,7.34806396484375,-0.3196931416481733,-0.12637860098630188,0.11867500433903187
1746482603016043000,7.35804296875,-0.30997955688536166,-0.17528583975732326,0.15880151875056325
1746482603026021000,7.368021240234375,-0.0731283645749092,-0.1352918291516602,0.09521470683980733
1746482603035999000,7.3779990234375,0.09377893841564655,-0.049774961516261096,0.05783296109177172
1746482603045976800,7.387976806640625,0.1741770017325878,0.0593200578443706,0.08418466918356717
1746482603055956000,7.3979560546875,0.12265256620049476,0.06699293055981398,0.07604721116367727
1746482603065933800,7.407933837890625,-0.06365501830875873,0.05132920522093773,-0.015873605229891837
1746482603075912000,7.417911865234375,-0.2254150215387344,0.06306845059245825,-0.08291512417178601
1746482603085891000,7.42789111328125,-0.008372107025980948,0.034834143624454736,-0.17197876103594897
1746482603095869200,7.437869140625,0.28582652788162227,-0.057780427186936135,-0.2798534813540056
1746482603105846800,7.4478466796875,0.243079273045063,-0.1311981300972402,-0.17121044354457407
1746482603115825000,7.457824951171875,0.05183657022118568,-0.1078947036601603,-0.1693662769826129
1746482603125804000,7.467803955078125,-0.11611351982057094,-0.07164937806352972,-0.2579056342443451
1746482603135782000,7.477781982421875,-0.20690087520480155,0.0004768237315118313,-0.27529742548484354
1746482603145760000,7.487760009765625,-0.11013210732340813,0.1210595979206264,-0.23853114475402978
1746482603155739100,7.4977392578125,0.1405629014223814,0.1679613420881331,-0.1891963282207027
1746482603165717000,7.507717041015625,0.3099123368680477,0.11864479186385869,-0.15355083168074488
1746482603175694800,7.51769482421875,0.1852963616400957,0.03249284119531512,-0.03237487737145275
1746482603185673000,7.5276728515625,-0.13552899890840053,-0.062490066182613366,0.07012059759367258
1746482603195652000,7.537652099609375,-0.3536398349136114,-0.12373670817539095,0.05719195977449417
1746482603205630000,7.5476298828125,-0.39133039088249205,-0.1539398309983313,-0.07261771163903176
1746482603215607800,7.55760791015625,-0.2691442731499672,-0.07483078457862138,-0.019397541572339833
1746482603225586000,7.5675859375,0.01443184545636177,0.0029692250691354272,-0.02042049141190946
1746482603235565000,7.57756494140625,0.30101708275079725,0.0300495396964252,-0.050458048409596085
1746482603245543000,7.58754296875,0.3504927690595388,0.003327390857040882,-0.20554138688724488
1746482603255521000,7.59752099609375,0.16144845306277275,-0.014660539645701645,-0.17794789857342838
1746482603265500200,7.607500244140625,-0.14925298835635184,-0.0024500235006213187,-0.06503883734997362
1746482603275477800,7.617477783203125,-0.28891338798105715,-0.014975450813770294,-0.12931896528713405
1746482603285456000,7.627455810546875,-0.25764263592660425,-0.011910656415671109,-0.24866880014780907
1746482603295434000,7.63743408203125,-0.07144844866394996,-0.005445698185265064,-0.17853837527986616
1746482603305413000,7.6474130859375,0.1175964518547058,-0.07259308865442872,-0.1642098440675065
1746482603315391000,7.657390869140625,0.1937976480036974,-0.03410539095848798,-0.11462550975251942
1746482603325368800,7.667368896484375,-0.018145897543430326,-0.007502922976016998,-0.1232097982244566
1746482603335347000,7.677346923828125,-0.08009469645619392,0.037703415450453755,-0.17200170352011918
1746482603345325800,7.687325927734375,-0.014206804528832434,-0.02234685636460781,-0.13868581897150725
1746482603355304000,7.697303955078125,0.08893500551581382,-0.05436652709022164,-0.06758658560402692
1746482603365282000,7.707281982421875,0.038171032962203026,-0.04443272370547056,-0.04380604317449033
1746482603375261200,7.71726123046875,-0.11753741514384745,-0.03276201352551579,-0.048086898831464345
1746482603385238800,7.72723876953125,-0.20889526389241217,-0.019853578244149683,-0.08191219420693814
1746482603395217000,7.737216796875,-0.115078331553936,-0.02320274254158139,-0.07465184781514107
1746482603405195000,7.747195068359375,0.07301146019697188,-0.028833149643987414,-0.06641962418388575
1746482603415174000,7.757173828125,0.16879881582558154,0.007504092019796371,-0.07298804278876632
1746482603425152000,7.767152099609375,0.128802905523777,-0.0016769933015108108,-0.07465393017437309
1746482603435129900,7.7771298828125,0.09880641118884086,-0.026897067014873027,-0.08716631534285843
1746482603445108000,7.78710791015625,-0.026754151412844655,-0.06687412648573518,-0.052127369861304756
1746482603455086800,7.7970869140625,-0.19636194553375244,-0.10188859511315822,-0.0006631766164675355
1746482603465065000,7.80706494140625,-0.22473288449347018,-0.08933408783599733,-0.03239833131227642
1746482603475043000,7.81704296875,-0.17341186257898805,-0.08827040412724017,-0.06193564717024564
1746482603485022000,7.82702197265625,-0.011424480333924293,-0.030270635101199147,-0.052760443600453434
1746482603494999800,7.836999755859375,0.13624386917948722,-0.002490209380537271,-0.06315408304929733
1746482603504978000,7.84697802734375,0.12577332856953144,-0.04167626460418105,-0.12165255884509533
1746482603514956000,7.8569560546875,0.0612947189182043,-0.030838790377974507,-0.1488382700756192
1746482603524935000,7.866934814453125,0.03334054406583309,-0.00760784465521574,-0.14864556051511316
1746482603534913000,7.8769130859375,-0.0013297872990369797,-0.0039351474918425085,-0.14887308566067367
1746482603544891000,7.886890869140625,-0.12172492996156214,-0.028681904605031013,-0.09742628194205462
1746482603554870000,7.8968701171875,-0.21383681194782256,-0.037719635932892556,-0.053420222683437164
1746482603564847900,7.906847900390625,-0.10895604928135871,-0.014287614680081604,-0.09719199826214461
1746482603574826000,7.916825927734375,0.03236322346627712,-0.04602539972439408,-0.12684493985641748
1746482603584804000,7.92680419921875,0.04158873245120048,-0.05906462177857756,-0.08687255656067282
1746482603594783000,7.936782958984375,0.0017810381978750228,0.015534984392672776,-0.039521753451414406
1746482603604760600,7.946760498046875,0.036755320945382114,0.05721607130244374,-0.08652392578609287
1746482603614738700,7.95673876953125,0.04020107748508453,0.02983940407708287,-0.08556958420332521
1746482603624716800,7.966716796875,0.007152794364094734,-0.00025426702201366424,-0.07518321474548428
1746482603634695700,7.97669580078125,-0.07784779431223869,-0.02103124372139573,-0.0425764648469165
1746482603644673800,7.986673828125,-0.05562777919769287,0.08485387368202209,-0.045279732456244524
1746482603654651600,7.996651611328125,0.005371756166219711,-0.013025924181193112,-0.05076287657506764
1746482603664630500,8.006630615234375,-0.019611293920874594,-0.026817572037875652,-0.03307761881332844
1746482603674608600,8.016608642578126,-0.08255144195854663,-0.008970072919130325,-0.004332658909447491
1746482603684586800,8.026586669921874,-0.14573124397099016,-0.04247515989691019,-0.049025312192738056
1746482603694564900,8.03656494140625,-0.11541910781562327,-0.006842705501616001,-0.11457191640175879
1746482603704543700,8.046543701171874,0.09924304904043674,0.014304565814882516,-0.13924195501692593
1746482603714521600,8.056521484375,0.2585369544178247,-0.028575813882052898,-0.0968874258249998
1746482603724499700,8.066499755859375,0.09040157093703746,-0.039818069516867394,-0.09672109281476586
1746482603734477800,8.076477783203124,-0.13427286136746405,-0.027118893072009084,-0.07297726566642522
1746482603744456700,8.086456787109375,-0.1445493407100439,0.016544453696161508,-0.1299208036378026
1746482603754434800,8.096434814453126,-0.11465163057446479,-0.02980564793795347,-0.083379526813142
1746482603764412700,8.10641259765625,-0.12917173883616923,0.005808686278760433,-0.07628660941012204
1746482603774391600,8.1163916015625,-0.05338730679452419,0.04252674395367503,-0.14357136252336203
1746482603784369700,8.12636962890625,0.11825637706816196,0.03226502378880977,-0.17280399634633212
1746482603794347800,8.13634765625,0.15169804342091084,0.005807371104508638,-0.11328779487535356
1746482603804326000,8.146325927734376,0.11143968279063701,-0.006720832687616348,-0.07596263815276325
1746482603814304800,8.1563046875,0.04720072711408138,-0.02813303855061531,-0.07936725896447896
1746482603824282600,8.16628271484375,0.0065665189087390895,-0.06183861653655767,-0.09469119442235678
1746482603834260700,8.1762607421875,-0.03850011878609657,-0.06714607529491186,-0.05058266116995364
1746482603844238800,8.18623876953125,-0.0695557667851448,-0.0848842688202858,-0.023010361774638294
1746482603854217700,8.1962177734375,-0.15990180814266203,-0.04723082999140024,-0.04432316238377243
1746482603864195800,8.20619580078125,-0.17191782462894917,0.010067366636544466,-0.06632281274590641
1746482603874173700,8.216173583984375,-0.0741875182390213,-0.003268792537599802,-0.0913516382034868
1746482603884152600,8.226152587890626,0.08396949206292628,-0.0014928689062595367,-0.05149360200241208
1746482603894130700,8.236130615234375,0.15974515627622604,-0.0037618367515504358,-0.04417337864954024
1746482603904108800,8.24610888671875,0.03736322371065617,0.000046031098812818523,-0.07275912940371781
1746482603914087000,8.2560869140625,-0.06770283239483833,-0.0002307400159537792,-0.11181637061592191
1746482603924065800,8.266065673828125,-0.02809036845266819,-0.04624269573688507,-0.11653737125582993
1746482603934043600,8.276043701171876,0.014765022933483123,-0.05434066199660301,-0.09294807708207517
1746482603944021800,8.286021728515625,-0.010047931283712386,-0.04236673108637333,-0.12079579588528722
1746482603954000000,8.295999755859375,-0.031159692895412445,-0.04598316801786422,-0.12714037913903592
1746482603963978800,8.305978759765624,-0.014354688566923141,-0.049329409705847496,-0.09462013848014175
1746482603973956900,8.315956787109375,-0.04606383203864097,0.0014579437233507631,-0.0992488942593336
1746482603983934700,8.325934814453126,-0.03412906409502029,0.026246348021179436,-0.08725545493103563
1746482603993913600,8.33591357421875,0.08180442298352718,-0.001554682096093893,-0.0797867264855653
1746482604003891700,8.3458916015625,0.10305646984875201,-0.03270195390135049,-0.047570510274544356
1746482604013869800,8.355869873046874,-0.08812018200159072,-0.027146511731296775,-0.06877773161735386
1746482604023848000,8.365847900390625,-0.1791536211013794,-0.020219635077565908,-0.10098412055410444
1746482604033826800,8.375826904296876,-0.09157762897908688,-0.023017741363495586,-0.11086707053445279
1746482604043804700,8.3858046875,0.041488779208064076,-0.022613544476777315,-0.08378763268999755
1746482604053782800,8.39578271484375,0.053901101535558694,0.01947773066908121,-0.07793236732315272
1746482604063760600,8.4057607421875,-0.056687517383694645,0.0775001499183476,-0.06923811567071825
1746482604073739800,8.41573974609375,-0.05635141729712486,0.05926175178587436,-0.20029650850370526
1746482604083718000,8.4257177734375,0.09472527935504912,-0.07199161562994122,-0.13164777356088161
1746482604093695700,8.43569580078125,-0.20518004276156424,-0.10359773711860179,0.06865359378103167
1746482604103674600,8.445674560546875,-0.15301789384782313,0.19610285620614884,-0.24742424344681202
1746482604113652700,8.45565283203125,0.12730068426728247,-0.03974821915104985,-0.20955818478055296
1746482604123630800,8.465630859375,-0.003022562691569328,0.0030054654262959956,-0.2554968926021829
1746482604133608700,8.475608642578125,-0.16570844859480857,0.06567308013290167,-0.2201167324675247
1746482604143587800,8.485587890625,-0.17081307825744152,0.007706482724100351,-0.127752446622774
1746482604153565700,8.495565673828125,0.03917991774380207,-0.11627207138314842,-0.013147504734247922
1746482604163543800,8.505543701171876,0.2164882032394409,-0.29094357863441106,0.4027708359705284
1746482604173521700,8.515521728515624,0.10223755468130111,-0.16118103429824113,0.5191159725898876
1746482604183500800,8.525500732421875,0.01212473755776882,-0.11439371029064059,0.1790301408521831
1746482604193479000,8.53547900390625,-0.027298341292142866,-0.11409311990886926,0.198821065656282
