time,seconds_elapsed,z,y,x
1746482513074851300,0.012851318359375,-0.69015463976413,-0.15328443582952023,-0.25699381662905213
1746482513084829200,0.0228291015625,-0.6009037001669406,-0.3109849345356226,-0.2536854227334261
1746482513094808000,0.03280810546875,-0.4692003970265388,-0.4017284507781267,-0.26729367684721944
1746482513104786200,0.0427861328125,-0.32884237052649257,-0.3025730800211429,-0.3346113093167543
1746482513114765000,0.05276513671875,-0.2529261287987232,-0.26195640747249127,-0.3123907096803188
1746482513124743200,0.0627431640625,-0.16595920848548412,-0.3523351820558309,-0.04193476940989494
1746482513134722300,0.072722412109375,-0.008759352777898312,-0.46040626519620415,0.20121815339326857
1746482513144701200,0.082701171875,0.13829349518567322,-0.3727846803665161,0.12440846995711326
1746482513154679300,0.09267919921875,-0.014628829333186148,-0.12785071936547757,-0.05078384629786014
1746482513164658400,0.102658447265625,-0.15079904875457287,0.014338321954011916,-0.04838555298447609
1746482513174636000,0.112635986328125,-0.22464520621001718,-0.07608370724916458,0.1584574545532465
1746482513184615200,0.122615234375,-0.18395663746893404,-0.17408873892724513,0.29269816721677777
1746482513194594000,0.132593994140625,-0.037734979632496835,-0.23865561138391495,0.22332594030499456
1746482513204572200,0.142572265625,0.016072013878822327,-0.12341770535409449,0.03923720088899135
1746482513214551300,0.15255126953125,-0.02154723041951656,0.03498597318530083,-0.024539982494711874
1746482513224529200,0.162529052734375,-0.014042553877830504,0.0018044190734624861,0.20129472576081753
1746482513234508300,0.17250830078125,0.14795944141447542,-0.1346983933031559,0.5077227276444435
1746482513244487200,0.182487060546875,0.32095249405950305,-0.10163374356925486,0.5486714086264372
1746482513254465000,0.192465087890625,0.32717794444561005,0.13423954361975193,0.39792204423248767
1746482513264444200,0.202444091796875,0.20754823319762944,0.3055149786919355,0.3563140225589275
1746482513274422300,0.21242236328125,0.11969020926356315,0.24721476541459558,0.5178185897231101
1746482513284401200,0.222401123046875,0.08967062631398438,0.12929682652056215,0.6602583909332752
1746482513294380300,0.23238037109375,0.17798691540956496,0.05383972673714161,0.7220102059692144
1746482513304358100,0.242358154296875,0.270576936301589,-0.013610592201352118,0.6215811620146036
1746482513314337300,0.252337158203125,0.21418226438462734,0.03643967912495136,0.37771336894035334
1746482513324315400,0.2623154296875,0.028800562548637387,0.10941665253043174,0.1966366708219051
1746482513334294300,0.272294189453125,-0.14331833761036394,0.006910802301764488,0.23716098891198634
1746482513344272100,0.282272216796875,-0.1921916741117835,-0.14157646237909793,0.32922377105951306
1746482513354251300,0.292251220703125,-0.13427841432541607,-0.29147184029221535,0.40854923670887944
1746482513364230100,0.302230224609375,0.023560908329486846,-0.4327607179015875,0.3830769418001175
1746482513374208300,0.312208251953125,0.07624006685465574,-0.3921159883022308,0.21172493436038492
1746482513384187100,0.322187255859375,-0.08232873911857605,-0.21180618290305137,-0.03321604090332985
1746482513394165200,0.332165283203125,-0.32484628662765025,-0.15116554397940635,-0.13997721048891543
1746482513404144400,0.342144287109375,-0.4421662596285343,-0.22569793013334272,-0.003585457271337509
1746482513414123300,0.352123291015625,-0.4649439086258411,-0.3375619758158922,0.18319032927155493
1746482513424101000,0.36210107421875,-0.38421559044122694,-0.4079144459366798,0.17083412104547022
1746482513434080000,0.372080078125,-0.29603695625066756,-0.3996902229487896,0.11536708536744117
1746482513444058000,0.38205810546875,-0.30002514910399913,-0.2815074956387281,0.015723054310679434
1746482513454037200,0.392037353515625,-0.3798246620059013,-0.20434300741553305,-0.014985387685894965
1746482513464016100,0.40201611328125,-0.4286252255320549,-0.2870522702842951,0.08913549652397632
1746482513473994200,0.411994140625,-0.4455500568479299,-0.42186289179027076,0.22082477113902568
1746482513483973400,0.421973388671875,-0.3917681977778673,-0.48390813681483263,0.30512101093828675
1746482513493951000,0.431950927734375,-0.35865152559578417,-0.5029875158160925,0.2460550739854574
1746482513503930000,0.44193017578125,-0.5210524570778012,-0.3125543758094311,0.13976795165240763
1746482513513908200,0.451908203125,-0.7784253361523151,-0.2023106248050928,0.08888649019896984
1746482513523887000,0.46188720703125,-0.9788567230820655,-0.2710919000864029,0.17827566922307014
1746482513533866200,0.4718662109375,-1.0721142679721116,-0.40680969956517216,0.3281897518366575
1746482513543844000,0.481843994140625,-1.0431006471946835,-0.4656447503715753,0.39908465827107426
1746482513553823200,0.4918232421875,-0.9473688211455941,-0.48907180318832394,0.40763796708285804
1746482513563801300,0.50180126953125,-0.8701262992501259,-0.4413204564541578,0.363870137026906
1746482513573780200,0.5117802734375,-0.8374468494415283,-0.35981238606870175,0.3157844437718391
1746482513583759400,0.52175927734375,-0.8169394834637641,-0.3429430843323469,0.34794250005483623
1746482513593737200,0.5317373046875,-0.8270204402342438,-0.38733869089782236,0.39988603778183457
1746482513603716000,0.541716064453125,-0.8065168736487627,-0.4030214131981134,0.4151268615335226
1746482513613694200,0.551694091796875,-0.7252516721084713,-0.36758185102641583,0.3813374046564102
1746482513623673000,0.561673095703125,-0.6323372415676712,-0.22916180685162543,0.3099754652321339
1746482513633652200,0.57165234375,-0.6136009769156575,0.06927227366864681,0.1612678357988596
1746482513643630300,0.58163037109375,-0.6941039619117975,0.3665490008473396,-0.04481529328227043
1746482513653609200,0.591609130859375,-0.8453443246930837,0.40293665752410884,-0.2614572257786989
1746482513663587300,0.60158740234375,-1.0138549712270497,0.2748176426112652,-0.4634884491205215
1746482513673566500,0.61156640625,-1.1023720435917377,0.0006616787791252136,-0.5847691424459218
1746482513683544000,0.6215439453125,-1.1533318309783935,-0.30333529656529423,-0.8228548449873924
1746482513693523200,0.631523193359375,-1.3357330556988716,-0.4485007233470678,-1.2736743666708468
1746482513703502000,0.641502197265625,-1.5676678343951702,-0.48186873994171614,-1.5093161831915378
1746482513713480200,0.651480224609375,-1.6118001138493419,-0.6293178937464952,-1.3807412412047386
1746482513723459300,0.661459228515625,-1.4359241992443799,-0.8366746960252522,-1.110751164880395
1746482513733437200,0.671437255859375,-1.0448089124172926,-0.8750777841776609,-0.8798264400094747
1746482513743416300,0.681416259765625,-0.6447099625371396,-0.7722223898589611,-0.7187327917337417
1746482513753395200,0.691395263671875,-0.3138818250209093,-0.6007452947348356,-0.5262199228435754
1746482513763373000,0.701373046875,0.0076589903205633155,-0.4862064768850803,-0.2361070959448814
1746482513773352200,0.711352294921875,0.25644261248707767,-0.4880886373698711,0.12305705534815788
1746482513783330300,0.721330322265625,0.4349360161140561,-0.5661585500001907,0.4648147292882204
1746482513793309200,0.73130908203125,0.5031844996929168,-0.6684153939038515,0.693355189371109
1746482513803288300,0.741288330078125,0.509027380502224,-0.6752455321848392,0.8114479003101587
1746482513813266200,0.75126611328125,0.36669220871031283,-0.61849196382761,0.8289619296908378
1746482513823245300,0.761245361328125,0.10762567746043204,-0.5325549710839986,0.8554220665931701
1746482513833223400,0.771223388671875,-0.18203531401753426,-0.5091717574089766,0.9125999978423118
1746482513843202300,0.781202392578125,-0.5316774575971067,-0.5227291581183672,0.9041261840075254
1746482513853180200,0.79118017578125,-0.911385361355543,-0.5245896912932395,0.7744353897333145
1746482513863159300,0.8011591796875,-1.28881713687554,-0.48863691890239713,0.5596148274451493
1746482513873138200,0.81113818359375,-1.6913381993360816,-0.4282335958659649,0.3736655548542738
1746482513883116300,0.8211162109375,-2.007744428268075,-0.3178302703857422,0.24185294612050054
1746482513893095200,0.83109521484375,-2.273675000068545,-0.3272720524698496,0.1433639303177595
1746482513903073300,0.8410732421875,-2.461671852838993,-0.36294776148498054,0.019365210205316542
1746482513913052400,0.851052490234375,-2.5375240894198416,-0.3410632619351148,-0.18537527209520338
1746482513923031300,0.86103125,-2.5750293519496914,-0.2919178304940462,-0.4185597585916519
1746482513933009200,0.871009033203125,-2.5917139447689057,-0.27398762152791023,-0.6043938803702592
1746482513942988000,0.880988037109375,-2.6555104173749684,-0.39339258410930633,-0.6660515873819589
1746482513952966100,0.890966064453125,-2.6891099046379328,-0.6372177070856094,-0.6423837115466594
1746482513962945300,0.9009453125,-2.6775994995862242,-0.8287263673692942,-0.659910015887022
1746482513972923400,0.91092333984375,-2.734029827338457,-0.8746744640737771,-0.8078010682404041
1746482513982902300,0.92090234375,-2.8402093976438043,-0.7479559636086225,-0.9534837968945503
1746482513992881400,0.93088134765625,-2.9553339064270254,-0.6710866589397192,-0.9831178876578808
1746482514002859300,0.940859375,-3.0377988391458985,-0.6900742680042982,-0.8938982199817895
1746482514012838100,0.950838134765625,-3.0417005227595566,-0.7448363702833652,-0.7368307584822178
1746482514022816300,0.960816162109375,-2.9185996282696722,-0.749734079197049,-0.6323024625152349
1746482514032795100,0.970795166015625,-2.6909189998865126,-0.6532523115634917,-0.5425298371315002
1746482514042774300,0.980774169921875,-2.4315198756814,-0.5701555106818675,-0.4754612109869718
1746482514052752400,0.99075244140625,-2.171844272622466,-0.6213906078785657,-0.3674222765505314
1746482514062731300,1.000731201171875,-1.9734370849967002,-0.7662789712846279,-0.17160335185229778
1746482514072709400,1.01070947265625,-1.8003098845779895,-0.9708762457221746,-0.019558102428913114
1746482514082688300,1.020688232421875,-1.7020546775311232,-1.0708791732192038,0.00972585972249508
1746482514092666000,1.030666015625,-1.6563894894212483,-1.0615414360314608,-0.013126608076691627
1746482514102645200,1.040645263671875,-1.6002268726944922,-1.0640414361536503,0.02590308754146099
1746482514112624000,1.0506240234375,-1.5744488728374242,-1.2003449265658854,0.16674948208034038
1746482514122602200,1.060602294921875,-1.554383405408263,-1.4171622156292198,0.3513105151832103
1746482514132581000,1.0705810546875,-1.5094763421893118,-1.5697937405079603,0.48361762943565845
1746482514142559200,1.080559326171875,-1.4123293886452912,-1.657553857025504,0.6231418354600667
1746482514152538400,1.090538330078125,-1.248582595512271,-1.8393045088827609,0.7984358585238456
1746482514162517200,1.100517333984375,-1.015149102690816,-2.0565221954405306,0.9191752845793962
1746482514172495000,1.1104951171875,-0.7836035425078124,-2.233970766189694,0.9858704012364149
1746482514182474200,1.12047412109375,-0.587892827424407,-2.5073598373025656,1.0569459249347448
1746482514192452000,1.1304521484375,-0.34449732803702354,-2.871491840136051,1.0329933869391679
1746482514202431200,1.14043115234375,-0.04964044841639697,-3.226294289088249,0.8599871825516223
1746482514212409300,1.150409423828125,0.2086070215355605,-3.5454929252177476,0.6285866568624973
1746482514222388200,1.16038818359375,0.35953174249641595,-3.80362422144413,0.518419478225708
1746482514232367400,1.170367431640625,0.3944558294266462,-4.007814668646454,0.6306663857460022
1746482514242345200,1.18034521484375,0.37237135032527147,-4.197748626959323,0.8549532800376415
1746482514252324400,1.190324462890625,0.31421441797614097,-4.298157797169685,1.0769845043569803
1746482514262302200,1.20030224609375,0.2718318317335099,-4.368302177497744,1.276022391101718
1746482514272281000,1.210281005859375,0.1801419745516032,-4.403417330020666,1.5004969169199467
1746482514282260200,1.22026025390625,0.1409971281211823,-4.445250392621755,1.807860153827071
1746482514292238300,1.23023828125,0.22757534137777982,-4.486739756351709,2.0536241359114644
1746482514302217200,1.24021728515625,0.4265169281411916,-4.758691488137841,2.327294362053275
1746482514312195300,1.2501953125,0.6588105302125216,-5.38015106959939,2.384785012513399
1746482514322174200,1.26017431640625,0.7732505638629198,-6.210065185448527,2.3471739515215155
1746482514332152000,1.270152099609375,0.6076876612186431,-7.091039626449346,2.2735358838588
1746482514342131200,1.280131103515625,0.15410097637679426,-7.831952685809135,2.041474263912439
1746482514352110000,1.290110107421875,-0.40340186388306315,-8.091901845112442,1.4760294151395559
1746482514362088200,1.300088134765625,-0.6633994654379785,-7.7937711314529174,0.45397067919075484
1746482514372067300,1.3100673828125,-0.041972178810834884,-7.39898329359293,-0.8258236316651105
1746482514382045200,1.320045166015625,1.0840227324306964,-6.912538331776857,-2.2323808666497467
1746482514392024300,1.3300244140625,0.7411494984641671,-6.440814553752541,-4.045115348514914
1746482514402003200,1.340003173828125,-0.8733715647816658,-4.940709851020574,-6.691147743448615
1746482514411981300,1.349981201171875,-3.6615930010348556,-1.7321148847520351,-10.121408023333549
1746482514421960400,1.35996044921875,-7.597785033494234,1.119484798695147,-12.944023312097787
1746482514431938000,1.36993798828125,-12.327314140033721,3.6980925936535,-14.902045385819672
1746482514441917200,1.379917236328125,-18.305995750927924,5.599347947275638,-15.49683732510805
1746482514451895300,1.389895263671875,-25.46905899558067,6.0530970926702015,-14.495577047038077
1746482514461874200,1.399874267578125,-32.40382201864719,5.805597665095329,-11.888557981109619
1746482514471853300,1.409853271484375,-36.27157530565262,4.318636813835799,-7.9250190920412535
1746482514481831400,1.41983154296875,-36.14349019300938,2.608026197144389,-4.865748425799608
1746482514491810300,1.429810302734375,-34.167259093379975,2.3799976321063934,-4.047887151315808
1746482514501788200,1.4397880859375,-31.06327951683998,2.6541587105050684,-4.3596109215199945
1746482514511767000,1.44976708984375,-26.050489933514594,3.243329010519385,-5.023168353998661
1746482514521745700,1.45974560546875,-20.4197297798872,4.045419299897551,-5.605358585867285
1746482514531724800,1.469724853515625,-15.590566579163074,4.7406478819251054,-6.450155213549733
1746482514541703400,1.479703369140625,-11.235509083163738,5.670931420496106,-7.5511477854818105
1746482514551681500,1.489681640625,-7.734487752357125,6.82586659501791,-7.86463681179285
1746482514561660400,1.499660400390625,-3.4089129559516906,7.005042427951097,-6.5575897523522375
1746482514571638500,1.509638427734375,0.9624036009311675,8.673516907441616,-5.85443972967565
1746482514581617700,1.51961767578125,3.9562101536154746,13.142545650535821,-4.254197074890136
1746482514591596500,1.529596435546875,5.999120003288984,18.58564271339178,-1.7064298238754272
1746482514601574700,1.53957470703125,6.275645618861914,22.832301793992517,0.9497142152279615
1746482514611553800,1.5495537109375,4.3021348841071125,25.17069798029661,3.3276264193624256
1746482514621531400,1.559531494140625,2.271487719157338,25.221315237855908,5.559911424422264
1746482514631510500,1.569510498046875,1.165820725673437,24.348313090908526,7.389048759555816
1746482514641488600,1.579488525390625,-0.11754150679707527,23.73078208106756,8.44161486197114
1746482514651467500,1.589467529296875,-1.8278735988080501,23.181471790015696,8.626537714123724
1746482514661446700,1.59944677734375,-2.0305039570868013,22.968883516824246,8.149470821505785
1746482514671424500,1.609424560546875,7.697536616578698,28.15492538825273,10.68482282758355
1746482514681403600,1.619403564453125,43.20946668987274,24.319428357207773,15.552669686967134
1746482514691381800,1.6293818359375,93.5132615263462,25.015579899299144,21.496961537003514
1746482514701360400,1.6393603515625,69.87406934921741,24.364078815317153,11.998183892476558
1746482514711339500,1.649339599609375,-5.628025760227441,34.03627241407633,4.618910677003861
1746482514721317600,1.659317626953125,-35.81551496070623,25.26458154813051,-4.470361745263636
1746482514731296500,1.669296630859375,-19.429061038458347,20.808974596667287,-5.152426602074503
1746482514741274600,1.679274658203125,28.129945260775088,1.8845891732424496,9.45214916434288
1746482514751253500,1.68925341796875,45.76435107941627,-13.962401898229121,13.905864602971077
1746482514761231600,1.699231689453125,28.35653867844343,-14.206934292691946,7.733103604522347
1746482514771210800,1.709210693359375,11.22970478079915,-7.249038231319188,3.8409135031357406
1746482514781188600,1.719188720703125,3.177959004986286,-0.9365788393229245,0.845097656455636
1746482514791167500,1.72916748046875,-3.2979420597165823,1.3039219131574034,0.3562929797708988
1746482514801146600,1.739146728515625,-9.481646476984023,2.03308052957654,0.07569441567063331
1746482514811124500,1.74912451171875,-10.470830532813071,3.8771462615117427,-2.59350521209985
1746482514821103600,1.759103515625,-9.485892443990707,4.056436368474364,-3.6171254982769487
1746482514831081700,1.769081787109375,-9.030313745081424,2.578728790989518,-2.2823352763861418
1746482514841060600,1.779060546875,-5.4999172667086125,1.8114222302228211,-1.437194073049724
1746482514851039700,1.789039794921875,-1.254768590670824,1.4254320313245057,-0.909781725551188
1746482514861017300,1.799017333984375,-1.4863310289233922,0.504791934889555,-0.91193671162799
1746482514870996500,1.80899658203125,-3.883729439294338,-0.5533244951292872,-1.4507085114002227
1746482514880974600,1.818974609375,-2.464898413670063,-1.4390323943927883,-0.9900997093692422
1746482514890953500,1.828953369140625,3.5203006162941453,-1.740462734119594,0.7303945879548788
1746482514900931600,1.838931640625,7.824505876934528,-1.4813076478034257,1.6230115359544752
1746482514910910700,1.84891064453125,4.097055379110574,-1.5816092659860848,1.4868281647905706
1746482514920888600,1.858888671875,-1.340991414618492,-1.104144898483157,0.34554596030712126
1746482514930867700,1.86886767578125,-2.3845862750709057,-0.24498949058055877,0.016404899094998836
1746482514940846600,1.8788466796875,-0.15778466985821724,-0.029976620590686797,0.5947136133551597
1746482514950824400,1.888824462890625,1.9287059628665446,-0.3830211199596524,0.9237909616813063
1746482514960803600,1.898803466796875,2.5226795715093613,-0.3690507545351982,0.7817866292789578
1746482514970781400,1.908781494140625,1.9239421094655988,0.03337824572771787,0.6327297480165958
1746482514980760600,1.918760498046875,0.12483984711170196,0.5324807368040084,0.7067296347290277
1746482514990739500,1.928739501953125,-1.1139058295190334,0.6152054895028471,1.1510323218643665
1746482515000717600,1.938717529296875,-0.049525370669364924,0.01726736114323139,1.2331108856141566
1746482515010696700,1.94869677734375,1.772674858677387,-0.6055030106559396,0.9719207863390446
1746482515020674600,1.958674560546875,1.5222843858361244,-1.179559766560048,0.7563798008218408
1746482515030653400,1.9686533203125,-0.14421557871103285,-1.6040125287130473,0.5583242031127215
1746482515040631600,1.978631591796875,-0.860974440023303,-1.7585003489829598,0.19847922994866965
1746482515050610400,1.9886103515625,-1.1445885525524615,-1.2902704044237732,-0.24955343749523162
1746482515060589600,1.998589599609375,-1.2722154000341892,-0.26026670081987974,-0.5158883523128927
1746482515070567700,2.008567626953125,-1.5983949810922145,0.116335345877707,-0.17973244390264154
1746482515080546600,2.018546630859375,-1.4578268189728258,0.06490911002308129,0.2097885594703257
1746482515090524700,2.028524658203125,-0.6909300080507993,-0.28125264409482476,0.5545877930633724
1746482515100503800,2.03850390625,-0.38324879123568534,-0.6817176508083939,0.9149281485289334
1746482515110481400,2.0484814453125,-0.4597767351210117,-1.1779749085213989,1.2023054129838944
1746482515120460500,2.05846044921875,-0.0805184748262167,-1.2755145877100527,1.0054150596618652
1746482515130439400,2.068439453125,0.4995090260505676,-1.536572731168568,0.4594648926928639
1746482515140417500,2.07841748046875,0.4880319387465715,-1.1430023793395607,0.5339009788654744
1746482515150396700,2.088396728515625,0.6761193924099207,-0.9225292711824178,0.24908976550623774
1746482515160374500,2.09837451171875,1.3060019343018532,-0.16793969651190563,-0.502227345098555
1746482515170353700,2.108353759765625,0.6227800164103507,0.5978598024263978,-0.1929031833820045
1746482515180331500,2.11833154296875,-0.1332382576227188,1.8876003377571702,0.7248693947926164
1746482515190310400,2.128310302734375,0.12712532770037652,2.9229204140782357,1.5493506719380616
1746482515200289500,2.13828955078125,0.6264426305711269,3.8494156662821766,2.3070801338031885
1746482515210267600,2.148267578125,1.2582049948602914,5.1235412838518615,2.212732747849822
1746482515220246500,2.15824658203125,1.3761597586333751,6.558451922139525,1.3138646305009722
1746482515230224600,2.168224609375,0.9733259769618511,7.79108057719469,0.15620229603759944
1746482515240203500,2.17820361328125,0.8196388055503367,8.794334074908495,-0.8343306171171366
1746482515250181600,2.188181640625,0.5019470668524504,9.192938256186247,-2.8641835629492998
1746482515260160800,2.198160888671875,0.019801263535022734,8.987246756771206,-4.901165483878553
1746482515270139600,2.2081396484375,-0.830378810751438,8.390209668904543,-6.533323910623788
1746482515280117500,2.218117431640625,-2.4240076003551483,7.767471738070249,-7.486828165784478
1746482515290096600,2.2280966796875,-3.8098195689529177,6.887724208515882,-8.034685919940472
1746482515300074500,2.238074462890625,-5.2205952984154225,4.359189773498476,-8.746715414643287
1746482515310053600,2.2480537109375,-6.753569420570135,3.838542682351172,-7.98690710067749
1746482515320031700,2.25803173828125,-6.857689720258116,2.021040693823248,-7.050761976596712
1746482515330010600,2.2680107421875,-4.888669867181778,-0.731242729216814,-7.320862527558207
1746482515339989800,2.27798974609375,-1.1230623649209737,-2.7693200441673396,-7.820907560181618
1746482515349967400,2.28796728515625,2.6600480608046055,-3.085379797749221,-7.695348751145601
1746482515359946500,2.297946533203125,3.92401001175642,-3.6705084211573005,-6.844411136490106
1746482515369924600,2.307924560546875,3.5582290726721286,-4.6081768092826,-6.576291530212759
1746482515379903500,2.317903564453125,5.769978070181608,-4.4133062713503834,-4.315650783762336
1746482515389881600,2.327881591796875,3.084505645263195,-3.358941010558605,-2.5938772602826354
1746482515399860700,2.33786083984375,2.1281927624225614,-4.4239813946217295,-0.6030804596841335
1746482515409839600,2.347839599609375,-0.6844558436006307,-4.9525265455424785,-0.5858071071915328
1746482515419817700,2.357817626953125,-3.0892519630074498,-3.69690864456594,0.5938049740776419
1746482515429796400,2.36779638671875,-2.235679323673248,-2.147903425064683,2.35889230023548
1746482515439774500,2.3777744140625,1.6443120981365442,-3.575509877818823,2.160378729625791
1746482515449753600,2.387753662109375,3.445179032075405,-2.9311078121870753,2.1320450539365408
1746482515459731500,2.3977314453125,3.1060376781135797,-2.9521599525660274,3.873475756305456
1746482515469710600,2.407710693359375,2.3419711221814152,-2.1711371472664176,3.4394431187719103
1746482515479688700,2.417688720703125,1.409278768903017,-2.553871705369651,4.356491035933792
1746482515489667600,2.42766748046875,1.869168316748738,-2.9447429543077943,4.305215314465761
1746482515499646700,2.437646728515625,0.837749631780386,-2.7176053467601538,4.3837735951349135
1746482515509624600,2.44762451171875,0.5189198289632797,-2.6287083351671696,4.344586078606546
1746482515519603200,2.457603271484375,1.1149953783214093,-2.734904272085428,3.396897523987293
1746482515529581300,2.467581298828125,2.0637457169532776,-3.0453309882164,2.0962197073176503
1746482515539560200,2.477560302734375,2.490456048774719,-3.0901211470574137,1.2061252635329962
1746482515549538300,2.487538330078125,2.0425497841894624,-2.873821452127397,0.5733528454184532
1746482515559517400,2.497517333984375,1.798729337388277,-2.8866233582943677,-0.1169476325571537
1746482515569496300,2.507496337890625,1.6227257047504187,-2.847442271506786,-0.4124228632718324
1746482515579474400,2.517474365234375,1.161243919277191,-2.7981007329717276,-0.29757395655959845
1746482515589453600,2.52745361328125,0.594047258400917,-2.8483202233850955,-0.10741086566597223
1746482515599431200,2.53743115234375,0.026468320208787918,-3.0227932854548096,0.113004447889328
1746482515609410300,2.547410400390625,-0.42019641988277434,-3.175356713533401,0.19566607222408056
1746482515619388400,2.557388427734375,-0.20021862096190451,-3.1694626870587466,0.04792202712595463
1746482515629367300,2.5673671875,0.6993009460330009,-2.960286852659285,-0.3317085736125707
1746482515639346400,2.577346435546875,1.3097855444937945,-2.949417375859618,-0.6704764180868864
1746482515649324500,2.587324462890625,1.6834803254425525,-3.12373583188951,-0.904783478872478
1746482515659303400,2.597303466796875,1.6665256835103035,-3.176311822301149,-1.166639933101833
1746482515669281500,2.607281494140625,1.3102139990389345,-3.1992361862927674,-1.5535712122425436
1746482515679260200,2.61726025390625,0.7650023754775523,-3.345644891133904,-1.9229001991972325
1746482515689238300,2.62723828125,-0.010523732101917265,-3.506162785348296,-2.1707801505222917
1746482515699217400,2.637217529296875,-0.7173059738010168,-3.5296044512122866,-2.258785473972559
1746482515709196300,2.6471962890625,-1.2974889575004578,-3.3939854359328745,-2.458448799139261
1746482515719174400,2.65717431640625,-1.9659131192326544,-3.3128111275464294,-2.665341783298552
1746482515729153300,2.6671533203125,-2.66826410048604,-3.3615620067119596,-2.7646245798274873
1746482515739131400,2.67713134765625,-3.325152722725272,-3.3589719902187585,-2.6263641101285815
1746482515749110500,2.687110595703125,-3.9007857880353924,-3.27340207722187,-2.185140392047167
1746482515759088400,2.69708837890625,-4.365423407191038,-3.2780531178981063,-1.699042928494513
1746482515769067300,2.7070673828125,-4.732297402209043,-3.4329847364127635,-1.366096337519586
1746482515779045400,2.71704541015625,-4.854918404227495,-3.616709026430547,-1.0976973297789692
1746482515789024300,2.727024169921875,-4.892122053462266,-3.7200776309683916,-1.128947623567283
1746482515799003400,2.73700341796875,-4.851487845256925,-3.897036956895888,-1.7272709518522023
1746482515808981500,2.7469814453125,-4.986495450639724,-4.3675729864403605,-3.2919702918305993
1746482515818960400,2.75696044921875,-5.047148364523053,-4.882867610643804,-5.646393776088953
1746482515828938500,2.7669384765625,-4.9103825172960756,-5.388118102955818,-8.609047650140523
1746482515838917400,2.77691748046875,-4.740504089540243,-5.58270953168571,-11.62284952762723
1746482515848895200,2.786895263671875,-5.037359376436472,-5.176837989753484,-13.959302763170003
1746482515858874400,2.796874267578125,-4.466922126203775,-3.022947014711797,-13.272159872442483
1746482515868853200,2.806853271484375,-1.3866174397617577,3.579069323866069,-4.713361231070756
1746482515878831400,2.816831298828125,5.34807250829339,14.44573954167962,14.409190556961297
1746482515888810500,2.826810546875,9.799388484564423,24.543615882778166,27.088605485773083
1746482515898788400,2.836788330078125,3.8342221888035533,25.769023938930033,16.28269544160962
1746482515908767500,2.846767578125,-1.5395552541106938,21.10750629234314,3.2704762529030442
1746482515918745300,2.856745361328125,0.41606969534158705,19.39413585554957,-4.803019874686003
1746482515928724200,2.86672412109375,5.263785036322474,11.747698727089166,-4.086524048224091
1746482515938703400,2.876703369140625,7.558038129517436,3.6153988206148147,-0.9981938762366771
1746482515948681500,2.886681396484375,4.870794018751383,-3.598853344005346,-0.17256152935996652
1746482515958660400,2.896660400390625,1.467282045060396,-6.739457308587432,-1.0801792087450623
1746482515968638500,2.906638427734375,0.30994448557198045,-4.035148081251979,-1.4576323193140328
1746482515978617300,2.916617431640625,0.846925456404686,0.5101064079105854,-0.12408479096069931
1746482515988595500,2.926595458984375,0.278902281576395,2.023765734872967,0.11481062052845954
1746482515998574300,2.93657421875,-0.9848130011379718,1.6304931238815188,0.029467063633352518
1746482516008553200,2.94655322265625,-1.2096680507063864,0.5054993525065481,0.08362740062698722
1746482516018531300,2.95653125,-1.6008382825911045,-0.40182723497748374,0.04745514026656747
1746482516028510200,2.96651025390625,-1.818183394920826,-0.5140145212650299,0.08372983808815479
1746482516038488300,2.97648828125,-1.0851812548160553,-0.12854761558845637,0.2739753465682268
1746482516048467500,2.986467529296875,-0.23596797973513603,-0.04288797848150134,0.2566033560067415
1746482516058445600,2.996445556640625,0.07055003851950169,-0.06492109272181987,0.15294161374121903
1746482516068424400,3.006424560546875,-0.23210545908808708,-0.1555127794034779,-0.07704524575769901
1746482516078402300,3.01640234375,-0.9321925870627165,-0.17654884543046354,-0.39351825631558895
1746482516088381200,3.026381103515625,-1.1890595624417066,0.41289501082822677,-0.6817391319878399
1746482516098360300,3.0363603515625,-1.67632343942523,1.0522915232576429,-0.7965554516047239
1746482516108338400,3.04633837890625,-2.8663936402142047,0.5418164281651378,-0.6295660232886672
1746482516118317300,3.0563173828125,-2.920256747826934,-0.23287293632924555,-0.3601081541448831
1746482516128295400,3.06629541015625,-0.986782255384326,-0.8096370514959097,0.1713093373417854
1746482516138274300,3.0762744140625,1.3171090192496775,-0.2477054715409875,0.7291255909323692
1746482516148252400,3.08625244140625,2.0226526590645313,-0.5996499007135629,1.2150985513225196
1746482516158231300,3.096231201171875,2.144650560748577,-0.7225985272511839,0.8459498893707991
1746482516168209400,3.10620947265625,0.9710364047199487,-0.4429232154756784,0.40623306872099635
1746482516178188300,3.116188232421875,0.6243669933408499,-0.32708295963853595,-0.2630094236567616
1746482516188167400,3.12616748046875,0.1252957741856575,-0.03578092295527458,-0.3275283653184771
1746482516198145300,3.136145263671875,-0.6069757135570049,0.19293021751940248,-0.0982531612202525
1746482516208124400,3.14612451171875,-0.5637175865888595,-0.10303221219033003,0.3561591242581606
1746482516218102500,3.1561025390625,0.4306067547380924,-0.521813796839118,0.35984891868680713
1746482516228081400,3.166081298828125,1.338378601771593,-0.6270461494222282,0.5540156922638416
1746482516238059300,3.176059326171875,1.2725824797809124,-0.6318319223940372,0.4020230498105287
1746482516248038400,3.186038330078125,0.6077572193235159,-0.4702335394665599,0.006326572673022747
1746482516258017300,3.196017333984375,0.0726800362855196,-0.37793256464898584,-0.19975158797204493
1746482516267995400,3.205995361328125,0.16656769577264785,-0.4169061461657285,-0.2822159361690283
1746482516277974300,3.215974365234375,0.0696516283750534,-0.18891659796386956,-0.355540992359817
1746482516287952400,3.225952392578125,-0.5970522854357958,-0.3587064706534147,-0.4220689357563853
1746482516297931500,3.235931640625,-0.44368952367305753,-0.7307055536001921,-0.5061240602761506
1746482516307909400,3.245909423828125,0.10580080012083053,-0.8343918457850813,-0.4500473682671785
1746482516317888300,3.25588818359375,-0.010728314763307571,-0.7427361831337214,-0.27906375574842096
1746482516327866400,3.265866455078125,-0.09015081104636191,-0.6120362118169665,-0.25837299602776764
1746482516337845200,3.27584521484375,-0.0639309126406908,-0.364575070425868,-0.1755453674763441
1746482516347824400,3.285824462890625,-0.233737444204092,-0.010761340250074863,-0.1868890376590192
1746482516357802500,3.295802490234375,-0.8734785322874784,0.25398031402677296,-0.20510127843692896
1746482516367781400,3.305781494140625,-1.2349907080113887,0.560960104574263,-0.25884572810605166
1746482516377759500,3.315759521484375,-1.2794085264086723,0.4053215068340301,-0.15629267773479222
1746482516387738400,3.32573828125,-0.8170493735790252,0.04886690676063299,0.05695449775680899
1746482516397716200,3.33571630859375,-0.16852818219065666,-0.13518822264671324,0.07005860174074768
1746482516407695400,3.3456953125,-0.3513081770956516,-0.33679332953095437,0.16853329675719142
1746482516417674200,3.35567431640625,-0.4852759180366993,-0.5641211989536881,0.12286927769109605
1746482516427652400,3.36565234375,-0.24933482630848883,-0.8054875306010246,0.12478636335879563
1746482516437631500,3.375631591796875,0.273902281332016,-1.0496078371316193,0.04790376081690192
1746482516447609300,3.385609375,1.0786042145133017,-0.9920102191656828,-0.1027329369828105
1746482516457588500,3.39558837890625,0.9844611189603805,-0.8843620376124978,-0.1021666814021766
1746482516467566300,3.40556640625,0.8546890761435031,-0.6660977646112441,-0.17133564082682132
1746482516477545200,3.415545166015625,0.740232091358304,-0.20306845743507146,-0.23963000937402246
1746482516487523300,3.4255234375,0.10146481674313544,-0.06827274123728275,-0.19320202019810676
1746482516497502200,3.435502197265625,-0.21714403679966926,-0.062406479552388185,-0.13455007087364793
1746482516507481300,3.4454814453125,-0.20968904461860655,-0.025353052443265914,-0.0740707599915564
1746482516517459200,3.455459228515625,-0.08641805425882339,0.06202274093180894,0.03480813240036368
1746482516527438000,3.46543798828125,-0.19066168806552886,0.1331403502061963,0.16122092791721224
1746482516537416000,3.475416015625,-0.6591653349995613,0.10037935959398746,0.058792965230345724
1746482516547395000,3.48539501953125,-0.9614332945942878,-0.14838877274245024,-0.09234057617560028
1746482516557373000,3.495373046875,-0.6662555855214596,-0.365078636033833,-0.1712416789330542
1746482516567352000,3.50535205078125,-0.34473698201179503,-0.8099582462742925,-0.10770224982798099
1746482516577330200,3.515330078125,0.5604664758384228,-1.103798277002573,-0.056248249183595174
1746482516587309000,3.52530908203125,1.181371346026659,-1.0095718870803714,0.09098448539152741
1746482516597288200,3.5352880859375,1.2325018138051032,-0.5226590154916048,0.14438421327620743
1746482516607266300,3.545266357421875,0.5847480996578931,-0.31002339602708817,0.1766173806220293
1746482516617245000,3.555244873046875,0.39631402451395986,-0.12067103699445723,0.1982443982794881
1746482516627223000,3.56522314453125,-0.002000233906507492,-0.009494096793234348,0.1859052873186767
1746482516637202000,3.575201904296875,-0.2399520809352398,0.00651420419961214,0.14972820465266704
1746482516647180000,3.585179931640625,-0.06272738206982613,0.024889818845689294,0.1765897619627416
1746482516657159200,3.5951591796875,0.04482347658872604,-0.03447977722883224,0.25820845311582086
1746482516667137000,3.605136962890625,0.24236732538342473,-0.09763239897340535,0.2354594456911087
1746482516677116200,3.6151162109375,0.24928572646975516,-0.15496142913103103,0.27437252919226884
1746482516687095000,3.625094970703125,0.4731693006575107,-0.38835780481249094,0.17336363952308892
1746482516697073000,3.635072998046875,0.4535363794267177,-0.433382649192214,0.15330840122699738
1746482516707052000,3.645052001953125,0.5153332026481628,-0.508680466760695,0.0937954511590302
1746482516717030100,3.655030029296875,0.5715858357459307,-0.6660293755501508,-0.006795066967606544
1746482516727009000,3.665009033203125,0.6276163505256176,-0.8054226486712693,-0.14004969120323657
1746482516736987100,3.674987060546875,0.7358265498757361,-0.8737541343584656,-0.19282018127366898
1746482516746966000,3.684966064453125,0.8643079683601855,-1.0168798720061778,-0.2889430524669587
1746482516756945200,3.694945068359375,1.1870055525213479,-0.7645511245787143,-0.24106647191792724
1746482516766923300,3.70492333984375,0.8195365142196417,0.23009967222362757,-0.20836451801657677
1746482516776902000,3.71490185546875,-0.8812930054306983,0.03186462629437446,-0.19748817308470606
1746482516786880000,3.7248798828125,-0.8347311607420445,-0.3563444176971912,-0.2904042110607028
1746482516796859100,3.734859130859375,-0.4468003491699695,-0.42890579603910445,0.005727729997038841
1746482516806837000,3.7448369140625,-0.3442939144194126,-0.6983227486506104,0.18972981404289602
1746482516816816000,3.754816162109375,0.6335656143188476,-0.9997355527207255,0.23837401796355842
1746482516826794200,3.764794189453125,1.6306407156586646,-0.38968729985058304,0.06439078523740172
1746482516836773000,3.774773193359375,0.8326035010635853,0.609392711570859,-0.07999708130061627
1746482516846752300,3.784752197265625,-1.1511311060637235,0.6717652888536453,-0.28384134541377426
1746482516856730000,3.794730224609375,-1.524890184420347,-0.10128595304489135,-0.1935743606418371
1746482516866709000,3.804708984375,-0.23505963271856306,-0.6778174284994601,-0.06054609250798821
1746482516876687000,3.81468701171875,0.5928209314763546,-0.9509858425989747,0.2375584637969732
1746482516886666000,3.824666015625,1.207220073032379,-1.2505188242718577,0.4691650334522128
1746482516896644000,3.83464404296875,1.7210989852190017,-1.7126546897396444,0.48720600931644437
1746482516906623200,3.844623291015625,1.6552753906995057,-2.0023574745327233,0.27532413082867857
1746482516916601000,3.85460107421875,1.2460054385006427,-1.7406573799088596,-0.07697714895755052
1746482516926580200,3.864580322265625,0.6764508163213729,-1.1620070126041768,-0.23813845564201472
1746482516936558800,3.874558837890625,-0.011674655702710151,-0.8249205453455448,-0.35486119340211153
1746482516946537000,3.884536865234375,-0.34796003571152684,-0.5212731140911578,-0.45411301027089357
1746482516956516000,3.89451611328125,-0.4093868565768003,0.027629180681705473,-0.20402561202943323
1746482516966494200,3.904494140625,-0.6074035835802555,0.57074763135612,-0.1793171411000192
1746482516976473000,3.91447314453125,-0.923442878895998,0.7769311520718037,-0.0871114433504641
1746482516986451200,3.924451171875,-1.3443605987906455,1.1097785204559565,0.4353703158780932
1746482516996430000,3.93443017578125,-1.66054544005692,1.2421452559411525,0.6571165857762098
1746482517006408000,3.944407958984375,-1.9540707057476043,1.1548398243885487,0.7596296694632619
1746482517016387000,3.954386962890625,-2.03022689371109,1.4419135027870535,1.0219975072808563
1746482517026366000,3.964365966796875,-1.4865911411643027,1.1977511106804013,0.6602020576361567
1746482517036344000,3.974343994140625,-1.3480559461772441,1.1855262737490235,0.5808226698424667
1746482517046323000,3.984322998046875,-0.27993162462413307,0.6658930358193814,0.7406129073694347
1746482517056301000,3.994301025390625,1.1696750630140305,1.6176855186261236,1.0031005721744148
1746482517066280200,4.0042802734375,2.3174872537881135,2.8112831628888846,1.2557177080892026
1746482517076258300,4.01425830078125,3.5663580185919996,3.2753400595471263,1.210569310395047
1746482517086237200,4.0242373046875,3.69455828204751,3.2701603188216684,1.3945287974081932
1746482517096216000,4.034216064453125,3.1986627703189847,3.212339998015761,1.3986702811270952
1746482517106194000,4.04419384765625,2.272541612124443,3.7004452942594885,2.1783599381268024
1746482517116173000,4.054173095703125,2.1924977690726517,4.534088367503881,1.520603008620441
1746482517126151200,4.064151123046875,3.1104876432597637,4.366690066125988,2.124405352838337
1746482517136130000,4.074130126953125,2.973502600324154,3.0475977641046046,2.433220542119443
1746482517146108200,4.084108154296875,0.9401701418131589,2.432426469132304,2.438124388512969
1746482517156087000,4.094087158203125,0.009238952988386154,2.5373174609318374,2.029167740046978
1746482517166065000,4.10406494140625,-0.09420096322000027,2.4747581289052962,1.627258672004938
1746482517176044000,4.1140439453125,-0.05545885237157344,1.292753161150217,1.3413134861797094
1746482517186023000,4.12402294921875,-0.32789515280425546,0.6520303685531019,1.471590555909276
1746482517196001000,4.1340009765625,-0.44481998900771136,0.18560645050257443,1.6468535993129014
1746482517205980200,4.143980224609375,-0.17476210814416407,-0.5640639158084988,0.8579547999411821
1746482517215958000,4.1539580078125,-0.7997679839104413,-0.5324439119249582,0.34548166289925575
1746482517225937200,4.163937255859375,-1.4219167166799307,-0.9565189268067479,0.5176327117621898
1746482517235915300,4.173915283203125,-1.6041022528231144,-1.1323711682751774,2.12327225715518
1746482517245894100,4.18389404296875,-1.530910759884119,-0.9759566177263855,2.5629326714426277
1746482517255872000,4.1938720703125,-1.7057967866688966,-1.256355859862268,1.6297978350937365
1746482517265851100,4.20385107421875,-1.815253186687827,-1.1583806388005613,1.8118202896296978
1746482517275830000,4.213830078125,-1.6599109415456652,-1.2381579398706555,1.966380152222514
1746482517285808000,4.22380810546875,-1.0013473718315362,-1.6061159307330846,1.7332774987906217
1746482517295787000,4.233787109375,0.012222644974291324,-1.8614497051954269,1.4580851776480674
1746482517305765000,4.24376513671875,0.7751125583425164,-2.4099688458696007,0.6376718805938959
1746482517315744300,4.253744140625,1.2426187186717987,-2.912199698099494,-0.4221265111625194
1746482517325721900,4.263721923828125,1.26169517506361,-3.1117844050720334,-0.7415905202299357
1746482517335701000,4.273700927734375,0.8812072268433868,-2.866774456225335,-0.6880407163500786
1746482517345679000,4.28367919921875,0.4903682727396488,-2.246630925798416,-0.5530751965433359
1746482517355658000,4.293657958984375,0.034241146167367696,-1.6352809426799415,-0.7298480599880218
1746482517365637000,4.30363720703125,-0.6174412857308983,-0.8704790582105517,-1.4605530290663242
1746482517375615200,4.313615234375,-1.099381921865046,-0.29685324106961486,-2.6257360413581132
1746482517385594000,4.323593994140625,-1.6262344435237348,-0.28716712883561846,-5.063241421189904
1746482517395572200,4.333572265625,-2.2471194399677215,-0.7285650344401597,-8.478344463953375
1746482517405551000,4.343551025390625,-2.5964170078933235,-1.2132324651896953,-11.42416936827898
1746482517415529000,4.353529052734375,-2.6057623438656328,-1.67140907163769,-13.48902684586644
1746482517425508000,4.363508056640625,-2.3098072206795215,-2.0084952466353774,-14.842991139304637
1746482517435486000,4.37348583984375,-2.1395804178774354,-2.04539845161885,-14.977753830015658
1746482517445465000,4.383465087890625,-2.4061679922819135,-1.35264239718467,-13.207779462468624
1746482517455444200,4.3934443359375,-2.728925197675824,-0.06855360400527716,-10.178970569986104
1746482517465422000,4.403422119140625,-2.9177228454351423,1.1146651234537361,-6.864801598089933
1746482517475401200,4.413401123046875,-3.5959564535200594,1.6702791908249257,-3.963217986550927
1746482517485379000,4.423379150390625,-4.2827877940803765,1.7151958986550568,-1.4732085124999283
1746482517495358000,4.43335791015625,-3.223348883286118,2.1008999740883705,-0.06617781478464603
1746482517505336000,4.443336181640625,-2.683110956484079,1.943007021550089,0.8401409108310938
1746482517515315000,4.45331494140625,-2.364872105297446,1.5724046536587177,1.9059341590881347
1746482517525293600,4.46329345703125,-2.075825300195068,1.4871895454488693,2.775691625025868
1746482517535271700,4.473271728515625,-1.9097610238999128,1.4777559466712176,3.5350212155640124
1746482517545250600,4.48325048828125,-1.7533903124928474,1.50061659777686,4.200591741430759
1746482517555228700,4.493228759765625,-1.5367138932049274,1.5608303895905613,4.866621701502799
1746482517565207800,4.503207763671875,-1.307121293720603,1.6546400154054164,5.570132374185324
1746482517575185700,4.513185546875,-1.1954426145423203,1.7466244716197252,6.099823772531748
1746482517585164800,4.523164794921875,-1.1093752003520727,1.7513006467372179,6.470783575558662
1746482517595142700,4.533142578125,-1.0380348882377146,1.655412753343582,6.743027568289637
1746482517605121500,4.54312158203125,-0.9997983888238667,1.5882536724366247,6.759721513459086
1746482517615099600,4.553099609375,-1.0183411767303943,1.590045232028514,6.526823442688584
1746482517625078800,4.563078857421875,-1.048377418553829,1.6424216082148253,6.403896735721826
1746482517635057700,4.5730576171875,-1.0597498764395714,1.5618071256682275,6.201361069989204
1746482517645035800,4.583035888671875,-1.0350058958053587,1.3233295011997221,5.7975569819808
1746482517655014700,4.5930146484375,-0.8932932398259639,1.0004447239033878,5.3196016160905355
1746482517664992800,4.60299267578125,-0.805163632408902,0.6292438786622137,4.986573776572943
1746482517674972000,4.612971923828125,-0.7727147034205496,0.4701620816655457,5.025346282559633
1746482517684949800,4.62294970703125,-0.5068821851670742,0.5839246544457972,5.301207296743988
1746482517694928600,4.6329287109375,-0.09835055718012153,0.4762766190230846,5.624630272570252
1746482517704906800,4.64290673828125,0.5283025743365287,-0.08863689935207367,6.233661165091395
1746482517714885600,4.6528857421875,1.179545299643278,-0.767789375847578,7.402613174527883
1746482517724864800,4.66286474609375,1.5465443823456764,-1.5675532681047915,8.857332090613246
1746482517734843000,4.6728427734375,1.7815946627140045,-2.2770878772519527,10.484398454916477
1746482517744821800,4.68282177734375,2.234006422024965,-1.979140849596262,11.59949670909047
1746482517754799600,4.692799560546875,2.573464002329111,-0.40858635384887454,11.554543468642233
1746482517764778500,4.702778564453125,2.2571803768634795,1.2489485062152146,10.24917632511258
1746482517774756600,4.712756591796875,1.8192448866724966,1.21733127881065,7.489725640791654
1746482517784735700,4.72273583984375,1.7221441103577613,-0.02548237791135907,3.977197412064671
1746482517794713900,4.7327138671875,2.1268121217191216,-1.0336743549406529,0.5678647693961858
1746482517804692700,4.742692626953125,2.824264809536934,-1.4789642995476722,-2.086335734423995
1746482517814672000,4.752671875,3.4516683940947055,-1.802632774567604,-3.448903021034598
1746482517824649700,4.762649658203125,3.9230817909955977,-1.9730185673236846,-3.4704970132052897
1746482517834628900,4.77262890625,4.483014013826847,-1.3116430089287459,-3.375066215929389
1746482517844606700,4.782606689453125,4.803983166760206,-0.5058212048720568,-2.6707570863455534
1746482517854585600,4.792585693359375,4.317604840439558,-0.28923396170493215,-1.2588327713698149
1746482517864563700,4.802563720703125,3.4541841763079164,-0.31928090758547184,-0.24879531260430812
1746482517874542600,4.81254248046875,2.701599383854866,-0.395226192744635,-0.3656090896487236
1746482517884520700,4.822520751953125,2.0737422103106975,-0.16260750517109407,-0.9844289702564477
1746482517894499800,4.832499755859375,1.7730384312927723,0.6879403247155249,-1.3462059343963861
1746482517904477700,4.842477783203125,1.6311048260390757,1.4966167144857345,-1.8112702545315027
1746482517914456600,4.85245654296875,1.357513510352373,1.9457814546994865,-2.69644390078783
1746482517924435700,4.862435791015625,0.94931374466829,2.2083849279038605,-3.139191175174713
1746482517934413600,4.87241357421875,0.7824210547249764,2.5376915549412367,-3.0558880380660294
1746482517944392700,4.882392822265625,1.1001590437173843,2.887880080357194,-2.799272991621494
1746482517954370800,4.892370849609375,1.4158651615560054,3.0694729113042354,-2.1015157678991554
1746482517964349700,4.902349609375,1.1184674383461475,3.2796506162226198,-0.8313935407519341
1746482517974327800,4.912327880859375,0.42684141085520383,3.590532382644713,0.7877402769863605
1746482517984306700,4.922306640625,-0.5352244825541973,3.5824183420330282,2.3366747693389653
1746482517994284500,4.932284423828125,-1.9306161804020403,2.671764509822428,3.580257364606857
1746482518004263700,4.942263671875,-3.199596836298704,1.6571458607465028,4.412565682116151
1746482518014242600,4.95224267578125,-3.2510406078100202,1.800415098518133,4.607827557453513
1746482518024220700,4.962220703125,-2.767673153743148,1.8742606714516876,4.041857808023691
1746482518034199800,4.97219970703125,-2.552914843036234,0.9821440011244267,3.2097739469200373
1746482518044177700,4.982177734375,-2.248911145690083,-0.0061883332461118695,1.6264111152648926
1746482518054156800,4.99215673828125,-2.099722454741597,-1.2175486478883772,-1.2825818957477808
1746482518064134700,5.002134765625,-1.1617033534824848,-3.0417277030274272,-6.046589610472322
1746482518074113500,5.012113525390625,0.9658084409385919,-5.300912697711587,-16.7118689486742
1746482518084091600,5.022091552734375,3.015124650523066,-7.1222864131063215,-19.296068280029296
1746482518094070800,5.03207080078125,4.016479621139169,-4.278264471437037,-15.862541107302903
1746482518104048600,5.042048583984375,4.107553392249345,-0.31919337543249127,-11.224470971798896
1746482518114027800,5.05202783203125,1.4073480931013822,-0.3557753856375813,-8.25459299171269
1746482518124006700,5.062006591796875,-3.24434607860744,0.09409691832363605,-6.480374995246529
1746482518133984800,5.07198486328125,-8.001070650586485,1.715666584906727,-4.209022008384764
1746482518143964000,5.0819638671875,-9.93628292660713,2.5463269890785214,-2.1551737083286047
1746482518153941500,5.09194140625,-9.077266050392389,2.13893861284256,-2.013010532102734
1746482518163920600,5.101920654296875,-7.9161904734194275,0.027831863646954298,-1.9505457464918492
1746482518173898800,5.111898681640625,-6.723349638873338,-0.136953917144984,2.384893441323936
1746482518183877600,5.121877685546875,-2.9281963086545466,-1.5103884885981678,6.418537255492806
1746482518193855700,5.131855712890625,3.219875069695711,0.15817103882730008,12.205672796702384
1746482518203835000,5.1418349609375,10.587386535704136,0.5759207962103188,10.237420420867204
1746482518213812500,5.1518125,14.649091199970245,-0.6601330109879374,2.3791524134539066
1746482518223791600,5.16179150390625,13.93098033952713,-1.3311729081764816,-3.61523983066082
1746482518233770500,5.1717705078125,9.344600643771887,-1.7643506824463604,-5.338644754734635
1746482518243748600,5.18174853515625,2.9275919130206107,-0.8310060027390718,-3.669031626603007
1746482518253727700,5.191727783203125,-2.660304081392288,0.47879210897535085,-1.7894906766608356
1746482518263705900,5.201705810546875,-6.027462300676107,1.4187015540257095,-0.7633370726138353
1746482518273684700,5.211684814453125,-7.60862674550414,1.6008786146014928,0.11992244711685925
1746482518283662800,5.221662841796875,-8.279017238873243,1.1067442673265933,0.7047397760860622
1746482518293641700,5.231641845703125,-7.7543878000915045,-0.29659517465531826,0.8107290114510803
1746482518303619600,5.24161962890625,-6.027766252058744,-1.3562597108989953,0.1870469681670889
1746482518313598700,5.2515986328125,-2.9159844773352144,-1.7735189082860945,-0.1165277997098863
1746482518323576600,5.26157666015625,0.5385352145373821,-1.4649866275995969,0.3766108875911683
1746482518333555700,5.2715556640625,3.241055804890394,-1.1864730530798435,0.9399775418505072
1746482518343534600,5.28153466796875,4.078208055299521,-1.2993351698890327,1.7444710929781198
1746482518353512700,5.2915126953125,3.3971582207500934,-1.564797831916809,1.9139254501029848
1746482518363491800,5.301491943359375,2.112824512898922,-1.5700062142148612,1.405254335692525
1746482518373469700,5.3114697265625,1.2260112827420233,-0.6961307915642857,0.4106630870576948
1746482518383448600,5.321448486328125,1.0400222626626492,0.41419980981647964,-0.37458537311293183
1746482518393426700,5.3314267578125,0.9139923289835452,1.2818307851195334,-1.4198757123716175
1746482518403405600,5.341405517578125,0.9693804542064666,1.9843685211166737,-2.2930492703631518
1746482518413383700,5.3513837890625,0.6274696355313062,2.091461699135601,-2.7180013603404163
1746482518423362800,5.36136279296875,0.4772784895420074,1.6727660392045973,-3.3037241502493617
1746482518433340700,5.371340576171875,1.0471814867675304,1.3941525114417075,-3.57066594491899
1746482518443319800,5.38131982421875,1.5534925940483808,0.35057810925543303,-1.8566830753155052
1746482518453298700,5.391298583984375,1.7128391063958406,-0.5236012647777796,0.3222484521541744
1746482518463276500,5.401276611328125,1.2288918066143988,-0.08083850056082009,0.6245342396665364
1746482518473255700,5.411255615234375,-0.2749474064707756,0.06840951935946941,0.05257146036699414
1746482518483233800,5.42123388671875,-1.0717898583233356,0.19581717113256453,-0.36499570699073375
1746482518493212700,5.431212646484375,-1.4564853412359953,0.1473091608121991,-0.1479120220761746
1746482518503190800,5.441190673828125,-1.3831681760907173,-0.025604396855831144,-0.08752893811017275
1746482518513169700,5.451169677734375,-0.46713937284350393,0.15349983214586974,-0.15199308084473012
1746482518523148300,5.461148193359375,0.05265957704186439,-0.06883300546854734,-0.046996728974580765
1746482518533127400,5.47112744140625,-0.04388590347766876,-0.34182810882776976,0.06774754831939936
1746482518543105300,5.481105224609375,-0.05829904423356056,-0.3251987533271313,-0.07638444376140832
1746482518553084400,5.49108447265625,-0.17347908259630201,-0.3451896942153573,0.05121273923441767
1746482518563063300,5.501063232421875,-0.05418342560827732,-0.4057026151061058,0.11400529549494386
1746482518573041400,5.51104150390625,0.17784779919981955,-0.3635267304167151,-0.028558132094889877
1746482518583020500,5.5210205078125,0.3085352032959461,-0.3541980533182621,-0.15393150156140326
1746482518592998100,5.530998046875,0.28710955342948435,-0.22074761424958705,-0.13387670165672896
1746482518602977300,5.540977294921875,0.030738837134838104,-0.07974398332238197,-0.12431070867106318
1746482518612955400,5.550955322265625,-0.48238487277030945,-0.07456658068448305,-0.144423230112344
1746482518622934300,5.560934326171875,-0.7015665528774261,-0.2012014945194125,-0.2092249342381954
1746482518632912400,5.570912353515625,-0.5027028536558151,-0.23714812943041325,-0.23614888925999403
1746482518642891500,5.5808916015625,0.06760346367359162,-0.047070670993626114,-0.20097440776526926
1746482518652869400,5.590869384765625,-0.023401333853602407,-0.16677344747781753,-0.1712004701398313
1746482518662848500,5.6008486328125,-0.11104162338376045,-0.3056789370819926,-0.2207142965018749
1746482518672826400,5.610826416015625,-0.05926935057044029,-0.3087295568242669,-0.18114070326536894
1746482518682805200,5.62080517578125,0.20490005677640438,-0.24240941095948218,-0.1486187821060419
1746482518692784400,5.630784423828125,0.2571089674413204,-0.34646278289109467,-0.11845993681624531
1746482518702762200,5.64076220703125,0.3910135800182819,-0.29485972916483877,-0.2691612242847681
1746482518712741400,5.650741455078125,0.24439035564363001,-0.2826987512499094,-0.2767344360180199
1746482518722719500,5.660719482421875,0.15403613097965715,-0.16362228997051714,-0.3413336033090949
1746482518732698400,5.670698486328125,-0.12280804902315139,-0.21925708343088626,-0.27272651555091143
1746482518742676200,5.68067626953125,-0.23257775277495382,-0.24556056846678256,-0.2719534853518009
1746482518752655400,5.6906552734375,-0.12084873164892196,-0.4544333282664418,-0.1985468883574009
1746482518762633200,5.70063330078125,0.08349602933228015,-0.5678077785119414,-0.18705533413663505
1746482518772612400,5.7106123046875,0.3092717008769512,-0.6031538171812891,-0.10377031720653175
1746482518782590500,5.720590576171875,0.3994184202700853,-0.5050742589622735,0.09480053654834628
1746482518792569300,5.7305693359375,0.44889469110071656,-0.4637827558919787,0.08786167719587683
1746482518802547500,5.74054736328125,0.3075719112217426,-0.42861148926764725,-0.00438099156320095
1746482518812526600,5.750526611328125,0.397833781427145,-0.43282092365622515,-0.13440174844413996
1746482518822505500,5.76050537109375,0.3139297558158636,-0.41008623701781033,-0.03336407107189297
1746482518832483300,5.7704833984375,0.4297089291155338,-0.2337090948924422,-0.028679858778417108
1746482518842462200,5.780462158203125,0.3962456354528665,-0.11311083087325095,0.08663491187989711
1746482518852440300,5.7904404296875,-0.003664367726445198,-0.21551614333689212,-0.053776744503527873
1746482518862419500,5.80041943359375,-0.18984803359508512,-0.1087061661735177,-0.14152458606138824
1746482518872397300,5.810397216796875,-0.5163455945611,-0.1302434597209096,0.05222732310444116
1746482518882376400,5.82037646484375,-0.8529296652555465,-0.36206396438777444,0.20027283536717294
1746482518892354300,5.830354248046875,-0.7279483638465404,-0.45627369543612,0.09246405642479658
1746482518902333200,5.840333251953125,-0.3341851928591728,-0.5309060348331928,0.17324162057861683
1746482518912311300,5.850311279296875,0.08830605996251106,-0.6041422436967492,0.2584725108794868
1746482518922290400,5.86029052734375,0.319205065870285,-0.6136407244041562,0.3067757193427533
1746482518932269300,5.870269287109375,0.4006605292856693,-0.565268323162198,0.4168075080968439
1746482518942247400,5.880247314453125,0.494209750598669,-0.1423553377971053,0.32208529748171566
1746482518952226300,5.890226318359375,0.36550504475235934,0.34345600229054685,0.3226574713464826
1746482518962204400,5.900204345703125,-0.24067221190333365,0.597205868562311,0.5553650610461831
1746482518972183600,5.91018359375,-0.8118295931041241,0.7211264088720083,0.5350242472743615
1746482518982161400,5.920161376953125,-1.3291127607762814,0.5245581271111965,0.09086053021829575
1746482518992140300,5.930140380859375,-1.9102093521893024,0.14962109101638196,-0.33261845499910414
1746482519002118400,5.940118408203125,-2.3044173443347216,-0.03141922061443329,-0.8169253818731754
1746482519012097300,5.95009716796875,-2.4891812065333125,0.4188596183210611,-1.1747701941959559
1746482519022075400,5.960075439453125,-1.4685826062649487,0.613862112069875,-1.35193337213248
1746482519032054500,5.970054443359375,0.19260463882684706,0.9447525011673569,-1.484911079122871
1746482519042032400,5.980032470703125,1.7851269284933804,0.941342619658634,-1.8312310925424098
1746482519052011300,5.99001123046875,3.1750790656358,0.9325470995888113,-2.033247556706518
1746482519061990100,5.999990234375,3.796999250346422,0.9638691434390843,-1.6977888367801903
1746482519071968300,6.00996826171875,3.8474166014194484,0.9535416645616293,-1.4473738140195607
1746482519081947400,6.019947509765625,3.7012072185426947,0.5275734563443809,-1.2754378692120314
1746482519091925500,6.029925537109375,2.7137399035036562,0.539622388719581,-0.8057692701518535
1746482519101904400,6.039904296875,1.8554378975600003,0.6397881420955062,-0.30248949339091774
1746482519111882500,6.049882568359375,1.914691466039419,0.5952157541910186,0.2841819755449891
1746482519121861400,6.059861328125,1.7791899396598339,0.6410289359368383,0.5898056753084063
1746482519131839200,6.069839111328125,1.6059236230313776,0.4110264770099893,0.6615127749085425
1746482519141818400,6.079818359375,1.3448597804844378,0.1909536202168092,0.8790507794618606
1746482519151796200,6.089796142578125,1.040619059512019,0.3514075092842802,1.6024883878856897
1746482519161775400,6.099775390625,1.0039783048570154,0.4245497197214514,2.042306623083353
1746482519171753500,6.10975341796875,0.8638853590339421,0.449253879801929,2.4994383966535327
1746482519181732400,6.119732421875,0.859702520391345,0.4216666385658085,2.355232170292735
1746482519191710500,6.12971044921875,0.8732102367401122,0.003221409731917083,1.7754665352225303
1746482519201689600,6.139689697265625,0.9066255996078252,-0.13100863540712743,1.507044146606326
1746482519211668200,6.149668212890625,0.602124766394496,-0.11358308802749961,1.447650877395272
1746482519221646300,6.159646240234375,0.4229743601635098,-0.27685707601699977,1.1857435697615146
1746482519231625200,6.169625244140625,0.7794538024172186,-0.6250534412350506,0.8694459157705307
1746482519241603300,6.179603271484375,1.3091779339894651,-0.8981303045935928,0.38631636211276055
1746482519251582500,6.18958251953125,1.1715607306301594,-0.9406400974124669,0.5418535453051329
1746482519261560300,6.199560302734375,1.4753347108736634,-1.0203064123887569,0.9932231020867824
1746482519271539500,6.20953955078125,1.8356284507185219,-0.759791582026705,1.6133587414681911
1746482519281517300,6.219517333984375,2.0851870027802883,-0.29948388183414937,2.4090070151001215
1746482519291496200,6.22949609375,2.086936038404703,-0.13556012469902634,3.009550649783015
1746482519301474300,6.239474365234375,2.0522915721334516,-0.12884119170755148,3.310644889423251
1746482519311453400,6.249453369140625,2.098608940541744,-0.21607158526256678,3.201846076530218
1746482519321431300,6.259431396484375,2.0558827284932137,-0.5021962193079292,2.190433237758279
1746482519331410400,6.269410400390625,1.5635457860291002,-1.168400951424986,0.8311872045248746
1746482519341389300,6.279389404296875,1.450288240161538,-1.2068189448855817,-0.4378834677428007
1746482519351367400,6.289367431640625,1.2144137839287519,-0.6202070971824228,-1.1876906121760606
1746482519361346600,6.2993466796875,0.9209463859051465,-0.23025778539478778,-1.0932891579478978
1746482519371324400,6.309324462890625,1.1395834377415477,0.06831804168373345,-0.7165525250852107
1746482519381303300,6.31930322265625,1.7767185811102388,0.31584611083120107,-0.37132162207663055
1746482519391281400,6.329281494140625,2.3188223017841576,0.35761019984930753,-0.22058803977370262
1746482519401260300,6.33926025390625,2.605071731252968,0.36392040590941904,-0.2863350619256496
1746482519411238400,6.34923828125,2.484867142726481,0.41143706710487604,-0.09365852690637111
1746482519421217500,6.359217529296875,1.9849492436140774,0.7693462499007582,0.15479133326113223
1746482519431195100,6.369195068359375,1.1388777736902236,1.119708670578897,0.36081308754384517
1746482519441174300,6.37917431640625,0.5025035316914319,1.1811784538030623,0.6901976021230221
1746482519451152400,6.38915234375,0.28814824882745743,1.360380005699396,1.3022165705442428
1746482519461131300,6.39913134765625,0.20175532900989054,1.3479241364911199,2.069622500032186
1746482519471110400,6.4091103515625,0.27497838613092895,1.0408926157563925,2.6124077732294797
1746482519481088500,6.419088623046875,0.15103227298855781,0.8136059551268815,2.968606644976139
1746482519491067400,6.4290673828125,-0.19693828411698341,1.067909802019596,3.334755248329043
1746482519501045500,6.43904541015625,-0.8918453791052102,0.7691241315826773,3.425342112705111
1746482519511024400,6.4490244140625,-1.4761340445578097,0.360207230605185,3.279920080813765
1746482519521002200,6.459002197265625,-2.0605635797858235,0.2197299616396427,2.9399212332397697
1746482519530981400,6.4689814453125,-2.8143279374122616,0.161461020283401,2.4949632970660924
1746482519540959200,6.478959228515625,-3.5864708322942254,0.15187778390198944,2.039397457638383
1746482519550938400,6.4889384765625,-4.246809887248277,0.23024463365226983,1.5369073699504137
1746482519560916500,6.49891650390625,-4.59075016592443,0.26558161223232746,1.1018313608437775
1746482519570895400,6.508895263671875,-4.580141678148507,0.2263620931304991,0.757917970174551
1746482519580873200,6.518873291015625,-4.093741724517941,0.1437270645417273,0.3420972811579704
1746482519590852400,6.528852294921875,-3.1574107224762438,0.049943303820490836,-0.04335983377695083
1746482519600831200,6.538831298828125,-1.9040110820710658,0.01702493068948388,-0.15931845529675484
1746482519610809300,6.548809326171875,-0.48981297694444653,0.01930471218973398,-0.04603051429092884
1746482519620788200,6.558788330078125,0.5696721110790968,-0.17606340000107884,0.09115852678418158
1746482519630766300,6.568766357421875,1.2243255216121673,-0.33723347451388835,0.10375614255070685
1746482519640745500,6.578745361328125,1.6369126355350017,-0.3083198069795966,0.11232815606296062
1746482519650723300,6.588723388671875,1.7136036610275507,-0.2238883964933455,0.15650748952925203
1746482519660702200,6.5987021484375,1.434088800510764,-0.1323598673529923,0.12004735213816166
1746482519670680300,6.608680419921875,0.9807494049608707,-0.047720367074012754,0.08160042484402656
1746482519680659200,6.6186591796875,0.5906681373566389,0.029203152000159025,-0.03537818737328052
1746482519690637300,6.62863720703125,0.3512088083744049,0.07507701442465185,-0.12153262225985527
1746482519700616400,6.638616455078125,0.18970891738533974,0.11364318418428301,-0.14474281745553016
1746482519710594300,6.64859423828125,-0.04399520907104015,0.09865399710610509,-0.054174657779932016
1746482519720573400,6.658573486328125,-0.25016660095751286,0.03333002267181873,0.08456745795607566
1746482519730551300,6.66855126953125,-0.2874596820414066,0.0779639680378139,0.1485883869677782
1746482519740530200,6.6785302734375,-0.49715340283513065,0.08658654269352555,0.2381131750702858
1746482519750509300,6.68850927734375,-0.6887719532340765,0.06950535177215933,0.34739655660986896
1746482519760487400,6.6984873046875,-0.7963876938223838,0.0512615468122065,0.43123277768194673
1746482519770466300,6.70846630859375,-0.8418670039713382,0.12539251255840062,0.548578469645977
1746482519780444400,6.7184443359375,-0.8732856400638819,0.12342618092149496,0.5783563527941703
1746482519790423300,6.72842333984375,-0.7965911074399947,0.04506429960727691,0.5296294390261173
1746482519800401200,6.738401123046875,-0.6684329295605421,0.04859481182098389,0.38712183327674865
1746482519810380300,6.74838037109375,-0.5183867449998856,0.048369478632509705,0.21703823833763597
1746482519820358400,6.7583583984375,-0.3654997840553522,0.02589227388650179,0.09615501989722251
1746482519830337300,6.768337158203125,-0.23547931943535802,-0.023054127851128578,0.12310440162122249
1746482519840315400,6.7783154296875,-0.09708967039883136,-0.036757951293885704,0.1747264523088932
1746482519850294300,6.788294189453125,0.09880173501372337,-0.013304302731156348,0.21494857258200645
1746482519860272400,6.7982724609375,0.1977975312948227,-0.029573592747747898,0.2710930691301823
1746482519870251500,6.80825146484375,0.12264029124081134,-0.06060615213215351,0.31285949623584747
1746482519880229000,6.81822900390625,0.020565818166732787,-0.0181983583830297,0.31678572976887226
1746482519890208300,6.828208251953125,-0.1051315225571394,0.028176147039979695,0.3630675884723663
1746482519900187100,6.838187255859375,-0.2829243766993284,0.0177919695392251,0.39492870763540266
1746482519910165200,6.848165283203125,-0.35858781270980833,0.012174275787919759,0.33221827670037746
1746482519920144400,6.858144287109375,-0.3377940310060978,0.038748102197796105,0.26204350123405457
1746482519930122500,6.86812255859375,-0.31391397372484203,0.05802753381580114,0.19675474424362183
1746482519940101400,6.878101318359375,-0.37628012126684185,0.046961657661199564,0.1617693555802107
1746482519950079500,6.88807958984375,-0.35889234861433505,0.09090250619649887,0.15519932954013346
1746482519960058000,6.89805810546875,-0.28432138401567936,0.13638736930340528,0.16561667865812776
1746482519970036200,6.9080361328125,-0.1841775867432356,0.14081249226927756,0.23624679667651652
1746482519980015400,6.918015380859375,-0.18893968657851218,0.06859525118991733,0.30259762994050976
1746482519989993200,6.9279931640625,-0.20203005429804324,0.004267448186129332,0.29863340248465536
1746482519999972400,6.937972412109375,-0.14456453827917576,0.010242723203450441,0.30221944427788255
1746482520009950500,6.947950439453125,-0.14045593391656874,-0.052343642960488795,0.31154578328877686
1746482520019929300,6.957929443359375,-0.10100888966917991,-0.048464609570056195,0.32274463817328214
1746482520029907200,6.9679072265625,-0.04297404932975769,-0.003555646654963493,0.3096037093102932
1746482520039886300,6.97788623046875,-0.05626315449178219,-0.020011691415309906,0.32545039000064135
1746482520049864200,6.9878642578125,-0.004354103556275368,-0.0469416377864778,0.36243455126583574
1746482520059843300,6.99784326171875,0.05319675265848636,-0.12082242816388607,0.3803890178903937
1746482520069822200,7.007822265625,0.10297229869663714,-0.14132745605409144,0.3207800601020455
1746482520079800300,7.01780029296875,-0.0034779052436351775,-0.11272095477283,0.16134849981963634
1746482520089779500,7.027779541015625,-0.2074386353433132,-0.1277349840313196,-0.02361380756050348
1746482520099757300,7.03775732421875,-0.37798517161905765,-0.13940291773229838,-0.17612199832051992
1746482520109736400,7.047736328125,-0.6670832685172557,-0.16409633722305297,-0.23664193347394466
1746482520119714300,7.05771435546875,-0.9140262312531471,-0.1220377953030169,-0.5597767400085926
1746482520129693200,7.067693115234375,-1.0122919596940279,-0.06785758456513286,-0.9192313986808061
1746482520139671300,7.07767138671875,-0.9034569064438343,0.026413521281629798,-0.6830038912266493
1746482520149650400,7.087650390625,-0.1896750151157379,0.5765145243197679,-0.4507110928729176
1746482520159628300,7.097628173828125,0.678222502169013,0.37024566340819,0.3799339675992727
1746482520169607400,7.107607421875,0.577943095818162,-0.1954632431283593,0.8187418567106127
1746482520179585300,7.117585205078125,0.5170592957884073,-0.12159136670976876,0.6409384811744093
1746482520189564200,7.127564208984375,0.40546062304377556,0.15289982042610645,0.4529588717997074
1746482520199542300,7.137542236328125,0.31630583729743955,0.33708018364831804,0.42266339451819657
1746482520209521400,7.147521484375,0.29316987638175485,0.32117768111750483,0.593480272167921
1746482520219500300,7.157500244140625,0.21353578317463398,0.25408698927164075,0.8102104674696922
1746482520229478400,7.167478515625,0.08719605289399623,0.2392873334161937,1.012095852600038
1746482520239457300,7.177457275390625,-0.058522331595420835,0.2450315761566162,1.0952835466355084
1746482520249435400,7.187435302734375,-0.05205225879848003,0.20264774780496952,1.046555463823676
1746482520259414500,7.19741455078125,-0.01338964292705059,0.12299334246218203,0.8347939968451857
1746482520269392100,7.20739208984375,-0.0014998831689357758,0.006232026257365942,0.560158432802558
1746482520279371300,7.217371337890625,0.03240004834532738,-0.08658435073643922,0.318490780121088
1746482520289349400,7.227349365234375,0.08496610188484191,-0.11361483487263321,0.10005787255465984
1746482520299328300,7.237328369140625,0.14953355886340142,-0.15561784721314906,-0.007570142993330955
1746482520309306400,7.247306396484375,0.19414017783105372,-0.12865049144104124,0.0010188216537237167
1746482520319285500,7.257285400390625,0.19726152472198008,-0.10502382439896464,0.09581512041836976
1746482520329263000,7.26726318359375,0.1613841556549072,-0.07484700506106018,0.19823387688547373
1746482520339242200,7.2772421875,0.1427981131285429,-0.024638766694068906,0.2743924029365182
1746482520349220400,7.287220458984375,0.04673135603666305,0.006037964989989995,0.3322814050644636
1746482520359199200,7.29719921875,-0.18295476695001126,-0.00029971359893679616,0.3204734783709049
1746482520369178400,7.307178466796875,-0.38540392344295976,0.04424202343896031,0.2819979095041752
1746482520379156200,7.31715625,-0.5654769974768161,0.07410480839163064,0.24398762006163596
1746482520389135400,7.32713525390625,-0.6921200946182012,0.05900149341449141,0.18367782052755355
1746482520399113500,7.337113525390625,-0.7274889296412468,0.021240648688375947,0.12244856806099415
1746482520409092400,7.34709228515625,-0.6519418134868145,-0.028127485592663287,0.048206981547176835
1746482520419070200,7.3570703125,-0.5090957695633173,0.005805033016949891,0.06045359191894531
1746482520429049300,7.36704931640625,-0.34313656107783314,0.02087941416054964,0.17243395745754242
1746482520439027200,7.377027099609375,-0.22184008566141128,-0.013626958814263342,0.26189152554273604
1746482520449006300,7.38700634765625,-0.16182371611595153,-0.007946867351233958,0.3048033232912421
1746482520458984400,7.396984375,-0.1256301207065582,0.07233195350021124,0.32047055576145644
1746482520468963300,7.40696337890625,-0.17186930931210517,0.13167086217552423,0.3683782621011138
1746482520478941400,7.41694140625,-0.17365151655375957,0.09644275079742073,0.3457663250595331
1746482520488920300,7.42692041015625,-0.13371522748470305,0.0603407791942358,0.3157876586422324
1746482520498898200,7.436898193359375,-0.09128244542479515,-0.01594634167253971,0.32820144227445125
1746482520508877300,7.446877197265625,-0.011534954971075057,-0.04378258923366666,0.359541460172832
1746482520518855400,7.45685546875,0.08352993160188198,-0.07175473813414573,0.4184226882085204
1746482520528834300,7.466834228515625,0.13513269306719303,-0.11066855228766799,0.4765110123008489
1746482520538812200,7.476812255859375,0.0670551821410656,-0.12044658058881759,0.45457273673713205
1746482520548791300,7.486791259765625,-0.08127016997635364,-0.08168269629999994,0.42088206405937667
1746482520558770200,7.496770263671875,-0.17576514770686624,-0.0024241584070026872,0.39038521898686884
1746482520568748300,7.506748291015625,-0.25017536878585817,0.048125440743565555,0.3501221821814775
1746482520578727200,7.51672705078125,-0.24638766694068906,0.01477013750001788,0.2816609326347709
1746482520588705300,7.526705322265625,-0.18978256714344025,0.020177987892925738,0.28292262313365935
1746482520598684400,7.536684326171875,-0.11059855579137802,0.021335487364977597,0.30642800188362596
1746482520608662000,7.546662109375,-0.07999415869116783,0.02590411045476794,0.31435558001250025
1746482520618641200,7.55664111328125,-0.09541326161921024,0.018515169247239827,0.3063455842971802
1746482520628619300,7.566619384765625,-0.13609306253194808,0.0284874049462378,0.2681304199323058
1746482520638598100,7.57659814453125,-0.10669394956827163,0.08645546365976334,0.1763245351552963
1746482520648576300,7.586576171875,-0.07764847234785556,0.09916662280336022,0.11895575750917195
1746482520658555400,7.596555419921875,-0.16706044772565365,0.09034881783649325,0.11622983967661857
1746482520668533200,7.606533203125,-0.2694359495729208,0.1273265493609011,0.21353286056518553
1746482520678512400,7.616512451171875,-0.3508160096645355,0.192874249548465,0.28737083471417424
1746482520688490200,7.626490234375,-0.35098435196876526,0.17720862451344727,0.3201806329041719
1746482520698469000,7.63646923828125,-0.3049661126375198,0.10539645710363983,0.23063275618702173
1746482520708448300,7.6464482421875,-0.17984861762821674,0.051126668386161325,0.12952712814509867
1746482520718426000,7.656426025390625,-0.06071604224741459,0.07023468896001576,0.10537848305553198
1746482520728405200,7.6664052734375,0.039386253970861436,0.07105053538754583,0.10697539685815573
1746482520738383400,7.67638330078125,0.13170154957473276,0.051977293866127726,0.1353235394641757
1746482520748362200,7.6863623046875,0.12946283073723316,-0.003217208480834961,0.14424129767417906
1746482520758340400,7.69634033203125,0.016414543706178664,-0.028244828362017867,0.11520400376021861
1746482520768319200,7.7063193359375,-0.024397359153628347,0.041150194903463125,0.08472995504140854
1746482520778297000,7.716297119140625,-0.13531447937488555,0.015098784932494162,0.1075295236095786
1746482520788276200,7.726276123046875,-0.2026028857499361,-0.03921951910182833,0.14327625203430652
1746482520798254300,7.73625439453125,-0.27294483447670936,-0.04728738248422742,0.2199959190994501
1746482520808233200,7.746233154296875,-0.23388825085163115,0.01604761008992791,0.2732458632498979
1746482520818211300,7.75621142578125,-0.23644845672845838,0.07647446013242006,0.39145138691365716
1746482520828190200,7.766190185546875,-0.3436170380711555,0.1621044327534735,0.43146044895797964
1746482520838168000,7.77616796875,-0.4207657442033291,0.21205840409845111,0.420534565795958
1746482520848147200,7.786147216796875,-0.48487142888903617,0.23452011901438236,0.3566907469168305
1746482520858125300,7.796125244140625,-0.50696460275352,0.24609409082159397,0.25864362966269255
1746482520868104200,7.806104248046875,-0.4639607428073883,0.21241759279966352,0.14693214419335127
1746482520878082300,7.816082275390625,-0.2825309934675693,0.12033639821261166,0.06113222183287143
1746482520888061200,7.826061279296875,-0.1380786833912134,0.03448664536103606,0.0933797099649906
1746482520898040300,7.836040283203125,0.01182546235024929,0.01457198457941413,0.1227986966729164
1746482520908018400,7.846018310546875,0.15669570557773113,0.06778101219758391,0.15635843644738195
1746482520917997300,7.855997314453125,0.19960195036828518,0.06498363656401634,0.21845599618107078
1746482520927975200,7.86597509765625,0.25799042645096776,0.0374924030482769,0.31338264332711696
1746482520937954300,7.875954345703125,0.23396365417540071,-0.026532763747125862,0.35242373712211844
1746482520947932200,7.88593212890625,0.19350304897129533,-0.05672405000180006,0.37198242407292126
1746482520957911300,7.895911376953125,0.12207038239836693,-0.10845160689055919,0.3167971279457211
1746482520967889400,7.905889404296875,0.03234218067824841,-0.1521697525858879,0.29180092611610886
1746482520977868300,7.915868408203125,-0.04773614916503429,-0.15617387366071342,0.3523831128507852
1746482520987846100,7.92584619140625,-0.15333236662447453,-0.1255792673021555,0.46275545867085455
1746482520997825000,7.935824951171875,-0.23697394190728663,-0.09063041125684976,0.556346181038022
1746482521007803100,7.94580322265625,-0.3330406989991665,-0.04902472767084837,0.6796002202630043
1746482521017782300,7.9557822265625,-0.3612649229645729,0.04854147419854998,0.7668594015210867
1746482521027760400,7.965760498046875,-0.3917331264644861,0.049210021109879015,0.8575637547969818
1746482521037739300,7.9757392578125,-0.3239998989313841,0.02392258124873042,0.8313461944788694
1746482521047717400,7.98571728515625,-0.4089034569740295,0.007431611305475235,0.7205515315935015
1746482521057696300,7.9956962890625,-0.41521921599209305,-0.04978540984503924,0.5032932207643985
1746482521067675400,8.00567529296875,-0.2484171269416809,-0.13080891158394514,0.31582652934789657
1746482521077653200,8.0156533203125,-0.10827449675798416,-0.1574389982257038,0.18983751220107078
1746482521087632100,8.025632080078125,0.09705050743222236,-0.1545081324055791,0.11814794825762509
1746482521097610200,8.0356103515625,0.33471418516933915,-0.15747443486526608,0.11224193908423184
1746482521107589000,8.045589111328125,0.4334048610240221,-0.18687099054567516,0.18345657899230716
1746482521117567200,8.055567138671876,0.37264731772243975,-0.19200557695515452,0.30903029333651066
1746482521127546400,8.06554638671875,0.2641191384643316,-0.14968487696759403,0.39001872376203534
1746482521137524200,8.075524169921875,0.07295359252989292,-0.07692644168362021,0.45924978863745924
1746482521147503000,8.085503173828124,-0.13100363043844698,-0.03462978015877306,0.5031979436963796
1746482521157481200,8.095481201171875,-0.3286433408230543,-0.036128275088220835,0.40792146019935605
1746482521167460000,8.105460205078124,-0.3566325869888067,0.025543679644539952,0.2285106494665146
1746482521177438200,8.115438232421875,-0.3597048340409994,0.056887570000439876,0.1707888205990195
1746482521187417300,8.125417236328126,-0.3054191171020269,0.15574059680998326,0.1846092561587691
1746482521197395200,8.135395263671874,-0.2054261264771223,0.15047617347575723,0.2864931750968098
1746482521207374300,8.145374267578125,-0.17063713716864584,0.0505297254063189,0.5204626744911074
1746482521217352200,8.155352294921874,-0.17189911992847917,0.06068184771686792,0.6582587415486574
1746482521227331000,8.1653310546875,-0.1089215624898672,0.1447154179919511,0.7060840303018688
1746482521237309200,8.17530908203125,-0.08302432016730309,0.15388547046259043,0.7222790860384702
1746482521247288300,8.185288330078125,-0.0036076691031455992,0.13867036567404867,0.6735238229587673
1746482521257267200,8.19526708984375,0.08557108204066753,0.15843275850340724,0.5290165678247809
1746482521267245300,8.205245361328124,0.12298632819950579,0.09551489536277949,0.2906546786904335
1746482521277224200,8.21522412109375,0.26555180161595343,0.010843684771284461,0.02959346649199724
1746482521287202300,8.225202392578124,0.40482700131535526,-0.12228073721341788,-0.22088994532972572
1746482521297181200,8.23518115234375,0.4526747941613197,-0.21770437409617005,-0.4877598438069224
1746482521307159300,8.2451591796875,0.28138357699811456,-0.3007690262738615,-0.7241852119207381
1746482521317138200,8.25513818359375,-0.05736614729762077,-0.25298998781517146,-0.8367135667309165
1746482521327116300,8.2651162109375,-0.44887364831268783,-0.10306969465650617,-0.7954086196571588
1746482521337095200,8.27509521484375,-0.8132698550403118,0.11905571075230836,-0.6057961483836174
1746482521347073300,8.2850732421875,-0.913748583355546,0.36475028086230155,-0.19605068762749434
1746482521357052400,8.295052490234376,-0.7696160067528486,0.5039622060671448,0.2249059029728174
1746482521367030000,8.305030029296875,-0.5230839629054069,0.48092707517743105,0.544357929341495
1746482521377009200,8.315009033203125,-0.25331191324591634,0.36319479504860935,0.7808607466056943
1746482521386987300,8.3249873046875,-0.08227028692960739,0.2874883966792375,0.8827923040777444
1746482521396966100,8.334966064453125,-0.004114449581503868,0.17833185638971627,0.8261728834941983
1746482521406944300,8.3449443359375,0.019247136783599853,0.0855289964646101,0.6662310356020927
1746482521416923400,8.35492333984375,-0.11242109504342078,-0.061245911340415474,0.4628510279998183
1746482521426901200,8.3649013671875,-0.20218261451125144,-0.07586063908301294,0.22849077572226523
1746482521436880400,8.37488037109375,-0.23235271184742448,-0.05253953085877001,-0.00039630584120750427
1746482521446858200,8.384858154296875,-0.16049918951392173,-0.05505728583335876,-0.09846768075376748
1746482521456837000,8.394837158203124,0.013581950628757476,-0.04181457709632814,-0.1815253186687827
1746482521466815200,8.404815185546875,0.23164368679523467,-0.2633643015090376,-0.019609832616150378
1746482521476794400,8.41479443359375,0.5064817876726389,-0.11969167056828736,-0.060199032635986804
1746482521486773200,8.424773193359375,0.5056313083231448,0.3089052056521177,-0.2203814112856984
1746482521496751400,8.43475146484375,0.2779670465528965,0.2676939282111823,-0.0307671864464879
1746482521506730200,8.444730224609375,0.07112754614651202,0.0706561292424798,0.1951072692975402
1746482521516708000,8.4547080078125,-0.09955459920763969,-0.03590221124738455,0.451514225949347
1746482521526687000,8.46468701171875,-0.15148235484361647,-0.08856536848582326,0.6819891612261534
1746482521536664800,8.474664794921875,-0.14932780715823174,-0.13049239298067986,0.8226587378934025
1746482521546643700,8.484643798828126,-0.20487141520380972,-0.17108743821941316,0.9242474732771515
1746482521556621800,8.494621826171874,-0.16431319484412668,0.0029605303060263395,0.9814496621847152
1746482521566600700,8.5046005859375,-0.3711708154290914,0.16344021140187978,0.9517556579276919
1746482521576578800,8.514578857421874,-0.8600959036231041,0.12625723962895571,0.8468228728130459
1746482521586558000,8.524557861328125,-1.2470914801716804,0.09910714770108461,0.5535960055470466
1746482521596535800,8.534535888671876,-0.9798767137795686,0.07518756212703884,0.014227847316861152
1746482521606515000,8.544514892578125,-0.37128830432891846,0.02353277821354568,-0.41949908526837826
1746482521616492800,8.554492919921875,0.3098959702551365,-0.08848105120323597,-0.4871332363411784
1746482521626471700,8.5644716796875,0.797722741818428,-0.12280256913043558,-0.31435937940478326
1746482521636449800,8.57444970703125,0.8892676375716924,-0.061261181974783536,-0.14458675011098385
1746482521646429000,8.584428955078126,0.5834563062816858,0.08380670271664857,-0.04553367068469524
1746482521656406800,8.59440673828125,0.03561491873860359,0.2810675698515028,0.2588660402417183
1746482521666386000,8.604385986328126,-0.4746393732100725,0.3447083404392004,0.7196054829150438
1746482521676364000,8.614364013671874,-0.6514584138840437,0.22833704646527767,0.9485375726640224
1746482521686342700,8.6243427734375,-0.9456927046269178,0.2543435943812132,0.8234034187808632
1746482521696321800,8.63432177734375,-1.0138350974828003,0.15427520043253898,0.47417935448288917
1746482521706300000,8.6442998046875,-0.7633230440884828,-0.16034860206209123,0.11225538308769464
1746482521716278800,8.65427880859375,-0.5772580361634493,-0.12611308191791176,0.0731634358882904
1746482521726257000,8.6642568359375,-0.559718287819624,0.1577420728255063,0.30141075824350116
1746482521736235800,8.67423583984375,-0.28237726421058174,-0.23911285363212226,0.5955638004437088
