time,seconds_elapsed,z,y,x
1746482437798555400,0.012555419921875,0.4327981273025274,0.029317864421010014,0.7312181792974471
1746482437808534300,0.0225341796875,0.33456045591235156,0.09713350954055786,0.7400216634780168
1746482437818513400,0.032513427734375,0.10852701021432876,0.09809329448342323,0.5800865375876426
1746482437828492300,0.0424921875,-0.18049860596954823,0.12850363031625747,0.24931086091101168
1746482437838471400,0.052471435546875,-0.5634124661624431,0.16514613853693008,-0.0814157159268856
1746482437848451300,0.062451416015625,-0.7269377254992723,0.11518880619108676,-0.16714461887776852
1746482437858430500,0.072430419921875,-0.7118404018715023,-0.12400047367811202,-0.022325813576579093
1746482437868409300,0.082409423828125,-0.5405895167186856,-0.25735212854743,0.08718553149998187
1746482437878388500,0.092388427734375,-0.2396741407766938,-0.23560148451030252,0.12897007878422737
1746482437888368400,0.102368408203125,0.10431085382401943,-0.27725042271614075,0.2643120306879282
1746482437898347300,0.11234716796875,0.3716951315641403,-0.3890273746371269,0.4684083698660135
1746482437908326400,0.122326416015625,0.5395075667008757,-0.47183951335847374,0.6466156500279903
1746482437918305300,0.13230517578125,0.6160282040625811,-0.5613812525957822,0.7384837863862515
1746482437928285400,0.142285400390625,0.5731371568411588,-0.604211509540677,0.6903145065009594
1746482437938264300,0.152264404296875,0.46829526488035916,-0.5972504383563995,0.5629232213407754
1746482437948243500,0.162243408203125,0.3444540734171867,-0.5829974565982818,0.4955430450290441
1746482437958222300,0.172222412109375,0.25086393557190895,-0.6387941626220941,0.5291121371537447
1746482437968201500,0.182201416015625,0.18542904810905456,-0.6783207018464803,0.6386877796381711
1746482437978181400,0.192181396484375,0.19398995570540428,-0.649784927713871,0.6502209810435772
1746482437988160300,0.20216015625,0.28967326643764973,-0.5744616834431886,0.58730889005661
1746482437998139400,0.212139404296875,0.4011722782000899,-0.5111334128707647,0.49954935806095596
1746482438008118300,0.2221181640625,0.44955841570645566,-0.45512627896666524,0.39826632762551306
1746482438018098400,0.232098388671875,0.47530280555486676,-0.37189737613797186,0.30594927845597264
1746482438028077300,0.242077392578125,0.5566524705082178,-0.29105273809731,0.23981354924738404
1746482438038056400,0.252056396484375,0.6030658466368913,-0.1732365060120821,0.16518588602542877
1746482438048035300,0.262035400390625,0.6018289983183145,-0.05870119529366493,0.13133680791556834
1746482438058014500,0.272014404296875,0.6186293264716863,0.08825754464566707,0.2076169145196676
1746482438067994400,0.281994384765625,0.6574205371588469,0.21856442499160766,0.3231798147201538
1746482438077973200,0.29197314453125,0.643725481544435,0.30029987439215183,0.3977127853959799
1746482438087952400,0.301952392578125,0.5578314511597157,0.36124855635166164,0.42605975895822046
1746482438097931300,0.31193115234375,0.4261532824605703,0.39378070664405823,0.42369829052388663
1746482438107911400,0.321911376953125,0.28716829787939785,0.4962497319936752,0.3565829026281833
1746482438117890300,0.331890380859375,0.06390694724321365,0.6232289292216301,0.057099020794034
1746482438127869400,0.341869384765625,-0.24907763667702673,0.7042085918188095,-0.23260405625998973
1746482438137848300,0.351848388671875,-0.5679352042838931,0.7375152336150408,-0.43899172124564645
1746482438147828200,0.361828125,-0.8600149473413825,0.6643599810332059,-0.5907786119937897
1746482438157807400,0.371807373046875,-0.9822861130088567,0.5604109462589025,-0.6228121651142835
1746482438167786200,0.3817861328125,-0.9752687815926968,0.5096896438032389,-0.6974409973800182
1746482438177765400,0.391765380859375,-0.8595946761026978,0.533043046861887,-0.7943301767706871
1746482438187744300,0.401744140625,-0.7546703665554523,0.5258610264033079,-0.7793173165559768
1746482438197724400,0.411724365234375,-0.6348357803851365,0.39562604224979875,-0.6974228772014379
1746482438207703300,0.421703369140625,-0.5877499118223786,0.22053426375985144,-0.6626900019943713
1746482438217682400,0.431682373046875,-0.6146298815719783,0.011973930910229682,-0.6450748503267765
1746482438227661300,0.441661376953125,-0.6359994173370301,-0.10942951201200485,-0.6462333727121353
1746482438237641200,0.45164111328125,-0.7057336094290018,-0.17639350873827933,-0.7381617148250341
1746482438247620400,0.461620361328125,-0.8303975154519081,-0.2774211031079292,-0.9658926120907068
1746482438257599200,0.47159912109375,-0.9487958582740277,-0.33722119955420493,-1.2942635657131671
1746482438267578400,0.481578369140625,-1.1159236721474677,-0.33299627533555026,-1.5869021116971969
1746482438277557200,0.49155712890625,-1.2981973980307577,-0.406511593401432,-1.8032570439457893
1746482438287537400,0.501537353515625,-1.4541858321219683,-0.6107476333111524,-1.8991250635951755
1746482438297516300,0.511516357421875,-1.5079647685825823,-0.7944464966267347,-1.8258616744637488
1746482438307495400,0.521495361328125,-1.5713836400479078,-0.9821002350479364,-1.6747113280534742
1746482438317474300,0.531474365234375,-1.5606044718801975,-1.097626894891262,-1.6201748512238263
1746482438327454200,0.5414541015625,-1.4324661677449941,-1.1724030266731977,-1.5596329964995383
1746482438337433300,0.551433349609375,-1.2603729865491389,-1.2298188583314418,-1.5083710112959146
1746482438347412200,0.561412109375,-1.1372586480557918,-1.2952233506560324,-1.46697634011209
1746482438357391400,0.571391357421875,-1.0146563507378101,-1.3507599444389342,-1.4504595050752163
1746482438367370200,0.581370361328125,-0.8941419656097889,-1.4151380163252354,-1.5085013596773147
1746482438377350400,0.591350341796875,-0.8021136702537536,-1.437307762557268,-1.6392513076156376
1746482438387329300,0.601329345703125,-0.7272270638346672,-1.5046709877341984,-1.7285574845314025
1746482438397308400,0.611308349609375,-0.7013292369902133,-1.5496183829635382,-1.7731109120070934
1746482438407287300,0.621287353515625,-0.7144435701072216,-1.5227461581289767,-1.8154589383929967
1746482438417267200,0.63126708984375,-0.7260007369101047,-1.5146902774453161,-1.8064134621500967
1746482438427246300,0.641246337890625,-0.7452011119425296,-1.5344786814987659,-1.842200814846158
1746482438437225200,0.65122509765625,-0.7362883221685886,-1.520789178842306,-1.8613965137034654
1746482438447204400,0.661204345703125,-0.72058221899271,-1.529429581415653,-1.8486632888585328
1746482438457183500,0.67118359375,-0.7105272003810852,-1.5460948850125074,-1.887639792984724
1746482438467163400,0.681163330078125,-0.7195604747295379,-1.5615011284589766,-1.946778795173764
1746482438477142300,0.691142333984375,-0.7331237206578254,-1.6086428188621997,-2.005507462996244
1746482438487121400,0.701121337890625,-0.7238472852032631,-1.667124818447232,-2.049050252124667
1746482438497100300,0.711100341796875,-0.6684627401769161,-1.722249324297905,-2.079166573446989
1746482438507080200,0.721080078125,-0.632270240746066,-1.7722873206645249,-2.104914178165793
1746482438517059300,0.731059326171875,-0.5871265192270279,-1.8071902917414902,-2.1242536694079637
1746482438527038200,0.7410380859375,-0.5738952817320824,-1.8656155927032232,-2.122231808191538
1746482438537017300,0.751017333984375,-0.6345627355974167,-1.9061849189788103,-2.125276582714915
1746482438546997500,0.76099755859375,-0.7102396886765956,-1.908743955811858,-2.122359818485379
1746482438556976400,0.770976318359375,-0.8205366311728954,-1.8697686207294464,-2.1323633261054753
1746482438566955300,0.780955322265625,-1.0051428185917437,-1.797019026339054,-2.058379221484065
1746482438576934400,0.790934326171875,-1.232272681224346,-1.7714163830488918,-1.9201649290144442
1746482438586913300,0.800913330078125,-1.4704814256235956,-1.8135212483286856,-1.759547081556916
1746482438596893400,0.8108935546875,-1.7034357566259801,-1.8390163395911454,-1.5819102947592734
1746482438606872300,0.820872314453125,-1.901622579499334,-1.8731798904776573,-1.4762562096327543
1746482438616851500,0.8308515625,-1.964239048540592,-1.9978163239717481,-1.4723516034096478
1746482438626830300,0.840830322265625,-1.98479551435709,-2.0902730738729236,-1.5320190133869647
1746482438636810500,0.850810546875,-1.9693293574169277,-2.072437557452917,-1.6626976496547459
1746482438646789600,0.86078955078125,-1.9179099896945058,-1.9311925189852714,-1.852426440784335
1746482438656768300,0.870768310546875,-1.915585930661112,-1.7967068916499613,-2.053219062241912
1746482438666747400,0.880747314453125,-1.9489492710806429,-1.6607307334959507,-2.219407403308153
1746482438676726300,0.890726318359375,-1.9850645405568181,-1.5143167679578065,-2.3708447499662637
1746482438686706400,0.90070654296875,-2.024060333905369,-1.3560259021431207,-2.480882749265432
1746482438696685300,0.910685302734375,-2.0125592812038957,-1.2129238376319407,-2.510616793271899
1746482438706664400,0.92066455078125,-1.922263654859364,-1.0778712240636348,-2.531350369220972
1746482438716643300,0.930643310546875,-1.8335776556685566,-0.9684224228292703,-2.5818022070854902
1746482438726623500,0.94062353515625,-1.790567219851166,-0.9756985513120889,-2.779968571692705
1746482438736602600,0.9506025390625,-1.8559131138563154,-1.0514970118790865,-3.1339164496421814
1746482438746581200,0.960581298828125,-2.0182041552230716,-1.1870768641918896,-3.4330081172883506
1746482438756560400,0.970560302734375,-2.2707503447934982,-1.40699796448946,-3.5523540431588887
1746482438766539300,0.980539306640625,-2.5052292550146578,-1.562119552618265,-3.5786990292489524
1746482438776519400,0.99051953125,-2.6983494421482086,-1.6493956850111484,-3.4961411575496193
1746482438786498600,1.00049853515625,-2.9129040469765664,-1.6751181552886962,-3.2426071259856224
1746482438796477400,1.0104775390625,-3.1690169891178606,-1.6161287907034159,-2.8740742578446863
1746482438806456300,1.020456298828125,-3.451599420511722,-1.4310592235565185,-2.389423778229952
1746482438816436500,1.0304365234375,-3.850793384376168,-1.2612386634677648,-1.7998019350558518
1746482438826415600,1.04041552734375,-4.300761257666349,-1.1811813764125108,-1.1000503226459026
1746482438836394500,1.05039453125,-4.589293829636276,-1.093279805597663,-0.36494390373826024
1746482438846373400,1.060373291015625,-4.732140458081663,-1.0732856498390435,0.5143056131660938
1746482438856352300,1.070352294921875,-4.688972347484529,-1.1301660594463347,1.3783423633694647
1746482438866332400,1.08033251953125,-4.2859082641884685,-1.0801654724806546,2.0705846230626106
1746482438876311600,1.0903115234375,-3.660087564907968,-0.9894827465146779,2.4491437951773403
1746482438886290400,1.10029052734375,-3.1348870482400057,-1.3447855462044476,2.5874247231423855
1746482438896269300,1.110269287109375,-2.9792323761478063,-1.8459452620714902,2.544485745126009
1746482438906248400,1.12024853515625,-3.1659765985086556,-2.2220798373878,1.9550579632192848
1746482438916228600,1.130228515625,-3.4949846809908744,-2.5191806234776974,0.9241676860392093
1746482438926207500,1.14020751953125,-3.8767102081820366,-3.1494314141601323,0.1419441266477108
1746482438936186600,1.1501865234375,-4.166400718015432,-4.028421403345465,-0.462366751614213
1746482438946165200,1.160165283203125,-4.313296621851623,-4.657252974879741,-0.8985825784057379
1746482438956145400,1.1701455078125,-4.57899952237606,-4.956842655175924,-0.8412433191150427
1746482438966124500,1.18012451171875,-5.03551462535262,-5.054359026554226,-0.3794266025990248
1746482438976103400,1.190103515625,-5.595269738051295,-4.978676885843277,0.19698855299949644
1746482438986082300,1.200082275390625,-6.354470149251818,-4.682865847302973,0.6883031666785479
1746482438996061400,1.2100615234375,-6.799972859826684,-4.368305100107193,1.1943728664189577
1746482439006041600,1.22004150390625,-6.639184331977367,-3.996084775625169,1.4399176527947186
1746482439016020500,1.2300205078125,-6.166524734407663,-3.7387741481319066,1.5369325043916702
1746482439025999600,1.23999951171875,-5.813067270323634,-3.583364975233376,1.916416974657774
1746482439035978200,1.249978271484375,-5.993031038764118,-3.42680838586539,2.4675159026920794
1746482439045958400,1.25995849609375,-6.7036746320664875,-3.3640514854401347,3.6504666268646715
1746482439055937500,1.2699375,-7.508716756987571,-3.3544998132407664,5.54932397943437
1746482439065916400,1.27991650390625,-7.535982365053892,-2.865460743278265,8.780513639348746
1746482439075895600,1.2898955078125,-6.950776000234484,-1.4577312496438621,12.36989422160983
1746482439085874400,1.29987451171875,-6.910542189523578,0.1657722345460206,16.17414855765104
1746482439095854600,1.3098544921875,-7.213135143288969,1.7495915047317743,19.001046053779124
1746482439105833500,1.31983349609375,-7.089948908603191,3.0544141661211848,19.274698159742353
1746482439115812600,1.3298125,-6.274274915030598,4.086142063169181,17.61647034897804
1746482439125791500,1.33979150390625,-5.181325948822498,6.188032217338681,15.483463464272022
1746482439135770400,1.349770263671875,-4.620454399314522,9.785122643324732,13.393752115935087
1746482439145750500,1.35975048828125,-4.761339956820011,13.756143997102974,11.298092672848702
1746482439155729400,1.3697294921875,-5.378431406199931,16.72298421692848,9.384495431786775
1746482439165708500,1.37970849609375,-5.933666995647549,17.542704855543374,8.00768217768073
1746482439175687400,1.3896875,-5.9611178971529,16.002472140562535,5.471848525565862
1746482439185667600,1.39966748046875,-6.003047990387678,14.373007482945917,1.576903572513163
1746482439195646500,1.409646484375,-1.6718886718481778,13.382729202139377,-3.5289264058202505
1746482439205625600,1.41962548828125,-0.26356267362534996,12.618381491178273,-6.113509768056869
1746482439215604500,1.4296044921875,49.25388129439354,24.522895750832557,-18.213958103221653
1746482439225583400,1.439583251953125,75.07024449212551,12.960788568937778,-28.106807546293734
1746482439235563500,1.4495634765625,85.61821320967674,14.018548732864856,-13.492138840407133
1746482439245542400,1.45954248046875,52.00381830043792,21.753800455331803,-10.712289511179923
1746482439255521500,1.469521484375,-43.95715903410911,6.400741486561298,-30.076870770943163
1746482439265500700,1.479500732421875,-57.38233621587753,-8.36354436481893,-6.336931569951773
1746482439275480600,1.48948046875,6.851236014074087,0.014076310016959906,31.4329241456151
1746482439285459500,1.49945947265625,54.220914504194255,2.0953752193175257,34.73100006084442
1746482439295438600,1.5094384765625,50.78349558472633,-6.3123752208441495,12.559710691022872
1746482439305417500,1.51941748046875,22.410896582841872,-3.399641269737482,2.2873054660141467
1746482439315396600,1.529396728515625,0.6147919402658939,0.8339210134029388,-0.3992117917820811
1746482439325376500,1.53937646484375,-1.119850417137146,3.4279040721476077,-0.9265959360994398
1746482439335355600,1.549355712890625,-0.7104267356812953,3.832238613770902,-0.7716030889168382
1746482439345334500,1.55933447265625,-11.10672722042799,4.436804928098619,-4.183844897030293
1746482439355313700,1.569313720703125,-21.393604038381575,6.339231079065799,-4.826069326362013
1746482439365292500,1.57929248046875,-19.88171011365652,3.969146499817073,-3.4803672498345373
1746482439375272400,1.5892724609375,-7.5393942193239925,-1.0510027986213564,-3.3192809080824253
1746482439385251600,1.59925146484375,1.6918763978660105,-3.857395851381123,1.6314068777255712
1746482439395230500,1.60923046875,4.622195690023899,-5.532317899575829,7.475227744361757
1746482439405209600,1.619209716796875,7.248331544354557,-4.427608937469125,6.7352949282109735
1746482439415188500,1.6291884765625,5.912616608834266,-3.6065909525200723,3.9018373429149387
1746482439425168600,1.639168701171875,3.360726140409708,-3.51261795283705,0.9358372271753848
1746482439435147500,1.6491474609375,0.16449088949859142,-2.682756443957984,-1.759574115694314
1746482439445127000,1.659126953125,-1.8923878642946481,-1.959320150708407,-2.5955986772477626
1746482439455106000,1.66910595703125,-0.6415934379518031,-0.0214509304381907,-2.594674548140168
1746482439465086000,1.6790859375,-0.5336836828529834,3.4240547032430766,-2.580836576923728
1746482439475065000,1.689065185546875,-0.7657739443719387,5.819146882498264,-2.120322613569349
1746482439485044000,1.6990439453125,0.9942997914075851,7.2837325280815355,-1.1520996588349341
1746482439495023000,1.709023193359375,0.6463485235244035,7.089754847335815,2.315334898059815
1746482439505002000,1.719001953125,-0.24093758484125136,3.430111811324954,4.93415268446207
1746482439514982000,1.72898193359375,-1.156633795133233,1.4273076159380376,3.0174744285196065
1746482439524961000,1.7389609375,2.234325570976734,1.0546636592164635,2.5718644581779837
1746482439534940000,1.74893994140625,4.643173011600971,0.42276597810983657,2.8821941436752674
1746482439544919000,1.7589189453125,4.064925379878282,0.07364946583956479,2.8203517277464267
1746482439554898000,1.76889794921875,2.3015175312399863,-0.11532529205232858,2.5081957036048173
1746482439564878000,1.778878173828125,0.24311142174899578,-0.294596402053535,2.1414982341974973
1746482439574857000,1.78885693359375,-1.7482453508198261,0.38893998861461876,1.420650496136397
1746482439584836000,1.798836181640625,-3.875853591352701,0.26436215343996883,0.4203371435277164
1746482439594815000,1.80881494140625,-4.909411041915416,-0.5822726494550705,-0.6902095848217606
1746482439604794000,1.818794189453125,-2.258425408488512,-0.8359780920632183,-0.6127788468778133
1746482439614774000,1.82877392578125,0.6730220109164714,-1.7741152667440474,-0.6657545041315257
1746482439624753000,1.8387529296875,2.6545184837281703,-1.5871601781114935,-1.2132934015966952
1746482439634732000,1.84873193359375,3.2270003915309906,-0.862305980888009,-1.0675935756772756
1746482439644711000,1.8587109375,3.3550831660866733,-0.048137861833721395,-0.10550663947984576
1746482439654691000,1.868691162109375,2.933117398443818,0.6714648446023463,1.1498910428747533
1746482439664670000,1.878669921875,2.55399474722743,1.5307871335044503,2.3955790859892963
1746482439674649000,1.888649169921875,3.2784687129616734,2.8348955091446637,3.47527080347836
1746482439684628000,1.8986279296875,2.770648954683542,4.287589349143206,5.157533569824695
1746482439694607000,1.908607177734375,1.4329998362302778,5.878956915816664,7.08864425574541
1746482439704587000,1.9185869140625,0.4103559938699007,7.811175270718335,7.796903584259748
1746482439714566000,1.92856591796875,-0.6990379111826419,9.029135933473706,7.144052254712581
1746482439724545000,1.938544921875,-1.558068815922737,11.027898598384857,6.017212124818563
1746482439734524000,1.94852392578125,-3.084332626783848,12.538017914652823,4.076889373916387
1746482439744503000,1.9585029296875,-4.361592450726032,12.79638477320075,2.3059598976016042
1746482439754483000,1.96848291015625,-5.470214202362299,12.605410950446128,-0.21587445525527
1746482439764462000,1.978462158203125,-6.95857878293991,11.291298190402983,-3.647312546747923
1746482439774441000,1.98844091796875,-8.201849828040599,8.445931556126475,-6.853417449766397
1746482439784420000,1.998420166015625,-8.441046706694364,4.518115722346305,-9.054415336158872
1746482439794399000,2.00839892578125,-7.89050541254282,0.38817842965759336,-10.226100569951534
1746482439804379000,2.01837890625,-5.7817924266159535,-4.239089229868352,-12.243220144808292
1746482439814358000,2.02835791015625,-0.8252209895968436,-5.938789160966873,-12.235420284712314
1746482439824337000,2.0383369140625,7.332654672160745,-8.504040630745887,-11.708998701816796
1746482439834316000,2.04831591796875,14.03903505605459,-10.060646972900628,-9.570009820091723
1746482439844295000,2.058294921875,10.63086911907792,-12.090025140827894,-7.54605776886642
1746482439854275000,2.068275146484375,0.8117933527469634,-12.894321415817737,-6.096288584142923
1746482439864254000,2.07825390625,-4.801316577899455,-14.124051426821946,-3.235253840613365
1746482439874233000,2.088233154296875,-4.93396680650115,-11.982152795130014,1.9310535489059983
1746482439884212000,2.0982119140625,-2.5075439616978166,-7.450705882045626,6.187465815627575
1746482439894191900,2.10819189453125,-0.9992904393017291,-2.6238053655564784,5.528098820576071
1746482439904171000,2.1181708984375,-1.6969535549998283,1.3645683972999452,2.1590524494580925
1746482439914150000,2.12814990234375,-1.918411947867274,1.6769763503760098,-0.14238514841347932
1746482439924129000,2.13812890625,-0.4600993912041187,1.0160251548729837,-0.4801650047637522
1746482439934108000,2.14810791015625,2.022705266034603,0.308293941885978,0.3835745160587132
1746482439944088000,2.158088134765625,3.883995396754145,-0.060560705555230375,0.9751932321384549
1746482439954067000,2.16806689453125,3.569069031116366,0.12865268339812755,0.5374265226431191
1746482439964046000,2.178046142578125,1.5221207197070121,0.6377575130507349,0.24734277570843696
1746482439974025000,2.18802490234375,0.3458604330837726,0.5946358719438314,-0.31583339748010036
1746482439984004000,2.198004150390625,0.5506394938290119,0.6218281225129961,-0.2524300158448517
1746482439993984000,2.20798388671875,1.2390016972184181,0.8110092166319489,-0.1302186175405979
1746482440003963000,2.217962890625,0.9946914210736751,0.9991193205185234,0.3028849224492907
1746482440013942000,2.22794189453125,0.48875265423655506,0.4517383900940418,0.04327478584200144
1746482440023921000,2.2379208984375,-0.024037878191471098,-0.04337751556411385,0.116567547198385
1746482440033900000,2.247900146484375,-0.2269154892295599,-0.2527010878711939,0.3480116197682917
1746482440043880000,2.2578798828125,-0.4831178632199764,-0.4528833223454654,0.4025964657843113
1746482440053859000,2.267859130859375,-0.44880292116403575,-0.5046940274730325,0.285465293353796
1746482440063838000,2.277837890625,-0.3544868071317673,-0.5474665628813207,0.1018034010477364
1746482440073817000,2.287817138671875,-0.8021990104496478,-0.6512704900965094,-0.11088774799630045
1746482440083796000,2.2977958984375,-0.8237766360074281,-0.7402756382390856,-0.5805044707387685
1746482440093776000,2.30777587890625,-0.38231998595297334,-0.8889914509788155,-0.6464589981615543
1746482440103755000,2.317755126953125,0.25197335811853405,-0.8904540708772838,-0.6249053380012511
1746482440113734000,2.32773388671875,0.7199275544762611,-0.7411823778204619,-0.2102875950336456
1746482440123713000,2.337713134765625,0.8601590319871902,-0.6223965700507164,0.14001578893363475
1746482440133692000,2.34769189453125,0.507671289718151,-0.755508278684318,0.44508974585980177
1746482440143672000,2.357672119140625,-0.24180618436932563,-1.4651770356051623,0.5065989843115211
1746482440153651000,2.36765087890625,-0.44131870288848873,-2.2817788115471602,0.4911021399721503
1746482440163630000,2.377630126953125,-0.18585633361041545,-3.1127880291566252,0.477866810823977
1746482440173609000,2.38760888671875,-0.4088356524348259,-3.5439211458563804,0.8921998916313052
1746482440183588000,2.397588134765625,-0.17396774289608,-3.0226848566442728,1.478088101235032
1746482440193568000,2.407568115234375,-0.046961657661199564,-2.5175924775034186,1.894592680862546
1746482440203547000,2.417546875,-0.3842050690472126,-1.9439957403264938,1.9561402054980397
1746482440213526000,2.427526123046875,-0.5297814147174358,-1.2245033623971044,1.354272336474061
1746482440223505000,2.4375048828125,-0.052636780688166615,-0.36949659860655665,0.651894174952805
1746482440233485000,2.447485107421875,0.11915946338772773,0.4144885636299848,-0.11394202100038528
1746482440243464000,2.4574638671875,0.0162649061024189,1.3161651625283062,-1.0210828766539692
1746482440253443000,2.467443115234375,0.4192307897210121,1.83007914602831,-1.4827607692211866
1746482440263422000,2.477421875,0.994199253642559,1.9988440595842896,-1.4823001659721136
1746482440273401000,2.487401123046875,1.1433715779781342,2.165319839289784,-1.5530933655977248
1746482440283381000,2.497381103515625,0.6694459059953689,2.2258891665428875,-1.442966226710379
1746482440293359900,2.50735986328125,-0.02674655262827873,2.2340429546430705,-1.2005457098349928
1746482440303339000,2.517339111328125,-0.4425590583384037,2.141264571572095,-0.5564242147102951
1746482440313318000,2.52731787109375,-1.0712900921076536,1.6865686468467116,0.9084496001645922
1746482440323297000,2.537297119140625,-1.3595733654916287,1.0733778581671416,1.7132210914507506
1746482440333277000,2.54727685546875,-1.218350538855791,0.988458664163947,1.551746627163887
1746482440343256000,2.557256103515625,-1.0754507189184426,1.121249908671528,1.3142837326958774
1746482440353235000,2.56723486328125,-1.126473050147295,1.1375142302520573,0.9628218263432383
1746482440363214000,2.577214111328125,-1.2069582072257994,0.5433411535143852,0.42234044617414473
1746482440373193000,2.58719287109375,-1.0207727877914905,-0.04878916534930467,0.1793804155945778
1746482440383172900,2.5971728515625,-0.6611679069936275,-0.15167276284918188,0.4517816447138786
1746482440393152000,2.607152099609375,-0.034196868634223936,-0.01478431215584278,0.6616153585001826
1746482440403131100,2.617131103515625,0.47847909750342366,-0.07646291582509875,0.44068771150857206
1746482440413110000,2.627110107421875,0.5152420172333717,-0.26597572611644865,0.20626111599653957
1746482440423089200,2.637089111328125,0.6466472142100333,-0.20592150877863166,0.35039369259923697
1746482440433069000,2.647069091796875,0.4823959786862135,-0.1924225602582097,0.29320962387025357
1746482440443047400,2.65704736328125,0.30062545308470723,-0.11163564375415444,0.24132453833222386
1746482440453026600,2.667026611328125,0.3001426380038261,0.06281155322194099,0.3807859082534909
1746482440463005400,2.67700537109375,0.11992986323833466,0.11267346236929297,0.3203361157268286
1746482440472984600,2.686984619140625,-0.1898936263024807,0.018655162239819764,0.22800766838043926
1746482440482964500,2.696964599609375,-0.161494630292058,0.01061097199395299,0.3151040602922439
1746482440492943600,2.706943603515625,0.016504560077190398,-0.0637399201132357,0.5247358217656612
1746482440502922500,2.716922607421875,0.2985433861136436,-0.0459559877499938,0.4454048031583428
1746482440512901600,2.726901611328125,0.5535287855297327,-0.0191731947645545,0.32916502660959956
1746482440522880500,2.736880615234375,0.7362053200602531,-0.1145443708077073,0.27649843530505896
1746482440532860400,2.7468603515625,0.7407949859380721,-0.04777224339172244,0.1800137450620532
1746482440542839600,2.756839599609375,0.3290823167622089,-0.12715382314249873,0.2933697828680277
1746482440552818400,2.766818359375,0.1463748025715351,-0.03297054170966148,0.2771916782662272
1746482440562797600,2.776797607421875,0.1584393343746662,-0.13315642455816268,0.15901508843600748
1746482440572776400,2.7867763671875,-0.2508347094774246,-0.3411000868141651,0.12992811016142367
1746482440582756600,2.796756591796875,-0.46243747876286506,-0.17885858367756008,0.18081015613675117
1746482440592735500,2.806735595703125,-0.8551590317428112,-0.163324183806777,0.20574527542889118
1746482440602714600,2.816714599609375,-0.9927449631810188,-0.23343393121287226,0.07992021667212247
1746482440612693500,2.826693603515625,-0.6508885050415992,-0.20965017391294238,0.2451592941895127
1746482440622672600,2.836672607421875,-0.5037035551309585,-0.17190788775682447,0.5364554856538772
1746482440632652500,2.846652587890625,-0.36391397616863247,-0.18877119814381002,0.38324002340734004
1746482440642631400,2.85663134765625,-0.12148995216190814,-0.08094473741427063,0.24264701910763978
1746482440652610600,2.866610595703125,-0.3723620710402727,-0.02553980718702078,0.16468144363462925
1746482440662589400,2.87658935546875,-0.7102163078010082,-0.17119608622565866,0.14132891735881567
1746482440672568600,2.886568603515625,-0.5803215153872966,-0.242416279091686,0.20661504400074482
1746482440682548500,2.896548583984375,-0.0708323625922203,-0.11226692739501595,0.05103431392759084
1746482440692527600,2.906527587890625,-0.0765226831883192,-0.1873049249835312,-0.24537089111357926
1746482440702506500,2.916506591796875,-0.29048166021108623,-0.4451273013912141,-0.15037147099226714
1746482440712485600,2.926485595703125,-0.1571498790860176,-0.44238764729425306,0.1618456356868148
1746482440722464500,2.936464599609375,0.13284312082529068,-0.3427368942357599,0.09201952752768992
1746482440732444400,2.9464443359375,0.0024427169770002365,-0.17574892722442745,-0.16550620402097702
1746482440742423600,2.956423583984375,-0.1786643762797117,0.01769698473215103,-0.601139847010374
1746482440752402400,2.96640234375,-0.8738783452600241,0.15694076637998222,-0.8649626328766346
1746482440762381600,2.976381591796875,-1.9104723870396614,0.17495383132398126,-0.6497779134511947
1746482440772360400,2.9863603515625,-2.4934020390987395,0.1637874174043536,-0.2139364729300141
1746482440782340600,2.996340576171875,-2.3046236805617806,0.17359160306006668,0.19822510905712842
1746482440792319500,3.006319580078125,-1.2120832951545715,0.29977029756009577,0.13464432502835988
1746482440802298600,3.016298583984375,-0.7014414651930332,0.1346174370214343,-0.03007628157287836
1746482440812277500,3.026277587890625,-1.0975415546953677,-0.35148879435956476,-1.4988415509283541
1746482440822256600,3.036256591796875,-0.29004677592515943,-0.9480258237496018,-1.723506046360731
1746482440832236500,3.046236572265625,1.5002128392815588,-0.6166308461308478,1.0238798138961196
1746482440842215400,3.05621533203125,1.387985805505514,0.007529226461052894,2.012071059295535
1746482440852194600,3.066194580078125,1.0025298596143721,0.3035083150446415,1.951165631955862
1746482440862173400,3.07617333984375,1.0418319424331188,0.32166239589452744,1.5851383168950677
1746482440872152600,3.086152587890625,1.003326562950015,0.17898849366754294,1.1794441773563622
1746482440882132500,3.096132568359375,0.4467968420386314,0.06055617551058531,1.016584688451886
1746482440892111600,3.106111572265625,1.0204711744964121,-0.0010506780967116354,0.7638160883024334
1746482440902090500,3.116090576171875,1.2555483428716658,-0.03199818954616785,0.5107210326775908
1746482440912069600,3.126069580078125,1.3320026369988918,0.04226765462607145,0.32176907113939524
1746482440922048500,3.136048583984375,1.315713180977106,0.22938421743065118,0.6300654972434043
1746482440932028400,3.1460283203125,0.8308850067079067,0.384720909614861,0.8637503344774246
1746482440942007600,3.156007568359375,0.6128834762960672,0.0392044676631689,0.5580301886022091
1746482440951986400,3.165986328125,0.004586158746480941,-0.5121905207082629,0.3036252194225788
1746482440961965600,3.175965576171875,0.4499427388489246,-0.5185077410310507,0.43034050501734017
1746482440971944400,3.1859443359375,0.9195108001440763,-0.627809535010159,0.37187545656710863
1746482440981924600,3.195924560546875,0.8862696247994899,-0.5058998961314559,-0.13012071012407542
1746482440991903500,3.205903564453125,-0.08311316749453544,-0.45792321620881554,-0.3697077571392059
1746482441001882600,3.215882568359375,-0.768462745064497,-0.2807292047426104,-0.22350129687190054
1746482441011861500,3.225861572265625,-0.3383762148082256,-0.2774555898994207,0.12611819648444653
1746482441021840600,3.235840576171875,0.1235702655673027,-0.261292975127697,0.4577276936367154
1746482441031820500,3.245820556640625,0.35549803000092506,-0.13408406079709528,0.5683879164874553
1746482441041799400,3.25579931640625,0.07559329338371754,0.0019891279906034467,0.5917845741659402
1746482441051778600,3.265778564453125,-0.09456278226971626,0.14844897849708794,0.6144593473106622
1746482441061757400,3.27575732421875,-0.1962719291627407,0.5785343397095799,0.46892274912893767
1746482441071736600,3.285736572265625,-0.7994137636452913,0.5899488831713795,0.3349623147115111
1746482441081716500,3.295716552734375,-1.4082038331478832,0.5050143454685807,0.28607261159718034
1746482441091695600,3.305695556640625,-1.0093144051879643,0.4897054249167442,0.5307382770508527
1746482441101674500,3.315674560546875,-0.145882635140419,0.38048575626313685,0.7810092151656747
1746482441111653600,3.325653564453125,0.45519642159342766,0.22977760066241024,0.644268210119009
1746482441121632500,3.335632568359375,0.11469254710674286,-0.058901978562772274,0.5304752422004938
1746482441131612400,3.3456123046875,0.07446107448339462,-0.05240092610567808,0.4545771206513047
1746482441141591600,3.355591552734375,0.17066753230690956,-0.0867576614767313,0.3041916211336851
1746482441151570400,3.3655703125,-0.06793313401937484,-0.05545359167456627,-0.007924655519425868
1746482441161549600,3.375549560546875,-0.7326286306172609,-0.25493279244601724,-0.00978022025823593
1746482441171528700,3.38552880859375,-0.9665162969470024,-0.24481559531837702,0.12646189535558222
1746482441181508600,3.395508544921875,-0.9364490754634142,-0.3008411416620016,0.2423562194675207
1746482441191487500,3.405487548828125,-0.4603869759738445,-0.4978659350186586,0.22297405812740326
1746482441201466600,3.415466552734375,0.15399287635982037,-0.4123009904578328,0.14739567005187273
1746482441211445500,3.425445556640625,-0.09824994634985923,-0.27078093444108964,0.14675649536550045
1746482441221424600,3.435424560546875,-0.9474918630033731,-0.2395019990801811,0.015583645839989184
1746482441231403500,3.445403564453125,-1.0220505526423453,-0.07906067723333834,0.02649696178138256
1746482441241383700,3.4553837890625,-0.8474544487148523,-0.014870529134571552,0.170127726341784
1746482441251362600,3.465362548828125,-0.5030956523656844,-0.31441257089674474,0.22293168029040097
1746482441261341700,3.475341796875,0.4039806136190891,-0.5058420284643769,0.5491203214377165
1746482441271320600,3.485320556640625,1.3613304382920264,-0.3913233766198158,0.739719173400104
1746482441281299700,3.4952998046875,1.6456255188226698,-0.11562047560662031,0.8986099048040807
1746482441291279600,3.505279541015625,1.2060106972426174,0.2631874105721712,0.9375301486983895
1746482441301258500,3.515258544921875,0.008336451190710067,0.19039514608383176,0.6942848714366555
1746482441311237600,3.525237548828125,-0.8163608067929744,-0.014371931962668895,0.4118750201307237
1746482441321216500,3.535216552734375,-0.8498767074257135,-0.15957301457971335,0.4607859121635556
1746482441331195600,3.545195556640625,-0.28121815730333327,-0.2785267262622714,0.40835108378827567
1746482441341175600,3.555175537109375,0.20914368569552896,-0.27540830198079347,0.3572187163136899
1746482441351154700,3.56515478515625,0.27716625156402586,-0.10199614714086055,0.24659561060294508
1746482441361133600,3.575133544921875,-0.09152268392145634,-0.24694705438911912,0.01273717036768794
1746482441371112700,3.58511279296875,0.0020937574088573455,-0.0433285618558526,0.1729921758621931
1746482441381091600,3.595091552734375,0.6165478440225124,0.28623583933487534,0.02672755566686392
1746482441391071500,3.605071533203125,0.6253484055936336,0.24533859627917406,-0.5208535735048353
1746482441401050600,3.615050537109375,0.957229413163662,0.6742978760711849,-0.6320297830536962
1746482441411029500,3.625029541015625,1.015740054321289,0.7971905346378684,-0.642784547432512
1746482441421008600,3.635008544921875,0.8185504257917404,0.6550476705476641,-0.7611665967069566
1746482441430987500,3.644987548828125,1.11029406876266,0.7043009462773799,-0.9747394970215857
1746482441440967700,3.6549677734375,0.6888122852444648,0.9974718455724417,-1.1264219044819475
1746482441450946600,3.664946533203125,0.2871989852786064,0.9719152333810925,-1.3808888329818845
1746482441460925700,3.67492578125,0.3655670040726661,1.0172807078920305,-1.6294380618706346
1746482441470904600,3.684904541015625,0.6168821905434131,1.4492631348975002,-1.2327096113368867
1746482441480883700,3.6948837890625,0.884158331733942,2.2723268003299832,-0.26871808362714944
1746482441490863600,3.704863525390625,1.0558265655159949,2.731685310038924,-0.5233195982921868
1746482441500842500,3.714842529296875,0.529221442747116,3.1459780588358637,-1.3928323687538504
1746482441510821600,3.724821533203125,-0.2085200008392334,3.629378246128559,-1.0307722037583589
1746482441520800500,3.734800537109375,-0.5827262384414672,4.51495579701066,0.49235813138261436
1746482441530779600,3.744779541015625,-0.43442134459018705,5.367760959103703,2.8440640272453424
1746482441540759600,3.754759521484375,-0.11865151386559009,5.965575461083651,4.419015004386008
1746482441550738700,3.76473876953125,0.17425649670958518,6.446593137153982,5.21491082303822
1746482441560717600,3.774717529296875,0.08658639656305313,6.977309786894917,5.306715246510505
1746482441570696700,3.78469677734375,-0.8867980325877666,8.212284712815284,4.948747611525654
1746482441580675600,3.794675537109375,-1.864530135554075,8.531736446923016,5.669094268196821
1746482441590654700,3.80465478515625,-2.117548618811369,8.135694809609651,4.900576285813749
1746482441600634600,3.814634521484375,-1.3195055589973925,6.355486632817983,4.135759788297117
1746482441610613500,3.824613525390625,0.39834465355873105,4.715035886284709,2.8462261737152934
1746482441620592600,3.834592529296875,-0.44577392873167987,3.5715108713105317,0.7983114284265785
1746482441630571500,3.844571533203125,-1.4606658417910336,2.3537360865160823,-1.052862016621977
1746482441640550700,3.854550537109375,-0.25274960318803785,1.955106186275184,-1.6323470811851322
1746482441650530600,3.864530517578125,-0.37516952967643735,3.2567335587546227,-0.34255335436239837
1746482441660509700,3.874509765625,-1.1858277409136295,3.393826153717935,0.24348093091482295
1746482441670488600,3.884488525390625,2.622465056863427,2.1957544327810403,-0.8938133912425488
1746482441680467700,3.8944677734375,0.3545809151560068,1.992501558689773,-1.6570649044647812
1746482441690446600,3.904446533203125,0.006667056673765182,1.920637222701311,-0.7008743328295648
1746482441700426500,3.914426513671875,1.5117138919830322,1.542601343808323,-0.21894869333514944
1746482441710405600,3.924405517578125,2.2364403711736203,-0.22484065571688114,-2.359208672708273
1746482441720384500,3.934384521484375,-1.3188064708173275,0.6302855697348714,-3.3115596661806106
1746482441730363600,3.94436376953125,-2.495896778523922,-0.37270562378093597,-3.0894433939263224
1746482441740342500,3.954342529296875,-0.3051128276318312,0.40981063494682307,-1.8907500339597463
1746482441750322700,3.96432275390625,0.3885182560712099,1.4916889026947318,-0.6776188371874392
1746482441760301600,3.974301513671875,-1.7673679844409227,0.17850640923902392,-1.84622101027295
1746482441770280700,3.98428076171875,-2.815738973253965,-0.18554390666037796,-2.1077179835401476
1746482441780259600,3.994259521484375,-4.545843687227368,1.0945442725755274,-0.8170190515059977
1746482441790238700,4.00423876953125,0.749437726598978,0.37688553981408474,0.6329118265852332
1746482441800218600,4.014218505859375,4.781835632359981,-0.47197994474247096,0.7051908808544278
1746482441810197500,4.024197509765625,3.602176935470104,-0.936507235391438,0.48842597956545647
1746482441820176600,4.0341767578125,-2.2166437838137147,-0.8293418689191341,0.847025994169712
1746482441830155500,4.044155517578125,0.9113491209983825,-2.277204343238473,1.4089040903717278
1746482441840134700,4.054134765625,5.204812622871994,-1.7723180080637335,2.2135694909349084
1746482441850113500,4.064113525390625,4.543835854536295,-2.562152334719896,1.4651944251313804
1746482441860093700,4.07409375,1.4655010068625212,-3.3947485292598603,0.6484035563580691
1746482441870072600,4.084072509765625,-1.0588006128907204,-2.8873990188419816,1.3976286631196737
1746482441880051700,4.0940517578125,2.41911807474792,-3.0379411702260373,2.318941982641071
1746482441890030600,4.104030517578125,1.1410779140830039,-1.631063324984908,3.450340944883227
1746482441900009700,4.114009765625,-1.7623025177448988,-1.920842389884591,3.983832320034504
1746482441909989600,4.12398974609375,-5.06138497966826,-0.7862079528525471,3.579228313820064
1746482441919968500,4.133968505859375,-9.581763386249541,-0.516850913734734,2.8937536485657094
1746482441929947600,4.14394775390625,-1.93559630690217,-0.18259762407541275,1.3930883893415331
1746482441939926500,4.153926513671875,3.332519452100992,-0.30564532707333564,-0.4991878312721848
1746482441949905700,4.16390576171875,12.517850740414858,-2.9776579664379357,-2.4831983327314258
1746482441959885600,4.173885498046875,5.470314740127325,-3.125153297472,-0.1528197409272194
1746482441969864700,4.18386474609375,-6.093129243329167,-2.8141081571817397,0.18006869011968374
1746482441979843600,4.193843505859375,-1.971449126049876,-2.294177105349302,0.2727522345140576
1746482441989822700,4.20382275390625,5.496375648579001,-0.9789373871028423,0.3996533980697393
1746482441999801600,4.213801513671875,5.003625449138879,-1.3776578882366417,1.9897192344948649
1746482442009781500,4.223781494140625,3.740718560197949,-1.2095528998941183,1.200366261614859
1746482442019760600,4.2337607421875,7.454240485912561,-1.4057862506121397,-0.5759425696507096
1746482442029739500,4.243739501953125,11.376812573820352,-2.6562317173868415,-1.283845924334228
1746482442039718700,4.25371875,11.277875229728222,-3.480923714673519,-2.47686796066612
1746482442049697500,4.263697509765625,10.244487290513515,-4.058426665508747,-3.8707606521278617
1746482442059677700,4.273677734375,9.393987482753396,-4.217518910834193,-4.432657160769403
1746482442069656600,4.283656494140625,7.4658666262984275,-3.583275835645199,-4.358390439814329
1746482442079635700,4.2936357421875,5.400892244333028,-2.9788281792610882,-4.0998455943509935
1746482442089614600,4.303614501953125,3.66177128021121,-2.442801732674241,-3.9414331479832527
1746482442099593700,4.31359375,2.7824238558903334,-1.8174585877776144,-4.173432224087417
1746482442109572600,4.323572509765625,2.499268300783634,-1.5156068077683449,-5.028370598816871
1746482442119552500,4.333552490234375,2.3904405540570615,-1.6323510267078876,-6.188062027955055
1746482442129531600,4.34353173828125,2.2975360603883863,-1.7545763074070215,-7.6814231016457075
1746482442139510500,4.353510498046875,2.2451702055960894,-1.644222666287422,-9.062389968299865
1746482442149489700,4.36348974609375,1.9320434367261825,-1.5643775606781243,-10.212394700682163
1746482442159468500,4.373468505859375,1.2936775825187563,-1.6233447134315966,-10.792777006345986
1746482442169448700,4.38344873046875,0.5476746526740491,-1.605630193042755,-10.762511631941795
1746482442179427600,4.393427490234375,-0.19519421692863106,-1.4437731591790914,-10.573770682805776
1746482442189406700,4.40340673828125,-0.7650666728854179,-1.1997516368478536,-10.029396094590425
1746482442199385600,4.413385498046875,-1.0786870704911649,-0.5705810426175594,-8.85040375265479
1746482442209364700,4.42336474609375,-1.131933653640747,0.21938801633417604,-7.817067835888266
1746482442219344600,4.4333447265625,-1.207805763965845,0.925984964594245,-6.809392430078983
1746482442229323500,4.443323486328125,-1.3482102599561214,1.5767665021300314,-5.6941860393553965
1746482442239302700,4.453302734375,-1.3657470856904983,1.769180002298951,-4.756504207226634
1746482442249281500,4.463281494140625,-1.1849310843348502,2.330816690960526,-4.102608337062597
1746482442259260700,4.4732607421875,-0.854588538378477,3.1548867569565773,-3.576781212928891
1746482442269240600,4.483240478515625,-0.37516430551204827,3.7280262518852947,-3.071629212555289
1746482442279219700,4.4932197265625,0.19660970974974334,4.050349742037057,-2.776417601212859
1746482442289198600,4.503198486328125,0.7540654594648629,4.19745578149259,-2.7053829940468073
1746482442299177700,4.513177734375,1.3242711659640074,4.27433268494606,-2.7099387576550242
1746482442309156600,4.523156494140625,1.8367425494402645,4.267993545052409,-2.7725866447478533
1746482442319135700,4.5331357421875,2.2385060715317726,4.2616123195827,-2.7774475287824867
1746482442329115600,4.54311572265625,2.5880852328777313,4.285851273304224,-2.636775906288624
1746482442339094500,4.553094482421875,2.9969740768045185,4.293338998711109,-2.250405768162012
1746482442349073700,4.56307373046875,3.4766049746915697,4.270959993642569,-1.6296113726109265
1746482442359052500,4.573052490234375,3.9703541220411656,4.229984424653649,-0.9526467615485191
1746482442369031700,4.58303173828125,4.432115893499553,4.3359991597861045,-0.2887427075892687
1746482442379011600,4.593011474609375,4.743442773340642,4.482026756355166,0.36265608506202696
1746482442388990700,4.60299072265625,4.7493598884299395,4.446232389396429,0.9075590810656547
1746482442398969600,4.612969482421875,4.422208247469365,4.279397567120194,1.2636176675587891
1746482442408948700,4.62294873046875,4.115430993756652,4.180366115003824,1.6198387511372565
1746482442418927600,4.632927734375,3.9010862322866915,4.166633942249417,2.015685742661357
1746482442428907500,4.642907470703125,3.7749066610038278,4.092690754160285,2.4292343950927258
1746482442438886700,4.65288671875,3.718426064369082,3.903517258825898,2.7368969072073694
1746482442448865800,4.66286572265625,3.5896246201500293,3.615383038523793,2.916587703925371
1746482442458845000,4.672844970703125,3.366667805418372,3.270012434783578,3.064769848179817
1746482442468823800,4.68282373046875,3.0436893584892153,2.873912345281243,3.090534404033422
1746482442478804000,4.692803955078125,2.600177821731567,2.4835247882068154,3.130584674870968
1746482442488782800,4.702782958984375,2.1995359971463677,2.1474717556491494,3.29244463134408
1746482442498762000,4.712761962890625,1.8261136033982037,1.9057257770344613,3.5155806020349263
1746482442508740900,4.722740966796875,1.4429209262639284,1.7268875054925679,3.753389825722575
1746482442518720000,4.732719970703125,1.075851116412878,1.4958306786745785,3.9405683478474614
1746482442528699000,4.742698974609375,0.8556114516854285,1.2287541517093776,3.9492987667918205
1746482442538678800,4.7526787109375,0.7316647540211677,1.0449269858390091,3.955950041374564
1746482442548658000,4.762657958984375,0.7195628128170967,0.9405246543392538,3.9088410841971633
1746482442558636800,4.77263671875,0.6930068143248558,0.835584270440042,3.7531145159125328
1746482442568616000,4.782615966796875,0.6128232705414295,0.6570636865451932,3.5443010850846766
1746482442578594800,4.7925947265625,0.49226972244679923,0.5861573819339275,3.3947295322984457
1746482442588575000,4.802574951171875,0.4075917898535728,0.6536363424450159,3.376003204518556
1746482442598553900,4.812553955078125,0.3623182314097881,0.6271338277056813,3.3881869787871834
1746482442608533000,4.822532958984375,0.23192308825850486,0.5933528463959693,3.121040601456165
1746482442618512000,4.832511962890625,0.13913140731453894,0.41329964610636233,2.6967344081670044
1746482442628491000,4.842490966796875,0.16803835284709928,-0.26855741317272186,1.9018126952439545
1746482442638470000,4.852469970703125,0.34101007044315335,-0.9410480936914681,1.0902911451756954
1746482442648449800,4.86244970703125,0.35909810031950473,-1.3422384920701385,0.6745236476510763
1746482442658429000,4.872428955078125,0.2745429173231125,-1.649552921399474,0.5966308451533318
1746482442668407800,4.88240771484375,0.28203882603645325,-1.7362392712056636,0.3378171196207404
1746482442678387000,4.892386962890625,0.4129810816764831,-1.6875369073569773,0.04049479973465204
1746482442688365800,4.90236572265625,0.5554442637622357,-1.3661942449361084,-0.4091472026020288
1746482442698346000,4.912345947265625,0.4386895234286785,-1.126965217578411,-0.8164265655055641
1746482442708324900,4.922324951171875,0.24951427452862263,-1.0290426034867763,-0.9676768651589751
1746482442718304000,4.932303955078125,-0.10658581301867961,-0.9072229809790849,-1.1819424239128828
1746482442728283000,4.942282958984375,-0.5779425112962723,-0.6960866601616144,-1.19789344176054
1746482442738262000,4.952261962890625,-0.999891327804327,-0.49834290488064287,-0.9297393486917018
1746482442748242000,4.962241943359375,-1.2003268063873052,-0.33841713134050366,-0.5880372043311596
1746482442758220800,4.972220703125,-1.0649679033488035,-0.1420522631973028,-0.29126608858704567
1746482442768200000,4.982199951171875,-0.7196037293493748,-0.08713818522691726,-0.11574527103006839
1746482442778178800,4.9921787109375,-0.4223685032248497,-0.029091362188756464,-0.0923427681326866
1746482442788158000,5.002157958984375,-0.17713526701629162,0.14866203672587872,-0.23170915324687957
1746482442798136800,5.01213671875,-0.03397708840370178,0.2199453579559922,-0.6282333133801817
1746482442808117000,5.022116943359375,-0.049448213779926295,0.23876316341161727,-1.0875134971559046
1746482442818095900,5.032095947265625,-0.09105214380025863,0.3138897160664201,-1.3847785338968037
1746482442828075000,5.042074951171875,-0.14716624521017074,0.43682343729585404,-1.55924750431329
1746482442838054000,5.052053955078125,-0.19667057309150696,0.5645177970558405,-1.6393799024313687
1746482442848033000,5.062032958984375,-0.2484036829382181,0.6833484668806195,-1.6223980802312492
1746482442858013000,5.072012939453125,-0.19443477686345575,0.7041521854564547,-1.4520976276710629
1746482442867991800,5.08199169921875,-0.017584172007441518,0.7661711269959807,-1.2627464376822113
1746482442877971000,5.091970947265625,0.08800620023310184,0.9447226905509829,-1.0858917411729694
1746482442887949800,5.10194970703125,0.26619068404138085,1.0086185318782925,-0.9327548971205949
1746482442897929000,5.111928955078125,0.5917623623341322,0.9291343685358762,-0.909365545965731
1746482442907907800,5.121907958984375,0.855692700228095,0.8310095098704099,-1.0874877781927585
1746482442917888000,5.131887939453125,1.0886866325885056,0.767946027714014,-1.25771370421201
1746482442927867000,5.141866943359375,1.2845365369468926,0.6796946205481886,-1.3539543565660714
1746482442937846000,5.151845947265625,1.4506395378172396,0.5296256396338344,-1.3951955907538531
1746482442947825000,5.161824951171875,1.5977327177911995,0.30211159998923537,-1.4891390720814466
1746482442957804000,5.171803955078125,1.7327368160426615,0.08548837219327687,-1.5248685571104288
1746482442967784000,5.181783935546875,1.9008564174324274,-0.06971621804386377,-1.4516855397388337
1746482442977762800,5.1917626953125,2.085591638058424,-0.05377981324344873,-1.4580834240823983
1746482442987742000,5.201741943359375,2.221246309173107,-0.07677344307899475,-1.4252239415317773
1746482442997720800,5.211720947265625,2.1530799509197474,-0.18451982430964708,-1.3230503919973968
1746482443007700000,5.221699951171875,1.8799451468288897,-0.2841051109164953,-1.3358435303360223
1746482443017679000,5.23167919921875,1.327941963431239,-0.24034546416699884,-1.531364056609571
1746482443027659000,5.241658935546875,0.7005477312237024,-0.00009703063368797301,-1.75310565033257
1746482443037638000,5.251637939453125,0.11139759721457958,0.2892600094616413,-1.9292653503149746
1746482443047617000,5.261616943359375,-0.1819680940002203,0.541232198536396,-1.9955963098347187
1746482443057596000,5.271595947265625,-0.1797358049035072,0.8000906399935483,-1.9468951150298117
1746482443067575000,5.281574951171875,0.004252396747469901,1.0430071236923337,-1.7304875758111475
1746482443077555000,5.291554931640625,0.13418109143078327,1.1376086305372417,-1.4786860671281814
1746482443087533800,5.301533935546875,0.11210720678865908,1.240447219851613,-1.227651451164484
1746482443097513000,5.311512939453125,0.07641863829195499,1.4062493380792438,-0.9155474494710564
1746482443107492000,5.3214921875,0.14755027609169483,1.5249468830436468,-0.5013917710572481
1746482443117471000,5.331470947265625,0.2903057191222906,1.6000484473876655,-0.05741144774407148
1746482443127450000,5.3414501953125,0.5909101294189691,1.5858841668263077,0.21503040564656256
1746482443137430000,5.351429931640625,0.9621171852052212,1.4529653504163027,0.14128566273897886
1746482443147409000,5.361408935546875,1.1413690059840678,1.2828409850753844,-0.08691752821356058
1746482443157388000,5.371387939453125,1.2300842312693596,1.1571817844048142,-0.3965750135377049
1746482443167367000,5.381366943359375,1.1042261470258234,1.0855207159034908,-0.7303004799306392
1746482443177346000,5.391345947265625,0.9867769946873187,1.1301229509569704,-1.074892792774737
1746482443187326000,5.401325927734375,1.1734855612128972,1.1110165378183126,-1.1149325422182679
1746482443197305000,5.41130517578125,1.5391332293063402,1.1847160533446819,-0.9076227939516306
1746482443207284000,5.421283935546875,1.5077683692276478,1.627189698421955,-0.9178545573696494
1746482443217263000,5.43126318359375,1.362549166432023,1.6353183520808816,-0.738932114675641
1746482443227242000,5.441241943359375,1.5756570795834064,1.4142299615696072,-0.3506296933121979
1746482443237221000,5.45122119140625,2.243124378982186,1.5569200842790305,0.08468436233401298
1746482443247201000,5.461200927734375,4.218640023818612,1.554366454273462,0.17114260247275231
1746482443257180000,5.471179931640625,5.758204630279541,1.2749991855338214,1.1055392754510045
1746482443267159000,5.481158935546875,4.675212994462251,0.7895312520563602,2.1076360043451188
1746482443277138000,5.491137939453125,4.086090917503833,1.063698614065349,1.3083125493317842
1746482443287117000,5.501116943359375,4.251518211069703,1.4828522468969225,0.6992085915744304
1746482443297097000,5.511096923828125,3.9542642802447077,1.3980968651533126,0.7102320898920297
1746482443307076000,5.521076171875,3.4600083524167538,1.16807171947062,0.6345318290024995
1746482443317055000,5.531054931640625,3.252563287332654,1.2010627194464205,0.5878776298552751
1746482443327034000,5.5410341796875,3.0376380956262348,1.3479393340602517,0.5865057569801807
1746482443337013000,5.551012939453125,2.779910704025626,1.5118398564502595,0.5928676932275295
1746482443346992000,5.5609921875,2.5615309879511594,1.7332962034910917,0.5741856429807841
1746482443356972000,5.570971923828125,2.42165431522727,1.9406135505422948,0.6245404502116143
1746482443366951000,5.580950927734375,2.3293203149229287,2.084524593348801,0.6988457496114074
1746482443376930000,5.590929931640625,2.4169231950521466,2.1936901937276123,0.7184473989211022
1746482443386909000,5.600908935546875,2.72941736510694,2.2350579769045114,0.9051283467873931
1746482443396888000,5.61088818359375,3.2429981711298224,2.3117355583935977,1.0456485781118272
1746482443406867000,5.620866943359375,3.8374236151933667,2.2771295244365928,1.0217075844235717
1746482443416847000,5.63084716796875,4.448724206212162,2.0297429095864294,0.9749496326409279
1746482443426826000,5.640825927734375,4.8918414829552175,1.643903809596598,0.9460201830156147
1746482443436805000,5.65080517578125,5.140429874810576,1.2570900193557142,0.8720913157127798
1746482443446783200,5.660783203125,5.139667073744535,0.9413532141178845,0.8110219299830496
1746482443456762400,5.670762451171875,5.022915840542316,0.8895312569439411,0.7268230130784213
1746482443466742300,5.6807421875,4.8833197383254765,1.0739780160173773,0.5239562156952917
1746482443476721400,5.690721435546875,4.738483981889486,1.1841188911691307,0.40443654069304463
1746482443486700300,5.7007001953125,4.395543820166588,1.1051827170982955,0.2965700402140617
1746482443496679400,5.710679443359375,3.930373117047548,0.9600310265809296,0.0718868400812149
1746482443506658300,5.720658203125,3.418311483415961,1.064702238149941,-0.039970483599603174
1746482443516637400,5.730637451171875,3.117708242163062,1.206008066894114,0.016323358291387556
1746482443526617300,5.740617431640625,2.982649783375859,1.0210732320427893,-0.02967588407844305
1746482443536596200,5.75059619140625,2.8521102633178232,0.620355127350986,-0.20309329961538314
1746482443546575400,5.760575439453125,2.5337889945447443,0.3338064226746559,-0.3512818736106157
1746482443556554200,5.77055419921875,2.114415581482649,0.34027561868876216,-0.5966705926418304
1746482443566533400,5.780533447265625,1.6653694992125034,0.4103926726184785,-0.9901660526037216
1746482443576512300,5.79051220703125,1.0808177989095449,0.4010575657792389,-1.4634902515619992
1746482443586492400,5.800492431640625,0.40423195803165435,0.4291986415058374,-1.7890709899440407
1746482443596471300,5.81047119140625,-0.19212649992108344,0.5574387985803186,-2.027696498450637
1746482443606450400,5.820450439453125,-0.6398135687977076,0.6142001118525863,-2.088729643823206
1746482443616429300,5.83042919921875,-1.0316735365122556,0.5974241144228726,-1.9800594257459043
1746482443626408400,5.840408447265625,-1.3123738074213265,0.6355582494407892,-1.8354080859661102
1746482443636388400,5.850388427734375,-1.5793378139227627,0.701449356238544,-1.6881524089068174
1746482443646367200,5.8603671875,-1.8511662115901708,0.7314673317529261,-1.6076774809613823
1746482443656346400,5.870346435546875,-1.9961147807508706,0.7866041856285184,-1.5163067727312445
1746482443666325200,5.8803251953125,-2.0929776566565037,0.7765951981157064,-1.430179810373485
1746482443676304400,5.890304443359375,-2.1963825015515086,0.8004267400801182,-1.2927405939295886
1746482443686283300,5.900283203125,-2.0654203721672295,0.9849472950421273,-1.033785998621583
1746482443696263400,5.910263427734375,-1.7529577662944793,1.125543221951276,-0.647953328372538
1746482443706242300,5.9202421875,-1.339234341818094,1.1276002275463193,-0.23157792808264493
1746482443716221400,5.930221435546875,-0.8827712612897157,1.0278913145598023,0.16601473806500433
1746482443726200300,5.940200439453125,-0.35212124704420567,0.8867039976287633,0.508984418143332
1746482443736179500,5.950179443359375,0.14881635050475597,0.749209324670583,0.6552668662562966
1746482443746158300,5.960158447265625,0.5724626185804605,0.6318177477382123,0.6645479048207402
1746482443756138200,5.97013818359375,0.8571019825041294,0.5244521825186907,0.5186328287154436
1746482443766117400,5.980117431640625,1.0056564672023058,0.4068633294485509,0.32617081322968006
1746482443776096300,5.99009619140625,1.0865408527314662,0.2693435951143503,0.1511529767587781
1746482443786075400,6.000075439453125,1.132427574637532,0.08335194468647242,0.04865764792412519
1746482443796054300,6.01005419921875,1.2317436889141797,-0.07501359379962086,0.07156126138865947
1746482443806034400,6.020034423828125,1.4384464111983775,-0.1717588346749544,0.23514526517540216
1746482443816013300,6.030013427734375,1.6190987464249134,-0.23766396999806164,0.43531829342991113
1746482443825992400,6.039992431640625,1.8117594993531703,-0.41507337778061626,0.6239639654979109
1746482443835971300,6.049971435546875,2.127716377082467,-1.0706997249990702,0.5714855902418494
1746482443845950500,6.059950439453125,1.9143974515289066,-1.1766983857795597,0.4642930435016751
1746482443855929300,6.069929443359375,1.580301690518856,-1.16575935087502,0.2501885205283761
1746482443865909200,6.0799091796875,1.5303747533112764,-1.28462509201318,-0.20786475180089473
1746482443875888400,6.089888427734375,1.762141774225235,-1.2886506942674516,-0.7429422270998358
1746482443885867300,6.0998671875,2.144538332545757,-1.3664835832715034,-1.2776534994348883
1746482443895846400,6.109846435546875,2.908221442118287,-1.5007748570784925,-1.893863197544217
1746482443905825300,6.1198251953125,2.9970003802895544,-1.9818048081085085,-2.241205978140235
1746482443915804400,6.129804443359375,2.890716180565953,-2.428040216872096,-2.2862281921714542
1746482443925784300,6.139784423828125,2.4093425306648015,-2.760579980611801,-1.9725132481500505
1746482443935763500,6.149763427734375,1.879200465941429,-2.7054104665756222,-1.5118796039387583
1746482443945742300,6.159742431640625,1.1628940245717763,-2.5113307867601513,-1.217889643345773
1746482443955721500,6.169721435546875,0.1306944183588028,-2.393448211440444,-0.7331061850011348
1746482443965700400,6.179700439453125,-0.8342512682706117,-2.5558587875336407,-0.1593903514891863
1746482443975679500,6.189679443359375,-2.052376181676984,-2.655203543382883,-0.11270078876763581
1746482443985659400,6.199659423828125,-3.317543416765332,-2.275917810559273,-0.526989153650403
1746482443995638300,6.20963818359375,-4.307276338648796,-2.151234030792117,-0.9115168787807225
1746482444005617400,6.219617431640625,-3.875987446865439,-1.8123323308050632,-1.3554352427735923
1746482444015596300,6.22959619140625,-1.9657459459722042,-1.5596668987691402,-0.8067603270158171
1746482444025575400,6.239575439453125,-0.5625882902979851,-1.1318366230070591,-0.7767495118945836
1746482444035555300,6.249555419921875,0.4869067341089248,-0.42213878612220285,-1.4073527692764998
1746482444045534500,6.259534423828125,0.9069897567451,0.17342238397300241,-1.5047273940965533
1746482444055513300,6.269513427734375,0.8832312800168991,0.699492669212818,-0.9223469003528356
1746482444065492500,6.279492431640625,0.3222153536021709,1.0537912602961064,-0.5551058255881071
1746482444075471400,6.289471435546875,-1.7018202842533587,1.6659423306643961,-0.5048389889016747
1746482444085450500,6.299450439453125,-3.4800632984519004,2.7616525782793757,0.1179191079378128
1746482444095430400,6.309430419921875,-4.387826962178945,3.1700989391356704,1.1167460213810205
1746482444105409300,6.3194091796875,-4.9073582010388375,3.093668610405922,1.623952031674981
1746482444115388400,6.329388427734375,-5.088737096974254,2.839137384498119,1.9491665670931337
1746482444125367300,6.3393671875,-4.953226218244433,2.804270069256425,2.270338549122214
1746482444135346400,6.349346435546875,-4.454245015460253,3.0154747791349887,2.4232202493697406
1746482444145325300,6.3593251953125,-4.004169005620479,2.981549713179469,2.484680387982726
1746482444155305500,6.369305419921875,-3.840241595223546,2.6698639368981123,2.5821657797008752
1746482444165284400,6.379284423828125,-3.8731145217776297,2.486084409561753,2.6790461912631987
1746482444175263500,6.389263427734375,-4.113187598744035,2.4299551105827093,2.7001334029555317
1746482444185242400,6.399242431640625,-4.517959655001759,2.3639783713281153,2.721530411249399
1746482444195221500,6.409221435546875,-4.948669285592437,2.141565454214811,2.822251716148853
1746482444205200400,6.419200439453125,-5.329655392593145,1.7482815911769867,2.986837298193574
1746482444215180300,6.42918017578125,-5.670478416031599,1.1978712299287317,3.1846681472361085
1746482444225159400,6.439159423828125,-5.743800841873884,0.7437082430362701,3.1125521745741365
1746482444235138300,6.44913818359375,-5.565127697765827,0.5106155264765024,2.921854830673337
1746482444245117400,6.459117431640625,-5.083609086436033,0.5238403342306613,2.7033102794259785
1746482444255096300,6.469096435546875,-4.358410898080468,0.5330161588549613,2.5309856275618077
1746482444265076500,6.479076416015625,-3.5618455096036192,0.31896891902685165,2.4058622873336075
1746482444275055400,6.489055419921875,-2.842425320127606,0.13239070088267327,2.185478830221295
1746482444285034500,6.499034423828125,-2.1262106486946344,0.04011573728919029,1.9265677817940712
1746482444295013400,6.509013427734375,-1.4706561976686119,0.15194003548324106,1.703005694645643
1746482444304992500,6.518992431640625,-0.8996884938210249,0.48186464828848835,1.4879302808135748
1746482444314971400,6.528971435546875,-0.3746095577061176,0.7972615540474652,1.3308341777414083
1746482444324951300,6.538951416015625,0.16313099932223557,0.9732540807694197,1.169912378901243
1746482444334930400,6.548930419921875,0.7770169306591153,1.2603145343601703,0.9578846622020005
1746482444344909300,6.558909423828125,1.4574644154012202,1.540399888241291,0.8070014422953128
1746482444354888400,6.568888427734375,2.1371824168249964,1.495705006468296,0.6466548129945993
1746482444364867300,6.578867431640625,2.776607863087952,1.3766238690137862,0.327118323212862
1746482444374846500,6.588846435546875,3.2162200543195008,1.4525550160497427,-0.03657528820335865
1746482444384826400,6.598826416015625,3.491805466432869,1.5416349829941987,-0.46727322835624213
1746482444394805500,6.608805419921875,3.6661049255013465,1.6812585577398538,-1.0823702890485525
1746482444404784400,6.618784423828125,3.624534313228726,1.886526278784871,-1.7372838118225336
1746482444414763500,6.628763427734375,3.4335815332621333,1.7876111465245483,-2.364038577082753
1746482444424742400,6.638742431640625,3.052771659611165,1.3805816667288542,-3.070404054674506
1746482444434721300,6.64872119140625,2.491141108429432,1.1486112321972846,-3.817152396059036
1746482444444701000,6.658700927734375,1.752920941415429,1.085454226538539,-4.398218007811904
1746482444454680000,6.66868017578125,0.9585419570669531,0.9988947179824114,-4.87383996231854
1746482444464659000,6.678658935546875,0.14051000219136475,0.7901473381280899,-5.1571366794615985
1746482444474638000,6.68863818359375,-0.6558987344190478,0.5787970822989941,-5.126410117286444
1746482444484617000,6.698616943359375,-1.3820239744916558,0.35352351505756374,-4.847232525900006
1746482444494596000,6.70859619140625,-1.9911080585047602,0.2124976722985506,-4.409872205248475
1746482444504576000,6.718575927734375,-2.452915130409598,0.20877485238313673,-3.763849260416627
1746482444514555000,6.728554931640625,-2.8268352445468303,0.31470892349481583,-2.9977327862173317
1746482444524534000,6.738533935546875,-3.0707702576383946,0.5797697267234325,-2.217145303595066
1746482444534513000,6.748512939453125,-3.30857626645565,0.8205506596982478,-1.5090835434794425
1746482444544492000,6.758491943359375,-3.5767853045821187,0.9894956059962511,-0.9449486082613467
1746482444554471000,6.768470947265625,-3.986560283693671,1.1137246277332304,-0.5459153879165649
1746482444564451000,6.778451171875,-4.51027436119616,1.2466431518822907,-0.3557166411876678
1746482444574430000,6.788429931640625,-4.985687056866288,1.4534236155778169,-0.32895547551214693
1746482444584409000,6.7984091796875,-5.430574265891313,1.652529891383648,-0.2385048047363758
1746482444594388000,6.808387939453125,-5.805397174087166,1.7695143488198517,-0.05095394216775894
1746482444604367000,6.8183671875,-6.037122109425067,1.9371675017416476,0.16979484112560747
1746482444614346000,6.828345947265625,-6.120369132432341,2.1806331437557933,0.3853969091802835
1746482444624326000,6.838325927734375,-6.011371582096815,2.3890455925673244,0.48911096615493294
1746482444634305000,6.848304931640625,-5.730536871153116,2.45561620606184,0.5120312384933233
1746482444644284000,6.858283935546875,-5.261321861079335,2.5163433542251585,0.3163414931327104
1746482444654263000,6.868262939453125,-4.694072300972044,2.5517028368979693,-0.040407998234033585
1746482444664242000,6.878241943359375,-4.207365765610337,2.499391634902358,-0.38160979185700417
1746482444674222000,6.88822216796875,-3.7082384323537347,2.4179583833187817,-0.6439040529817343
1746482444684201000,6.898200927734375,-3.249509452719986,2.366017183679342,-1.0412468360215426
1746482444694180000,6.90818017578125,-2.741896322929859,2.4640771604150533,-1.7675392493546007
1746482444704159000,6.918158935546875,-2.5850001263439655,2.9796535241693256,-1.603836295363307
1746482444714138000,6.92813818359375,-2.462621408648789,3.6538697133064266,-0.9622036944448947
1746482444724117000,6.938116943359375,-1.3741554330736399,3.7460897318422792,-1.9202543608635663
1746482444734097000,6.948096923828125,-1.1216676956921816,3.7523259958833455,-1.8877315629214046
1746482444744076000,6.958075927734375,-0.6245739140897989,3.829737736865878,-1.617941393083334
1746482444754055000,6.968054931640625,0.0005932897180318832,3.7734605538487433,-1.3461433905541895
1746482444764034000,6.978033935546875,0.6439478921234607,3.691407709062099,-1.066348544052243
1746482444774013000,6.988012939453125,1.2641928370982407,3.4305630622237917,-0.8239204283922911
1746482444783992000,6.997991943359375,1.8400673099488019,2.9527643481999633,-0.5218009373575448
1746482444793971000,7.007970947265625,2.4170079507261515,2.527693015757203,-0.2237272145822644
1746482444803951000,7.017951171875,2.971232317304611,2.175122855901718,0.07123422139137983
1746482444813930000,7.027929931640625,3.398821770048141,1.7225369090676306,0.3651291971772909
1746482444823909000,7.0379091796875,3.6962574871808287,1.1908981760457158,0.5876181021362543
1746482444833887700,7.0478876953125,3.8834634818345304,0.6779109520018101,0.7621075308188796
1746482444843867000,7.057866943359375,3.943864466783404,0.26603140182644125,0.8872779250591993
1746482444853847000,7.067846923828125,3.821145849609375,-0.07250204937011002,0.891554871726036
1746482444863826000,7.077825927734375,3.6497786446005103,-0.2917620554104447,0.8364131224796175
1746482444873805000,7.08780517578125,3.4834295600146055,-0.4999088390231132,0.8390393793299794
1746482444883784000,7.097783935546875,3.276392491209507,-0.6638733665600418,0.8275526474148035
1746482444893762800,7.1077626953125,3.1320874806493517,-0.7936357647657394,0.8153457845315337
1746482444903742000,7.117741943359375,2.9106910471022127,-0.865467075267434,0.7417249602645635
1746482444913722000,7.12772216796875,2.645619722479582,-0.9212024064928293,0.6006473873183131
1746482444923701000,7.137700927734375,2.3361720805138346,-0.8826821217015385,0.5068763399481773
1746482444933679900,7.147679931640625,2.0606588568538426,-0.7887477004632353,0.4458998931989073
1746482444943658800,7.15765869140625,1.9124585924208164,-0.6888140388101339,0.5435471974804997
1746482444953638000,7.167637939453125,1.8630875355303287,-0.6496937422990798,0.6073404552161693
1746482444963616800,7.17761669921875,1.9197166007250546,-0.7324301854357123,0.5481023765668273
1746482444973596000,7.187595947265625,1.8265385508120058,-0.8589896959468721,0.431661232227087
1746482444983575800,7.197575927734375,1.5622826342254876,-0.9350374550998211,0.225333772996068
1746482444993555000,7.207554931640625,1.3024176460742949,-0.8919920940995216,0.06069646076411008
1746482445003533800,7.217533935546875,1.1267384230852127,-0.835136526672542,-0.056605099797248835
1746482445013513000,7.227512939453125,1.1084481486350297,-0.8198752446547151,-0.2627405435875058
1746482445023491800,7.237491943359375,1.2164824068963527,-0.8372662321776151,-0.46975978447496886
1746482445033471000,7.247470947265625,1.4023545225977896,-0.9010299715578556,-0.5866331827521324
1746482445043451000,7.257450927734375,1.6503075391590594,-0.9482909044265746,-0.6309013635456562
1746482445053429800,7.2674296875,1.9178572365939617,-0.9693895142957567,-0.5913336155280471
1746482445063409000,7.277408935546875,2.113808847761154,-1.0065314964711665,-0.4685851877376437
1746482445073387800,7.2873876953125,2.295454285678267,-1.0215095776334404,-0.2658195126414299
1746482445083367000,7.297366943359375,2.307642736122012,-0.9744210787221789,-0.09909341143667698
1746482445093345800,7.307345703125,2.197134196701646,-0.8484905137643217,-0.005576923349499702
1746482445103326000,7.317325927734375,1.9902029263585805,-0.7150815757498145,0.07512742943763732
1746482445113304800,7.327304931640625,1.784851618683338,-0.6166422443076968,0.12082213590294122
1746482445123284000,7.337283935546875,1.5777718797802924,-0.5152957932472229,0.19290742116570472
1746482445133262800,7.347262939453125,1.4435019410222767,-0.4191673690959811,0.2789399832382798
1746482445143242000,7.357241943359375,1.3917647395223378,-0.355246393327415,0.4087742776364088
1746482445153220900,7.367220947265625,1.444536544767022,-0.3316770094305277,0.5627443576425314
1746482445163200800,7.37720068359375,1.580471201866865,-0.3533390984013676,0.7063388818457722
1746482445173180000,7.387179931640625,1.8624486531049012,-0.4078273521751165,0.8786296314403415
1746482445183158800,7.39715869140625,2.1173142255336046,-0.530590393012762,0.9619520577713847
1746482445193138000,7.407137939453125,2.267760223066807,-0.6969967607438564,0.8616124456658959
1746482445203116800,7.41711669921875,2.3449451695561407,-0.8458502283886075,0.7020692417025566
1746482445213096000,7.427095947265625,2.463118544515967,-0.9506927048712969,0.5568316264674067
1746482445223075800,7.437075927734375,2.6631302447289227,-1.039412606331706,0.46483606433719393
1746482445233055000,7.447054931640625,2.9454724376261234,-1.0948849027067422,0.4541773076787591
1746482445243033900,7.457033935546875,3.3271547101974486,-1.1265069524168967,0.5286112018942832
1746482445253013000,7.467012939453125,3.7350872763127088,-1.2170055539876221,0.6984796927779913
1746482445262992000,7.476991943359375,4.222461043411493,-1.2785077781766652,0.8855907026246189
1746482445272971000,7.486970947265625,4.737929855138063,-1.3268597211524844,0.9631994274839758
1746482445282951000,7.496950927734375,5.267748094734549,-1.3115671672135591,0.8699389599844812
1746482445292929800,7.5069296875,5.7026516698837275,-1.320526718738675,0.6137649353057145
1746482445302909000,7.516908935546875,5.87818300883472,-1.270444006447494,0.3578746960043907
1746482445312887800,7.5268876953125,5.825885835364461,-1.07198684220016,-0.006114975748956203
1746482445322867000,7.536866943359375,5.3798892037928105,-0.8571654031291603,-0.38315059155821796
1746482445332845800,7.546845703125,4.469600990024209,-0.6629010143965482,-0.7458838335096836
1746482445342826000,7.556825927734375,3.127228934702277,-0.43287323836535213,-1.0898843179404736
1746482445352804900,7.566804931640625,1.4888070636481046,-0.07893500502705574,-1.3358023215427994
1746482445362784000,7.576783935546875,-0.36149697815477844,0.4686170441806316,-1.4780913161054252
1746482445372763000,7.586762939453125,-2.140561830130219,1.0043237572938204,-1.4814838811531663
1746482445382742000,7.596741943359375,-3.47114933963418,1.2967623967915773,-1.2647946023836731
1746482445392721000,7.606720947265625,-4.461458015578985,1.4459493341743945,-0.9790393861725926
1746482445402700000,7.616699951171875,-5.199707993209362,1.5675442080155013,-0.8058557793915271
1746482445412680000,7.626679931640625,-5.635398334822058,1.6033981962069868,-0.49960371859669683
1746482445422658800,7.636658935546875,-5.684560717397928,1.649086765192449,-0.11306816077530384
1746482445432638000,7.646637939453125,-5.336437015557289,1.699855998443067,0.3002963672608137
1746482445442616800,7.656616943359375,-4.569294120919704,1.694624527530372,0.6170291977986693
1746482445452597000,7.666596923828125,-3.5190625989317894,1.4883891304969787,0.8096969649896025
1746482445462575900,7.676575927734375,-2.4009014500558377,1.117616082213819,0.8361039103999733
1746482445472555800,7.6865556640625,-1.308883627218008,0.692739687821269,0.6789826728865503
1746482445482535000,7.696534912109375,-0.2935422168254852,0.27438217380344865,0.4541843219414353
1746482445492513800,7.706513671875,0.5377531242489815,0.03322071707844734,0.2854904277950525
1746482445502493000,7.716492919921875,1.0663456214427947,-0.04956190328747034,0.15360650739073753
1746482445512471800,7.726471923828125,1.3056956448316572,-0.14480156190544366,-0.0011783961296081542
1746482445522451000,7.736450927734375,1.2259107449769973,-0.21933687066882848,-0.12658639851808548
1746482445532430800,7.746430908203125,0.8950678482830524,-0.09981617275327444,-0.18117460553497075
1746482445542410000,7.756409912109375,0.42862230292260645,0.11845540677160024,-0.17403467065244912
1746482445552388900,7.766388916015625,-0.14339841710925103,0.3573874970093369,-0.0933668504834175
1746482445562368000,7.776367919921875,-0.7819809828072786,0.5647790783405303,-0.09271306274980307
1746482445572347000,7.786346923828125,-1.5337515362679957,0.7676631191194057,-0.1554372299492359
1746482445582326000,7.796325927734375,-2.2648604099720715,0.8763917893856763,-0.2090399330601096
1746482445592306000,7.806305908203125,-2.9004303498506543,0.8866992483884095,-0.3494236785233021
1746482445602284800,7.816284912109375,-3.4109529373466967,0.7745935029044747,-0.5978256078958512
1746482445612264000,7.826263916015625,-3.694606797364354,0.5639993261396885,-0.9959902287125587
1746482445622242800,7.836242919921875,-3.8250598081827163,0.2931739680349827,-1.413648362289369
1746482445632222000,7.846221923828125,-3.736955992794037,0.0944558147639036,-1.7439605131074785
1746482445642200800,7.856200927734375,-3.392060020828247,-0.04223930531442165,-1.8457678596779703
1746482445652181000,7.866180908203125,-2.744462374025583,-0.12031740125119686,-1.714345419305563
1746482445662160000,7.876159912109375,-1.9417016380399463,-0.21599574354737996,-1.3983034936413168
1746482445672139000,7.886138916015625,-1.2827841403216123,-0.25435002412199975,-1.0495397403314708
1746482445682118000,7.896117919921875,-0.8276362340450286,-0.22267390613704918,-0.7196653964087366
1746482445692097000,7.906096923828125,-0.5042436533570289,-0.07977876237481832,-0.36911855907440183
1746482445702076000,7.916075927734375,-0.3083341277658939,-0.028989363119006156,0.02227759052067995
1746482445712055000,7.926054931640625,-0.07476268777847289,0.0327148133829236,0.3399544239103794
1746482445722035000,7.936034912109375,0.2982832738727331,0.12331629080623388,0.5064475931420922
1746482445732013800,7.946013916015625,0.6414385396510363,0.10438245775550603,0.5147326064065099
1746482445741993000,7.955992919921875,0.919552301198244,-0.02446516369283199,0.5117480376377701
1746482445751971800,7.965971923828125,1.089986024749279,-0.16616262210309504,0.46470250108540057
1746482445761951000,7.975950927734375,1.1895149049937723,-0.2591287828311324,0.3461889343857765
1746482445771929900,7.985929931640625,1.159891920146346,-0.2792225995719433,0.19675503650456666
1746482445781910000,7.995909912109375,1.0016250197291374,-0.21733108380436897,0.03756254567503929
1746482445791889000,8.005888916015625,0.8248843049883842,-0.14446867668926716,-0.08344108427464962
1746482445801868000,8.015867919921876,0.6460241138756275,-0.0975645944342017,-0.18544190759062765
1746482445811847000,8.025846923828125,0.4980325237572193,-0.0770431999310851,-0.2793383349061012
1746482445821826000,8.035825927734376,0.308824541631341,-0.01818885990232229,-0.35419863784015176
1746482445831805000,8.045804931640625,0.17506722857058046,0.05576017340570688,-0.4638634199127555
1746482445841784800,8.055784912109376,0.18380466177761554,0.03918634748458862,-0.5119289471626282
1746482445851764000,8.065763916015625,0.2213900038063526,-0.2539110481828451,-0.43215047704875464
1746482445861742800,8.075742919921876,0.22855682669579983,-0.21377865201979873,-0.253801158067584
1746482445871722000,8.085721923828125,0.29994097795188424,0.19214958853572606,-0.023226854069530962
1746482445881701000,8.095701171875,0.3045633770555258,0.42468204086422917,0.21641016956716774
1746482445891680000,8.105679931640625,0.2992214315056801,0.2714820684477687,0.4060492365866899
1746482445901660000,8.115659912109376,0.02246609883010387,0.19091361699998377,0.4711836797982454
1746482445911639000,8.12563916015625,-0.11433014353513717,0.2963783170342445,0.3115866998210549
1746482445921618000,8.135617919921875,-0.14127952525913715,0.18806845670193434,0.15039397508502006
1746482445931597000,8.14559716796875,-0.08523264386653899,0.0023778350472450256,-0.005808978539705276
1746482445941576000,8.155575927734375,-0.05793780970573425,-0.16204437312930822,-0.2551774148568511
1746482445951555000,8.16555517578125,-0.19287468793988227,-0.19625965420305727,-0.5160223539561033
1746482445961534000,8.175533935546875,-0.3900643164694309,-0.12646803283542393,-0.7262623104557394
1746482445971514000,8.18551416015625,-0.7115478486657142,0.036789223214983936,-0.9273582987740635
