time,seconds_elapsed,z,y,x
1746483147453156400,0.02115625,1.354675072056055,0.30804537395238873,0.5845084456831217
1746483147463135200,0.03113525390625,0.9279659092783927,0.4674222814381122,0.4767649870619178
1746483147473113000,0.041113037109375,0.6732628339350223,0.5225900419086218,0.522748155079782
1746483147483092000,0.051092041015625,0.6106780752062797,0.5188946945220232,0.7114934881299734
1746483147493071000,0.061071044921875,0.7350012049674988,0.42730654414892194,0.9421317972749471
1746483147503050000,0.071050048828125,1.0335200411617755,0.29001521174311634,1.153704171422124
1746483147513028000,0.081028076171875,1.4223381569623947,0.14207681311666964,1.316468383258581
1746483147523007200,0.09100732421875,1.8455255753546953,0.012667758393287657,1.4862760838657616
1746483147532986000,0.100986083984375,2.1851041516900063,-0.04818973815143108,1.5883710152059793
1746483147542964200,0.110964111328125,2.3944763854444027,-0.07492284677624703,1.5152210233211516
1746483147552943000,0.120943115234375,2.4018957217901944,-0.03548983105421066,1.3380845872610807
1746483147562922200,0.130922119140625,2.1088158617794512,0.09173486536741256,1.1683493673682213
1746483147572901400,0.1409013671875,1.6331424693465233,0.2677449277460575,0.995325627323985
1746483147582879000,0.15087890625,1.1454396164238452,0.41339784578382965,0.9039338763058185
1746483147592858000,0.160858154296875,0.7390753225386142,0.3951566711723804,0.9522516247510909
1746483147602837000,0.1708369140625,0.46966918358206744,0.17528116358220577,1.1079811156451702
1746483147612815000,0.180815185546875,0.373157897593081,0.027588264149427413,1.1340116289585829
1746483147622794200,0.190794189453125,0.43260318925231694,0.04393266522884369,1.0608739120334387
1746483147632773000,0.200773193359375,0.5322825838834047,-0.06226502525508403,1.0488029504895209
1746483147642752300,0.210752197265625,0.6589163286745547,-0.263564427191019,0.975220996928215
1746483147652730000,0.220730224609375,0.5881883032396436,-0.3817307878881693,0.8122638928681611
1746483147662709200,0.230709228515625,0.1460015853449702,-0.5483364775836468,0.5809820251226425
1746483147672688000,0.240688232421875,-0.4035141651511192,-0.802094381031394,0.42142391585111616
1746483147682666000,0.250666015625,-0.5298208699449897,-0.9367804993748664,0.4363140264689922
1746483147692645000,0.26064501953125,-0.09656462361142039,-0.8691612536102533,0.4510895707964897
1746483147702624000,0.2706240234375,0.7682127158261836,-0.8248550788938999,0.2633703659236431
1746483147712603100,0.28060302734375,1.5210909382678568,-0.8474041798323393,-0.17142565719783306
1746483147722581200,0.290581298828125,1.89209048878327,-0.9627548985868691,-0.7993944744229317
1746483147732560100,0.30056005859375,1.9663883355289697,-1.0972323426157236,-1.4556342773646116
1746483147742539300,0.310539306640625,1.7066279767960308,-1.2038701780825853,-1.8635627518266438
1746483147752517000,0.32051708984375,1.2298545141667128,-0.9629115504533052,-2.302435815128684
1746483147762496300,0.330496337890625,0.7899766577363013,-0.16821955463290214,-2.9293355418175455
1746483147772475100,0.34047509765625,0.20848027161704374,0.5521750328332186,-3.1777175974458456
1746483147782453000,0.350452880859375,-0.6327788478553295,0.9704729256182908,-3.111822106733918
1746483147792432000,0.36043212890625,-1.6325380737125872,1.2856675868034362,-3.0055905139803887
1746483147802411000,0.370410888671875,-2.711994521141052,1.5604548342764377,-2.9117618912041188
1746483147812390100,0.38039013671875,-3.751207805508375,1.7277414919734,-2.808136097034812
1746483147822368300,0.3903681640625,-4.667776706981659,1.7439730803281068,-2.633697814017534
1746483147832347100,0.40034716796875,-5.481706487235426,1.646964658471942,-2.3250030362457035
1746483147842326300,0.410326171875,-6.121723469650745,1.612228860655427,-1.949740567588806
1746483147852304100,0.42030419921875,-6.508616170346737,1.7082658071309327,-1.5209657044529914
1746483147862283300,0.430283203125,-6.6210980556666845,1.8793670546799897,-0.9947837755322456
1746483147872262100,0.44026220703125,-6.492751661738753,2.1077146225392815,-0.5035042331665754
1746483147882241300,0.4502412109375,-6.170491884472966,2.317570255896449,-0.033170448195934295
1746483147892219100,0.46021923828125,-5.725430487924814,2.420829554840922,0.4151654399782419
1746483147902198000,0.470197998046875,-5.257199228191375,2.4143594820439813,0.7895131318777799
1746483147912177200,0.48017724609375,-4.842434770229459,2.300750053998828,1.086759463918209
1746483147922155300,0.4901552734375,-4.47698408601284,2.1499983515173198,1.3386498199284076
1746483147932134100,0.500134033203125,-4.195974018502235,1.9834458533138035,1.4408224926799535
1746483147942113300,0.51011328125,-3.9829204658865924,1.8193670517474412,1.3756576543301342
1746483147952091100,0.520091064453125,-3.768272337555885,1.7446452805012465,1.2005682139277458
1746483147962070300,0.5300703125,-3.5392344493448733,1.6714105329424143,0.9752958157300948
1746483147972049200,0.540049072265625,-3.2600071735978124,1.6435434518516063,0.723307260042429
1746483147982028300,0.5500283203125,-2.9533997234940528,1.7209779891878365,0.38591713366210456
1746483147992006100,0.560006103515625,-2.5390017607569693,1.8307167132794855,0.09335106839239597
1746483148001985000,0.569985107421875,-2.0895278084635733,1.8565940818578004,-0.054829322296380996
1746483148011963600,0.579963623046875,-1.6365362034380435,1.8052192839294672,-0.10888473761081695
1746483148021941800,0.589941650390625,-1.1659721168428658,1.6906483173757791,-0.05951368072032928
1746483148031920600,0.599920654296875,-0.732173288065195,1.4433692545533179,0.08257190022468566
1746483148041899500,0.6098994140625,-0.32587504515349863,1.1027753636956215,0.3135807962477207
1746483148051878400,0.61987841796875,-0.012667173871397971,0.8308025891214609,0.4767693709760904
1746483148061856500,0.6298564453125,0.253567203181237,0.6748124014645814,0.4917968442380428
1746483148071835400,0.63983544921875,0.5005640880614519,0.6562474017262458,0.38201018935143943
1746483148081814500,0.649814453125,0.7690560347825288,0.8596966751724481,0.19250936175882816
1746483148091792600,0.659792724609375,1.067789536640793,1.1512655460983514,0.09730302088856696
1746483148101771500,0.669771484375,1.3801853608876467,1.1968535773187876,0.1421533854842186
1746483148111750700,0.679750732421875,1.8051938572272657,1.1437170304149389,0.2223918743252754
1746483148121729500,0.6897294921875,2.214371454967558,1.146989768475294,0.26812135984301566
1746483148131707600,0.699707763671875,2.5862200235277415,1.164931083357334,0.4212485592842102
1746483148141686500,0.7096865234375,2.938132303996384,1.1210901880651711,0.6495967116653919
1746483148151665400,0.71966552734375,3.2445404321357607,1.064575104638934,0.8321253621578216
1746483148161643500,0.7296435546875,3.492228952541947,1.132153433871269,0.8786194023072719
1746483148171622400,0.739622314453125,3.7078675532147285,1.332250474280119,0.7992442522972821
1746483148181601500,0.7496015625,3.924649478703737,1.435459504342079,0.750267747682333
1746483148191580400,0.759580322265625,4.159221912427246,1.4086942470133303,0.725334381955862
1746483148201558500,0.76955859375,4.411412420427799,1.4822440518707036,0.7399971135586499
1746483148211537700,0.77953759765625,4.69739150852263,1.6200351504921913,0.9203636175811291
1746483148221516500,0.7895166015625,4.974043965345621,1.6637591414064168,1.3293570909261703
1746483148231494700,0.79949462890625,5.220938997286558,1.5715794548809527,1.9189327568709849
1746483148241473800,0.809473876953125,5.409255583530664,1.4411474868506193,2.51945476424396
1746483148251452400,0.819452392578125,5.593141493850946,1.3789263007372616,2.99792275583148
1746483148261430500,0.829430419921875,5.718554172414541,1.4571265617489815,3.226176800188422
1746483148271409400,0.839409423828125,5.814428621804714,1.6604104155004022,3.1111230185538528
1746483148281388500,0.849388427734375,5.828860467261076,1.8953683414101599,2.827898782125115
1746483148291367400,0.859367431640625,5.870238771831989,1.9614409422546624,2.757036608916521
1746483148301345500,0.869345458984375,6.034704526889324,1.9179414077460766,2.886929647764563
1746483148311324700,0.87932470703125,6.306214944648742,1.7609879280149936,3.123154232609272
1746483148321303600,0.889303466796875,6.616022067576647,1.6825304773718117,3.4287475372344254
1746483148331281700,0.89928173828125,6.763266054198145,1.5732330673068762,3.7422920931249855
1746483148341260500,0.909260498046875,6.67092153249979,1.5913134983986614,3.96431221152842
1746483148351239400,0.919239501953125,6.394699868309497,1.620977399778366,4.243922349113226
1746483148361218600,0.929218505859375,5.927876721808314,1.7304016510933637,4.274376524087787
1746483148371196400,0.939196533203125,5.321123711091279,2.1485709490627047,3.953993062087893
1746483148381175600,0.949175537109375,4.7156198236525055,2.6468811207175253,3.540805644184351
1746483148391154400,0.959154541015625,4.202602204470336,3.144209880119562,3.036832039940357
1746483148401132500,0.969132568359375,3.7270404557183383,3.545999121174216,2.372754967501759
1746483148411111700,0.979111572265625,3.3164591286599636,3.8156057511389254,1.6777362288326023
1746483148421090600,0.989090576171875,3.033117403331399,3.86209160798192,1.0906044489085673
1746483148431068700,0.999068603515625,2.822751482364535,3.8410996733576055,0.5050900410532951
1746483148441047600,1.009047607421875,2.6558552852898836,3.9924043335467574,-0.11375088234245777
1746483148451026400,1.0190263671875,2.5095973870962855,4.3892321528017515,-0.7445406022071838
1746483148461005600,1.029005615234375,2.345812015518546,4.787317278641462,-1.0589514195382594
1746483148470983400,1.0389833984375,2.158410206031799,4.8172798707067965,-1.0722042843431234
1746483148480962600,1.048962646484375,1.7245844892472029,4.938467625051737,-1.38461779037714
1746483148490941400,1.05894140625,1.094939263242483,5.319506923544407,-2.0392560033410785
1746483148500919600,1.06891943359375,0.3544855650227517,5.755918565168977,-2.730542569744587
1746483148510898700,1.078898681640625,-0.3065479750014841,5.994940087255835,-3.438498531398177
1746483148520877600,1.088877685546875,-0.8669511763453484,6.0402048778712745,-4.282270492208004
1746483148530856700,1.098856689453125,-1.4048271963216363,6.342820627990364,-5.502536509296298
1746483148540834600,1.10883447265625,-1.9095782146789133,6.5897501467227935,-6.6004685246139765
1746483148550813700,1.118813720703125,-2.366026243768632,6.547190523412823,-7.33387456934452
1746483148560792300,1.128792236328125,-2.6217285592824218,6.279732011392713,-7.777402764976024
1746483148570770400,1.1387705078125,-2.7778958570718766,6.017779111051559,-8.21100460987687
1746483148580749600,1.14874951171875,-2.9283135052934286,5.7668234055429695,-8.512788585346936
1746483148590728400,1.158728515625,-2.9256325956463813,5.309959342998266,-8.231374028688668
1746483148600706600,1.16870654296875,-2.7751901052445174,4.375871735969185,-7.8497291655182835
1746483148610685700,1.178685791015625,-2.762240022778511,3.3754233588039875,-7.920484371221065
1746483148620664600,1.18866455078125,-2.540928637166321,2.476302435737848,-8.01711986811161
1746483148630643700,1.198643798828125,-2.1069690648689865,1.7527637050271032,-8.167785061353445
1746483148640621600,1.20862158203125,-1.7748285295799373,1.4484142629832029,-8.687870426964759
1746483148650600700,1.2186005859375,-1.5295914939790962,1.6023749906390905,-9.11991744363904
1746483148660579300,1.228579345703125,-1.1437637921661137,2.1961761653244496,-9.217480576768518
1746483148670557400,1.238557373046875,-0.5906938563197851,2.953781416288018,-8.9345725666821
1746483148680536600,1.24853662109375,-0.36945816629230976,4.213125644311309,-8.60004542851746
1746483148690515500,1.258515380859375,-0.8450134853035212,5.7301499176621435,-8.063589358341693
1746483148700493600,1.26849365234375,-1.6210340984016656,7.1821245034754275,-7.3117363872945305
1746483148710472700,1.27847265625,-2.3151351377040146,9.417052716520429,-6.710042413532734
1746483148720451600,1.28845166015625,-2.537999305716157,12.799565741324423,-5.850511158055067
1746483148730430700,1.2984306640625,-2.41441851875484,17.570530435580014,-4.667888935184479
1746483148740408600,1.30840869140625,-2.425195348834991,22.393746710598467,-2.677354000392556
1746483148750387700,1.3183876953125,-2.9436347008049486,26.330672318029404,0.07921791362166404
1746483148760366300,1.328366455078125,-3.9713644681274887,27.741317699110507,3.769199389272928
1746483148770344400,1.338344482421875,-4.9378936245560645,27.106585379099844,6.948551309922337
1746483148780323600,1.348323486328125,-5.682835793301463,25.26998720656633,9.211975549611449
1746483148790302500,1.358302490234375,-6.32804040748775,21.598698740947246,11.212476582622527
1746483148800281600,1.368281494140625,-7.107256017234921,17.1660015404284,11.957232288885116
1746483148810259500,1.378259521484375,-8.054459126424788,12.8975596670866,10.72318733729124
1746483148820238600,1.388238525390625,-8.943473081496357,9.34345790347755,8.490649234253167
1746483148830217500,1.398217529296875,-9.481907173746825,6.369013053867221,6.203647719621658
1746483148840195600,1.408195556640625,-9.37723157826364,4.3473096583515405,4.854658876508474
1746483148850174700,1.4181748046875,-7.8408754124552,3.0232442440927025,5.159590502354503
1746483148860153600,1.428153564453125,-4.780750175210834,2.3588439310491083,5.760435165810585
1746483148870131500,1.43813134765625,-1.0959376266300678,1.7640835559427737,5.310898669674993
1746483148880110600,1.448110595703125,2.614170983509719,0.35894320201873775,4.399577605727314
1746483148890089500,1.45808935546875,5.930151096481085,-1.8273779242455959,3.7120021688014266
1746483148900068600,1.468068603515625,9.187171947744488,-4.0103982553988695,3.3226638285189867
1746483148910046500,1.47804638671875,12.650124536919593,-5.459539079090953,4.075937187758088
1746483148920025600,1.488025634765625,15.652151805460452,-6.301095701938867,6.543216359084844
1746483148930004500,1.49800439453125,16.56679529182911,-6.228408651390671,9.225880740845202
1746483148939982600,1.507982666015625,14.036792830085753,-4.878062548449635,10.572151557171344
1746483148949961700,1.517961669921875,9.638235215055943,-4.478875014325976,11.363400134539603
1746483148959940600,1.527940673828125,4.8198026671826835,-5.718258988860249,11.206275974416732
1746483148969918500,1.53791845703125,0.28508301603794095,-7.249752517068385,10.314504829591511
1746483148979897600,1.547897705078125,-3.11370192913115,-9.144823921358585,9.631221536901593
1746483148989876500,1.55787646484375,-5.232220269757509,-11.02757360421419,9.244246418619156
1746483148999855600,1.567855712890625,-6.293491072154045,-12.389023284971714,8.923433917552233
1746483149009834200,1.577834228515625,-6.492590918219089,-13.884694389170408,8.882302865740657
1746483149019813400,1.5878134765625,-6.40265813383758,-15.796547416913508,9.36123146057725
1746483149029792300,1.597792236328125,-5.551835085472464,-16.54851846138239,9.431900741562247
1746483149039770400,1.607770263671875,-3.4708553251236673,-15.746889944297074,8.360778407236934
1746483149049749200,1.617749267578125,-0.9982038131088018,-14.425240359008312,7.400923906266689
1746483149059728400,1.627728271484375,1.2514847466945647,-12.488464486932754,6.82981971655786
1746483149069706200,1.637706298828125,3.24458865519166,-9.871994871091841,6.362575129774212
1746483149079685000,1.64768505859375,4.8681876356452705,-7.186666238558292,6.1308256445169445
1746483149089664300,1.657664306640625,5.978855213895439,-4.641355733045935,6.061248834943771
1746483149099643100,1.66764306640625,6.316081674146652,-2.712321853399277,5.932422548544406
1746483149109621200,1.677621337890625,5.81932223906517,-1.0462538505285979,5.585027160978317
1746483149119600400,1.687600341796875,4.913837041664123,0.40779637251496315,5.428744712376594
1746483149129579300,1.697579345703125,3.687672029665112,1.6175906799495219,5.384475362539291
1746483149139557400,1.707557373046875,2.26946936507225,2.700552505150437,5.225514634639024
1746483149149536300,1.717536376953125,0.9158306503266096,3.6329303856521844,5.092776727753877
1746483149159515400,1.727515380859375,-0.14185469479858875,4.47416785954833,4.697808272629976
1746483149169493200,1.7374931640625,-0.8120309608951211,5.192205070233345,4.416341109001636
1746483149179472100,1.74747216796875,-1.1519897687196732,5.96606178329587,4.414194744622707
1746483149189451300,1.757451171875,-1.1833666114971042,6.517649371629953,4.603801955199241
1746483149199430100,1.76743017578125,-0.9578142273142933,6.630193800792098,4.825756022629141
1746483149209408300,1.777408203125,-0.4875577453635633,6.4829276023387905,5.09014111855328
1746483149219387400,1.787387451171875,0.1622272554155439,6.1326084362804885,5.3711880109429355
1746483149229366300,1.7973662109375,0.9373111721854657,5.567801300889253,5.4300470271468155
1746483149239344400,1.807344482421875,1.7568518511235713,4.853322074946761,5.260121837639808
1746483149249323300,1.8173232421875,2.73777310552001,3.899878610062599,5.06033927000761
1746483149259302400,1.827302490234375,3.9580239250391718,2.9912878478616474,4.790456745710968
1746483149269280300,1.8372802734375,5.423441929793357,2.1476339604735375,4.523934053236246
1746483149279259100,1.847259033203125,7.1461758227378125,1.238667935219407,4.593965620839596
1746483149289238300,1.85723828125,8.945168779498339,0.5375970569044352,5.071555660548806
1746483149299217200,1.867217041015625,10.573820951688289,0.07312661100924014,5.812188149401545
1746483149309195300,1.8771953125,11.753892321032286,0.8031482739984989,6.236217863836884
1746483149319174400,1.88717431640625,12.75869363270998,2.412582535499334,7.167863922932743
1746483149329153300,1.8971533203125,14.288404953676462,4.113272938939929,7.715242953661083
1746483149339131400,1.90713134765625,15.414346088904141,5.925716328904032,7.97540020275712
1746483149349110300,1.9171103515625,14.736908599632978,7.9731252435624596,7.726281065025925
1746483149359089400,1.92708935546875,12.257911517983674,9.745255912360548,6.670505937436222
1746483149369067300,1.9370673828125,9.097621440678834,11.081109964090585,4.396846134936809
1746483149379046100,1.947046142578125,6.922997181949019,12.138347565448283,1.3179817104309797
1746483149389025300,1.957025390625,5.348213378068804,12.540264816796778,-1.7994973991513252
1746483149399004200,1.967004150390625,1.853260991912335,11.998492520034313,-5.725767757055163
1746483149408982300,1.976982177734375,-2.788069752822816,10.334068777239322,-10.15876247921586
1746483149418961400,1.98696142578125,-5.700246946829557,10.379942055141925,-14.508411978691816
1746483149428940300,1.996940185546875,-8.85118935007453,10.019695369309186,-15.504571718752384
1746483149438918400,2.00691845703125,-10.529157634097338,9.609868367749453,-18.747704914438724
1746483149448897300,2.016897216796875,-13.035592173248528,6.5207075901567935,-24.732117177939415
1746483149458876400,2.02687646484375,-19.951125595188138,0.9344932652205228,-26.121708080554008
1746483149468854300,2.036854248046875,-28.256709353947638,-1.8833827200621365,-23.81905657684803
1746483149478833200,2.046833251953125,-33.898470209538935,-1.7551725197345018,-19.833379505729674
1746483149488812300,2.056812255859375,-31.56826902012825,-0.5938939675353467,-14.83013516486287
1746483149498791200,2.066791259765625,-22.92974860726595,2.0758137558877467,-9.75112743474245
1746483149508769300,2.076769287109375,-14.797267499005793,3.767515381708741,-5.440310062485933
1746483149518748200,2.086748046875,-8.985750965255498,4.766706160028279,-1.3921949476331472
1746483149528727300,2.096727294921875,-4.455828485259413,5.679906754112244,1.6780694063097237
1746483149538705400,2.106705322265625,-1.086425701919198,5.692881971019506,3.53653571178019
1746483149548684300,2.116684326171875,1.343489076653123,5.40241901550889,4.782264671427011
1746483149558663400,2.126663330078125,3.1812831809729336,5.334399956771731,5.592696088171005
1746483149568641300,2.136641357421875,3.943046136137843,5.307745174080133,5.97624357009232
1746483149578620200,2.1466201171875,4.637610116776823,4.556959540003538,6.072733521032333
1746483149588599300,2.156599365234375,5.345958292618394,3.7150679861128326,6.068899057435989
1746483149598578200,2.166578125,6.173387021392584,2.971314734891057,6.143769297242164
1746483149608556300,2.176556396484375,6.483242075115442,2.7090122904598712,6.220050572890043
1746483149618535200,2.18653515625,5.885010809028148,2.5384791981875896,6.347266501483321
1746483149628514300,2.196514404296875,5.294429180911183,2.2453037688478825,6.487098166021704
1746483149638492400,2.206492431640625,5.098136793482303,2.041609288468957,6.620503012382984
1746483149648471300,2.21647119140625,5.180630367773771,1.804637684649229,6.7207730663836
1746483149658450400,2.226450439453125,5.33925148845613,1.6409396990939973,6.773675220009684
1746483149668428300,2.23642822265625,5.455843147182464,1.707349861329794,6.718824270403385
1746483149678407200,2.2464072265625,5.461897624915838,1.93318135471493,6.475060522225498
1746483149688386300,2.25638623046875,5.387058949291705,2.1353990405395624,5.9878135963767765
1746483149698364200,2.2663642578125,5.209226932182908,2.1477567100703716,5.0913358812958
1746483149708343300,2.27634326171875,4.8504678545594215,1.693345301374793,3.380878701600432
1746483149718322200,2.286322265625,3.68305079960525,0.29789149807617066,0.947079775071144
1746483149728301300,2.29630126953125,2.555223412239551,-0.7483623524524271,-1.0037716763690114
1746483149738279400,2.306279541015625,0.6580763707190752,0.29525428144037724,-2.9272344778850674
1746483149748258300,2.31625830078125,-4.234392304223776,2.154907020216435,-5.1639206405133
1746483149758237400,2.326237548828125,-12.692044108760356,3.3675825821757313,-7.149757772877812
1746483149768215300,2.33621533203125,-17.88078296418786,1.9693840102136133,-5.477975484013557
1746483149778194200,2.346194091796875,-19.23153004914522,1.118404894503951,-3.720342127123475
1746483149788173300,2.35617333984375,-16.44590681269169,1.9841838121995328,-3.2895433569446206
1746483149798151200,2.366151123046875,-11.454345895355939,2.6067826268240806,-2.273408750347793
1746483149808130300,2.37613037109375,-7.188730185350775,2.6495637839302417,-0.8167083050563931
1746483149818109200,2.386109130859375,-3.993943964204192,2.9402821755066513,0.4351157565951347
1746483149828088300,2.39608837890625,-1.4107266296237706,3.28247590277642,1.415366272123158
1746483149838066400,2.40606640625,0.6510124236822128,3.0236703605502844,2.3517031193837523
1746483149848045300,2.41604541015625,2.10227213922441,2.386847790262103,3.1368332138717174
1746483149858024400,2.4260244140625,3.0851644014328716,1.7639296805553137,3.5022470732092854
1746483149868002300,2.436002197265625,3.571911561065912,1.2315101724192499,3.3653815650001166
1746483149877981200,2.445981201171875,3.587679623562097,0.7143648788478225,2.859448058860004
1746483149887960300,2.455960205078125,3.3452719661682844,0.2755395636776462,2.200479415476322
1746483149897938200,2.465938232421875,3.049830637723207,-0.13614929536436685,1.544704015175998
1746483149907917300,2.475917236328125,2.5740724896162748,-0.7057835129853337,1.0469669672340154
1746483149917896200,2.485896240234375,1.9171587329357862,-1.2239720319993794,0.6696534112662077
1746483149927874300,2.495874267578125,1.162889348396659,-1.4469342535585163,0.3597475041389465
1746483149937853400,2.505853515625,0.45874330042004585,-1.4213732574529945,0.05451075786650181
1746483149947832300,2.515832275390625,-0.07076221996545791,-1.3047870055541395,-0.20485563311278818
1746483149957811500,2.5258115234375,-0.45998424039185043,-1.0757763706762342,-0.5098565248027443
1746483149967789000,2.5357890625,-0.7101981876224279,-0.7327151398569345,-0.8595335935652255
1746483149977768200,2.545768310546875,-0.8599965349018573,-0.47930257924813774,-1.0480392726406453
1746483149987747000,2.5557470703125,-0.9465712410271168,-0.47148364912550894,-1.036907930034399
1746483149997725200,2.56572509765625,-0.9264666106313466,-0.3826399386223405,-0.9884534034669399
1746483150007704600,2.57570458984375,-0.7463695712000131,-0.06035320028439164,-0.8186822354778647
1746483150017683500,2.585683349609375,-0.4948965638190508,0.23089100526440887,-0.5144985053896903
1746483150027661300,2.595661376953125,-0.25639468169212337,0.5267690446263179,-0.2195315164580941
1746483150037640400,2.605640380859375,-0.1180406884908676,0.6746330993749201,0.06465338169634342
1746483150047619300,2.615619384765625,0.046694531157612795,0.6537015897009522,0.22738602935075758
1746483150057598500,2.625598388671875,0.26333704817593095,0.6775570239976048,0.3241419377505779
1746483150067576300,2.635576416015625,0.4323953917205334,0.7635632825851439,0.45358606378734107
1746483150077555500,2.645555419921875,0.4381102622359991,0.7720535360980778,0.58860506734699
1746483150087534300,2.655534423828125,0.19980185685455798,0.5448296750390902,0.6438289419189095
1746483150097512400,2.665512451171875,-0.04252104486525059,0.20820019430033862,0.5504334498628973
1746483150107491600,2.67549169921875,-0.021157938840985296,0.2087441649839282,0.4088017501652241
1746483150117470500,2.685470458984375,0.06266425370573997,0.43470534916333853,0.2881236989080906
1746483150127448300,2.6954482421875,0.06945289093255996,0.5266483773887157,0.07716916439831256
1746483150137427500,2.705427490234375,-0.0913017346471548,0.5630857549587265,-0.32573242181241513
1746483150147406300,2.71540625,-0.22127017681896685,0.6127668641790748,-0.7017404481396079
1746483150157385500,2.725385498046875,-0.06215513513982296,0.5581492484046146,-0.978100644017756
1746483150167363300,2.73536328125,0.31057343112528324,0.5874576508775353,-1.1038102597013115
1746483150177342500,2.745342529296875,0.7298322778970002,0.9691501525819302,-1.1048656139731408
1746483150187321300,2.7553212890625,1.1918839722126722,1.9654247511938212,-1.2578250556319952
1746483150197299500,2.765299560546875,1.615578171083331,3.308571298019588,-1.4446902740240095
1746483150207278600,2.775278564453125,1.8295944312512873,4.100770892502367,-1.1411956952437758
1746483150217257500,2.785257568359375,1.8481699523836372,3.8133474508181213,-0.3995040527269244
1746483150227235300,2.7952353515625,1.4383610710024832,2.7600992113575336,0.5759910849675536
1746483150237214200,2.805214111328125,0.24186931273341178,1.381012751622498,1.1585071877896784
1746483150247193300,2.815193359375,-1.4767255807101725,0.03561988717466592,1.2361974534526468
1746483150257171500,2.82517138671875,-3.2635698345154522,-1.168622777482122,1.342354811926186
1746483150267150300,2.835150390625,-4.709875727042555,-2.1667716455332933,1.5726502989828586
1746483150277129500,2.84512939453125,-5.092860314384103,-2.61362854719609,1.8264283684358
1746483150287108400,2.8551083984375,-4.492446443560719,-2.6568957342535255,1.9094617486923933
1746483150297086500,2.86508642578125,-3.5468156982541084,-2.711671280536055,1.5358330187171696
1746483150307065600,2.875065673828125,-2.494845808166265,-2.527478203962743,0.7055351642474532
1746483150317044500,2.88504443359375,-1.2179852126747368,-2.2584831300251182,0.13381839559823275
1746483150327022300,2.895022216796875,-0.007015431720018387,-2.2227346480347214,0.06992956853359937
1746483150337001200,2.905001220703125,1.0221996057242155,-2.340252335564792,0.17595570184290407
1746483150346980400,2.91498046875,1.8538222790569066,-2.604322666451335,0.3534621402591467
1746483150356958500,2.92495849609375,2.4455758735626936,-2.886818588605523,0.33821839389801023
1746483150366937300,2.934937255859375,2.8540917925238607,-2.9513854610621926,0.09355798914134501
1746483150376916500,2.94491650390625,3.144247874042392,-2.6978721800252794,-0.25920389389395715
1746483150386895400,2.954895263671875,3.293772080555558,-2.0944263941600916,-0.6352998907655477
1746483150396873500,2.96487353515625,3.1612738276451826,-1.4036552299328147,-1.0151070171147585
1746483150406852600,2.9748525390625,2.595614459338784,-0.8921453849650919,-1.324027420336008
1746483150416831500,2.98483154296875,1.681229916167259,-0.42844617917072025,-1.526341260011494
1746483150426809300,2.994809326171875,0.7758949408918618,0.23501802206654102,-1.455592484049499
1746483150436788200,3.004788330078125,-0.16691314820945263,0.7653449053049087,-1.2557248684823512
1746483150446767400,3.014767333984375,-0.7616583257466554,1.2754406456910072,-0.9293357363268733
1746483150456745500,3.024745361328125,-1.2612392479896544,1.5523841944150625,-0.4833803135484457
1746483150466724400,3.034724365234375,-1.9643746576189993,1.6019247626535593,-0.7057458843886851
1746483150476703500,3.044703369140625,-3.6452170357733964,1.4369552958577871,-1.6082269315376876
1746483150486681300,3.054681396484375,-5.039513339599966,1.336787533187866,-2.8443571649730206
1746483150496660500,3.064660400390625,-5.231550992193818,0.6916709626112133,-3.7339343068853017
1746483150506639400,3.074639404296875,-3.9280917281121015,0.7783975713625549,-3.3982924854770302
1746483150516618500,3.084618408203125,-2.3999054247558114,1.317256757157296,-2.9706773137703535
1746483150526596400,3.094596435546875,-2.0689906318694353,1.0917242467187345,-2.3782252156063914
1746483150536575200,3.1045751953125,-2.1619962478250265,1.0038105470746754,-1.9830457480803132
1746483150546554400,3.114554443359375,-1.8148966283351182,0.7394307118475437,-1.2629480977341532
1746483150556532500,3.124532470703125,-1.2583078707128763,0.49025414484068747,0.13399287538230417
1746483150566511400,3.134511474609375,-0.6302104586720466,0.682008450448513,1.3719558772027491
1746483150576490500,3.144490478515625,-0.06212532452344894,0.637998043808341,2.288237193906307
1746483150586468400,3.15446826171875,0.45756490429043767,0.3586003799304366,2.647017898839712
1746483150596447500,3.164447509765625,0.9021236120134591,-0.078703242097795,2.636234639018774
1746483150606426400,3.17442626953125,1.0867524496555327,-0.5646291484758258,2.447155251708627
1746483150616405500,3.184405517578125,0.7964590054929256,-0.917521379892528,2.078916982600093
1746483150626383400,3.19438330078125,-0.02087503024637699,-1.1282681168705224,1.546505803900957
1746483150636362200,3.2043623046875,-1.1481588122546673,-1.119346851529181,0.8253525070220231
1746483150646341400,3.21434130859375,-2.3457938953399657,-0.40894817289859053,-0.06974924353063106
1746483150656319500,3.224319580078125,-3.7677170417606827,0.5966919276908039,-0.7252116323590279
1746483150666298400,3.23429833984375,-2.1261936975598332,1.5418021562546491,-0.3707148883551359
1746483150676277500,3.244277587890625,-2.6294366494417187,1.9995763193815945,-0.4817985973149538
1746483150686255400,3.25425537109375,-2.454808396810293,2.7045377753943205,-0.44109658457040785
1746483150696234500,3.264234375,-2.3227485353171824,3.2513334532767533,0.3165069128274917
1746483150706213400,3.27421337890625,-2.5195365973085164,3.683589728787541,0.4722054240614176
1746483150716191200,3.284191162109375,-1.7049258490532635,3.8560178410261865,0.05440729749202728
1746483150726170400,3.29417041015625,-0.09163125886246562,3.242202636837959,-0.878494314622879
1746483150736149200,3.304149169921875,1.1854573001660407,2.084326732689142,-1.5553227320849894
1746483150746127400,3.31412744140625,2.042043295972049,1.242269174581766,-1.9329495917856692
1746483150756106500,3.3241064453125,2.485570030298829,0.6231891817331314,-2.075945857834816
1746483150766085400,3.33408544921875,2.875289478853345,0.04857786068618297,-2.223466907832026
1746483150776064500,3.344064453125,3.092565617600083,-0.3998351843774319,-2.4123902277976272
1746483150786042400,3.35404248046875,2.465658876648545,-0.29797055466175076,-2.211552013632655
1746483150796021500,3.364021484375,0.7944096717476844,0.37102760756611824,-1.5233710120290518
1746483150806000400,3.37400048828125,-1.0830898354947567,1.0604717609733343,-0.4576642730116844
1746483150815978200,3.383978271484375,-2.209852808499336,1.2520616697996854,0.8330372163057327
1746483150825957400,3.393957275390625,-2.4310101725935933,1.4668822320878505,1.8868103564232586
1746483150835936300,3.403936279296875,-1.8865292013943193,1.722692976412177,2.6307743277862667
1746483150845914400,3.413914306640625,-1.0197017975591123,1.4160346729040145,3.167330643466115
1746483150855893200,3.423893310546875,0.11759630572423338,1.0257125822812319,3.7059208030611273
1746483150865872400,3.433872314453125,1.3073197389021516,0.9750520701020955,3.5886043371915815
1746483150875850500,3.4438505859375,1.8041946170568466,0.5149111778438091,3.259529034692049
1746483150885829400,3.453829345703125,1.841999154794216,0.14380758243203162,2.923426025512814
1746483150895808500,3.46380859375,1.7111834481433033,0.14412848494946956,2.5607933213263747
1746483150905787400,3.473787353515625,1.2920832990646363,0.007526888373494148,2.167262205529213
1746483150915765200,3.48376513671875,0.5337006339877843,-0.3288309723496437,1.961171185402572
1746483150925744400,3.493744384765625,0.022074176903069016,-0.2564379363119602,2.0021274651691314
1746483150935723300,3.50372314453125,-0.23639088132232428,0.09119476714134216,1.8119664201021193
1746483150945701400,3.513701416015625,-0.7593637850686907,0.23660686216056345,1.313076110471785
1746483150955680300,3.52368017578125,-1.3450073722615836,0.4639952295988798,0.9985270537137985
1746483150965659400,3.533659423828125,-1.4264359476700423,0.8382651800870895,0.8512048872895538
1746483150975637500,3.543637451171875,-1.1365692044869065,1.0755693768620491,0.6612015170022845
1746483150985616400,3.553616455078125,-1.0715849834010005,1.1219646328121422,0.07425926830098033
1746483150995595500,3.563595458984375,-1.349361768078804,1.065071363723278,-0.45368718607425684
1746483151005573400,3.573573486328125,-1.7794708024278283,0.9950660996049642,-1.0489654475748538
1746483151015551700,3.5835517578125,-2.1773604056954383,0.935966260382533,-1.4551175600141286
1746483151025531000,3.59353076171875,-2.541109546691179,1.110225095179677,-1.7360677140310405
1746483151035509800,3.603509765625,-2.769819225861132,1.3625567652165889,-1.8571334494315086
1746483151045487900,3.61348779296875,-2.6914485767185687,1.6849726098269222,-1.983071028652042
1746483151055466800,3.623466796875,-2.493082597886026,1.9550053562492131,-2.0051501739911735
1746483151065445600,3.633445556640625,-2.165501625597477,2.140230990740657,-2.2329567668415606
1746483151075423700,3.643423828125,-1.5568877894446254,2.2065713026106355,-3.806078628858924
1746483151085402600,3.653402587890625,-1.0758023088350892,2.196190193849802,-6.713948188799619
1746483151095381800,3.6633818359375,-0.9998153399586677,2.939832970434427,-8.94014656742215
1746483151105360000,3.67335986328125,-1.3392957166165114,3.021681232559681,-7.702271243885159
1746483151115338800,3.6833388671875,-1.9641949171379207,1.3894745827585457,-2.5211288349360226
1746483151125318000,3.69331787109375,-2.5022303654596207,0.2727379137277603,3.939948170122504
1746483151135295700,3.703295654296875,-3.1964255127862096,-1.1138906319499016,8.57125129570961
1746483151145275000,3.71327490234375,-4.1649972809582945,-2.637914554929733,10.515913537120818
1746483151155253800,3.723253662109375,-5.175032986158132,-2.969026331692934,10.005324314129352
1746483151165232600,3.733232666015625,-5.159993237936496,-1.7310644989162682,7.65721103593111
1746483151175210800,3.743210693359375,-2.8689564764395357,0.046587563651800154,5.221687185305357
1746483151185189600,3.753189697265625,0.29478461810201406,1.8332704894155263,3.922864933374524
1746483151195168800,3.763168701171875,2.138618879368901,3.0215146438211202,3.38941593606025
1746483151205147000,3.77314697265625,2.5014345389068127,3.240143366220593,3.290580883298814
1746483151215125800,3.783125732421875,1.6253811876952646,2.3576462456971408,3.8752766682475803
1746483151225105000,3.79310498046875,0.5076441094502806,1.631816773700714,4.151028376838565
1746483151235082800,3.803082763671875,-0.1587228274911642,1.0971540166825056,3.9430373683094975
1746483151245062000,3.813061767578125,-0.5299707998096943,0.744534756988287,2.7439228603214025
1746483151255040800,3.823040771484375,-0.704004301418364,0.3179261319756508,1.4193737541988491
1746483151265018600,3.8330185546875,-0.5515320587545633,0.2975163811534643,0.11438611150607467
1746483151274997800,3.842997802734375,-0.42757250160872934,0.24385902524590491,-0.7478463657543063
1746483151284976600,3.8529765625,-0.19752339052855966,0.4126905742973089,-1.6621628121256828
1746483151294955800,3.862955810546875,-0.39484570552706716,0.5274129320204257,-2.775505747064948
1746483151304934000,3.872933837890625,-0.3946300169497728,-0.0909054288059473,-3.8121830832138657
1746483151314912800,3.882912841796875,-0.42699674754738803,-0.5565338125646114,-3.819228033289313
1746483151324892000,3.892891845703125,-1.0715934589684009,-0.7240057637006044,-3.0195483121842144
1746483151334869800,3.902869873046875,-1.8383523227244614,-0.9579144728183746,-2.125829248161614
1746483151344849000,3.912848876953125,-2.0701748732179404,-0.6514613364934921,-1.6429127527326344
1746483151354827800,3.922827880859375,-1.9970973620474337,-0.1455512112289667,-0.6189329855933785
1746483151364805600,3.9328056640625,-1.9115560906231401,0.4706967730641365,0.6305353067122399
1746483151374784800,3.94278466796875,-1.4832663806557655,1.5586504152029752,1.0591722226820885
1746483151384763600,3.952763671875,-0.5676654474318027,1.9774147564560174,1.102688269934058
1746483151394741800,3.96274169921875,0.7967173641681671,1.8186878373116253,0.7699827942386269
1746483151404721000,3.972720947265625,2.2117916676074265,1.3429904794812202,0.1820351678870618
1746483151414699800,3.98269970703125,3.3336043247282503,1.0502747766077518,-0.6249158593952655
1746483151424679000,3.992678955078125,3.894033391165733,0.8265367483705282,-0.6298109379604458
1746483151434656800,4.00265673828125,3.378232571005821,0.27588322601616383,0.3815782276749611
1746483151444636000,4.012635986328125,2.5601918483018875,-0.20775778429508207,1.2299511064089834
1746483151454614800,4.02261474609375,2.19625039960444,-0.04692717086970806,0.8637778070062399
1746483151464592600,4.032592529296875,2.2614117308229207,0.2579734753161669,0.21276801367253065
1746483151474571800,4.04257177734375,2.4028981768310067,0.33293519279807804,-0.16042013292834162
1746483151484550700,4.052550537109375,1.7850217145532368,-0.014913491493463516,-0.009800240132957697
1746483151494528800,4.06252880859375,0.5509469523429871,-0.4448687965855002,0.6935048269748687
1746483151504508000,4.0725078125,-1.0141372952997685,-0.757282010358572,1.284274671140313
1746483151514486800,4.08248681640625,-2.7036417033374307,-1.1871762329131363,1.9771438305601476
1746483151524465000,4.09246484375,-3.5062697528541085,-1.1165274101942777,1.9676140779316424
1746483151534443800,4.10244384765625,-2.867515922242403,-0.6181812904432415,1.271182257594168
1746483151544423000,4.1124228515625,-1.2666454909473657,-0.11342325782328844,0.24070859839096664
1746483151554400800,4.12240087890625,0.5307634114921093,-0.17682751624137164,-0.5068493058107792
1746483151564379600,4.132379638671875,2.2604092757821084,0.22763620471954343,-1.1554663587890566
1746483151574358800,4.14235888671875,2.8298247817516327,0.6275348097220063,-0.9862678030561656
1746483151584337700,4.152337646484375,1.9511644629120826,1.1510663702644408,-0.17706724328137932
1746483151594315800,4.162315673828125,1.026698670709133,1.9848546971984207,0.26743885747157037
1746483151604294700,4.172294677734375,1.4993483314067124,2.863575367923081,0.15918237129431217
1746483151614273800,4.182273681640625,3.1094623918652533,2.7609914840221403,-0.09934568743100389
1746483151624252000,4.192251953125,4.762617721670866,1.9175725744336842,-0.7615452207610011
1746483151634230800,4.202230712890625,4.796679565748572,0.6719617612738162,-1.5807603940717876
1746483151644210000,4.2122099609375,3.4586095915347337,-0.9577831015236675,-2.3794813531473276
1746483151654187800,4.222187744140625,1.1359703618109225,-1.2099595079336314,-3.7973967252314087
1746483151664166700,4.232166748046875,-1.135072536188364,-1.0701950634125619,-3.8838846298560497
1746483151674145800,4.242145751953125,-1.625065545874834,-0.9745807262632995,-3.2743045790195464
1746483151684124700,4.252124755859375,-0.8086287512362003,-0.8081710705965757,-2.8208862730145454
1746483151694102800,4.262102783203125,1.5017051236659287,-1.4148748353444038,-0.857040169314295
1746483151704081700,4.27208154296875,2.3050790231138465,-1.6485153950452804,0.8637043033786117
1746483151714060800,4.282060791015625,1.4342033668011427,-1.4328326629698276,1.6123434269458055
1746483151724039000,4.292038818359375,2.2168998044013977,-1.688239941059798,1.4493705407947302
1746483151734017800,4.302017822265625,5.292444729095697,-1.9996299492649734,0.8239135602600872
1746483151743997000,4.311996826171875,5.247519545698165,-1.7556798847347497,-0.5979238075733184
1746483151753974800,4.321974853515625,4.85740729843378,-1.1805967083923519,-2.4767647925525904
1746483151763953700,4.33195361328125,4.796908113807439,-0.9045458707243204,-3.3130624719589945
1746483151773932800,4.341932861328125,1.9789152241468428,-0.17408435501307248,-3.4484655064001677
1746483151783910700,4.35191064453125,-0.6188672268807888,0.2685989142268896,-4.400248052334785
1746483151793889800,4.361889892578125,-2.1920359967797993,-0.15833850434869526,-5.278326187372207
1746483151803868700,4.37186865234375,-2.9568448955118654,-0.4741936752691865,-5.533927672860026
1746483151813847800,4.381847900390625,-4.0357343567073345,-0.5090656666859984,-5.5068993806809186
1746483151823826000,4.391825927734375,-4.940931384816765,-0.5809153896272182,-5.128310397949814
1746483151833804800,4.4018046875,-4.603818906334042,-0.44221185233592986,-4.155806258764863
1746483151843784000,4.411783935546875,-3.170679953894019,-0.392277900865674,-4.8075662859439845
1746483151853761800,4.42176171875,-2.1482442013263703,-1.1757488299697636,-6.709038789448142
1746483151863740700,4.43174072265625,-1.3267401864260435,-2.0098504606366157,-8.945067072689532
1746483151873719800,4.4417197265625,-0.6830424696713686,-2.619406253814697,-10.610101056337356
1746483151883697700,4.45169775390625,0.032681787896156306,-2.9449340929657217,-10.67074286430478
1746483151893676800,4.4616767578125,0.8688444427460431,-2.770145096814632,-9.649922145718335
1746483151903655700,4.47165576171875,2.119881445673108,-2.415337971687317,-7.574080332779884
1746483151913633800,4.4816337890625,3.6593127811431883,-1.953494951686263,-5.077679696387052
1746483151923613000,4.491613037109375,4.487451119491458,-1.409841663482785,-3.0666952632844446
1746483151933591800,4.501591796875,4.281896105937659,-0.7620932100325822,-1.6778905426114796
1746483151943571000,4.511571044921875,3.573092003022134,-0.2602899355649948,-0.6586760901778936
1746483151953548500,4.521548583984375,2.692442263931036,0.20335341185629366,-0.09462532611191272
1746483151963527700,4.531527587890625,1.754997601559013,0.5501791828408837,-0.19822949297130107
1746483151973506800,4.5415068359375,0.9940648136079311,0.7997606773868202,-0.33972529132962226
1746483151983484700,4.551484619140625,0.39584520142581314,1.1192144573211669,-0.12188742704689502
1746483151993463800,4.5614638671875,0.3161690591752529,1.6365440944835543,0.5024146843641996
1746483152003442700,4.571442626953125,0.6941852104544639,2.170348481106758,1.062911555340886
1746483152013421300,4.58142138671875,1.1793652669012546,2.8126015520110723,1.3630857575267552
1746483152023400200,4.591400146484375,1.3837790014654396,3.494066689363122,1.542865401571989
1746483152033379300,4.60137939453125,1.3677268613308666,3.951896966591477,1.6756430559456348
1746483152043357400,4.611357421875,1.241369157002121,4.369811413016915,1.6457137816280125
1746483152053336300,4.62133642578125,1.2130594467103482,4.723797284889221,1.5976269193291663
1746483152063315500,4.6313154296875,1.2705863375276327,5.020243990984559,1.426237502488494
1746483152073294300,4.64129443359375,1.2824933406814931,5.254720270857215,1.2563058832406997
1746483152083272400,4.6512724609375,1.3504074777394532,5.45042521378696,1.283838617810607
1746483152093251600,4.66125146484375,1.5028911185801028,5.512720634180307,1.2755442521959544
1746483152103230500,4.67123046875,1.8903256710678338,5.6064481346696615,1.1157388901650904
1746483152113208300,4.681208251953125,2.5322481948435307,5.849058036637306,1.2070388712465763
1746483152123187200,4.691187255859375,3.106435737520456,6.21513240571022,1.3800737172067166
1746483152133166300,4.701166259765625,3.578163607198,6.599963497701287,1.6851245855182408
1746483152143144400,4.71114453125,3.8635096580862998,6.989571887096762,1.9646815316110848
1746483152153123300,4.721123291015625,4.053216821905971,7.306368138259649,2.2766508010089397
1746483152163102500,4.7311025390625,4.0425370224595065,7.466113879057764,2.455300564241409
1746483152173081300,4.741081298828125,3.8575750073403117,7.421788415119051,2.4520506225347516
1746483152183059500,4.7510595703125,3.551747601698339,7.217054947081208,2.3480951580196616
1746483152193038300,4.761038330078125,3.2191450018554923,6.876738704121112,2.156903893122077
1746483152203017500,4.771017578125,2.914062569361925,6.42860155338943,1.9582588050872087
1746483152212995300,4.780995361328125,2.696843129238486,6.032382221421599,1.694692039808631
1746483152222974200,4.79097412109375,2.5687980563446877,5.68561870201826,1.4293243625879286
1746483152232953300,4.800953369140625,2.5085107609033583,5.345028318291902,1.3240513857334852
1746483152242931500,4.810931396484375,2.538998838147521,5.003896667295694,1.3637392529994248
1746483152252910300,4.820910400390625,2.6542808755800125,4.695451480370759,1.4538812962174414
1746483152262889500,4.830889404296875,2.7291566683441397,4.399278330519795,1.402021929642558
1746483152272867300,4.840867431640625,2.759175959032774,4.097945605948567,1.3465771057963372
1746483152282846500,4.850846435546875,2.808499377389252,3.856776258178055,1.2674305038452147
1746483152292825300,4.860825439453125,2.986857171937823,3.509603281190991,1.0993833831697701
1746483152302804500,4.870804443359375,3.181618112015724,3.073466949376464,0.7717442509531974
1746483152312782300,4.8807822265625,3.1379759541660546,2.5540792106404897,0.26673136678934095
1746483152322761200,4.89076123046875,2.8681904605031012,2.0559972947835923,-0.10110241317152976
1746483152332740400,4.900740234375,2.6111063352420922,1.7203391067624092,-0.32857962793707846
1746483152342718500,4.910718505859375,2.4969065400883554,1.4616837866619228,-0.5746434697508812
1746483152352697300,4.920697265625,2.5572715769410133,1.0782207681536673,-0.6945049439281225
1746483152362676500,4.930676513671875,2.800350849986076,0.6990206677868962,-0.6183411571800709
1746483152372654300,4.940654296875,3.1654078587099908,0.3938257148295641,-0.515476410511136
1746483152382633500,4.950633544921875,3.6221798590570686,-0.007739069819450378,-0.2727431744247675
1746483152392612400,4.9606123046875,4.1196518263220785,-0.4003168304145336,0.008223638466000556
1746483152402590200,4.970590087890625,4.528019861245155,-0.7883344434872269,0.14241349772512912
1746483152412569300,4.9805693359375,4.874977149654924,-1.1553121911406516,0.2387310147076845
1746483152422548200,4.99054833984375,5.201045379292965,-1.5231106075271963,0.22707389466166494
1746483152432527400,5.00052734375,5.371210222774744,-1.961419314944744,-0.011147416958212851
1746483152442505500,5.01050537109375,5.361790652522444,-2.2692253271833063,-0.08351648759841919
1746483152452484400,5.020484375,5.133370019426941,-2.5111200666189193,-0.10949380941987037
1746483152462463500,5.03046337890625,4.79079898327738,-2.6585055075377224,-0.4321960697561502
1746483152472441300,5.04044140625,4.365348588389158,-2.790015333932638,-0.5117471608549357
1746483152482420500,5.05042041015625,3.8956425799280403,-2.787525562943518,-0.41548575797379017
1746483152492399400,5.0603994140625,3.3649604169785974,-2.5342227097868917,-0.19345628722012043
1746483152502377500,5.07037744140625,2.8963591548889873,-2.1382193586573,0.18339082027971743
1746483152512356400,5.0803564453125,2.607388483762741,-1.8636825788140297,0.5661071120738983
1746483152522335200,5.090335205078125,2.2756068449139595,-1.6176953093677757,0.8681447700440883
1746483152532313300,5.100313232421875,1.8345196126937866,-1.4393477439522742,0.9915712432265281
1746483152542292500,5.11029248046875,1.466993291246891,-1.2944041432276367,1.1003022515803575
1746483152552271400,5.120271240234375,1.1440203972756862,-1.1582128810182213,1.1968933248072862
1746483152562250500,5.13025048828125,0.8854436953693627,-1.1021525556221603,1.318001584175229
1746483152572228400,5.140228271484375,0.72761343280375,-1.078424766293168,1.3668454023212193
1746483152582207500,5.15020751953125,0.6201333012938499,-1.0177861731961368,1.3483587285161018
1746483152592186400,5.160186279296875,0.6250771874368191,-0.9351920611396431,1.330593939244747
1746483152602164500,5.17016455078125,0.7104828497827053,-0.7292749362751841,1.4225766418933867
1746483152612143400,5.180143310546875,0.9270148921638727,-0.38893852730989453,1.4492869541645048
1746483152622122200,5.190122314453125,1.372616386938095,0.07641834603101015,1.2870043883651494
1746483152632100400,5.200100341796875,1.7480998048692942,0.48263694783523675,1.4052233560323715
1746483152642079200,5.210079345703125,1.9783716187894342,0.8229751103661954,1.6646885312110185
1746483152652058400,5.220058349609375,1.9497060807973146,1.4388722353950143,1.9262100543975829
1746483152662036500,5.230036376953125,1.7609838363617658,1.991138161382079,2.4655875649780032
1746483152672015400,5.240015380859375,1.7434540248900652,2.26464852078706,3.3686329680114984
1746483152681994500,5.249994384765625,1.8560089754462241,2.7216680661544204,4.452781372648477
1746483152691973400,5.259973388671875,2.1342109997987744,3.2406612526148555,5.284015923446416
1746483152701951500,5.269951416015625,2.443085225790739,3.275002498155832,5.4268660590231415
1746483152711930400,5.279930419921875,2.281426344847679,1.9254384855031965,3.4300662186175583
1746483152721909200,5.2899091796875,-0.6888146233320236,-1.7786935344450174,-2.585000710865855
1746483152731887400,5.299887451171875,-2.1052286509424447,-2.0905359625928104,-5.374588759297132
1746483152741866200,5.3098662109375,-7.6735788178861135,-5.060119489777088,-3.893436594316363
1746483152751845400,5.319845458984375,-16.73794096304178,-10.161123947650193,0.7601850383237004
1746483152761823500,5.329823486328125,-18.50267100019455,-5.907309734597802,3.5055917074620724
1746483152771802400,5.33980224609375,-22.906108203959462,-1.4538091077640651,3.717671154348552
1746483152781781500,5.349781494140625,-21.354941422510144,-2.2176501843772827,7.207979075700044
1746483152791759600,5.359759521484375,-13.5475129371047,-1.4038489989392458,8.82011675094068
1746483152801738500,5.369738525390625,-7.447708453795314,0.5609285769248381,10.084293221426009
1746483152811717600,5.379717529296875,-4.365833157035708,2.3977735272936522,11.653270384854078
1746483152821696300,5.3896962890625,-1.5012737465113402,3.5325817134574056,11.252340975499152
1746483152831674400,5.39967431640625,0.7975444626420736,3.7933544641032815,9.135967830207944
1746483152841653200,5.4096533203125,2.3087042278736827,3.903866218394041,5.828775127065182
1746483152851632400,5.41963232421875,3.78200801744163,3.542004498580098,3.4293788208752867
1746483152861610500,5.429610595703125,5.237313208982348,3.2580040170818565,1.7016925662204623
1746483152871589400,5.43958935546875,6.4951002706915135,2.9264515108138323,0.6102805272560566
1746483152881568500,5.449568603515625,7.26403004874587,2.338594339224696,0.23293087706156074
1746483152891546400,5.45954638671875,7.677877976384758,1.6227486472345887,0.026074060194194316
1746483152901525500,5.469525390625,7.343354345351457,0.9942777257062494,-0.37582448645383115
1746483152911504400,5.47950439453125,5.772296868517994,0.4121105824522674,-0.9829393892858177
1746483152921482200,5.489482177734375,3.6463206131011248,0.24320889077410102,-1.8311439987808464
1746483152931461400,5.49946142578125,2.1783733821302653,0.8511902742423116,-2.603984812799096
1746483152941440300,5.509440185546875,0.4374748869419098,1.8516557486727834,-3.126662532991171
1746483152951419400,5.51941943359375,-1.5753203949749468,2.333705982661247,-3.2681162457734345
1746483152961397500,5.5293974609375,-2.6667992886304854,1.9813573566019533,-3.1322970317468046
1746483152971376400,5.53937646484375,-3.1471149539113044,1.4383569793492554,-2.9488311004042624
1746483152981355500,5.54935546875,-3.227521200534701,1.2800760504066944,-2.785752415791154
1746483152991333400,5.55933349609375,-3.0232945129752156,0.9124017718564719,-2.326298921275139
1746483153001312500,5.5693125,-2.472245853823423,0.6063590794960037,-1.7831990291707216
1746483153011291400,5.57929150390625,-1.8814672418296337,0.4358863756414503,-1.3190917174994945
1746483153021269200,5.589269287109375,-1.3807277972012757,0.2011746978440322,-0.7099858600459993
1746483153031248400,5.599248291015625,-0.8487140933871269,-0.27152201686566696,0.14736746687069535
1746483153041227300,5.609227294921875,-0.2437280923426151,-0.6585295213140547,0.8277532114882021
1746483153051206400,5.619206298828125,0.3041957127869129,-0.8774250779561698,1.2644003423690795
1746483153061184500,5.6291845703125,0.7463713247656821,-0.8228652202509343,1.2872729761734605
1746483153071163400,5.639163330078125,1.1449147157669066,-0.3380959365621209,0.6129486504867673
1746483153081142500,5.649142578125,1.2039426587969064,0.4801161971859634,-0.4839982993163168
1746483153091120400,5.659120361328125,1.01614863512218,1.6421153187446296,-1.8177292214125393
1746483153101099500,5.669099609375,0.7828770548641681,3.0313892643645404,-2.9693980876147745
1746483153111078400,5.679078369140625,0.5145809229761362,3.7673558072328563,-3.2062972107201815
1746483153121056300,5.68905615234375,0.32646248965263364,3.182655053848028,-2.102235022084415
1746483153131035400,5.699035400390625,0.34173078593313694,1.5983360905118287,-0.21722104755863547
1746483153141014300,5.70901416015625,0.5755132383227348,0.2839977780845016,1.1412499096490443
1746483153150992400,5.718992431640625,0.760844086754322,-0.6000773323453963,1.5878914149954915
1746483153160971500,5.728971435546875,0.5548053813368081,-1.4527753808021544,1.5922762059509754
1746483153170950400,5.738950439453125,-0.009021510845422744,-2.0565521521873773,1.3023346439659595
1746483153180929500,5.748929443359375,-1.0413859522312878,-2.4604963793188332,0.6744041129246354
1746483153190907400,5.758907470703125,-2.2868641519874333,-3.0213667597830294,0.21661416770666836
1746483153200886500,5.768886474609375,-3.4696138006299733,-3.776166013415158,0.3533699319310486
1746483153210865400,5.778865478515625,-4.096610557952523,-4.204818419215083,0.45757703311964865
1746483153220843300,5.78884326171875,-3.7422178588449952,-3.971775971537828,0.34423093218579887
1746483153230822400,5.798822509765625,-2.7457570900112387,-3.332154125919938,0.07458806186392902
1746483153240801300,5.80880126953125,-1.7142933968573808,-2.7763214473620055,-0.06453472375273704
1746483153250779400,5.818779296875,-0.6670236472845077,-2.157295230527222,0.11199600149914622
1746483153260758300,5.82875830078125,0.6677361794680357,-1.3507755803994834,0.49558966064974663
1746483153270737400,5.8387373046875,2.0448492933034896,-0.45561391635313625,1.0237582333430648
1746483153280715500,5.848715576171875,3.0520062281966207,0.4953726568982005,1.5455905887521801
1746483153290694400,5.8586943359375,3.2884616991877555,1.356814129911363,2.0159341644644737
1746483153300673500,5.868673583984375,2.4825433759540316,1.953144530813396,2.489062840850651
1746483153310652400,5.87865234375,0.7190928572177887,2.1411894605092705,2.533369892349839
1746483153320630500,5.888630615234375,-1.7224276034742594,1.9131220247656107,2.008151693894714
1746483153330609400,5.898609375,-3.993644104474783,1.4244161322802305,1.0768817746348678
1746483153340588300,5.90858837890625,-5.0818327244132755,0.7206862638890743,0.08230901150479912
1746483153350566400,5.91856640625,-4.604615025147796,-0.27359694170989096,-0.1892516751371324
1746483153360545300,5.928545166015625,-3.3207506883740425,-0.5957193563316017,-0.001024520742148161
1746483153370524400,5.9385244140625,-3.576989887243509,0.015377894134819506,-0.18216171687617896
1746483153380502500,5.94850244140625,-3.36146789868772,1.0374212863840162,-0.19817337886989114
1746483153390481400,5.9584814453125,-1.37503163138628,1.2349936306208371,0.891718099463731
1746483153400460500,5.96846044921875,0.9045511314213276,1.0502650589313358,1.4720128729745745
1746483153410438700,5.978438720703125,1.6439491100430488,0.5814925319280475,0.7738233953148126
1746483153420417500,5.98841748046875,1.126421027699113,-0.022332535578310487,-0.08282514433339237
1746483153430396400,5.998396484375,0.727134124854207,-0.43836591749750076,-0.43076296821311116
1746483153440375300,6.008375244140625,0.5436275692403316,-0.8143316390529275,-0.591211596583575
1746483153450353400,6.018353515625,0.09055003949701786,-1.1195756918489932,-0.7352436354212463
1746483153460332300,6.028332275390625,-0.32199791145920753,-1.3113311665005982,-0.7940827778808772
1746483153470311400,6.0383115234375,-0.20653847163319586,-1.2129856508217751,-0.5079141585633158
1746483153480289500,6.04828955078125,0.28177286857664585,-0.7570408950790762,-0.1324989835627377
1746483153490268400,6.058268310546875,0.8618301800698042,-0.33695392692014575,0.20745441743433474
1746483153500247600,6.06824755859375,1.5061287853270768,-0.07135244094356893,0.559514874202013
1746483153510225400,6.078225341796875,2.138230756834149,0.11545081812813877,0.921669147221744
1746483153520204500,6.08820458984375,2.451052259147167,0.04990750185474753,1.1322310291521251
1746483153530183400,6.098183349609375,2.184011095756292,-0.09181099934354424,1.0815069502174854
1746483153540161300,6.108161376953125,1.1566127523452043,-0.37493235991969703,0.7194688509233296
1746483153550140400,6.118140380859375,-0.30897651732265946,-1.0033522819131613,0.4850931088156998
1746483153560119300,6.128119384765625,-1.686293629297614,-1.4956825023755431,0.27499314530864355
1746483153570098400,6.138098388671875,-2.759054378479719,-1.5778835234612225,0.30922143199443813
1746483153580076500,6.14807666015625,-2.8549428563952444,-0.8414058162003755,0.3775589090310037
1746483153590055400,6.158055419921875,-2.049757523611188,0.3268374604448676,1.083718927178532
1746483153600034600,6.16803466796875,-0.8721306248098611,1.2999486256122588,2.130199133808911
1746483153610012400,6.178012451171875,0.4366606479495764,2.1806541865438223,2.357125875084847
1746483153619991600,6.187991455078125,1.437071031191945,2.7118425454497337,2.006378692872822
1746483153629970400,6.197970458984375,2.031442699241638,2.4972607603535053,1.3851695790410041
1746483153639948300,6.2079482421875,2.3001053263545037,1.7173828873053192,0.6176932877305895
1746483153649927400,6.217927490234375,2.4029455231040715,0.7568114702373743,-0.44127822474762796
1746483153659906300,6.22790625,1.8190853121966122,-0.2000876880586147,-1.8338012352913617
1746483153669885400,6.237885498046875,0.5197761535316705,-0.4158139670148492,-2.632795604480803
1746483153679863600,6.247863525390625,-0.8523398826688527,0.08530103292763233,-2.7639547177419064
1746483153689842400,6.257842529296875,-1.6684908461034298,1.023282140263915,-2.5773887745574116
1746483153699821600,6.267821533203125,-1.9346335993498562,2.038459007744491,-1.7482772072628139
1746483153709799400,6.27779931640625,-1.398301447814703,2.5955051537454126,-0.4177703252470121
1746483153719778600,6.287778564453125,-0.3145622085005045,2.4277131768748164,0.8868108920693397
1746483153729757400,6.29775732421875,0.5227309116840362,1.6464733678236603,1.701038486225903
1746483153739735300,6.3077353515625,0.682291943565011,0.8873395921185612,1.6626012035429476
1746483153749714400,6.31771435546875,0.0314753347158432,0.3304787395566702,0.928824791130051
1746483153759693300,6.327693359375,-0.8306541205614805,0.15301321767270565,0.005380779722891748
1746483153769671400,6.33767138671875,-1.1758528748661279,0.2506029465481639,-0.6309661724101752
1746483153779650600,6.347650634765625,-0.7935024937748909,0.1549769189611077,-0.933435572861135
1746483153789629400,6.35762939453125,-0.11643208425045012,-0.0980398107305169,-0.9047355480775237
1746483153799607600,6.367607666015625,0.574983076968789,-0.4692863217443228,-0.8991004648000002
1746483153809586400,6.37758642578125,1.2526765868276357,-1.1241712029457092,-0.7184187573485076
1746483153819565600,6.387565673828125,1.2353414211452007,-1.251982174822688,-0.7554536989528685
1746483153829544400,6.39754443359375,0.5479319884359837,-0.699742844581604,-0.9951050433758646
1746483153839522300,6.407522216796875,0.1545364817172289,-0.2998696662813425,-1.3693304971352218
1746483153849501400,6.41750146484375,0.4322200351536274,-0.2855868739068508,-1.603388259334862
1746483153859480300,6.427480224609375,0.9951403338849544,-0.6191039582461119,-1.5826311563797295
1746483153869458400,6.43745849609375,1.5033774407923222,-1.227968262028694,-1.0428646464817226
1746483153879437600,6.4474375,2.181475439798832,-1.4958102204084396,-0.20355434125587343
1746483153889416400,6.45741650390625,2.8688591535449026,-1.1629308494508266,0.5321955631870776
1746483153899394600,6.46739453125,3.3069156397670505,-0.5371376226991414,0.8878358512029051
1746483153909373400,6.47737353515625,3.574652968728542,0.28047756806910035,0.826860062040761
1746483153919352600,6.4873525390625,4.438641788136959,0.5675695858418941,1.0933686529248952
1746483153929331500,6.49733154296875,5.232812390431762,0.5139426250725985,1.1978845278017223
1746483153939309300,6.507309326171875,5.026473240762948,-0.04662848018407821,1.4185960478246211
1746483153949288400,6.517288330078125,4.819915479907393,-1.3589333140224218,1.6394382084898649
1746483153959267300,6.527267333984375,4.5590246558398,-2.1877368382811544,1.8383127213664352
1746483153969245400,6.537245361328125,2.716097280284762,-1.4043001037076115,1.9279941613353788
1746483153979224300,6.547224365234375,-0.6040484279334545,0.5662526580244303,1.438679781562835
1746483153989203500,6.557203369140625,-3.5997868254631755,2.1512609187990424,0.9845661867700517
1746483153999181600,6.567181640625,-4.011837932813167,2.1537819617092606,0.24364373852740973
1746483154009160400,6.577160400390625,-1.5245055690169333,-0.3652367492049932,-0.6902894451249391
1746483154019140000,6.58714013671875,1.2766145117759704,0.3217269855633378,-4.97492191722393
1746483154029118000,6.597117919921875,0.4410673584759235,-2.631269710087776,-3.32061537155658
1746483154039097000,6.60709716796875,0.02802490200102329,-3.220164115770161,0.8118073812723159
1746483154049076000,6.617075927734375,-0.13283143038749695,1.4667168123930692,-1.701398990101367
1746483154059055000,6.62705517578125,-1.185095919507742,1.4928499092981218,-0.6497293981343507
1746483154069033000,6.637032958984375,-2.8667075284689663,0.41174174913987516,1.1162369758803397
1746483154079011800,6.64701171875,-3.7316748375207185,0.7337057583294808,0.9712282740302384
1746483154088991000,6.656990966796875,-4.26431748688817,0.6610831513196229,0.18451818034183232
1746483154098969000,6.666968994140625,-4.181608224019408,-0.09950579162985086,0.06752997831227257
1746483154108948000,6.676947998046875,-3.448233743470907,-0.394782577162981,0.38290611527785656
1746483154118927000,6.686927001953125,-2.517863695660233,-0.4157946777924895,1.0156517184507101
1746483154128905000,6.696905029296875,-1.5602958443224428,-0.096973788934201,1.114706259181723
1746483154138884000,6.706884033203125,-0.24135960964560507,0.1718681402683258,0.6390082437641919
1746483154148863000,6.716863037109375,0.758690123590827,1.2476293864406645,-0.4433249281443655
1746483154158841000,6.726841064453125,0.8237479944348335,2.6327555647313594,-0.5791376393649726
1746483154168820000,6.736820068359375,0.6005944880872964,1.683575164119154,0.3646308922663331
1746483154178798800,6.746798828125,0.5744675286620855,0.7746567773990333,-0.01667421755567193
1746483154188778000,6.756778076171875,0.6020744975119828,0.8045392899654805,-0.9485594922348857
1746483154198756000,6.766756103515625,0.00442892235815525,0.9983546928215772,-0.8011307966962457
1746483154208735000,6.77673486328125,-0.781935390099883,0.5952996696148067,-0.21960955013036726
1746483154218714000,6.786714111328125,-1.1088163974255323,0.5006432907775045,-0.266471108417958
1746483154228692000,6.79669189453125,-1.4324708439201115,1.1869041379734873,-0.5797882852934301
1746483154238671000,6.806671142578125,-1.8343793274402618,1.9185573476873337,-0.564790038125962
1746483154248650000,6.81664990234375,-2.0637661752194165,2.6523338331654664,-0.5088235284931958
1746483154258628000,6.826628173828125,-2.2215087595015763,2.704628376287222,-0.13159268237277866
1746483154268607000,6.83660693359375,-1.6201251668632028,1.478466579158604,0.14623597862273455
1746483154278585900,6.8465859375,-0.8533984518110752,-0.09953625983335077,0.4580605788528919
1746483154288564000,6.85656396484375,-0.6642623658776283,-0.23866934764832257,0.8190347021773458
1746483154298543000,6.866543212890625,-0.9288327552407979,-0.2302039728483185,1.1247837818861006
1746483154308522000,6.87652197265625,-1.3066536762088536,-0.4500952259968966,1.6599866371303795
1746483154318501000,6.886501220703125,-1.0102426259487867,-0.47870158114768563,1.8469275511071084
1746483154328479000,6.89647900390625,-0.8640630536884069,-0.06020137072354555,1.7158587464779615
1746483154338458000,6.9064580078125,-0.7741752774924039,0.0783285635665059,2.242512969085574
1746483154348437000,6.91643701171875,-0.30881168214976784,0.05620156049765646,2.787536376598477
1746483154358415000,6.9264150390625,0.02616670691370964,-0.21855960268601773,3.180181941732764
1746483154368394000,6.93639404296875,0.2587409525573253,-0.6440840126585214,3.083617464251816
1746483154378372900,6.946372802734375,0.15091186147928237,-1.159403259846568,2.4727009041145442
1746483154388351000,6.95635107421875,0.28028818297684194,-1.5127347594633698,1.5114385821729897
1746483154398329900,6.966329833984375,0.4113444203853607,-1.834825463772565,0.4117871957167983
1746483154408309000,6.97630908203125,0.5055658418715,-2.0920288314990696,-0.4069894400462508
1746483154418287000,6.986287109375,0.7517500951945781,-2.0422600074626502,-0.8886483366295694
1746483154428266000,6.996265869140625,1.0531927098810672,-1.4875396740607916,-1.0146180645540357
1746483154438245000,7.0062451171875,1.1469728173404932,-0.49376025326550005,-0.859490046684444
1746483154448224000,7.01622412109375,1.0289935036480427,0.31825740975663064,-0.6320294907927513
1746483154458202000,7.0262021484375,0.7004600529402494,0.6120864806994796,-0.5476394352301955
1746483154468181200,7.03618115234375,0.03154080116748809,0.5732176747314631,-0.6643199412837624
1746483154478160000,7.046159912109375,-0.6891361103713513,0.49203079912438985,-0.9032572922185063
1746483154488138000,7.056137939453125,-1.2028174541592598,0.45566506201848384,-0.9316261853516101
1746483154498116900,7.066116943359375,-1.4291981058597565,0.601368541199714,-0.4483478708729148
1746483154508096000,7.076095947265625,-1.4645318695694207,0.920560455327481,0.1841825551792979
1746483154518074000,7.08607421875,-1.3507687122672796,1.3821579761348664,0.9006064854487776
1746483154528053000,7.096052978515625,-1.2229361130803822,1.6126106995798646,1.6489429728075862
1746483154538032000,7.1060322265625,-0.9590560440689325,1.7880070139743387,2.066106308604777
1746483154548010000,7.116010009765625,-0.441590505567193,1.7486233903519808,2.0306533024296165
1746483154557989000,7.125989013671875,-0.19425123699009417,1.863717065605521,1.7913006486922503
1746483154567968300,7.13596826171875,0.41891807051002977,1.3872487234026192,1.7832868535846471
1746483154577947000,7.14594677734375,1.2196031692653895,0.5739245078265667,1.8013287062317132
1746483154587925000,7.155925048828125,1.9277005852162836,-0.3090282475098967,1.8343255514264105
1746483154597904000,7.16590380859375,2.3534587308794257,-1.054724157232046,1.7106942033216357
1746483154607883000,7.175883056640625,2.606782919085026,-1.4442346392109988,1.2523171058654785
1746483154617861000,7.185861083984375,2.7197207314789296,-1.3952055276259778,0.5585585963904858
1746483154627840000,7.195840087890625,2.291989239916205,-1.0117504001632331,-0.2506532154306769
1746483154637819100,7.205819091796875,1.199580956456065,-0.3712063251338899,-1.0360483905956148
1746483154647797000,7.215796875,0.05949848315119743,0.5382101473014801,-1.3881228758886455
1746483154657776000,7.225776123046875,-0.9599626375198363,1.139898202779144,-1.5033528908729552
1746483154667755000,7.235755126953125,-1.8082623048871755,1.2447167138643562,-1.5978855702653527
1746483154677732900,7.24573291015625,-2.217408338445425,1.1259389432705937,-1.660629026687145
1746483154687712000,7.2557119140625,-2.0283552546203136,1.0028471088699995,-1.643633468222618
1746483154697691000,7.26569091796875,-1.3127800501346587,0.9631728317379951,-1.4786182625889777
1746483154707669000,7.2756689453125,-0.400593893790245,0.6742585669741034,-1.1565937553837895
1746483154717648100,7.285648193359375,0.5506406628727912,0.2622339457722381,-0.9534747368052601
1746483154727627000,7.295626953125,1.5807336521953343,0.12517251313216984,-0.7713982139945029
1746483154737606100,7.305606201171875,2.46509013684988,-0.01767539395485073,-0.5736056511357426
1746483154747584000,7.315583984375,2.9539053349286317,-0.3479222244517878,-0.7008055053770542
1746483154757563100,7.325563232421875,2.9851275716662404,-0.7063223691023885,-1.1175859793365002
1746483154767542000,7.3355419921875,2.6376106035470963,-0.8859053215317427,-1.5053496176481247
1746483154777519900,7.345519775390625,2.2516174820393324,-0.8918777470048517,-1.7735469653367995
1746483154787499000,7.3554990234375,1.937715198752284,-0.7845745064318179,-1.8139546713098882
1746483154797478000,7.365477783203125,1.8486375698953865,-0.6399068731043488,-1.583524159696698
1746483154807456000,7.3754560546875,1.9997668735176324,-0.40731238839030265,-1.0786185352995992
1746483154817435100,7.38543505859375,2.3880776243180035,-0.32733485204037277,-0.43441140771806236
1746483154827414000,7.3954140625,2.2596464747160674,-0.39157998172938824,0.018218670518696307
1746483154837393200,7.40539306640625,1.355669343790412,-0.5812401646021753,0.11725976724624633
1746483154847371000,7.41537109375,0.5317658665329218,-0.7284663963712752,0.07883329821825028
1746483154857350100,7.42535009765625,0.3682908760786056,-0.8464834117256105,0.026114099943637847
1746483154867329000,7.4353291015625,-0.01078150625526905,-1.0166010550647973,-0.09827829566150903
1746483154877307000,7.445306884765625,-0.8638871125996113,-1.1413133302740752,-0.19894348645955323
1746483154887286000,7.4552861328125,-1.7095727980762718,-1.2938435867354272,-0.20571561094298957
1746483154897265000,7.465264892578125,-2.4397832616358994,-1.3126418107077478,-0.11322831977307796
1746483154907243000,7.475242919921875,-3.3128801011294127,-1.2452885224029422,0.017812427805364132
1746483154917222100,7.48522216796875,-4.973177119383216,-1.3558179584808647,0.10211787382438778
1746483154927201000,7.495200927734375,-5.1062061181694265,-1.439223971442133,0.5157065660052002
1746483154937179100,7.50517919921875,-3.6648499570041895,-1.5218576848566532,0.9940440630808473
1746483154947158000,7.515157958984375,-2.0002379981607197,-1.5815272867910564,1.3321242175519465
1746483154957137200,7.52513720703125,-0.8718225817739963,-1.909644265652448,1.5989130136169492
1746483154967115000,7.535114990234375,-0.2541904496461153,-2.401678571908176,2.065816970269382
1746483154977094000,7.545093994140625,0.10789572657346724,-2.65586171503067,2.3274220800861714
1746483154987073000,7.555072998046875,0.20679624578654765,-2.72176217417866,2.1312338836841285
1746483154997052000,7.565052001953125,0.06809855371415614,-2.672183904278278,2.1562558044768867
1746483155007030000,7.575030029296875,-0.20772095941603183,-2.315299096094072,2.1250223156929016
1746483155017007600,7.585007568359375,-0.48673488467335696,-1.7140535967521369,1.8087104870460926
1746483155026986500,7.594986572265625,-0.6287310337692499,-0.9229800836898386,1.2823093624167143
1746483155036964600,7.604964599609375,-0.5038339035123587,0.04969692784398794,0.6744442988045514
1746483155046943700,7.61494384765625,-0.24339959104061126,1.0790674481108784,-0.04784176496397704
1746483155056922600,7.624922607421875,-0.025603227812051772,2.0459253981024026,-0.966303384848684
1746483155066900700,7.634900634765625,-0.08830956709384917,2.959178891417384,-2.0874445724487303
1746483155076879600,7.644879638671875,-0.5047860896706581,3.559552430230379,-2.4720193515911695
1746483155086858800,7.654858642578125,-1.078915180158615,3.9095214676767585,-2.4928318379953502
1746483155096836600,7.664836669921875,-1.0105231964558363,3.822325999304652,-2.7239824805766344
1746483155106815500,7.6748154296875,-0.5050087925106287,2.982627571544051,-2.192726609392464
1746483155116794600,7.684794677734375,-0.12300561742186546,1.5430539098814129,-0.9526629820309579
1746483155126773500,7.6947734375,0.13613982428312302,0.12232289585471152,0.2921238744601607
1746483155136751600,7.704751708984375,0.40643268294632434,-1.1132703080944717,1.218713380818814
1746483155146730800,7.714730712890625,0.713213736051321,-1.9945333567783234,1.628628645183891
1746483155156709600,7.724709716796875,1.1542162125974893,-2.509764852617681,1.5009052054598926
1746483155166687700,7.734687744140625,1.6457032602339983,-2.7127392020285126,1.1411040714375673
1746483155176666600,7.74466650390625,2.0334090308785435,-2.630574129039049,0.6759670513924211
1746483155186645800,7.754645751953125,2.336949494627118,-2.395345131102949,0.14849479040019214
1746483155196623600,7.76462353515625,2.513671504667401,-1.9961996825553476,-0.32787476760335266
1746483155206602500,7.7746025390625,2.3374428311020132,-1.6070428363196552,-0.7935660605303942
1746483155216581600,7.78458154296875,1.6468980229765176,-1.1838307218775153,-1.0161855330664664
1746483155226559700,7.794559814453125,0.5572632958829402,-0.6412069228522479,-0.892768558364734
1746483155236538600,7.80453857421875,-0.6434533866047859,-0.19393866390958428,-0.5925963289402425
1746483155246517800,7.814517822265625,-1.776761251208186,0.2299494500979781,-0.17142689930684862
1746483155256496600,7.82449658203125,-2.387992868643999,0.7157881165839731,0.19294220021814107
1746483155266474800,7.834474853515625,-2.7030063280433416,1.1444706252612173,0.5861639943378045
1746483155276453600,7.84445361328125,-2.1995295674055813,1.2103420044451951,0.7439267080925405
1746483155286432800,7.854432861328125,-1.1169418362140655,0.8942211683258414,0.8482779669921845
1746483155296410600,7.86441064453125,-0.11080138488709926,0.40419352571740746,0.9910882820151745
1746483155306389500,7.874389404296875,0.5489747754871845,0.05103548297137022,1.120888747208938
1746483155316368600,7.88436865234375,0.6241910522520542,-0.15145575909763573,1.394149588832259
1746483155326346800,7.8943466796875,0.3225269037693739,-0.2049367355249822,1.559748293442279
1746483155336325600,7.90432568359375,-0.1253138943642378,-0.12207286661639809,1.5444110235787927
1746483155346304800,7.9143046875,-0.46772564829885954,-0.06282149009406567,1.2078907388355582
1746483155356283600,7.92428369140625,-0.45188568961024284,-0.13464052563607692,0.815833860309422
1746483155366261800,7.93426171875,-0.3507335920780897,-0.27041531599909063,0.7477000891514122
1746483155376240600,7.94424072265625,-0.0427162751764059,-0.35629867885932326,0.5997353870399296
1746483155386219800,7.9542197265625,0.19229718031287193,-0.5224545789606869,0.5166789181686937
1746483155396197600,7.96419775390625,0.2880506336718798,-0.7011893901281059,0.4865818130034953
1746483155406176500,7.974176513671875,0.18703765234947203,-0.7618877505883574,0.322329408435896
1746483155416155600,7.98415576171875,-0.079402622538805,-0.7508724355772137,0.08621588275022804
1746483155426133800,7.9941337890625,-0.32435821084976196,-0.7410437000021338,-0.15910473948083817
1746483155436112600,8.004112548828125,-0.5265402408391237,-0.7715655333854258,-0.27592954937592146
1746483155446091800,8.014091796875,-0.5616518862307072,-0.8119523427009582,-0.22557744555883108
1746483155456069600,8.024069580078125,-0.35758828027844425,-0.710995329349488,0.10505677682049572
1746483155466048800,8.034048828125,-0.18087211545705795,-0.6210775964066386,0.5284812919043004
1746483155476027600,8.044027587890625,0.06583411591351032,-0.3180570648789406,0.5213994438845664
1746483155486005500,8.054005615234376,0.07170446925163268,-0.08612184779122471,0.35529768512323495
1746483155495984600,8.063984619140625,-0.05858838256895542,0.00921644889563322,0.26629290230683983
1746483155505963500,8.073963623046875,-0.17611118466556072,0.02905468344017863,0.20320209375210105
1746483155515942700,8.083942626953124,-0.05939677634239197,0.13213219607695936,0.14673983649164438
1746483155525920500,8.09392041015625,0.08934709344804287,0.2297090654708445,0.06382599096149205
1746483155535899600,8.103899658203124,0.042775896409153934,0.17957330781817435,0.051457946167141194
1746483155545878500,8.11387841796875,-0.029706571477651593,0.0822480750977993,0.02243541143089533
1746483155555856600,8.123856689453126,-0.03811667242646217,-0.0051772565074265,0.02519040922746062
1746483155565835800,8.133835693359375,0.018791794231534004,-0.021364275068044662,0.0634441520370543
1746483155575814700,8.143814697265626,0.048692426976561544,-0.07437105811238288,0.003782733409106731
1746483155585792500,8.15379248046875,0.1806996814996004,-0.0322746683999896,-0.09895853301063179
1746483155595771600,8.163771728515625,0.28199966306984425,0.03647212008982897,-0.11620455910488962
1746483155605750500,8.17375048828125,0.13160861059427262,-0.08331789628639817,0.08325827505365013
1746483155615728600,8.183728759765625,-0.11506021137535571,-0.09612506315037607,0.08437251990586518
1746483155625707500,8.19370751953125,-0.2128244200348854,0.03194397514089942,-0.07967690943554043
1746483155635686700,8.203686767578125,-0.39777123758494853,0.14631108968555925,-0.07335325937196611
1746483155645665500,8.21366552734375,-0.47667058677673335,0.14147402491793035,-0.12576324556693433
1746483155655643600,8.2236435546875,-0.4912865566283464,0.007104863569140434,-0.29219898552298545
1746483155665622800,8.233622802734375,-0.3434644778579473,-0.14676789354234934,-0.22427228124439716
1746483155675601700,8.2436015625,-0.05054653041064739,-0.21519085690528153,-0.04183642360195517
1746483155685579500,8.25357958984375,0.1453197405606508,-0.22803426412642,0.25152897535189983
1746483155695558700,8.26355859375,0.08666121536493301,-0.23235855706632136,0.5904238072067499
1746483155705537500,8.27353759765625,-0.14920973373651503,-0.22421543649062514,0.8013318722262978
1746483155715515600,8.283515625,-0.38930502253472804,-0.20703253876045344,0.8595419230021536
1746483155725494500,8.29349462890625,-0.5508966834604739,-0.28423648221120235,0.8802854358233511
1746483155735473700,8.3034736328125,-0.5883505080640316,-0.38628698988780374,0.8088174056760966
1746483155745451800,8.31345166015625,-0.4700590596824884,-0.5027509305812418,0.6345983183674514
1746483155755430700,8.3234306640625,-0.41285950112342834,-0.6142071261152625,0.3815849496766925
1746483155765409800,8.333409912109374,-0.3562584929794073,-0.665204615163803,0.17343655862882731
1746483155775388700,8.343388671875,-0.2941097875803709,-0.5752643781282007,0.004940671272575855
1746483155785366500,8.353366455078126,-0.22131752309203145,-0.4206519085653126,-0.06669453213512896
1746483155795345700,8.363345703125,-0.11173252825736998,-0.26492563254162665,-0.11358224777728318
1746483155805324500,8.373324462890626,-0.009360533541440964,-0.15537059445381163,-0.09505904135406017
1746483155815302700,8.383302734375,0.13151508709192275,-0.08307955748587846,-0.0468187420591712
1746483155825281500,8.393281494140625,0.29860300734639167,-0.07930749160125851,0.016419219881296156
1746483155835260700,8.4032607421875,0.44314007309675213,-0.08607596282288432,0.08815583783686161
1746483155845238800,8.41323876953125,0.4982365218967199,-0.11553988465107977,0.09972849446982145
1746483155855217700,8.4232177734375,0.5111170462578535,-0.18573190351314842,0.13672668426036835
1746483155865196800,8.43319677734375,0.48921910270452496,-0.19359467277750372,0.12175064892470835
1746483155875174400,8.44317431640625,0.4269891487628221,-0.17905154896639286,0.07709843724966049
1746483155885153500,8.453153564453125,0.3487999936670065,-0.13077449785768985,0.07876637046188116
1746483155895132400,8.46313232421875,0.2683025616288185,-0.09777093066126108,0.12415814845785497
1746483155905111600,8.473111572265625,0.19533435605168342,-0.04329984721802175,0.2135806452296674
1746483155915089700,8.483089599609375,0.13766776450276375,-0.036676337425038216,0.34931831845268607
1746483155925068500,8.493068603515624,0.0685357760876417,-0.004058773871511221,0.4447403479002416
1746483155935047700,8.503047607421875,-0.027278467547893523,0.06333740372695028,0.4015853890456259
1746483155945025800,8.51302587890625,-0.04680909744799137,0.06278758782446384,0.32081936919912696
1746483155955004700,8.523004638671875,-0.0131757079154253,0.04230352965705096,0.2705890651308
1746483155964983800,8.53298388671875,0.049022097322344776,-0.0039547289751470085,0.19058716152459382
1746483155974961700,8.542961669921874,0.14663842194378376,0.00137508774548769,0.1490777779199183
1746483155984940500,8.5529404296875,0.2413105098068714,0.00852576321773231,0.09203516348823905
1746483155994919400,8.56291943359375,0.29699089597463607,-0.023248992836102843,0.10138985181078314
1746483156004897500,8.5728974609375,0.33712884509563446,-0.03842646902799606,0.15751593591943383
1746483156014876700,8.582876708984376,0.3283504953563213,-0.12078297293633222,0.15842150645703076
1746483156024855600,8.59285546875,0.2865881599038839,-0.20020393484942614,0.1758006574116647
1746483156034834700,8.602834716796876,0.22406302240788936,-0.27130240103192627,0.1781606645412743
1746483156044812800,8.612812744140625,0.08361936345100403,-0.32319990766011175,0.08674334069043398
1746483156054791700,8.622791748046875,-0.058793549752235406,-0.3361679641742259,-0.03149535459056496
1746483156064770800,8.632770751953124,-0.14947744476199148,-0.3251139976531267,-0.10470803644806145
1746483156074748700,8.642748779296875,-0.19287410341799258,-0.3594872457675636,-0.13095511512160302
1746483156084727600,8.6527275390625,-0.2986357405722141,-0.3994756303500384,-0.163568513956666
1746483156094706400,8.66270654296875,-0.4164157323002815,-0.3832506178665906,-0.21290771440416573
1746483156104684500,8.6726845703125,-0.4917658645778894,-0.3807763367075473,-0.19573679937273264
1746483156114663700,8.68266357421875,-0.500291700860858,-0.38568938932083546,-0.13490692148730157
1746483156124642600,8.692642578125,-0.36703006236255165,-0.29521482621282336,0.02119564050287008
1746483156134620700,8.70262060546875,-0.27115269036293027,-0.19878223148323595,0.12201587573215365
1746483156144599600,8.712599609375,-0.17829203583598136,-0.11009900877140462,0.21568463177159428
1746483156154578700,8.72257861328125,-0.0814811823785305,-0.06861220232471824,0.278821179164201
1746483156164556800,8.732556884765625,-0.026767010894417763,-0.040949923091009255,0.34926614987403154
1746483156174535700,8.74253564453125,0.0016699790388345717,-0.046384588425606485,0.3629419162660837
1746483156184514600,8.7525146484375,0.0813724613070488,-0.03912994112223386,0.36575215138122436
1746483156194493400,8.762493408203126,0.1346598148584366,-0.08671301861740648,0.34478652024194595
1746483156204471600,8.772471435546874,0.1271376026600599,-0.13618790120854973,0.2782926252454519
1746483156214450700,8.78245068359375,0.06827098767161369,-0.16922485921792685,0.1855002136491239
1746483156224429600,8.7924296875,-0.15866320625841618,-0.1885536098703742,0.04725815638974309
1746483156234407700,8.80240771484375,-0.7031079371005297,0.02207432303354144,-0.05270400070548057
1746483156244386600,8.812386474609376,-1.2285106983423233,0.10572386242710054,0.11357421060129999
1746483156254365700,8.82236572265625,-1.4467635731667279,0.0834255213793367,0.2734235579043627
1746483156264343800,8.83234375,-1.3199439504146575,0.074851096714288,0.31225816934183237
1746483156274322700,8.84232275390625,-0.9925731137454509,-0.07917126146834343,0.25439883169978855
1746483156284301800,8.8523017578125,-0.5003694422721863,-0.523229216594994,-0.02783843951821327
1746483156294279700,8.86227978515625,-0.07614040587246418,-1.055473368164152,-0.44370501350313424
1746483156304258600,8.872258544921875,0.18132804253101348,-1.0282039607055484,-0.5740960650011897
