time,seconds_elapsed,z,y,x
1746483089480370700,0.01737060546875,0.06907879692316055,-0.017569558960199357,0.7995441120266914
1746483089490349800,0.027349853515625,0.027360300612449644,0.041381811702251435,0.6543105884447693
1746483089500328700,0.03732861328125,0.053685412958264345,0.05854454342722892,0.7302230307802557
1746483089510307800,0.047307861328125,0.08573942434489727,0.06775134771168231,0.7133537290439009
1746483089520286000,0.057285888671875,0.11460019264817237,0.018652678021788598,0.6478115818142891
1746483089530264800,0.067264892578125,0.26948797202110286,-0.11517302410006522,0.6091182785436511
1746483089540244000,0.077243896484375,0.43613048659563064,-0.25358546949028965,0.5017261175781488
1746483089550222800,0.087222900390625,0.5599123490869998,-0.3164133893251419,0.3415755953714251
1746483089560202000,0.097201904296875,0.6547574554294348,-0.3598030337184667,0.2734089448571205
1746483089570180900,0.107180908203125,0.596059767267108,-0.41520518746674057,0.20485534085184334
1746483089580160000,0.117159912109375,0.3888379895448684,-0.3867886557996273,0.03627016777694225
1746483089590139000,0.127138916015625,0.10965630650520324,-0.3060492316991091,-0.14626345115154982
1746483089600116700,0.13711669921875,-0.1388940914273262,-0.18260580738186835,-0.32204467321038244
1746483089610095600,0.147095703125,-0.3362257587760687,-0.05435761313140392,-0.40185763011574743
1746483089620074800,0.15707470703125,-0.3898188172757625,-0.002348608952760696,-0.38489480487704275
1746483089630053600,0.1670537109375,-0.36583120796680446,0.0027227029621601103,-0.3151674809172749
1746483089640032800,0.17703271484375,-0.2611988671034574,0.042454409369826314,-0.29987054306417704
1746483089650012000,0.187011962890625,-0.24174071791768073,0.027442133677005768,-0.32040684287548066
1746483089659990800,0.19699072265625,-0.24972587145268915,0.03017477351129055,-0.320402458961308
1746483089669970000,0.206969970703125,-0.19479542686939239,0.07324409990906715,-0.2708367562815547
1746483089679947800,0.21694775390625,-0.1432990483880043,0.09977788656949996,-0.10649316629916429
1746483089689927000,0.226927001953125,-0.0725146165907383,0.11165887849926948,0.04284457773119211
1746483089699905800,0.23690576171875,-0.004223170652985573,0.13292670745551585,0.16300298902839422
1746483089709885000,0.246885009765625,0.06214987444281578,0.10411854612231254,0.2620876326367259
1746483089719863800,0.25686376953125,0.2018354085087776,0.1332476099729538,0.27063918788284064
1746483089729843000,0.266843017578125,0.3014765169560909,0.15211130039691925,0.2809609676718712
1746483089739821800,0.27682177734375,0.3940115927904844,0.12911620925664902,0.2953317305907607
1746483089749801000,0.286801025390625,0.4514420374959707,0.07882628395557403,0.30048107617795466
1746483089759778800,0.29677880859375,0.5302981320679188,0.026900281885266303,0.2579626616612077
1746483089769757700,0.3067578125,0.5624626180917024,-0.012254501417279243,0.20805852080732581
1746483089779736800,0.31673681640625,0.5563654702603816,-0.04391103791892528,0.13152590074688195
1746483089789715700,0.3267158203125,0.5968026945888996,-0.05475742610394954,0.04881283848583698
1746483089799694800,0.33669482421875,0.6098071375906468,-0.00632861849963665,-0.035059038421511646
1746483089809673700,0.346673828125,0.6293851137638091,0.00220423204600811,-0.0845095902889967
1746483089819652900,0.35665283203125,0.6446130780339241,-0.028978841724991797,-0.08610299696028233
1746483089829631700,0.3666318359375,0.6426257036089896,-0.044914662003517146,-0.06185732123702764
1746483089839611000,0.37661083984375,0.6857967368155717,-0.06921265243589877,0.02273848603069782
1746483089849589000,0.386589111328125,0.8958440933525562,-0.12220716052055358,0.18606793053448198
1746483089859567900,0.39656787109375,1.1007985106647014,-0.201377727869153,0.3180044579088688
1746483089869547000,0.406547119140625,1.0892892746567726,-0.18801146581768988,0.3127659727334976
1746483089879526000,0.41652587890625,0.891513955193758,-0.09335574456751346,0.11991232758164405
1746483089889505000,0.426505126953125,0.49835167270898817,0.027239304581284523,-0.1972007344454527
1746483089899484000,0.43648388671875,-0.015979659420251844,0.15263269392251969,-0.3994458927989006
1746483089909462800,0.446462890625,-0.3395785763353109,0.25596505810320375,-0.411627328979969
1746483089919441700,0.456441650390625,-0.5473989044725894,0.30246143634021283,-0.3473492103368044
1746483089929419800,0.466419677734375,-0.5741787748485804,0.254789584583044,-0.2065846488624811
1746483089939398700,0.476398681640625,-0.3967936247244477,0.17713468249440192,-0.03598550561666489
1746483089949377500,0.48637744140625,-0.18531243599206207,0.1422749660372734,0.217948338919878
1746483089959356700,0.496356689453125,0.05648585733175277,0.09350772025883197,0.4382879568904638
1746483089969335300,0.506335205078125,0.2813210331559181,0.11526304047107695,0.7143675822615623
1746483089979314400,0.516314453125,0.4861483169570565,0.17644962283968924,0.9315198023676872
1746483089989293300,0.526293212890625,0.5527548785477876,0.2422206103891134,1.0921417414784431
1746483089999272400,0.5362724609375,0.5729653074055909,0.39526539224386215,1.2341723773658275
1746483090009250300,0.546250244140625,0.5375590629816055,0.5171744466006756,1.3934610220462083
1746483090019229400,0.5562294921875,0.4647998239800334,0.5833247888565063,1.4895657730609178
1746483090029208300,0.566208251953125,0.3602522387906909,0.6019821430534124,1.573089859443903
1746483090039187500,0.5761875,0.27390374263674017,0.6101788935124873,1.5794932967454194
1746483090049166300,0.586166259765625,0.19366788414418695,0.5262199228435754,1.3765221622049808
1746483090059145500,0.5961455078125,0.08447364219278097,0.5085276142865419,1.0987696351855993
1746483090069124400,0.606124267578125,0.07826309711486101,0.5445663113951683,0.7525456294864415
1746483090079103500,0.616103515625,0.07406184603273869,0.5428817193090916,0.44633273165822024
1746483090089082400,0.626082275390625,0.09913841962218284,0.4322755647331476,0.040001755520701406
1746483090099060500,0.636060546875,0.15730594643056392,0.3117249392479658,-0.2203741047620773
1746483090109039600,0.64603955078125,0.20098025298416614,0.12293021409809589,-0.4333721277981996
1746483090119018200,0.656018310546875,0.16317893011718987,-0.05692191066145896,-0.6961059493839741
1746483090128997400,0.665997314453125,0.0714250677883625,-0.1595119320422411,-0.8591331960707902
1746483090138976300,0.675976318359375,0.03031009032875299,-0.2081669496178627,-0.9424480236172675
1746483090148955400,0.685955322265625,0.02239829429090023,-0.34265316147506236,-0.9907593423217534
1746483090158934300,0.695934326171875,0.04664586971029639,-0.4819365444809198,-1.0708820958286522
1746483090168913400,0.705913330078125,0.03260506939813494,-0.606654811039567,-1.1481593967765569
1746483090178892300,0.715892333984375,0.022613836737722156,-0.694580347251892,-1.2027169163942337
1746483090188870400,0.725870361328125,0.03537117311060428,-0.8065390854805707,-1.2021914312154054
1746483090198849500,0.735849609375,0.0026467151165008545,-0.939028570562601,-1.130432601428032
1746483090208828400,0.745828369140625,-0.09684300216138363,-1.0818903965771198,-1.057219481179118
1746483090218807600,0.7558076171875,-0.16953414436280725,-1.1877940725505352,-0.8771101667881012
1746483090228786400,0.765786376953125,-0.2685258489906788,-1.2713655052065849,-0.6166477972656488
1746483090238765600,0.775765625,-0.30775296687707304,-1.3231921385556458,-0.31889819187819957
1746483090248744400,0.785744384765625,-0.2990904986023903,-1.4100970995485782,-0.05494038145542145
1746483090258723600,0.7957236328125,-0.22347090173363685,-1.523400238123536,0.11776830129027366
1746483090268702500,0.805702392578125,-0.0873686329819262,-1.5682658002883194,0.32238369590640065
1746483090278680300,0.815680419921875,0.0658056204713881,-1.612898138219118,0.520662873238325
1746483090288659500,0.825659423828125,0.2069962984032929,-1.729461155372858,0.6888263137698173
1746483090298638300,0.835638427734375,0.4156704668909311,-1.7648504486620424,0.8106611338466405
1746483090308617500,0.845617431640625,0.6320042102210224,-1.7044313435345888,0.856463100078702
1746483090318596400,0.855596435546875,0.9253625949122011,-1.6041992834568022,0.8907517386496067
1746483090328575500,0.865575439453125,1.21217915674448,-1.4735007734447716,0.9300257644176483
1746483090338554400,0.875554443359375,1.547173327898979,-1.231094285094738,0.9338467840105295
1746483090348533500,0.885533447265625,1.6963101425297558,-1.0385644650697707,0.9325082288831472
1746483090358512400,0.895512451171875,1.767752453713864,-0.9352531436771154,0.9339765478700399
1746483090368491500,0.905491455078125,1.7301427078962326,-0.8816074782073497,0.9315116190612316
1746483090378469400,0.915469482421875,1.5204836200244725,-0.824278740310669,0.849560481083393
1746483090388448500,0.925448486328125,1.1917122689075768,-0.9411240815371275,0.7752607346415519
1746483090398427400,0.935427490234375,0.8142788859523832,-1.066619177687168,0.6896323694556951
1746483090408406500,0.945406494140625,0.5170246628664433,-1.1897101353049278,0.6981926925301551
1746483090418385400,0.955385498046875,0.376988561797142,-1.3488573256880043,0.8300088083952665
1746483090428364500,0.965364501953125,0.4011562038481235,-1.5824568227261304,0.9577835399150848
1746483090438343400,0.975343505859375,0.505271242839098,-1.8169161514639853,1.0093851323366165
1746483090448322600,0.985322509765625,0.6844324627250432,-1.9724901595354078,1.03584293115139
1746483090458301400,0.995301513671875,0.8550197694025933,-2.092398395463824,1.0060118565112353
1746483090468279300,1.005279296875,0.8950140722692013,-2.103115019789338,0.8952133942335844
1746483090478258400,1.015258544921875,0.7193349954105913,-2.1198744314104316,0.9039204323023557
1746483090488237300,1.0252373046875,0.6116045424014329,-2.192692999383807,1.0219114364325999
1746483090498216400,1.035216552734375,0.6778608292497694,-2.2230378687649965,1.1100929932326078
1746483090508195300,1.0451953125,0.9274882087640464,-2.1244617592006922,1.1327315260201691
1746483090518174500,1.055174560546875,1.3766513415426016,-1.8434435083836316,1.1698223625302313
1746483090528153300,1.0651533203125,1.873423489975184,-1.5300959363698958,1.4299620759695768
1746483090538132500,1.075132568359375,2.3013326761923727,-1.2247276726722716,1.6591525243937968
1746483090548111400,1.085111328125,2.481191376823187,-1.0602741925746202,1.7748007647901773
1746483090558089500,1.09508935546875,2.567380298501253,-0.9277262553036212,1.8261854995906353
1746483090568068600,1.105068603515625,2.776729735901952,-0.6729752491652965,1.9217530749887226
1746483090578047500,1.115047607421875,3.0972762795090674,-0.3602092764317989,2.1790251240372656
1746483090588026600,1.125026611328125,3.5944697220936415,-0.10222644876539706,2.62753169260323
1746483090598005500,1.135005615234375,4.227625878828763,0.045262452527880664,3.3051182349562644
1746483090607984600,1.144984619140625,4.855641457805037,0.043210780695080754,4.08710330941677
1746483090617963300,1.15496337890625,5.382048427653312,-0.006255553263425827,4.778488075497746
1746483090627942400,1.1649423828125,5.761830419561266,0.04652969598472118,5.118568171614408
1746483090637921300,1.17492138671875,6.098839437669516,0.3778121531397104,4.977144269448519
1746483090647899400,1.1848994140625,6.592836422300338,0.4580260920614004,4.846519993716478
1746483090657878300,1.194878173828125,7.41707190799117,0.35419103905558585,5.479153880143166
1746483090667857400,1.204857421875,8.195201476067304,0.18838789791464805,7.143990295392275
1746483090677836500,1.21483642578125,8.634462077382207,0.02012859579324722,8.936221502932906
1746483090687815400,1.2248154296875,8.32853793336749,0.3534218082487583,9.127927147093414
1746483090697794600,1.234794677734375,7.348652451759576,1.2629922291368245,7.199467852464318
1746483090707773400,1.2447734375,5.945887594795226,1.892000326281786,4.169857580471039
1746483090717752600,1.254752685546875,4.276480218368769,2.1558020693600177,0.8563444421350955
1746483090727731500,1.2647314453125,2.9211574960589406,2.267034246879816,-2.2289304339349267
1746483090737710600,1.274710693359375,2.2526162838183343,2.266310608780384,-5.088302212688326
1746483090747688400,1.2846884765625,2.26589822858721,1.6578250751823187,-7.830975365209579
1746483090757667600,1.29466748046875,3.0453751196190715,0.3691197281181812,-10.026405680602789
1746483090767646200,1.304646240234375,4.509701529744267,-1.4071516937464474,-10.796747079020738
1746483090777625300,1.314625244140625,6.347247212260961,-2.939614359247684,-10.049593663966656
1746483090787604200,1.324604248046875,8.141473393011093,-3.4086610270172355,-8.890552223169804
1746483090797583400,1.334583251953125,9.70767290841937,-2.2110832270771263,-7.961863260313868
1746483090807562200,1.344562255859375,10.740486847138405,-0.997006127756834,-7.235489013916253
1746483090817541400,1.354541259765625,11.207870550131798,-0.5175818583577871,-7.286813542962074
1746483090827520300,1.364520263671875,10.589572647571563,-0.5439847121149302,-8.23832925465405
1746483090837499400,1.37449951171875,8.924170415133238,-0.6992278807967901,-9.599588965797423
1746483090847477500,1.3844775390625,6.833859931859374,-0.08539397190809249,-10.490678558099269
1746483090857456400,1.394456298828125,4.883689448420703,1.53264328276515,-10.986506265288591
1746483090867435500,1.404435546875,3.020149200686812,3.2958898033618924,-11.92572538998723
1746483090877414400,1.414414306640625,1.157064587765932,5.0015445512115955,-12.900550081074238
1746483090887393500,1.4243935546875,-0.7335059979736804,7.002770391365885,-13.519451210224627
1746483090897372400,1.434372314453125,-2.640525614210963,9.147075499677658,-14.120064987534283
1746483090907351600,1.4443515625,-4.247800651851296,11.375738222587108,-14.637468566715716
1746483090917330400,1.454330322265625,-5.3236523527860635,12.564794862419365,-13.538230729496478
1746483090927309600,1.4643095703125,-5.885652614063024,13.743472731578349,-12.08262626274824
1746483090937288400,1.474288330078125,-6.070254563698172,15.313528922414779,-11.605276461535691
1746483090947266300,1.484266357421875,-5.771906992417573,16.27912985808253,-11.448306615191697
1746483090957246000,1.494245849609375,-5.524169079911709,17.158513815021514,-11.00139053068757
1746483090967224800,1.504224853515625,-5.089224003708362,18.98259152867794,-9.860954421639441
1746483090977203700,1.51420361328125,-5.1525294779270885,20.28811649311781,-8.490912853625415
1746483090987182600,1.5241826171875,-5.722008696782589,19.868684627866745,-7.062513789188862
1746483090997161700,1.53416162109375,-5.2309214621186255,19.930295573127268,-4.556977075660228
1746483091007140600,1.544140625,-3.631654958888888,19.916690241622923,-1.9907408326275646
1746483091017119700,1.55411962890625,-2.711384280288219,18.869977541410922,0.3542604510299861
1746483091027098600,1.5640986328125,-3.1468554261922836,18.84327541244626,3.113151894032955
1746483091037077800,1.574077880859375,-4.13173330926001,19.305058226692676,5.458284110593795
1746483091047055600,1.5840556640625,-4.199922463867068,19.774513475263117,7.570415380531549
1746483091057034800,1.59403466796875,-4.766822187623381,19.578213489049674,7.992022836256027
1746483091067013600,1.604013671875,-5.775325860950351,17.89851969640851,7.527787952682376
1746483091076992800,1.61399267578125,-6.250217163094878,13.302348089957237,6.583119330406189
1746483091086971600,1.6239716796875,-7.714201335653662,8.612218096870183,6.2139446572303765
1746483091096950800,1.63395068359375,-13.877293173003196,-3.8058220237493514,11.452990973615647
1746483091106929700,1.6439296875,-20.705289765787125,-33.9394545463562,25.407506502509115
1746483091116908800,1.65390869140625,-10.033493593037129,-54.953914306211466,30.231530586779115
1746483091126887700,1.6638876953125,7.849774758225679,-60.03226854085922,2.13428011951223
1746483091136865500,1.673865478515625,20.386634150493144,-61.35484517786502,-22.537373091244696
1746483091146844700,1.6838447265625,26.10631411206722,-54.88441699161529,-28.972790754389763
1746483091156823600,1.693823486328125,21.75107892141342,-48.38870940268039,-22.10023021273613
1746483091166802700,1.703802734375,13.639278197610377,-29.525397748899458,-12.33490824842453
1746483091176781600,1.713781494140625,7.11926911111176,-7.795969518280029,-6.2734899021327495
1746483091186760700,1.7237607421875,2.448586745816469,7.5002096254050725,-0.4731166936874389
1746483091196739600,1.733739501953125,-2.269739998707175,18.24647505594492,2.177088895277679
1746483091206718700,1.74371875,-7.4207123103201384,17.794833696484563,5.4850984677612775
1746483091216697600,1.753697509765625,-8.852041582989692,16.684576452600954,2.905873417687416
1746483091226676700,1.7636767578125,-6.535328820705414,17.84497398418188,-0.4176423514857888
1746483091236654800,1.77365478515625,-2.914244647930562,17.829558972907066,-2.81040608779341
1746483091246633700,1.7836337890625,0.07768062105178833,16.59985584990978,-4.065948585446178
1746483091256612900,1.79361279296875,1.7912939266905188,14.837787725442647,-4.0505844275757665
1746483091266591700,1.803591796875,2.8270912651345133,12.158183900296688,-3.1099148118078705
1746483091276571000,1.81357080078125,3.0281928064107895,9.728735570192336,-1.6391308961063622
1746483091286549800,1.8235498046875,2.2456436683267356,8.111874958083034,0.5741781903266906
1746483091296529000,1.83352880859375,0.31895693632811306,7.036852693709731,2.633713303847611
1746483091306507800,1.8435078125,-2.2720257715567946,6.4555655481606715,3.375273136678338
1746483091316487000,1.85348681640625,-4.836475277303159,5.747516063004732,3.9038466369107363
1746483091326465500,1.863465576171875,-6.791528272086381,4.98916963828504,4.712040796121955
1746483091336444700,1.873444580078125,-8.157437854862213,4.476392549860477,5.242406148207188
1746483091346422800,1.8834228515625,-8.944198473161459,3.833883750629425,5.785425814682245
1746483091356401700,1.893401611328125,-9.288183760023117,3.5964679101735353,5.953068446210026
1746483091366380800,1.903380859375,-9.223168559277058,3.678994802212715,5.682568082275987
1746483091376359700,1.913359619140625,-8.808622127979993,3.9425095450431105,5.223945193365216
1746483091386338800,1.9233388671875,-8.420068216073513,4.329868694207072,4.506547449627519
1746483091396317700,1.933317626953125,-8.284351585638523,4.598237306809425,3.745134915335476
1746483091406296800,1.943296875,-8.248757709687947,4.927153034833073,3.207658854462206
1746483091416275700,1.953275634765625,-8.053482974869013,5.223998384857177,3.036214784824848
1746483091426254800,1.9632548828125,-7.669404162549972,5.488332042855024,3.1900451640993355
1746483091436233700,1.973233642578125,-7.238744800841808,5.762842811474203,3.5753912198752165
1746483091446211800,1.9832119140625,-6.836101573306322,5.839336268568038,4.275359105384349
1746483091456190700,1.993190673828125,-6.493380022770166,5.642415520107746,4.908517892467976
1746483091466169900,2.003169921875,-6.173344935816526,5.368669890642166,5.425649084448814
1746483091476148500,2.0131484375,-5.852348894876242,5.001819861021637,5.895446278324723
1746483091486127600,2.023127685546875,-5.64787261646986,4.632816452759504,6.241337691068649
1746483091496106800,2.033106689453125,-5.529978058451414,4.314544283825159,6.337336643621325
1746483091506085600,2.043085693359375,-5.4967655246794225,4.024616750365495,6.228365981292725
1746483091516064800,2.053064697265625,-5.6562429699301715,3.971703490823507,5.857323176157474
1746483091526043600,2.063043701171875,-5.911949084836245,4.151043574407696,5.298006454876065
1746483091536022800,2.073022705078125,-6.2534080680906765,4.439076087900996,4.667508703695237
1746483091546000600,2.083000732421875,-6.628617345255613,4.585688790881633,4.281497169747948
1746483091555979800,2.092979736328125,-6.9205439435780045,4.712388002124428,3.8754461795955892
1746483091565958700,2.102958740234375,-7.1122110092937945,4.973117498150468,3.095952337428927
1746483091575937800,2.112937744140625,-7.210721652406454,5.07481144747436,2.0192969188958405
1746483091585916700,2.122916748046875,-7.067762795758247,5.063041514703631,0.7938315795987844
1746483091595895800,2.132895751953125,-6.503752948224544,5.196701797130704,-0.7321148358762264
1746483091605874700,2.142874755859375,-5.436666153025627,5.2747120885282754,-2.3262506982192397
1746483091615853800,2.152853759765625,-3.9747032571613787,5.443717825102806,-3.638745793932676
1746483091625832700,2.162832763671875,-2.3437767102986573,6.14877572722733,-4.493662249091267
1746483091635811800,2.172811767578125,-0.8896399780154227,7.037201068755984,-5.045895149591565
1746483091645790700,2.182790771484375,0.4652671492308378,7.537123936304449,-5.435380204868316
1746483091655768600,2.1927685546875,1.5502876605272293,7.874063396307825,-5.695982859644293
1746483091665747700,2.202747802734375,0.9101385761648416,7.704629205188155,-6.274165609437227
1746483091675726600,2.2127265625,-1.9299252755284309,4.025692562903464,-7.810995237976313
1746483091685705700,2.222705810546875,4.546407750850916,7.71677966170907,-9.943998615550994
1746483091695684600,2.2326845703125,18.317258318698403,15.124598588186501,-14.956147562885283
1746483091705663700,2.242663818359375,24.12280922204256,13.997584270769357,-10.465343041312694
1746483091715642600,2.252642578125,25.833326022970674,11.641112329548596,-2.220661202761531
1746483091725621800,2.262621826171875,35.89784136173725,6.79617580563128,7.714737926748395
1746483091735600600,2.2726005859375,49.83243170845508,2.466186992175877,20.39719295390844
1746483091745579800,2.282579833984375,17.47884116292,2.0497239136025307,11.585420252943038
1746483091755558700,2.29255859375,0.7573498148977756,1.4571211549215017,3.670805358277261
1746483091765536800,2.302536865234375,-1.3387842599630355,1.2309591144077479,3.343461701875925
1746483091775516000,2.312515869140625,-2.3747207146167755,0.23967509062476455,3.310946502718329
1746483091785494800,2.322494873046875,-4.024624933671951,0.27411406091917306,3.1635487868398426
1746483091795474000,2.332473876953125,-4.681307219684124,1.074307467167452,3.020346184563637
1746483091805452800,2.342452880859375,-5.1490720309495925,0.451263319928199,3.0348209923788905
1746483091815432000,2.352431884765625,-5.971456920337677,-0.6779387898568063,2.2596678097650407
1746483091825410600,2.36241064453125,-6.799221749198436,-0.7415973152969032,1.0611506831482052
1746483091835389700,2.3723896484375,-7.365507724970579,-0.2590730523222126,-0.27778644755529236
1746483091845368600,2.38236865234375,-7.777468231427669,-0.009943466262239962,-1.3881066554062067
1746483091855347700,2.39234765625,-7.997485777837038,-0.0854921533192508,-2.5284318514257667
1746483091865326600,2.40232666015625,-7.371360542652011,-0.16311682466641067,-3.5402117699444293
1746483091875304700,2.4123046875,-4.745144024300575,-0.1267497449867893,-3.745019764523208
1746483091885283600,2.42228369140625,2.612604757106304,0.08686290281633846,-1.909981534782797
1746483091895262700,2.4322626953125,15.44161637314558,1.1385210692070424,1.8937543303422628
1746483091905241600,2.44224169921875,16.27092784692645,2.558972827900946,2.2446124255828557
1746483091915220700,2.452220703125,6.874201879119872,1.3501537952393292,0.4234707653783262
1746483091925200000,2.462199951171875,3.3900931046694516,-0.19003855119850485,-0.4371550073377788
1746483091935178800,2.4721787109375,1.9109680616021154,0.3773225064592436,-1.2727560827821491
1746483091945158000,2.482157958984375,-0.09430734620392323,0.7787156243357807,-1.110666628402099
1746483091955137000,2.492136962890625,-1.707649721059203,0.2183508553061634,-1.0219562984876334
1746483091965116000,2.502115966796875,-2.3703286171376705,-0.5872486477693543,-0.9336471697852015
1746483091975095000,2.512094970703125,-1.8882991336762904,-0.9626485156029462,-0.03803001705631613
1746483091985073000,2.522072998046875,-1.1898059968948365,-0.7850562985993921,0.7287357148319482
1746483091995051800,2.5320517578125,-0.7611877856254577,-0.30845300490520894,1.2644172935038804
1746483092005031000,2.542031005859375,-0.5074772284507751,0.2344323859320022,1.5425012444347141
1746483092015009800,2.552009765625,-0.65959671215415,0.6224407014533877,1.46783441824615
1746483092024989000,2.561989013671875,-1.2437988683670758,0.66858607429564,1.120526270572096
1746483092034967800,2.5719677734375,-1.6695640282928943,0.5846313048778101,0.7433805454518646
1746483092044947000,2.581947021484375,-1.3692436956346035,0.546580500761792,0.39995154076609757
1746483092054925800,2.59192578125,-0.7291951490372419,0.3780687947819009,0.12295673677884042
1746483092064905000,2.601905029296875,0.2588508426725864,0.08156548139480874,0.11976756708240135
1746483092074883800,2.6118837890625,1.5753157187998295,-0.2613984082635492,0.3300278539840132
1746483092084863000,2.621863037109375,2.27513864288032,-0.6664263389784842,0.5111369200021029
1746483092094841900,2.631841796875,1.9010744440972804,-0.6949316449075937,0.4332411948949098
1746483092104820000,2.641820068359375,0.9634370356321335,-0.3512818005453795,0.11057093713209032
1746483092114799000,2.651799072265625,0.2756079162061214,-0.051343526007235046,0.11165882370034232
1746483092124778000,2.661778076171875,-0.07198971593379974,0.04524365649586543,0.21321467972779645
1746483092134757000,2.671757080078125,-0.36497137626707554,0.05913434428023174,0.041291320407204325
1746483092144736000,2.681736083984375,-0.46301498638987537,0.11270275239585899,-0.1285552143730223
1746483092154715100,2.691715087890625,-0.49234746385812755,0.13786769838850013,-0.3811538282504305
1746483092164694000,2.701694091796875,-0.6359095470964908,0.03355058835363015,-0.7186288929678499
1746483092174673200,2.711673095703125,-1.0050433037400246,-0.03643419923223555,-0.9889978125419467
1746483092184651800,2.72165185546875,-1.4272130695223808,-0.11294663502117619,-1.0845771514430642
1746483092194631000,2.731630859375,-1.5451204870223998,-0.15683515058103947,-1.0637205336362123
1746483092204609800,2.74160986328125,-1.0839344696253537,-0.09961805636528878,-0.6901062705777585
1746483092214589000,2.7515888671875,-0.16649112340509892,-0.08711150728254578,-0.1469857010114938
1746483092224567000,2.761567138671875,0.777504129654169,-0.19244711017757654,0.3393653354434296
1746483092234546000,2.7715458984375,1.2861451411873102,-0.271622883424256,0.755389401545003
1746483092244525000,2.781525146484375,1.2284370485842226,-0.31150629152860493,0.8753328549172729
1746483092254504000,2.79150390625,0.8778729678541421,-0.3990409287272021,0.9580779928170144
1746483092264483000,2.801483154296875,0.38238136075139045,-0.4224759821873158,0.8735829425100237
1746483092274462000,2.8114619140625,-0.004942132577300072,-0.3800160929247737,0.7873289197064935
1746483092284441000,2.821441162109375,-0.23984452890753744,-0.30439945519808675,0.7294428401879965
1746483092294420000,2.831419921875,-0.26054011093378066,-0.253714520963747,0.5883816338546574
1746483092304399000,2.841399169921875,-0.04684183067381382,-0.21244448080658912,0.5291289421580732
1746483092314378000,2.8513779296875,0.08901917666792869,-0.11041038540867157,0.5337738818870857
1746483092324357000,2.861357177734375,0.07989245188236237,0.043310870935535054,0.5096565452512354
1746483092334336000,2.8713359375,0.06047697279453277,0.08202693402725271,0.365684785233438
1746483092344313900,2.88131396484375,-0.11543313634097575,0.01970887254383415,0.2775433412481099
1746483092354293000,2.89129296875,-0.3541489534795284,-0.06339885159060359,0.18283691272400318
1746483092364271900,2.90127197265625,-0.22808394848704336,-0.14982868761876597,0.061207880884967744
1746483092374251000,2.9112509765625,0.2043237181931734,-0.21333129184478894,-0.10554488913100213
1746483092384230000,2.92122998046875,0.4542833984017372,-0.3988783220440149,-0.2957815201848745
1746483092394209000,2.931208984375,0.01177577798962593,-0.5090370251134038,-0.629332725989446
1746483092404188000,2.94118798828125,-0.3018681466221809,0.15348894542567432,1.3420672271564602
1746483092414167000,2.9511669921875,0.3953326122611761,0.2645032972100191,1.0721584724400193
1746483092424146000,2.96114599609375,1.1275625989496707,0.21576396235181017,0.19711948590278625
1746483092434125000,2.971125,0.7695879497021436,0.1834854214943014,-0.13066957617849112
1746483092444104000,2.98110400390625,-0.09475392092764377,0.28702408536942675,-0.2117011150933802
1746483092454083000,2.9910830078125,-0.853686036580801,0.4355761406484991,-0.07972425570860504
1746483092464061000,3.00106103515625,-1.133695987138152,0.4190533873274922,0.037376667714118954
1746483092474040000,3.0110400390625,-0.9662485859215258,0.3779066995553672,0.08845343254394829
1746483092484019000,3.02101904296875,-0.6921849765479564,0.23372160731414332,-0.11048654678426682
1746483092493998000,3.030998046875,-0.4241758449077606,0.11750157664548605,-0.1272656129539013
1746483092503977000,3.04097705078125,-0.30482465834021566,0.1005953221659176,-0.14839527554847298
1746483092513956000,3.0509560546875,-0.25560791522860526,0.02627223138110712,-0.09120550773106514
1746483092523935000,3.06093505859375,-0.33385318442583084,0.012225640648975968,-0.06140417064204812
1746483092533914000,3.0709140625,-0.3408656935364008,0.09697101245522499,0.02655022633858025
1746483092543892700,3.080892822265625,-0.2615489957153797,0.19653145688176155,0.07979600577056407
1746483092553872000,3.090871826171875,-0.02658580910861492,0.26863272516494613,0.12098989368528126
1746483092563850800,3.100850830078125,0.2628852127552032,0.29850332809789104,0.10799553368613123
1746483092573830000,3.110829833984375,0.5226438179224729,0.32598003989793356,0.1929708417907357
1746483092583809000,3.12080908203125,0.5322206245630979,0.4338170220214873,0.16814462623316795
1746483092593787000,3.130786865234375,0.49438043099045753,0.3916975436944514,0.24531916092634198
1746483092603766000,3.14076611328125,0.56701779717803,0.31535383380223064,0.3432199285123497
1746483092613745000,3.150744873046875,0.5671066445052624,0.3372640888478607,0.2980457753224298
1746483092623724000,3.16072412109375,0.4148515517234802,0.35858532849177716,0.2604323762429878
1746483092633703000,3.170702880859375,0.1334422557622194,0.4176140387067571,0.2894803011488169
1746483092643682000,3.18068212890625,-0.14236965858340261,0.5688877192357554,0.21371475647073238
1746483092653661000,3.190660888671875,-0.34622926639616486,0.7364040575027465,0.06853042405908927
1746483092663640000,3.20064013671875,-0.497758967512846,0.9149722068663686,-0.1203386267023161
1746483092673619000,3.210618896484375,-0.6552431931197643,1.1560235542804003,-0.35115335186012087
1746483092683598000,3.22059814453125,-0.7226993572771548,1.388670280638337,-0.40473749640099704
1746483092693577000,3.230576904296875,-0.6504606350183486,1.519177944253385,-0.3385611063884571
1746483092703556000,3.24055615234375,-0.45651042680144305,1.4069273834712803,-0.3596780921645462
1746483092713535000,3.250534912109375,-0.23861995554864404,1.1288755812443791,-0.5058429783124476
1746483092723512800,3.260512939453125,-0.1315396370112896,0.69933046438843,-0.7608076272014528
1746483092733492000,3.270491943359375,-0.19731062456071374,0.22983247265480458,-1.1140919997408985
1746483092743470800,3.280470947265625,-0.21816928819417952,-0.21613749010562897,-1.3006899454988539
1746483092753450000,3.290449951171875,0.3694061438441276,-0.5309458553869277,-1.213518953980878
1746483092763428900,3.300428955078125,0.7950649207860231,-0.4201830854771659,-0.9103509037412703
1746483092773408000,3.310407958984375,0.7950386173009872,0.1771110093578696,-0.6129103277703747
1746483092783387000,3.320386962890625,0.468392587774992,0.78104574778378,-0.5525101830717176
1746483092793366000,3.330365966796875,-0.28779812021553514,1.1093125103794037,-0.5109783684395254
1746483092803345000,3.340344970703125,-0.842508809006214,1.1662399739988147,-0.3587555704921484
1746483092813324000,3.350323974609375,-0.7105489007562399,1.0953063429892063,-0.44897374768629666
1746483092823303000,3.360302978515625,-0.09763210671246052,0.8721765097782015,-0.4328658222438767
1746483092833282000,3.370281982421875,0.6182908882975577,0.7097117192797362,-0.5327036953723058
1746483092843261000,3.380260986328125,0.7832575786143541,0.8172510336309671,-0.6923300110418349
1746483092853240000,3.390239990234375,0.8229156352639198,0.9129048990730195,-0.4188244008772075
1746483092863218200,3.40021826171875,0.20893150424957274,1.186772328287363,-0.3132447692263871
1746483092873197000,3.410197021484375,-0.3054758157253265,1.3647452151715755,0.15129508864320815
1746483092883176200,3.42017626953125,-0.4768751694381237,1.3322981128141282,0.8022871271245181
1746483092893154800,3.43015478515625,-0.5325087938547134,1.1801467726677655,0.9998963693056255
1746483092903134000,3.440134033203125,-0.7067313882946967,1.1667189896874128,0.7628671170145273
1746483092913112800,3.45011279296875,-0.5673077200353145,1.0314727532431482,0.4450781284872442
1746483092923092000,3.460092041015625,-0.1553986515045166,0.8645156197614967,0.08847619236502796
1746483092933070800,3.47007080078125,0.4689864620149135,1.0643443646229802,-0.4247340998450294
1746483092943050000,3.480050048828125,0.8122177156388759,1.529164792999625,-1.0495004312343894
1746483092953029400,3.490029296875,0.26584172447323795,1.591662311836332,-1.526684666621685
1746483092963008500,3.500008544921875,-0.22680793720185755,1.4891954784438013,-1.70412125467211
1746483092972987400,3.5099873046875,-0.4793833528667688,1.0233465838022529,-1.2826666514217853
1746483092982966300,3.51996630859375,-0.6326467459082603,0.5586767794100568,-0.5389426262944936
1746483092992945200,3.529945068359375,-0.23332009557485578,0.18018690967187284,0.2828306340012699
1746483093002923300,3.53992333984375,-0.2623825239300728,-0.8987503361880779,1.2055746439129114
1746483093012902100,3.549902099609375,0.08452011168301105,-1.7753505076274274,1.8621157678887248
1746483093022881300,3.55988134765625,0.41536008576750755,-2.0308561315253377,2.009237881696224
1746483093032860200,3.569860107421875,0.35440029789209365,-3.1504289007648825,2.4581138680964707
1746483093042839300,3.57983935546875,0.7035919212251901,-3.3755803029313682,2.46760825715065
1746483093052818200,3.589818115234375,0.9308674759387969,-1.4490025842651724,1.1406143882244826
1746483093062797300,3.59979736328125,0.17444997345507143,-0.4086993857692927,0.566259160830453
1746483093072776200,3.609776123046875,-0.26120295875668526,-0.8735372767373919,1.3313684307485818
1746483093082755300,3.61975537109375,-0.3516799330174923,-2.5638226060196754,1.7836249994978308
1746483093092734500,3.629734375,-0.14699907194972037,-1.9576473951905964,2.848699578091502
1746483093102713300,3.63971337890625,-0.2001531545102596,-2.155672305500507,3.5660172423303127
1746483093112692500,3.6496923828125,-0.6503969221323728,-2.6111878760457037,3.0515847879141567
1746483093122671400,3.65967138671875,-0.8851064262390136,-2.421364246239513,1.3260624332949518
1746483093132650500,3.669650390625,0.38070144484043117,-1.7278762242689727,-0.023495734138786792
1746483093142628000,3.679628173828125,1.1619149504065514,-1.673798012600839,-0.7053868418179452
1746483093152607200,3.689607177734375,1.725084255462885,-0.6238767256058753,-1.1157497038200497
1746483093162586000,3.699586181640625,2.782507150259614,1.047668685762584,-0.9607482349395752
1746483093172565200,3.709565185546875,4.053102840137481,2.126073870572448,-0.6168387897931039
1746483093182544100,3.719544189453125,1.5150906749397515,2.3664218189574777,-1.3103358718529343
1746483093192523300,3.729523193359375,-3.74959452509284,2.854151413756609,-0.29018925313577054
1746483093202502100,3.739502197265625,-13.039667459863423,0.5997986615344881,1.500680018401891
1746483093212481300,3.749481201171875,-14.671840791916846,-1.2936609236449002,0.764632811512798
1746483093222460200,3.759460205078125,-13.587171578276157,-1.1943696515485644,0.8182780385911465
1746483093232439300,3.769439208984375,-9.797852945560216,-0.018455401884019375,0.010561141502857207
1746483093242418200,3.779418212890625,0.825671655973792,1.4425085460707545,0.7304078858278691
1746483093252397300,3.789397216796875,12.289220848482847,1.4051035290449856,0.730725281213969
1746483093262376200,3.799376220703125,12.162060449469088,0.4573319723173976,0.20618717397749423
1746483093272355300,3.809355224609375,2.2363737356781956,-0.11142594652622938,-0.6250934079192578
1746483093282334200,3.819334228515625,-8.130877764716743,0.25307839675098653,-1.1200380486637354
1746483093292312300,3.829312255859375,-8.955908784699439,1.3062941952466964,-0.9219272136360407
1746483093302291500,3.83929150390625,-0.9983423447966575,0.931589068211615,0.8421206864714622
1746483093312270300,3.849270263671875,7.0959227223157875,0.11457622725069522,1.6464076091110706
1746483093322249500,3.85924951171875,5.767414941695332,-0.32419132985025645,1.6703911267668008
1746483093332228400,3.869228271484375,0.2767132470995188,-0.15549275952875613,0.6578890314534306
1746483093342207200,3.879207275390625,-0.9416162489682436,-0.6051408993452787,0.5816024951085448
1746483093352186000,3.88918603515625,1.2988690136820078,-1.983549605949223,0.0035325580403208733
1746483093362165200,3.899165283203125,3.948035030466318,-1.5572805881544947,-0.3484472347065806
1746483093372144000,3.90914404296875,4.461366245642304,-0.6956748644903302,0.19762129794508218
1746483093382123300,3.919123291015625,3.140638451373577,-1.2486509845733642,0.10006050290316343
1746483093392102100,3.92910205078125,2.0636182911813257,-0.7997922415688633,0.3406397758260369
1746483093402081300,3.939081298828125,1.4456196638286112,-0.5641536399185657,-0.02135872211009264
1746483093412060200,3.94906005859375,0.8934756106555461,-0.01647358041703701,0.47029491426497694
1746483093422039300,3.959039306640625,0.19848025286197662,0.07919979344308375,0.7478492883637547
1746483093432017400,3.969017333984375,0.543415972316265,-0.02725596345514059,0.9172697432190179
1746483093441996300,3.978996337890625,0.7791524813830852,-0.378881535936892,0.9898007264226675
1746483093451975400,3.988975341796875,1.1324527090787886,-0.16914777539372444,0.7840200874194503
1746483093461954300,3.998954345703125,1.1258505343347787,-0.14873130256980657,0.17109920172244308
1746483093471933400,4.008933349609375,0.3515501691579819,-0.33048195442706346,-0.3869534909725189
1746483093481912300,4.018912353515625,0.278568519577384,0.31854104900360103,-0.6128060271456838
1746483093491891500,4.028891357421875,-0.5256745639204978,0.3557306697130203,-0.6714055156305432
1746483093501870300,4.038870361328125,-0.3882558057427406,0.5249260836407542,-0.4125190171226859
1746483093511849500,4.048849365234375,-0.41917935179471966,-0.2482335870683193,-0.38594343714714047
1746483093521828400,4.058828369140625,0.07470072845816612,-0.09991495695263147,-0.23315789075046775
1746483093531807200,4.06880712890625,0.23018296659290788,-0.15375234560221432,0.372059288701415
1746483093541786000,4.0787861328125,0.05877835218310356,-0.15799977391362188,0.4001677773326635
1746483093551765200,4.08876513671875,0.20682722544670104,-0.03485796289145946,0.5227005165457725
1746483093561744100,4.098744140625,0.04009878615438938,0.022338673058152198,0.4471630450025201
1746483093571723300,4.10872314453125,-0.17488953391611575,0.10494535233527422,0.5874716794028878
1746483093581701400,4.118701416015625,-0.48132104293107986,-0.1141872279331088,0.551349980185926
1746483093591680300,4.12868017578125,-0.34673721591830253,-0.1657823906138539,0.48023090960681436
1746483093601659400,4.138659423828125,0.34960604935288425,-0.06661562168002128,0.4271341101914644
1746483093611638300,4.14863818359375,0.4669926578491926,0.1465732477530837,0.3571761923462152
1746483093621617400,4.158617431640625,-0.39086394241452216,0.0521864065721631,0.0895133899256587
1746483093631596300,4.16859619140625,-0.1512380246937275,0.5082464592576027,0.16000936017036438
1746483093641575400,4.178575439453125,-0.2863490904510021,-0.19857582219094036,0.19217589202076196
1746483093651554300,4.18855419921875,-0.5593740044265986,-0.6339747796416282,0.26388240709900856
1746483093661533400,4.198533447265625,0.5567787272363901,-0.16861323012560606,0.39779432619959115
1746483093671512300,4.20851220703125,0.927827377590537,0.6484764754638076,0.6971478596523404
1746483093681491500,4.218491455078125,-0.4332698364675045,1.0052198293507097,0.9814803495839237
1746483093691470300,4.22847021484375,-1.6457102744966745,0.10336334384083748,0.3331426980689168
1746483093701449500,4.238449462890625,-1.9549884051144122,-0.6899392434477806,-0.31269992175996303
1746483093711428400,4.248428466796875,-1.2255752294123172,-1.9212287588536738,-0.8415925709441304
1746483093721407500,4.258407470703125,-0.583735707744956,-1.8599831397742033,-0.6548495176270603
1746483093731385300,4.26838525390625,0.11344634643793106,-1.1306772238388656,0.5954951191216706
1746483093741364200,4.2783642578125,0.43756256522536274,-0.9534677225425839,0.47419747466146944
1746483093751343400,4.28834326171875,0.9479875375658273,-0.013418576760590075,0.9253571880847216
1746483093761322200,4.298322265625,0.37094226737022395,-0.9782654791906475,0.12115443659722805
1746483093771301400,4.30830126953125,-0.41227731732130046,-2.0137759635172783,-1.0698840247020125
1746483093781280300,4.3182802734375,-0.24209260009527206,-1.8123549810282884,-1.071606318449974
1746483093791259400,4.32825927734375,0.5067290404319763,-1.2899264132916926,0.3593114508092403
1746483093801238300,4.33823828125,1.8440625170648097,-1.5393148694835603,0.8015580821976065
1746483093811217400,4.348217529296875,2.3816408692687747,-1.1405616351239383,2.068788971817493
1746483093821196300,4.3581962890625,2.759434317708015,-0.883606250809133,2.124333602776378
1746483093831175400,4.368175537109375,2.5452923853337763,0.015331278514117001,1.5316151087611913
1746483093841154300,4.378154296875,1.453140122461319,1.7204226933926343,1.3574744935162364
1746483093851133400,4.388133544921875,0.48278819287419317,1.8302664852939545,1.5143869105845689
1746483093861112300,4.3981123046875,-1.4460440267205237,1.3808620911054312,2.411329905089736
1746483093871091500,4.408091552734375,-1.1020119781076907,1.08066363126114,3.378911200919747
1746483093881069300,4.4180693359375,0.3350233972489834,0.4040924764957279,1.4764299587644636
1746483093891048200,4.428048095703125,0.20415479136705397,-0.27600860596150156,-0.16787585576176642
1746483093901027300,4.43802734375,0.38753450573086734,-0.35194238334596156,-0.3837973650291562
1746483093911006200,4.448006103515625,0.35305297493636606,0.37296398245617746,0.3853250129878521
1746483093920985300,4.4579853515625,-0.14578560450673103,0.520465670165792,0.7099928743086755
1746483093930964200,4.467964111328125,0.2271937216490507,1.6663564644232391,0.16922054836899042
1746483093940943400,4.477943359375,-1.5759809047102926,1.5200250626020133,0.7832286447808146
1746483093950922000,4.487921875,-2.8677403786480427,2.1231002615891397,0.8336096093662083
1746483093960901000,4.497901123046875,-3.4964655671983955,2.465487319473922,0.9589754531133919
1746483093970880000,4.5078798828125,-2.2286066088080405,1.661205657531321,-0.44317952832430596
1746483093980859100,4.517859130859375,-0.8556675657868384,0.8028317553952335,-1.7736197383120655
1746483093990838000,4.527838134765625,0.5073930572986602,-0.1311217403927818,-2.1309040672078727
1746483094000817200,4.537817138671875,1.834087651017308,-0.9592694676239043,-2.0170044240444898
1746483094010796000,4.547796142578125,2.6959271834373473,-2.1135836607031524,-1.377881175598502
1746483094020775200,4.557775146484375,3.4079204377830026,-3.2818890427991745,-0.8609035667441785
1746483094030753800,4.56775390625,3.011528087335825,-4.9552439878076315,-1.0598399658758193
1746483094040733000,4.57773291015625,3.753214469155669,-5.917373447972536,-1.5527967207387088
1746483094050711000,4.5877109375,4.727035536158085,-5.056000364020466,-2.163542162092775
1746483094060690000,4.59768994140625,4.282804745215177,-4.471664352294803,-2.926272062593698
1746483094070669000,4.6076689453125,4.145520427072048,-5.376545738583803,-1.3704118626311421
1746483094080648000,4.61764794921875,3.5722692884624,-5.926268117567896,-1.6247572105780244
1746483094090627000,4.627626953125,2.7305285412192344,-4.892791331025958,-3.899809344218671
1746483094100606000,4.63760595703125,2.559244922840595,-5.681990574648976,-4.580412311783433
1746483094110585000,4.647585205078125,1.2772984023869036,-6.740676036727428,-4.584129871001839
1746483094120564000,4.65756396484375,0.8856804267346858,-6.241035493251681,-7.604408835548162
1746483094130543000,4.667543212890625,2.9128759899258614,-4.532969592607021,-11.439998221051692
1746483094140522000,4.67752197265625,2.314906589645147,-3.621557927766442,-14.103815279000997
1746483094150501000,4.687501220703125,2.462941434383392,-3.6164524213209748,-15.645343294489383
1746483094160480000,4.69747998046875,3.9963130314230915,-3.698573655168712,-14.424938745713233
1746483094170459100,4.707459228515625,3.345482978570461,-3.746868022738397,-12.938499580240249
1746483094180438000,4.71743798828125,-0.9165531193822621,-3.342497240757942,-11.761646588420867
1746483094190417200,4.727417236328125,-3.526476674580574,-2.7766356278777122,-9.134531075403094
1746483094200396000,4.73739599609375,-4.685021271771192,-2.018885415485501,-7.58964147452712
1746483094210375200,4.747375244140625,-5.309841854098439,-1.6672338317796587,-6.908606837546825
1746483094220352800,4.757352783203125,-5.3982355923444025,-0.6183300512641668,-6.105932026278972
1746483094230332000,4.767331787109375,-5.280395979383588,0.7708651300311088,-5.023192903918027
1746483094240310800,4.777310791015625,-4.6334126650869845,1.9349784672647714,-4.094552748639881
1746483094250290000,4.7872900390625,-3.7253017953574656,3.0315234121382235,-3.9447178687423463
1746483094260268800,4.797268798828125,-3.3527719665348528,3.8184947505787012,-3.8638814140081403
1746483094270248000,4.807248046875,-3.2545015619188544,4.804528525683284,-3.5510225022941824
1746483094280227000,4.81722705078125,-2.7850831382274626,6.041882455694675,-3.309095321893692
1746483094290206000,4.8272060546875,-1.9126929856985806,7.014112454113364,-3.8947365709990263
1746483094300185000,4.83718505859375,-0.9637859952002763,7.611018609076738,-5.070695828849077
1746483094310164000,4.8471640625,0.023572306506335735,8.13744837527871,-6.040611705106496
1746483094320143000,4.85714306640625,0.9146130912303924,8.578231071594358,-6.631873132181167
1746483094330122000,4.8671220703125,1.572685078035295,8.505774322670698,-7.395463887295127
1746483094340101000,4.87710107421875,2.214588020327687,8.345030218484997,-7.971881380981206
1746483094350080000,4.887080078125,2.8650495321288703,8.281307980158925,-8.15962572029531
1746483094360059100,4.89705908203125,3.3022458943903445,8.156536522108317,-8.075167567932604
1746483094370038000,4.9070380859375,3.6345033340573307,7.934477240738272,-7.671620085033774
1746483094380017200,4.91701708984375,4.050087291708588,7.763840688091516,-6.966876655685901
1746483094389996000,4.92699609375,4.651383790585398,7.846839289295673,-6.040161038729548
1746483094399975200,4.93697509765625,5.250415267139673,7.9380615289658305,-5.015938402745127
1746483094409952800,4.946952880859375,5.753777461487054,7.6642165307790036,-3.8218344163954256
1746483094419932000,4.956931884765625,6.346340618810057,7.326611884865164,-2.8117244769155976
1746483094429910800,4.966910888671875,7.00837537176609,7.1038254582643505,-2.079216842329502
1746483094439890000,4.976889892578125,7.602872712022066,6.844392431789636,-1.4383324294298887
1746483094449868800,4.986868896484375,8.061759804826975,6.555553862610459,-0.8695715879768132
1746483094459848000,4.996847900390625,8.206160092455148,6.304232246398925,-0.48371115293800826
1746483094469826800,5.006826904296875,8.188239820361137,6.257782629913091,-0.18856734613478182
1746483094479806000,5.016805908203125,7.916182290112972,6.063176588135957,0.10802315234541893
1746483094489784800,5.026784912109375,7.568491134470701,5.797267059123516,0.41124154453277584
1746483094499764000,5.036763916015625,7.211469840425252,5.585301886266469,0.6077659871518611
1746483094509742800,5.046742919921875,6.808281838488578,5.35930000475049,0.6644447367072105
1746483094519722000,5.056721923828125,6.394847167825699,5.087505509352684,0.6544014815986156
1746483094529701000,5.066701171875,5.939916119170189,4.657635836717486,0.5843132153719663
1746483094539680000,5.076679931640625,5.498588648453355,4.321806968304514,0.4979769941776991
1746483094549659100,5.0866591796875,5.086516498315334,4.1167993595004075,0.4206055852055549
1746483094559638000,5.096637939453125,4.707296231943369,4.0534401092678305,0.4663005839318037
1746483094569617200,5.1066171875,4.428384598016739,4.060161526477336,0.521011832806468
1746483094579596000,5.116595947265625,4.252442340177297,4.150941867598891,0.610735358351469
1746483094589575200,5.1265751953125,4.212081688216329,4.092640193016827,0.9600427170187235
1746483094599552800,5.136552734375,4.327152420985699,3.8707936776146292,1.4403548751682043
1746483094609532000,5.146531982421875,4.518460005739331,3.578977553929388,1.804407967546582
1746483094619510800,5.1565107421875,4.735134671461582,3.289458016748726,2.1156044990062712
1746483094629490000,5.166489990234375,4.96186662081778,3.0378996691718694,2.34145908100605
1746483094639468800,5.17646875,5.1680537947952745,2.682294379404187,2.525263158261776
1746483094649448000,5.186447998046875,5.4283928301990025,2.499156364841759,2.6675714420467616
1746483094659426800,5.1964267578125,5.614425689420104,2.5083611232995984,2.5377958920985457
1746483094669406000,5.206406005859375,5.594487063241004,2.4659961457788944,2.3621897343456744
1746483094679384800,5.216384765625,5.483664051043987,2.261919972606003,2.220789213055372
1746483094689364000,5.226364013671875,5.158525503471494,1.9601649309694766,1.8894775298058986
1746483094699342800,5.2363427734375,4.563901321965456,1.7339005991250276,1.3871014238864183
1746483094709322000,5.246322021484375,3.7874236127495764,1.5960288364827633,0.7212193478524684
1746483094719300900,5.25630078125,3.1161762102901935,1.4261115380212663,0.1704874995648861
1746483094729280000,5.266280029296875,2.664386966791749,1.2298270416378974,-0.16572481520771978
1746483094739259000,5.2762587890625,2.4812913300663233,1.1129548124045132,-0.44495209095478055
1746483094749238000,5.286238037109375,2.433057168251276,0.9154840288460254,-0.8000199128448963
1746483094759217000,5.296216796875,2.4778496651798485,0.8267921844363212,-1.2195996621340512
1746483094769196000,5.306196044921875,2.3429256464272736,0.8887509202212095,-1.6156670184105635
1746483094779175200,5.316175048828125,2.0083365489423275,0.9010968993142247,-1.6995394798398016
1746483094789152800,5.32615283203125,1.5921178005188703,0.8256313239634037,-1.358494338083267
1746483094799132000,5.3361318359375,1.2978870169073342,0.7898667676210402,-1.0463123027175665
1746483094809110800,5.34611083984375,1.1757096670031546,0.7529140244074165,-0.7573539065510034
1746483094819090000,5.35608984375,1.1793892322987318,0.7313660633355379,-0.5460656100422143
1746483094829068800,5.36606884765625,1.378718795466423,0.723440384902805,-0.39748774446845053
1746483094839048000,5.3760478515625,1.6731997544467447,0.6338524684362113,-0.20324206043630838
1746483094849026800,5.38602685546875,1.9920003311693668,0.4971807292334735,-0.047344811759889124
1746483094859006000,5.396005859375,2.438549335926771,0.4127287143506109,0.04557166460752487
1746483094868984800,5.40598486328125,2.9634359643399715,0.3261342806115746,0.1493959039583802
1746483094878964000,5.4159638671875,3.467583756107092,0.22096140313073992,0.22988427590727806
1746483094888942800,5.42594287109375,4.007346466612816,0.06603285335600376,0.2920706829681992
1746483094898922000,5.435921875,4.492856193405389,-0.08896832326352595,0.2716609321460128
1746483094908900900,5.44590087890625,4.727925762996077,-0.3334013490051031,0.2695823723062873
1746483094918880000,5.4558798828125,4.739869298768043,-0.6443842377141118,0.2960965774834156
1746483094928859000,5.46585888671875,4.570812124267221,-0.7605963956035673,0.3443114500761032
1746483094938838000,5.475838134765625,4.351518215957284,-0.575117517003417,0.31332886731326576
1746483094948817000,5.48581689453125,4.162348227754235,-0.29942374914474784,0.3116343383550644
1746483094958796500,5.495796630859375,3.925731428721547,-0.09378646413497627,0.42956338316500187
1746483094968775400,5.505775390625,3.6585832978248596,0.0026349516134709116,0.6419102488160133
1746483094978754600,5.515754638671875,3.4527906761229037,-0.01545899654701352,0.8590145381271839
1746483094988732700,5.525732666015625,3.3537475335687397,-0.07725479685515164,1.1172481256842612
1746483094998711600,5.535711669921875,3.2863071515023705,-0.15013327832221984,1.3332546828866003
1746483095008690400,5.5456904296875,3.245026462087035,-0.1333010937258601,1.5135884536832571
1746483095018669300,5.55566943359375,3.1969419378757475,-0.11205898373275995,1.6510142261236904
1746483095028648400,5.5656484375,3.063714201647043,-0.027131314162164924,1.7685712227508426
1746483095038627300,5.57562744140625,2.8213761023581028,0.06728957541882992,1.8727654644578695
1746483095048606500,5.5856064453125,2.393798340052366,0.0970765186563134,1.8977806632488965
1746483095058585300,5.59558544921875,1.7864707443177699,0.07094415240362287,1.8597873249411583
1746483095068564500,5.605564453125,1.0853361531168222,-0.16011223602294922,1.9608190109640358
1746483095078543400,5.61554345703125,0.4389204095751047,-0.5056503052845597,2.155570598691702
1746483095088522500,5.6255224609375,-0.048100890824198723,-0.8211785823382437,2.3506226306706663
1746483095098501400,5.63550146484375,-0.2912497219741344,-1.0201510026313363,2.494357732388377
1746483095108480500,5.64548046875,-0.3416103744238615,-1.1008647077687084,2.540422148948908
1746483095118459400,5.65545947265625,-0.12833061183691025,-1.0485695801250636,2.5217124800428747
1746483095128438500,5.6654384765625,0.4298924689888954,-0.8264756658330559,2.65429519636631
1746483095138417400,5.67541748046875,1.0888993985563515,-0.7266612466454505,2.9401828067854043
1746483095148396500,5.685396484375,1.664715419217944,-0.9650124682553112,3.27778540687263
1746483095158375400,5.69537548828125,2.239073642286658,-1.2593822219461202,3.5479727593347428
1746483095168354600,5.7053544921875,2.8553718954622744,-1.3300003572657704,3.762563896781206
1746483095178333400,5.71533349609375,3.5887218260914087,-1.1116378845870494,3.9137738644242286
1746483095188312600,5.7253125,4.417776694762707,-0.7220061143159866,3.946013169249892
1746483095198290700,5.735290771484375,5.3042070630818605,-0.2438637014210224,3.8420159114196895
1746483095208269300,5.745269287109375,6.115140584129095,0.1371773506373167,3.6492598814234136
1746483095218248400,5.75524853515625,6.787054341542721,0.27524960428774353,3.353204220472276
1746483095228227300,5.765227294921875,7.296600777482986,0.23657573636993764,2.8962101018071174
1746483095238206500,5.77520654296875,7.43145173099935,0.04643851056993007,2.24383544986099
1746483095248185300,5.785185302734375,7.1713131866037845,-0.14744900767430663,1.6013327881097792
1746483095258164500,5.79516455078125,6.775930305460095,-0.1384520467482507,0.9892352014943957
1746483095268143400,5.805143310546875,6.303762290799617,0.13367343416959046,0.3807990599960088
1746483095278122500,5.81512255859375,5.876361638626456,0.5956340892009436,-0.06748422120809555
1746483095288101400,5.825101318359375,5.517547031423449,1.125608396141976,-0.2792673154965043
1746483095298080500,5.83508056640625,5.10209634476304,1.4703981312543153,-0.3077767861440778
1746483095308059400,5.845059326171875,4.437891262030601,1.5693591484829783,-0.34779870766997334
1746483095318038500,5.85503857421875,3.536583058053255,1.6616738595649598,-0.35948972998559475
1746483095328017400,5.865017333984375,2.4907015479683876,1.8641160017952323,-0.26913199819028377
1746483095337996500,5.87499658203125,1.475635447385907,2.0203698088243605,-0.28034809647053477
1746483095347975400,5.884975341796875,0.5053460616409778,2.2028265631243586,-0.35175241373181343
1746483095357954600,5.89495458984375,-0.44293958208858963,2.2149840339079496,-0.366261123816669
1746483095367933400,5.904933349609375,-1.2274299173682928,2.0184490698948503,-0.40310120043605563
1746483095377912600,5.91491259765625,-1.719097582268715,1.7543898449242115,-0.31860476188957687
1746483095387891500,5.924891357421875,-1.9549749611109495,1.3453642228752374,-0.12193068166673182
1746483095397870600,5.93487060546875,-2.094474032694101,0.8268968138545751,0.1210609130948782
1746483095407849500,5.944849365234375,-2.077134190836549,0.2917570869743824,0.42278000663518905
1746483095417828600,5.95482861328125,-1.8407599683880804,-0.09167933578789234,0.7856026804357766
1746483095427806500,5.964806396484375,-1.3504635918408632,-0.3702975397258997,1.1893448091238736
1746483095437785300,5.974785400390625,-0.6208499251306057,-0.5716974794268608,1.4661311214596031
1746483095447764500,5.984764404296875,0.36321839511990545,-0.5262094014495611,1.3175707915425299
1746483095457743400,5.994743408203125,1.510576412385702,-0.07924304806292057,0.8223778751254082
1746483095467722500,6.004722412109375,2.666768893492222,0.667491264796257,0.49966041721999643
1746483095477701400,6.014701416015625,3.610504034310579,1.2586854718536138,0.5463455960273742
1746483095487680500,6.024680419921875,4.09184261289835,1.5639818393588065,0.7338637253701686
1746483095497659400,6.034659423828125,3.980685254180431,1.7448130382835865,0.9482786294668912
1746483095507638500,6.044638427734375,3.336678325346112,1.8505320053398608,1.0361550658404826
1746483095517617400,6.054617431640625,2.3766139810174702,1.877671356678009,0.8701268837720155
1746483095527596500,6.064596435546875,1.412842598864436,1.8141484403163193,0.6734650785088538
1746483095537575400,6.074575439453125,0.6774182000488043,1.7968974457859992,0.4108312101662159
1746483095547554600,6.084554443359375,0.2408651041269302,1.8667822983950375,-0.13994973796010016
1746483095557533400,6.094533447265625,0.16462357596755026,1.8789964678019284,-1.0345739341288804
1746483095567512600,6.1045126953125,0.11637304753959178,2.02481772814393,-2.097305456727743
1746483095577491500,6.114491455078125,0.2783507851734757,2.1278987479120492,-3.3128239870280027
1746483095587470600,6.124470703125,0.6967448318094015,2.14550279366374,-4.453706086277961
1746483095597449500,6.134449462890625,1.2327519891738892,2.218603101187944,-5.340842557039856
1746483095607428600,6.1444287109375,1.964224143232405,2.463615388122201,-5.756245897427201
1746483095617407500,6.154407470703125,2.508294487804174,2.7033991267532107,-5.751477952373027
1746483095627386600,6.16438671875,2.7400752449825405,3.400547278666496,-5.54589400498569
1746483095637365500,6.174365478515625,3.1969360926568506,3.8112487249732014,-5.185527492165565
1746483095647344600,6.1843447265625,2.792650358611345,3.963344827800989,-4.411887052202225
1746483095657322500,6.194322509765625,2.093841726139933,4.252649260926247,-3.9326416465014216
1746483095667301400,6.20430126953125,1.0045085392761974,4.501145298323035,-3.4713749650835988
1746483095677280500,6.214280517578125,-0.403501963256672,4.576137118682265,-3.119246703776717
1746483095687259400,6.22425927734375,-1.7832617191433906,4.415754833546281,-2.6463176416158674
1746483095697238500,6.234238525390625,-3.3275299732506274,3.965108914864063,-2.0390660337269306
1746483095707217400,6.244217529296875,-4.601848483043908,3.522957268282771,-1.5342746833592653
1746483095717196500,6.254196533203125,-5.495773006510734,3.480657172691822,-1.1370745236605404
1746483095727175400,6.264175537109375,-6.258632524740696,3.2592771057575938,-0.8137590998619795
1746483095737154600,6.274154541015625,-6.7010080432057375,2.7639450731307265,-0.5338643001168966
1746483095747133400,6.284133544921875,-6.980077498042583,2.1860814722895623,-0.47447629160284993
1746483095757112600,6.294112548828125,-7.211357612222432,1.8380775974363088,-0.7362497437238693
1746483095767091500,6.304091552734375,-7.854384297847747,1.4734458283871412,-0.9012386458724737
1746483095777070600,6.314070556640625,-8.386420798015594,1.1076134513765572,-1.1454279259860516
1746483095787049500,6.324049560546875,-8.95477130510211,0.5476227763563394,-1.515813728517294
1746483095797028600,6.334028564453125,-9.4242125251472,0.08948620965778827,-1.9408944133102892
1746483095807007500,6.344007568359375,-9.57331938303113,-0.03434066101908684,-2.264596790599823
1746483095816986600,6.353986572265625,-9.469349305468796,-0.14024258342683316,-2.4921207671165466
1746483095826965500,6.363965576171875,-9.003741379976272,0.01582651468515396,-2.553238375902176
1746483095836944600,6.373944580078125,-8.253390630185603,0.39977030244767664,-2.452204936313629
1746483095846923300,6.38392333984375,-7.291914080971479,0.6612099925696849,-2.2200819415688513
1746483095856902400,6.39390234375,-6.107659872984886,0.9338356780946254,-2.063869635593891
1746483095866881300,6.40388134765625,-4.137300880259275,1.351213533425331,-2.0072616131871936
1746483095876860400,6.4138603515625,-3.115093091228604,1.0097171407699583,-1.0040209749549627
1746483095886839300,6.42383935546875,-3.667297350156307,1.0631757592350244,-1.2244371652930974
1746483095896818400,6.433818359375,-3.913311507609486,1.636755399146676,-1.5707576171040534
1746483095906797300,6.44379736328125,-3.478909452241659,2.3262287786483764,-1.4267922137618063
1746483095916776400,6.4537763671875,-2.781945424723625,2.668038475036621,-1.4948942746073006
1746483095926754600,6.463754638671875,-2.0524616680033505,2.597899355405569,-1.661134638121724
1746483095936733400,6.4737333984375,-1.4054919438406823,2.4317560225248336,-1.7390782940238714
1746483095946712600,6.483712646484375,-0.7859276746064424,2.4282003758698703,-1.7934359071552752
1746483095956690700,6.493690673828125,-0.13426993875801563,2.5496166782736776,-1.9189315878272055
1746483095966669800,6.503669921875,0.46377778745591636,2.5091981586456296,-1.99395263428092
1746483095976648700,6.513648681640625,0.9772586402356624,2.3346301117688415,-1.9648709167033434
1746483095986627800,6.5236279296875,1.3722700577184557,2.171378408676386,-1.819576310583949
1746483095996606700,6.533606689453125,1.5822268133625388,2.075774008399248,-1.6716829201430081
1746483096006585900,6.5435859375,1.646119439819455,1.9576532404094933,-1.5739374161839483
1746483096016564700,6.553564697265625,1.55802614582479,1.832469109904766,-1.5668594406217335
1746483096026543900,6.5635439453125,1.3396090203493833,1.7549007170557975,-1.6387930424541235
1746483096036522800,6.573522705078125,1.0990250712513923,1.8388836531221866,-1.6200713908493518
1746483096046502000,6.583501953125,0.910121040508151,1.8986159450292586,-1.4988216771841048
1746483096056480800,6.593480712890625,0.6838485253572464,1.859163055562973,-1.3278268126189707
1746483096066460000,6.6034599609375,0.3803524852722883,1.8098095343291758,-1.2136685185194014
1746483096076438800,6.613438720703125,-0.039998832911252974,1.6863789694935083,-1.1956301730036736
1746483096086418000,6.62341796875,-0.5101064079105854,1.616503469234705,-1.0716314528912305
1746483096096396800,6.633396728515625,-0.8428916708439588,1.5917729326039551,-0.9469394898176192
1746483096106376000,6.6433759765625,-0.8665975406020879,1.665454254886508,-0.83813366266191
1746483096116354800,6.653354736328125,-0.6240297242105007,1.7400901014149188,-0.7262859835922718
1746483096126334000,6.663333984375,-0.2555722593933344,1.759506165024638,-0.6518032817989587
1746483096136313000,6.67331298828125,0.15826690041720867,1.6817939797908066,-0.7699088522195816
1746483096146291700,6.683291748046875,0.48439679711461064,1.524547362332046,-1.0635983685612678
1746483096156270800,6.693270751953125,0.5799585272938013,1.4494710785597562,-1.4333517184078692
1746483096166249700,6.703249755859375,0.8668710968464612,1.6002824022740125,-1.61336049503386
1746483096176228900,6.713228759765625,1.3949603206932544,1.7565248111262917,-1.4982652123451232
1746483096186207700,6.723207763671875,2.111553762310743,1.8885788274005055,-1.12842184612751
1746483096196187000,6.733186767578125,3.0547651715159416,1.8710794110670685,-0.5554623839408159
1746483096206165800,6.743165771484375,4.012773752358555,1.6202672056823968,0.04708499177992344
1746483096216145000,6.753144775390625,4.897458738315105,1.2040896660521625,0.6483791525691748
1746483096226122800,6.763122802734375,5.63233660916388,0.6478260487310588,1.1322454960688948
1746483096236102000,6.773101806640625,6.204551390463114,0.10557429788857697,1.4416452072396873
1746483096246080800,6.783080810546875,6.656725833886862,-0.17108254284858704,1.6592048391029237
1746483096256060000,6.793059814453125,6.748191234663128,-0.399832115637511,1.623845940952003
1746483096266038800,6.803038818359375,6.463470622196793,-0.7407472012735903,1.4041972278550265
1746483096276018000,6.813017822265625,6.01468231408,-0.9706602648839354,1.0775646423324943
1746483096285996800,6.822996826171875,5.470054627886414,-1.1315315025806427,0.6925012028902768
1746483096295976000,6.832975830078125,5.026929752358794,-1.1793177744977175,0.31398411635160445
1746483096305954800,6.842954833984375,4.5767350845754144,-1.1937579493910073,-0.06372662224024533
1746483096315934000,6.852933837890625,4.11358741171658,-1.2804133195370435,-0.437584484796226
1746483096325912800,6.862912841796875,3.615940672406554,-1.4507912212476133,-0.7036015658363699
1746483096335892000,6.87289208984375,3.1103385901778933,-1.5616697630241512,-0.8831111607685684
1746483096345870800,6.882870849609375,2.691574248924851,-1.5373051370963453,-0.9733210085257887
1746483096355849700,6.892849609375,2.3560838186860082,-1.4451349490515888,-1.0082195956885813
1746483096365828900,6.902828857421875,2.085343216255307,-1.274291329525411,-1.1020087632372975
1746483096375807700,6.912807861328125,1.9427157835185527,-1.0452849324312061,-1.071611871407926
1746483096385787000,6.922786865234375,1.6739140401959418,-0.9180972800843417,-1.0992124105170369
1746483096395765800,6.932765869140625,1.4140543127417564,-0.8162883991438895,-1.1256798539429902
1746483096405745000,6.942744873046875,1.3775935908287762,-0.6256301451444626,-0.9625196285262704
1746483096415723800,6.952723876953125,1.4767670817643404,-0.5078627206370234,-0.8637067875966429
1746483096425703000,6.962702880859375,1.5613123278886079,-0.5301889726050197,-0.8977107640072702
1746483096435681800,6.972681884765625,1.6577058327168226,-0.5527519559383391,-1.0163064560323953
1746483096445661000,6.982660888671875,1.7563590991705655,-0.5019618990954011,-1.1262000784248114
1746483096455639800,6.992639892578125,1.9028958143055439,-0.36606932757161553,-1.1082616861522196
1746483096465619000,7.002618896484375,2.101113616839051,-0.2905952766533941,-0.9579568506553768
1746483096475597800,7.012597900390625,2.1399533428430555,-0.3982665468212217,-0.8954194381996988
1746483096485577000,7.022576904296875,1.947767806211114,-0.5743751011382788,-0.9428013670995831
1746483096495555800,7.032555908203125,1.7965256898641586,-0.5952507889717817,-0.8750991192266344
1746483096505535000,7.042534912109375,1.6413602625936268,-0.48175680399984117,-0.7366711840063334
1746483096515513900,7.052513916015625,1.459305659353733,-0.3509839866425842,-0.5508969757214188
1746483096525492000,7.062491943359375,1.246355567112565,-0.21642712070196865,-0.22061551230251789
1746483096535470800,7.072470947265625,1.0064870728075503,-0.14730748031176627,0.07198416297584771
1746483096545449700,7.08244970703125,0.7961766814202069,-0.1815855244234204,0.16751900514811277
1746483096555428900,7.092428955078125,0.763016754618287,-0.22857450848296285,0.12222630361244081
1746483096565407700,7.10240771484375,0.9304261619120836,-0.3028980741918087,-0.00793093912974
1746483096575387000,7.112386962890625,1.2383318351328372,-0.46110462272390723,-0.27591464406773447
1746483096585365800,7.12236572265625,1.4566577751934529,-0.6946057739540934,-0.7035701477847993
1746483096595345000,7.132344970703125,1.448397311848402,-0.8754404800102115,-1.1726420961260795
1746483096605323800,7.14232373046875,1.0993290226340293,-0.9416207790128887,-1.5314336147144436
1746483096615303000,7.152302978515625,0.4547925169676542,-0.758831577888131,-1.6758286416456103
1746483096625281800,7.16228173828125,-0.18618892656564712,-0.3416742334403097,-1.516117679899931
1746483096635261000,7.172260986328125,-0.958182183843851,-0.04661664361581206,-1.105500697006285
1746483096645239800,7.18223974609375,-1.297020170944929,0.35505730049610135,-0.9065852675974369
1746483096655219000,7.192218994140625,-1.1798311308473348,0.8425890346355736,-0.9174974144950508
1746483096665197800,7.20219775390625,-1.0801713176995515,0.9976919180639088,-0.8361115091845392
1746483096675177000,7.212177001953125,-1.1039888311386108,0.9304856370143592,-0.747059891551733
1746483096685155800,7.22215576171875,-1.082417635321617,0.9363603742666542,-0.783802353015542
1746483096695135000,7.232135009765625,-0.9674012630879878,1.1213333491712807,-0.7318614456370472
1746483096705113900,7.24211376953125,-0.8188356724739074,1.3974008457131684,-0.5316325955420732
1746483096715093000,7.252093017578125,-0.7230062312692404,1.6000047543764113,-0.23434593149125574
1746483096725072000,7.26207177734375,-0.6592611965894699,1.758191283033788,0.09997852370813488
1746483096735051000,7.272051025390625,-0.6034820262223481,1.9214786419615149,0.3993456472948193
1746483096745030000,7.28202978515625,-0.6157230836361647,1.9975377992913126,0.6020407413728535
1746483096755009000,7.292009033203125,-0.7057832937896251,2.028974409431964,0.753256261973828
1746483096764988000,7.30198779296875,-0.8243991518199444,2.0180270450904962,0.9734415661655366
1746483096774967000,7.311967041015625,-1.0144991143494844,1.9208996730297803,1.2191143628351389
1746483096784945700,7.321945556640625,-1.2459183447390794,1.7699229296207426,1.4485871353320776
1746483096794924800,7.3319248046875,-1.5131442170470952,1.513001301445067,1.6127208819560706
1746483096804903700,7.341903564453125,-1.734979626533389,1.154123565877974,1.6071820986598728
1746483096814882800,7.3518828125,-1.9195488429427146,0.69409446343109,1.3273007429182528
1746483096824861700,7.36186181640625,-2.0421546473920342,0.1641572736300528,0.7655395510941744
1746483096834840800,7.3718408203125,-2.090374780681729,-0.3772131643332541,0.040090456717461344
1746483096844819700,7.38181982421875,-2.0013941824585197,-0.8178829017937183,-0.84011533799842
1746483096854798800,7.391798828125,-1.6256313630640506,-1.1034751825280487,-1.5790703951582312
1746483096864777700,7.40177783203125,-1.0558347488224507,-1.28496542988345,-1.9808482380360364
1746483096874755800,7.411755859375,-0.37437633347213267,-1.372158560167998,-2.0101234323590993
1746483096884735000,7.42173486328125,0.2882750900775194,-1.4782660881504415,-1.7108916255898772
1746483096894713900,7.4317138671875,0.7831132017076015,-1.5107177205525337,-1.2456341209702193
1746483096904693000,7.44169287109375,1.1626917799979448,-1.4416156888842582,-0.7968360221117734
1746483096914671900,7.451671875,1.3701339224725961,-1.3122026886381208,-0.39627456928640603
1746483096924651000,7.461651123046875,1.3214829965502022,-1.1532016287274658,-0.1315066115245223
1746483096934630000,7.4716298828125,1.1324100389808416,-0.9302025822892784,0.06600713439285755
1746483096944609000,7.481609130859375,0.874708366343379,-0.75423635905236,0.17825126543417572
1746483096954587400,7.49158740234375,0.563742721030116,-0.6284951791867613,0.21437267239019273
1746483096964566500,7.50156640625,0.2996826192766428,-0.4336465608254075,0.24227570157721637
1746483096974545400,7.51154541015625,0.17185995696187018,-0.2704546250961721,0.3244927970148623
1746483096984524500,7.521524658203125,0.09597557167708873,-0.24092077983692287,0.42117943957075477
1746483096994503400,7.53150341796875,0.11322773525118827,-0.24906974563151596,0.4852260875456035
1746483097004482600,7.541482666015625,0.20285890633761883,-0.22215280487239358,0.5490000560589134
1746483097014461400,7.55146142578125,0.3432183941423893,-0.19936682643815873,0.5897881396517157
1746483097024440600,7.561440673828125,0.4562573288232088,-0.16670871167853474,0.6159831958770752
1746483097034419500,7.57141943359375,0.558048893302679,-0.08153232804387807,0.5866599246285855
1746483097044398600,7.581398681640625,0.5947223811835051,-0.019957330879569052,0.5165940163642168
1746483097054377500,7.59137744140625,0.5200877036988735,0.017190350384265182,0.4290098409354686
1746483097064356600,7.601356689453125,0.32046003436744214,0.07336348850503563,0.343285175768286
1746483097074335500,7.61133544921875,0.1815834785968065,0.1628457526400685,0.33788448576852675
1746483097084314600,7.621314697265625,0.17410452101826668,0.23127470735237002,0.3702583767592907
1746483097094293500,7.63129345703125,0.22078619269430635,0.19045505957752465,0.37372006152048703
1746483097104272600,7.641272705078125,0.2768950334072113,0.16996800573542714,0.3319729236371815
1746483097114251500,7.65125146484375,0.30564649611711503,0.1676185199998319,0.29409269031509755
1746483097124230700,7.661230712890625,0.34098376695811744,0.18919585329666733,0.36734102800786494
1746483097134209500,7.67120947265625,0.43497605586349963,0.1484345115803182,0.48209816478341816
1746483097144188700,7.681188720703125,0.4268552932500839,0.013010142090171574,0.42641953218132256
1746483097154167600,7.69116748046875,0.14300328031182288,-0.1146003387786448,0.2266414945937693
1746483097164146700,7.701146728515625,-0.15729776312410831,-0.008830664448440075,0.13872370329648256
1746483097174125600,7.71112548828125,-0.21520050151646136,0.1769502658382058,0.2142345790937543
1746483097184104400,7.7211044921875,-0.14663082315921783,0.14041560190618038,0.2992176321133971
1746483097194083300,7.731083251953125,-0.011485270610451698,0.016355799256265163,0.3343227016337216
1746483097204062500,7.7410625,0.03302256415784359,-0.11853197913914919,0.32223595799878235
1746483097214041300,7.751041259765625,-0.04125497045218944,-0.16227598992809653,0.23963643911480903
1746483097224020500,7.7610205078125,-0.18354279597103595,-0.1293139237858355,0.2298481816805899
1746483097233999600,7.77099951171875,-0.21602876903414725,-0.11321326833441853,0.30117168879061934
1746483097243978500,7.780978515625,-0.1439870306521654,-0.20404533964321017,0.3307278920121491
1746483097253957600,7.79095751953125,-0.046802667707204815,-0.3490224042460322,0.274360108102113
1746483097263936500,7.8009365234375,0.02140051542520523,-0.40170945381671186,0.25585166085660455
1746483097273915600,7.81091552734375,0.08611234931051731,-0.33082989108189936,0.3211749046385288
1746483097283893500,7.8208935546875,0.1657511186927557,-0.32716055491939183,0.40935266204625365
1746483097293872600,7.83087255859375,0.20594518191516398,-0.3905976926937699,0.4098012825965881
1746483097303851500,7.8408515625,0.14416004913151265,-0.4584069080725312,0.2612931212581694
1746483097313830700,7.85083056640625,-0.05326397267580032,-0.4438173878364265,0.07661532990783453
1746483097323809500,7.8608095703125,-0.19539339276254175,-0.25906185507476326,-0.05975538052171468
1746483097333788700,7.87078857421875,-0.28397125540375706,-0.14654182970151305,-0.07949000856131315
1746483097343767600,7.880767578125,-0.30542203971147536,-0.16192893005609513,-0.02826981667280197
1746483097353746700,7.89074658203125,-0.278285026460886,-0.2602541335992515,-0.06292071268483997
1746483097363725600,7.9007255859375,-0.2248591412216425,-0.29068755804672836,-0.05734101285636425
1746483097373704700,7.91070458984375,-0.21057342623770237,-0.25875468882173297,-0.07012582175806165
1746483097383683300,7.920683349609375,-0.15556699380874633,-0.21780206231698393,-0.052271892898529765
1746483097393662500,7.930662353515625,-0.10548106664717197,-0.17806714103892443,0.017585779442638158
1746483097403641300,7.940641357421875,-0.07490414207577704,-0.1469378432817757,0.09283888108655809
1746483097413620500,7.950620361328125,-0.05296820459961891,-0.08383972820341587,0.14198752739802
1746483097423599400,7.960599365234375,0.018275076881051063,-0.05195099038109183,0.16866992874890566
1746483097433578500,7.97057861328125,-0.04062894750833511,-0.12683788906112312,0.11396540187597275
1746483097443557400,7.980557373046875,-0.17667407924532888,-0.1335251117400825,0.05494081984683871
1746483097453536500,7.99053662109375,-0.26464871529638767,-0.05758198200538754,0.04297931002676487
1746483097463515600,8.000515625,-0.2732300811588764,0.03092150022536516,0.07974412945285439
1746483097473494500,8.01049462890625,-0.25240064361989495,0.10583002621531486,0.20352321546524763
1746483097483473700,8.0204736328125,-0.18046528822183608,0.11997983985990285,0.32717750605419277
1746483097493452500,8.03045263671875,-0.08012859872579574,0.09765022689104079,0.4575590590715408
1746483097503431700,8.040431640625,-0.03202653885781765,0.05515870038121938,0.4942671798743307
1746483097513410600,8.05041064453125,-0.10621113448739052,-0.024116496385633943,0.3814109082840383
1746483097523389700,8.0603896484375,-0.3040086657822132,-0.06064239248931408,0.23412600513026116
1746483097533368600,8.07036865234375,-0.4742074115335941,0.02356996841877699,0.09866948693618177
1746483097543347700,8.08034765625,-0.638555677691102,0.11744243033677339,-0.014022241742163896
1746483097553326600,8.09032666015625,-0.7666828759104013,0.20045915171951054,-0.0539531239837408
1746483097563305700,8.1003056640625,-0.7346335406988859,0.2260460129186511,-0.005065174435079097
1746483097573284600,8.11028466796875,-0.5922440083712339,0.22275252433121204,0.035437516345083714
1746483097583263700,8.120263671875,-0.38412440502643586,0.2240983859822154,0.08796616048365831
1746483097593242600,8.13024267578125,-0.18346271647214887,0.16748685644418002,0.1609345121912658
1746483097603221800,8.1402216796875,0.012146364867687224,0.0884238411232829,0.20859262768402695
1746483097613200600,8.15020068359375,0.13603753295242785,0.009445873737335204,0.16142477992624044
1746483097623179500,8.160179443359375,0.1675192974090576,-0.02514846978187561,0.060572542123496526
1746483097633158400,8.170158447265624,0.07770458644926548,-0.01903670890331268,-0.028119156155735254
1746483097643137500,8.180137451171875,-0.006788637226819992,-0.011911387068033217,-0.0404803328178823
1746483097653116400,8.190116455078124,-0.006826046627759933,0.02175385890752077,-0.030257921750098466
1746483097663095600,8.200095458984375,0.056471244284510606,0.05065232887268066,0.04305369043722748
1746483097673074400,8.210074462890624,0.1227817455381155,-0.021469489008188247,0.13343027306348085
1746483097683053600,8.220053466796875,0.2335159104079008,-0.07411854465603827,0.22304566205888984
1746483097693032400,8.230032470703126,0.29368542468845843,-0.07179536240547894,0.30975670791491866
1746483097703011600,8.240011474609375,0.3197591926217079,-0.07703881601691245,0.34735052551105616
1746483097712990500,8.249990478515626,0.31956513135433195,-0.007571604298055172,0.3591669277720153
1746483097722969600,8.259969482421875,0.25208032562434673,0.05326660302430391,0.38229105211943387
1746483097732948500,8.269948486328126,0.15333412019014359,0.03224164291322231,0.3975817063622176
1746483097742927600,8.279927734375,0.09922609790563583,0.09044248746931552,0.36657238172292705
1746483097752906500,8.289906494140626,0.0807400086224079,0.13500322146862745,0.2983357347123325
1746483097762885600,8.2998857421875,0.03779576990902424,0.10152531475871801,0.2632780114650726
1746483097772864500,8.309864501953125,-0.07763444382250309,0.07582301048636436,0.28253084733709694
1746483097782843600,8.31984375,-0.01395604463815689,0.2371364389926195,0.3948375222206115
1746483097792822500,8.329822509765625,0.19577567007839677,0.3420496426239609,0.6346585241220891
1746483097802800600,8.339800537109374,0.3629892625391483,0.24935236196517943,0.8913615411110222
1746483097812779800,8.34977978515625,0.4744207620233297,0.10811901393532752,0.909454247162491
1746483097822758400,8.35975830078125,0.6572323211103678,-0.06187398011088371,0.7299924368947744
1746483097832737500,8.369737548828125,0.27130700414180753,0.014718845704197884,0.5219019135139882
1746483097842716400,8.37971630859375,-0.1952086838454008,0.19614362660795448,0.12065467038154601
1746483097852695600,8.389695556640625,-0.6568167260468005,0.1553790700212121,-0.16377762666270135
1746483097862674400,8.39967431640625,-1.0321119279295206,0.09226064280718564,-0.30502558773979543
1746483097872653600,8.409653564453125,-1.1337193680137396,0.15630758304297923,-0.3058091393329203
1746483097882632400,8.419632568359376,-0.9837398189485073,0.2804272991865873,-0.27846652050763365
1746483097892611600,8.429611572265625,-0.7441156547933816,0.2719359496951103,-0.11466288262084126
1746483097902590500,8.439590576171875,-0.47779228428304193,0.20441753395646808,0.10620908866077661
1746483097912569600,8.449569580078125,-0.23986907882690428,0.1453323077812791,0.28537717667892576
1746483097922548500,8.459548583984375,-0.17419219930171967,0.09705576812922954,0.3175974845431745
1746483097932527600,8.469527587890624,-0.20044716902077198,0.09333119464814663,0.29975203125104305
1746483097942506500,8.479506591796875,-0.302358560487628,0.10231792644113302,0.2526879361286759
1746483097952485600,8.489485595703124,-0.4610749582380056,0.12265928820222616,0.1256266135752201
1746483097962465500,8.499465576171875,-0.5918927107155323,0.19416414322853087,0.025355828922241926
1746483097972444400,8.5094443359375,-0.5892272908985614,0.1820902590751648,-0.02128887174427509
1746483097982423600,8.519423583984375,-0.47118134171068665,0.12288140652030706,0.0010078618682920933
1746483097992402400,8.52940234375,-0.29903087736964223,0.06814706903100014,0.05839461356252432
1746483098002381600,8.539381591796875,-0.10924597213864326,-0.015150222858786581,0.05616480868384242
1746483098012360400,8.5493603515625,0.05040273802578449,-0.10529518868625164,-0.02298077035397291
1746483098022339600,8.559339599609375,0.0009521861582994461,-0.18539280775189398,-0.27274887351319194
1746483098032318700,8.569318603515624,-0.6890449249565601,0.06067074180096387,-0.8423363750487566
1746483098042297600,8.579297607421875,-1.5236358004450796,0.017314415155351162,-1.3502629547022282
