time,seconds_elapsed,z,y,x
1746482537856605000,0.02360498046875,-0.41308629561662674,0.25072540388405323,0.1300567049771547
1746482537866582800,0.033582763671875,-0.862380507428944,0.43223464820086954,0.013036591705679893
1746482537876562000,0.04356201171875,-1.0797685821175576,0.4947866737037897,-0.07091711826622486
1746482537886540000,0.0535400390625,-1.0430033243000507,0.4812713585704565,-0.08113163828849793
1746482537896519000,0.063518798828125,-0.8029214795053005,0.42129707460105414,0.003551555001735687
1746482537906497000,0.0734970703125,-0.43855975956916804,0.2781277900725603,0.18226678468585014
1746482537916475100,0.08347509765625,-0.05167231957018375,0.10391571702659129,0.3477484387874603
1746482537926453800,0.093453857421875,0.2810954077064991,0.008425883039832115,0.5013835877507925
1746482537936431900,0.103431884765625,0.4548378174141049,-0.03496493039727211,0.5853560024231672
1746482537946411000,0.113410888671875,0.4916179805397987,-0.06673544866740704,0.6190116037875414
1746482537956388900,0.123388916015625,0.4627653955429792,-0.022498247534036633,0.6161334180027246
1746482537966368000,0.133367919921875,0.35945144380182026,0.037943069425225254,0.5296639258176088
1746482537976346000,0.14334619140625,0.1990095374330878,0.1110655887812376,0.4135959987044334
1746482537986325000,0.153324951171875,0.05465688833892345,0.14611059867739676,0.2741290758252144
1746482537996302800,0.163302734375,-0.08710808234959841,0.09462532611191272,0.15463701948225497
1746482538006281700,0.17328173828125,-0.16947276956439017,0.01954875007867813,0.04976560916602611
1746482538016259800,0.183259765625,-0.1522960093140602,-0.07469020706415176,-0.025681553745269772
1746482538026239000,0.193239013671875,-0.07687427310496568,-0.16381810480356215,-0.08260580249428749
1746482538036217000,0.203217041015625,0.02594868024885654,-0.24001930095255372,-0.21754151168465613
1746482538046195000,0.21319482421875,0.046911681039631364,-0.25613924562633034,-0.3124865712702274
1746482538056174000,0.223174072265625,0.07344166830778122,-0.29756489647030826,-0.37291970492303367
1746482538066152000,0.23315185546875,0.0643751492768526,-0.3557259935379028,-0.3890852423042059
1746482538076130800,0.243130859375,0.054549920833110804,-0.4149941750645637,-0.44422903737723823
1746482538086109000,0.25310888671875,-0.0596893295481801,-0.3927700682967901,-0.536498740273714
1746482538096087800,0.263087890625,-0.2109700243398547,-0.3154091807186603,-0.5166191508054733
1746482538106066000,0.27306591796875,-0.3149748809546232,-0.2681546775907278,-0.4260153352946043
1746482538116045000,0.283045166015625,-0.3076712799429893,-0.2595499308526516,-0.34753742638528345
1746482538126023200,0.293023193359375,-0.22999562732726334,-0.3110194213271141,-0.29341829818487164
1746482538136002000,0.303001953125,-0.10533113678246736,-0.322588278567791,-0.19568974536061287
1746482538145980000,0.31297998046875,-0.029478607940673827,-0.3182248226612806,-0.11858780097961424
1746482538155958800,0.322958740234375,-0.018847908332943916,-0.3018909429758787,-0.05214344421327114
1746482538165937000,0.33293701171875,0.0213408941924572,-0.28558921199440956,0.03814239138960838
1746482538175915000,0.3429150390625,0.04044833024442196,-0.30797698489129544,0.11196516796946525
1746482538185894000,0.352893798828125,0.038410686936974525,-0.3252747411727905,0.1553933908075094
1746482538195871700,0.362871826171875,0.028332360514998434,-0.3314718422472477,0.1531546719700098
1746482538205851000,0.372850830078125,-0.05769347955584526,-0.2281084984064102,0.15390110642313956
1746482538215829000,0.3828291015625,-0.1423363408356905,-0.1885328593432903,0.15115502258539198
1746482538225808000,0.392807861328125,-0.19585750314295292,-0.18979016592800615,0.1838549306601286
1746482538235786000,0.402785888671875,-0.17343290536701678,-0.2296241636663675,0.1874701985478401
1746482538245764900,0.412764892578125,-0.11075462313592434,-0.2909709050327539,0.16577099243700502
1746482538255743000,0.422742919921875,-0.0560775687918067,-0.341469504648447,0.10770283434987067
1746482538265722000,0.43272216796875,-0.10386632492691278,-0.2646370248585939,0.047720367074012754
1746482538275700000,0.442699951171875,-0.16062690754681824,-0.1801028846502304,0.114198041588068
1746482538285678800,0.452678955078125,-0.16391396639347075,-0.17799159158468245,0.19688217001557348
1746482538295657000,0.462656982421875,-0.10225947425216436,-0.19290099142491815,0.23739538218975065
1746482538305635800,0.4726357421875,-0.042701369868218896,-0.2105067907422781,0.24132044667899608
1746482538315614000,0.482614013671875,0.01232435178309679,-0.21768705763518809,0.2359551202535629
1746482538325592000,0.492592041015625,-0.01435731891542673,-0.16258184100687503,0.20206980178654194
1746482538335571000,0.502571044921875,-0.09974866047501564,-0.07332768653929234,0.19827683924436568
1746482538345548800,0.512548828125,-0.14383359365612267,-0.044429508835077285,0.2892050644040108
1746482538355528000,0.52252783203125,-0.11537936032712459,-0.05836743329465389,0.33163492385447024
1746482538365506000,0.532506103515625,-0.030258944663405417,-0.09607844752967357,0.34708500644266604
1746482538375485000,0.54248486328125,0.03576397182047367,-0.12232757202982902,0.3035685207992792
1746482538385463000,0.552463134765625,0.06851619460433721,-0.10470365253388882,0.24859715968370436
1746482538395442000,0.56244189453125,0.08421411447376012,-0.04160276097655296,0.24678514182567596
1746482538405420000,0.572419921875,0.12527063974440097,0.009634674307703971,0.2829161933928728
1746482538415399000,0.58239892578125,0.1612570221439004,0.005481646281480789,0.3121925567597151
1746482538425376800,0.592376708984375,0.23714608360379932,-0.01679331389069557,0.3477969541043043
1746482538435356000,0.60235595703125,0.3292036050543189,-0.059331309890747065,0.3575397649616003
1746482538445334000,0.612333984375,0.35840690318495033,-0.06662029785513877,0.3389332641690969
1746482538455313000,0.62231298828125,0.22606121048778294,-0.047241059124469756,0.25933015062212944
1746482538465291000,0.632291015625,-0.0025847557961940766,0.006034603989124298,0.19109248069822787
1746482538475268900,0.642268798828125,-0.23151947589367627,0.029155951857566833,0.13723638734817503
1746482538485247700,0.652247802734375,-0.3466965916469693,0.002153378641605377,0.10408230576515197
1746482538495225900,0.662225830078125,-0.3771922676756978,-0.04071779483556747,0.026169629523158072
1746482538505205000,0.672205078125,-0.4211050591602921,0.0010550620108842848,-0.07096154192984104
1746482538515182800,0.682182861328125,-0.4862929861247539,0.08291969074904919,-0.09086158966422081
1746482538525162000,0.692161865234375,-0.4950267660699784,0.1006739586263895,-0.06038286477029323
1746482538535140000,0.70214013671875,-0.4661299035400152,0.05515022481381893,0.01064297456741333
1746482538545118700,0.71211865234375,-0.3864692145869136,-0.02164016939997673,0.0793459239155054
1746482538555096800,0.722096923828125,-0.3274532542556524,-0.13100012330710886,0.05775017817914486
1746482538565076000,0.732075927734375,-0.35356413932889696,-0.18371990610361097,-0.019257073655724523
1746482538575053800,0.7420537109375,-0.4785732055276632,-0.11091770474314688,-0.09080722912847995
1746482538585033000,0.752032958984375,-0.61064008128345,-0.11389058307409286,-0.11688918036818503
1746482538595010800,0.7620107421875,-0.6685831516861915,-0.18252280527353285,-0.1103115555435419
1746482538604989700,0.77198974609375,-0.6721203859016299,-0.21636954529583452,-0.12327099035978316
1746482538614967800,0.7819677734375,-0.629415216641128,-0.2619990775704384,-0.19422902515828608
1746482538624946000,0.79194580078125,-0.6352167425267398,-0.3078343615502119,-0.24473989973366259
1746482538634924800,0.8019248046875,-0.6686888040177523,-0.2889905448704958,-0.22969079916179178
1746482538644902700,0.811902587890625,-0.6795066967606544,-0.26541151636242866,-0.14266834926903246
1746482538654881800,0.8218818359375,-0.641196547588706,-0.3214706727147102,-0.09798048175871371
1746482538664859600,0.831859619140625,-0.591387683802843,-0.3674801442176103,-0.10682020629644394
1746482538674838800,0.8418388671875,-0.520993128105998,-0.3796306007385254,-0.14303425997197627
1746482538684817000,0.85181689453125,-0.5575095257289707,-0.3318336612969637,-0.24669454093277454
1746482538694795800,0.861795654296875,-0.6864443870693445,-0.20203063881993294,-0.41846506604552264
1746482538704774000,0.87177392578125,-0.8154115432441235,-0.1268470952808857,-0.4666694172441959
1746482538714753000,0.8817529296875,-0.9006938714712858,-0.13060031033456324,-0.48788814636170863
1746482538724730600,0.891730712890625,-0.9139169256597757,-0.1479348914951086,-0.5187888960599899
1746482538734709800,0.901709716796875,-0.8739562328018248,-0.18597849868535996,-0.48051089559197424
1746482538744687900,0.91168798828125,-0.8042278128635137,-0.20509587160944937,-0.47273032471835613
1746482538754666800,0.921666748046875,-0.764051942884922,-0.15916414151787758,-0.4344499861627817
1746482538764644900,0.931644775390625,-0.7249304042648523,-0.12701777567267417,-0.33438393030166624
1746482538774623000,0.941623046875,-0.677242770416662,-0.16413316210210321,-0.23869418982863425
1746482538784601900,0.951601806640625,-0.6058510203760117,-0.21112696846723555,-0.15577040742635725
1746482538794579700,0.961579833984375,-0.5644534265827387,-0.24483342323601245,-0.10622399396896362
1746482538804558800,0.971558837890625,-0.5727191506247967,-0.2705319281160831,-0.09306231457889079
1746482538814536700,0.98153662109375,-0.6411586267311126,-0.23285656971633434,-0.12673895873129368
1746482538824515800,0.991515869140625,-0.7628565956205129,-0.1996925512611866,-0.16097499033212662
1746482538834494000,1.001493896484375,-0.8837754698961973,-0.24890286463201045,-0.18389467814862728
1746482538844472800,1.011472900390625,-0.9671966073613614,-0.3490834867835045,-0.19884148738980292
1746482538854451000,1.021450927734375,-1.0449573079120367,-0.4100444437026977,-0.23692951824367045
1746482538864429800,1.031429931640625,-1.114771506437659,-0.3770984519124031,-0.31374095524549483
1746482538874407700,1.04140771484375,-1.16985787223503,-0.37897242909073825,-0.3274158448547125
1746482538884386800,1.05138671875,-1.2378139487385749,-0.4750532147079706,-0.30728724906146526
1746482538894365000,1.061364990234375,-1.272588909521699,-0.598674333679676,-0.27416940783560273
1746482538904343800,1.07134375,-1.2801713274747133,-0.6718377695679664,-0.2546656659424305
1746482538914322000,1.081322021484375,-1.239846915870905,-0.6465197884380817,-0.2673702492147684
1746482538924299800,1.0912998046875,-1.2080635381191969,-0.6253080735832452,-0.31430209625959393
1746482538934278700,1.101278564453125,-1.1982803952515124,-0.6154483583480119,-0.34691491057276724
1746482538944256800,1.1112568359375,-1.1862655478090047,-0.6211801799982786,-0.33435996490418907
1746482538954236000,1.12123583984375,-1.1463099695175885,-0.6374895097643136,-0.3076929072529077
1746482538964213800,1.1312138671875,-1.1134247680038214,-0.6323129839092493,-0.2576882286339998
1746482538974193000,1.14119287109375,-1.0942167941868304,-0.6118418582886457,-0.20414602353870867
1746482538984171000,1.1511708984375,-1.0644470943450928,-0.5877899515718221,-0.1575467694491148
1746482538994150000,1.16114990234375,-1.075852869978547,-0.6040817456811666,-0.15943945132791995
1746482539004127700,1.171127685546875,-1.08862233518064,-0.630769261598587,-0.1774444790959358
1746482539014106600,1.181106689453125,-1.121657758820057,-0.6891343568056821,-0.19466507848799228
1746482539024084700,1.191084716796875,-1.1430518445044755,-0.6981956151396036,-0.15846622238159178
1746482539034064000,1.20106396484375,-1.1579460467755793,-0.662265639102459,-0.11214344714581966
1746482539044042000,1.2110419921875,-1.170854628187418,-0.6677069533735513,-0.056442602711915965
1746482539054020900,1.221020751953125,-1.2236170810818672,-0.7419260357946157,-0.001703296786546707
1746482539063999000,1.2309990234375,-1.2680255471289157,-0.8075403714776038,0.0546200634598732
1746482539073976800,1.240976806640625,-1.299929920911789,-0.844452344289422,0.09501637125611305
1746482539083955700,1.250955810546875,-1.2458897031664848,-0.7894377285540104,0.18474398845434187
1746482539093933800,1.260933837890625,-1.1511796213805674,-0.7338309921443462,0.3318967896610498
1746482539103912700,1.27091259765625,-1.0451999575614928,-0.7712550061315298,0.4645400040000677
1746482539113890800,1.280890869140625,-0.9491396302103996,-0.877108413222432,0.49292614052891726
1746482539123870000,1.290869873046875,-0.9024830929756164,-1.0200918197900055,0.4764034602731466
1746482539133847800,1.300847900390625,-0.8764578403592109,-1.1919763266712426,0.4716922138422727
1746482539143826700,1.31082666015625,-0.8358429213762283,-1.378529994896054,0.48483285044431684
1746482539153804800,1.3208046875,-0.8614321206629276,-1.5673983698040246,0.4650929617077112
1746482539163783700,1.33078369140625,-0.8954606469929218,-1.7919231645047664,0.490893757918477
1746482539173761800,1.34076171875,-0.9081950408816337,-2.070561242187023,0.6124620360136032
1746482539183741000,1.350740966796875,-0.916197145551443,-2.4061405197530985,0.7335960143446922
1746482539193718800,1.36071875,-0.8741489788949489,-2.6590485283732415,0.8424269759416579
1746482539203698000,1.370697998046875,-0.7579454427033663,-2.8746365679025647,1.0373018977880477
1746482539213675800,1.38067578125,-0.6110124217271804,-3.0834038215011357,1.1935936987400053
1746482539223654000,1.39065380859375,-0.5169558354139328,-3.3341374086916447,1.270048577389121
1746482539233632800,1.4006328125,-0.42096389712393284,-3.617130758973956,1.299053138077259
1746482539243611000,1.41061083984375,-0.3359562941849232,-3.844906079903245,1.3044623036444187
1746482539253589800,1.42058984375,-0.15862049962785094,-3.991651469352841,1.2153577867805958
1746482539263568000,1.43056787109375,0.09239248902592807,-4.017193906888365,1.0191057313621044
1746482539273547000,1.440547119140625,0.38864159018993377,-4.016559700638056,0.7754892827004194
1746482539283524900,1.45052490234375,0.711345019569993,-4.152371023619175,0.41332711863517757
1746482539293503700,1.460503662109375,0.922124197512865,-4.526896410173177,-0.10101415036618709
1746482539303481900,1.47048193359375,1.1054951440483332,-4.921610013753176,-0.5047410814851522
1746482539313460700,1.480460693359375,1.1896347319811582,-5.231197940972447,-0.6872551189303397
1746482539323438800,1.49043896484375,1.2375643578916788,-5.455913874331117,-0.672616352725029
1746482539333418000,1.50041796875,1.2205156079351902,-5.569729638603329,-0.5416366876840591
1746482539343395600,1.5103955078125,0.937098479282856,-5.529179601550102,-0.6021107378691435
1746482539353373700,1.520373779296875,0.22473231823788956,-5.427866760498285,-1.3781290128797292
1746482539363352800,1.530352783203125,-0.49708914195988324,-5.207713605010509,-2.437747371894121
1746482539373331000,1.5403310546875,-0.7420716548103838,-5.16774458271563,-3.584723111844063
1746482539383309800,1.550309814453125,-0.8450888886272907,-5.184152696681022,-4.781718727982044
1746482539393288000,1.560287841796875,-0.9876267433844507,-5.137535322412848,-5.349275454342365
1746482539403266800,1.570266845703125,-1.7047838102340698,-5.341028435000777,-5.071184489148855
1746482539413244700,1.58024462890625,-3.9976597698569294,-5.265062801173329,-4.600983390647173
1746482539423223800,1.590223876953125,-7.48456781963706,-4.035162109777331,-4.590053415831923
1746482539433201700,1.60020166015625,-10.893908645612001,-2.7329724272400138,-4.292224899989367
1746482539443180800,1.610180908203125,-13.648325427418946,-1.9666835190832614,-4.16515510186851
1746482539453159000,1.620158935546875,-15.365575920516251,-1.0502981574833392,-4.3954234086573125
1746482539463137800,1.6301376953125,-16.723887887769937,-0.4030038775414228,-4.052160006329417
1746482539473116000,1.640115966796875,-17.37599570547342,-0.24239976634830235,-3.378231401962042
1746482539483095000,1.650094970703125,-17.783547747838497,-0.2171416987121105,-3.002501315793395
1746482539493072600,1.66007275390625,-18.079099550920724,-0.5356014991730451,-2.712728096112609
1746482539503050800,1.67005078125,-18.04341332051158,-1.1633376766860484,-2.758060691267252
1746482539513030000,1.68002978515625,-17.527359986895323,-1.8116019707038997,-2.831692329189181
1746482539523007700,1.6900078125,-16.175184330439567,-2.529818629609048,-2.5501684669375417
1746482539532987000,1.69998681640625,-14.358666822904347,-3.1037863920554516,-2.101848360854387
1746482539542964500,1.709964599609375,-12.26937165415287,-3.2729239383161066,-0.8738964654386043
1746482539552943400,1.719943359375,-9.585311434119939,-2.5779738809689876,0.7784826192975044
1746482539562921500,1.72992138671875,-6.300310104519128,-1.3244497374013064,2.816115989872813
1746482539572900600,1.739900634765625,-2.754513227918744,0.24111235688626764,4.883021047639846
1746482539582878500,1.74987841796875,0.7002636535853147,1.9055115497618913,7.095421202534437
1746482539592857300,1.759857421875,3.871172155538201,3.2713907373994586,9.22377880012989
1746482539602835500,1.76983544921875,5.947768586236238,4.325130267508328,10.276323859757184
1746482539612814300,1.779814453125,7.0205141378492115,5.283666963878273,10.299906979918479
1746482539622792400,1.78979248046875,7.816251843330264,6.048472940000892,9.278340995922685
1746482539632771600,1.799771484375,8.392254910996556,6.28346535270214,7.389364401376247
1746482539642749400,1.80974951171875,8.744521703991293,6.786957895430922,5.212177014160156
1746482539652728600,1.819728515625,8.848969920459389,7.7683637184739105,3.334563525149226
1746482539662706400,1.82970654296875,8.8838986104995,8.098139862719178,1.673764402592182
1746482539672684500,1.8396845703125,8.338332766672968,8.130887701588868,0.3907096286356449
1746482539682663400,1.849663330078125,7.089259172773361,8.071005772078037,0.00992927334010601
1746482539692641500,1.8596416015625,5.039042214956879,8.403254443916678,-0.06206979494392872
1746482539702620400,1.869620361328125,2.4163953717857596,9.89162077805996,0.18339549645483494
1746482539712598500,1.8795986328125,-1.2696236299753187,11.264286264836787,1.349160108026862
1746482539722577400,1.889577392578125,-1.9018664712578057,13.246070322418213,3.7213217858105896
1746482539732555300,1.89955517578125,7.366366387626528,17.297601967716215,3.4130887803316114
1746482539742534400,1.909534423828125,17.521344087606668,16.06824137454629,-6.07883768312633
1746482539752512500,1.919512451171875,17.29976002253294,10.647653080618381,-7.850843848761916
1746482539762491400,1.929491455078125,37.97979142842293,16.254005938220022,-1.5702835698515176
1746482539772469500,1.939469482421875,36.403081040394305,18.390344597697258,-7.459633284866809
1746482539782448600,1.94944873046875,-2.9823206975519656,19.762458295810223,-13.259935181641579
1746482539792426200,1.95942626953125,-51.76512294156551,25.827679541516304,-3.1135689504012465
1746482539802404400,1.969404296875,-24.047326403295994,22.12564990067482,19.51227357467413
1746482539812383500,1.979383544921875,17.818195867371557,5.455064564025402,18.4995905698359
1746482539822361300,1.989361328125,34.84197037255764,-9.111223849573731,9.429099128144978
1746482539832340500,1.999340576171875,23.603526989507674,-6.8898518681943415,11.315297490149735
1746482539842318600,2.009318603515625,11.156389369219541,-5.565206023699045,9.559579611492156
1746482539852297500,2.01929736328125,11.076671104860305,-3.9410631456270813,6.012139643859863
1746482539862275300,2.029275390625,16.123566371405122,-1.4945853547886012,3.8737197941944
1746482539872254500,2.03925439453125,10.40045059016347,0.41917262979298825,0.11494856769442557
1746482539882232300,2.049232421875,-4.268593849033117,0.6593444909587503,-3.684411274303496
1746482539892211500,2.05921142578125,-13.390511526578663,1.225070202499628,-4.953879713717103
1746482539902189600,2.069189453125,-15.379146180707215,1.9550699459180234,-2.732302857415378
1746482539912168400,2.07916845703125,-10.407898568081855,3.621045302069187,-0.7656815899133682
1746482539922146600,2.089146484375,-4.7138078057944774,2.962051231983304,-1.1866636072158814
1746482539932125400,2.09912548828125,-2.6662808177143336,-0.3339280032277107,-2.239178856226802
1746482539942103300,2.109103271484375,0.8920821104705333,-0.892028626717627,-1.8419459633022546
1746482539952081400,2.119081298828125,3.05775149385035,0.03598959726989269,-0.9441118651762604
1746482539962060500,2.129060546875,1.038205568629503,0.09496025715470313,-0.9028834904700517
1746482539972038400,2.139038330078125,-1.0242261431157589,-0.3238143132314086,-0.8199535705879331
1746482539982017500,2.149017578125,-0.25155250235795973,-0.6563575841024517,0.0001347322955727577
1746482539991995400,2.158995361328125,2.0797253763735295,-0.8084343977078795,1.0584005076572298
1746482540001974300,2.168974365234375,3.5862750174611806,-1.0292255588382482,2.141384836950898
1746482540011952400,2.178952392578125,3.7114673312723636,-0.9499792959049344,2.8741023148953913
1746482540021931500,2.188931640625,3.4333792886883017,-0.5609516290068626,2.7673478673115373
1746482540031909400,2.198909423828125,3.009322101724148,-0.5878472347170114,1.6213433104813098
1746482540041888500,2.208888427734375,2.7593630060374736,-0.10640461123287677,0.7323018828809261
1746482540051866600,2.21886669921875,1.6788754619956014,0.06261398482322693,-0.006953472399711609
1746482540061845500,2.228845458984375,-0.04058101671338081,0.1576595821738243,-0.22025398551374673
1746482540071823400,2.2388232421875,-0.8865817594885825,0.49973552828282114,-0.0482958288744092
1746482540081802500,2.248802490234375,-1.9301590842843055,0.403030619417876,0.9885212080061435
1746482540091780400,2.2587802734375,-2.5241975748568772,0.20672332668080926,2.0695070569589733
1746482540101758500,2.268758544921875,-2.314215100249648,0.24493323034867642,2.9052377501323816
1746482540111737600,2.278737548828125,-1.211677636963129,0.16457432999834418,2.8402742795735594
1746482540121715500,2.288715576171875,-0.5160749609261751,-0.767896489483863,2.2543574283972383
1746482540131694600,2.298694580078125,-0.36891163832545276,-0.7391252991601824,1.8445219512701034
1746482540141672400,2.30867236328125,-0.4678998358219862,-0.4411787098959088,2.0692922451645135
1746482540151651300,2.3186513671875,0.14497428812384605,-0.6757561120554805,2.043950883159041
1746482540161629400,2.32862939453125,0.2741758375763893,-0.8714255452804267,2.5532851376533507
1746482540171608600,2.338608642578125,0.6655676032572985,-1.080060550801456,2.7653663381054994
1746482540181586400,2.34858642578125,1.729500318339467,-0.14549363582283256,2.188370898400992
1746482540191565600,2.358565673828125,1.5372282724678517,0.723630646777898,1.3781959406360984
1746482540201543400,2.36854345703125,1.596150417035818,0.9878061916045844,0.6269790755353868
1746482540211522300,2.378522216796875,2.1635615974456073,1.3555097693145275,0.09660466336086392
1746482540221500400,2.38850048828125,1.284476331192255,1.6333916218020021,-0.41614524479582904
1746482540231478500,2.398478515625,1.306813250684738,2.1188880507215857,-1.191979249280691
1746482540241457400,2.40845751953125,0.11530687961280345,2.7582851476728916,-0.751948978767544
1746482540251435500,2.418435546875,-0.5984031155228614,3.7221319331496954,-0.6638182753719389
1746482540261414400,2.428414306640625,-1.0593944871306418,3.988320863625407,-0.7336324008323252
1746482540271392300,2.438392333984375,-1.6265841337442397,3.9026135879844426,-0.43700493134260177
1746482540281371400,2.448371337890625,-2.5245833593040703,3.331021322497725,-0.6642832625351845
1746482540291349500,2.458349609375,-3.7838252959966656,3.101501203727722,-0.9118599931299686
1746482540301328400,2.468328369140625,-5.638225667202472,3.438632386910915,-0.31633973956704137
1746482540311306500,2.478306396484375,-7.564830273875594,3.137441116636991,0.11579882784821093
1746482540321285400,2.488285400390625,-9.006907150530814,2.469702014559507,0.5020288999170065
1746482540331263500,2.498263427734375,-9.15376359913945,1.066861462010443,0.646146278950572
1746482540341242600,2.50824267578125,-7.560075188302993,-1.0144766102567315,0.015211013135313986
1746482540351220500,2.518220458984375,-3.4682232230544088,-2.5924881440117953,-0.5031767547778785
1746482540361199400,2.528199462890625,1.938067665451765,-3.2856302751541135,-1.1582340699367224
1746482540371177500,2.538177490234375,6.435322970598936,-3.7704555268138646,-2.5479826473310587
1746482540381155600,2.548155517578125,8.201126774463058,-3.3228409386515616,-2.96570478605479
1746482540391134500,2.558134521484375,6.753959881192445,-2.4816239230215547,-2.0352391689151523
1746482540401112600,2.568112548828125,4.697603689968585,-1.7405848991945385,-0.7486508870702236
1746482540411091500,2.578091552734375,2.8782664488375187,-1.2515103195272386,0.08025295575782657
1746482540421069300,2.5880693359375,1.1282570109546184,-1.5310586439222096,1.22787327722162
1746482540431048400,2.59804833984375,-0.9186451232254504,-1.6050285738877952,1.414475314632803
1746482540441026600,2.608026611328125,-2.4146610953390595,-1.3135679856419562,0.6907591815285384
1746482540451005400,2.61800537109375,-2.641294260495901,-0.6312802067954093,1.319219435532391
1746482540460983600,2.627983642578125,-1.8565104952275753,1.1699709772206843,2.9033190570294853
1746482540470962400,2.63796240234375,0.42358430875539776,2.8527269339114425,5.263936427491903
1746482540480940300,2.647940185546875,3.834977975606918,3.6186627908468245,8.18789845957756
1746482540490919400,2.65791943359375,6.095186760380864,4.0518139693707225,8.985656857231259
1746482540500897300,2.667897216796875,4.594370109987259,5.091861366474628,9.793160988351701
1746482540510876400,2.67787646484375,1.415330908548832,6.1663821110665795,8.930701862728595
1746482540520854500,2.6878544921875,-0.29747897175252436,6.640889382329583,7.238726096141338
1746482540530832600,2.69783251953125,-1.2046809099435805,6.85999624363482,5.7848500606209035
1746482540540812300,2.707812255859375,-1.5645003102749586,6.334167950457334,4.256374711190164
1746482540550790400,2.717790283203125,-1.484445945829153,5.774514544567466,3.292039557674527
1746482540560769300,2.727769287109375,-1.2611854719758033,5.19213843473792,2.6619056713700293
1746482540570747400,2.737747314453125,-1.1444897683531046,5.136033685678243,0.6383861663430929
1746482540580726300,2.747726318359375,-0.025621932512521744,3.975869962853193,-1.8791740163259207
1746482540590704400,2.757704345703125,0.6639537383198738,3.5762042898237705,-2.1577355216406287
1746482540600683300,2.767683349609375,0.5799275476336478,3.248202169513702,-3.3481539513453837
1746482540610661400,2.777661376953125,-0.22942133457064628,3.5203649137020108,-2.5935841225549576
1746482540620640300,2.78764013671875,0.021421558213233948,3.17701909378767,-3.4067063858181235
1746482540630618400,2.797618408203125,-0.7603706240236758,2.367649168795347,-3.2670342957556247
1746482540640597200,2.80759716796875,-1.5339514427542686,1.9555204661644994,-5.503801999187469
1746482540650575400,2.817575439453125,-1.2295207521677016,1.9360760532431303,-5.377486818826198
1746482540660554500,2.827554443359375,-1.2620318596720694,2.112813845374435,-6.058914254516363
1746482540670532400,2.837532470703125,-1.1618272721230982,1.1412494712576269,-7.199076222798228
1746482540680511200,2.84751123046875,-1.0501216318726538,-0.011507336311787367,-8.938625056943296
1746482540690489300,2.8574892578125,-0.9012684564888477,-1.381937465251982,-10.80209545431137
1746482540700467500,2.867467529296875,0.2362614097237587,-2.3473680127888916,-12.237828514897823
1746482540710446300,2.8774462890625,1.1605132669150828,-2.2181769847303627,-12.281402283686399
1746482540720424400,2.887424560546875,0.7214841362684965,-1.6672119122087954,-9.061086484485864
1746482540730403300,2.8974033203125,0.3392752094745636,-0.8047038328774273,-6.881520677700639
1746482540740381200,2.907381103515625,0.03394786230921745,-0.39302828084155916,-5.183071331185102
1746482540750360300,2.9173603515625,-0.14456044662594794,0.37960809664577244,-3.741143799872696
1746482540760338400,2.92733837890625,0.2600847683817148,0.7388054195560515,-2.28163034298718
1746482540770317300,2.9373173828125,0.6980851405024528,0.6528267796278,-0.1940205335067585
1746482540780295400,2.94729541015625,1.3199649932026862,0.8872467992685734,0.44433432438261805
1746482540790274300,2.9572744140625,1.4044547097474336,0.6883142725944519,0.33903409419506786
1746482540800252400,2.96725244140625,0.966653075069189,0.4587526527702808,0.06389364937022328
1746482540810231300,2.977231201171875,0.3590203589081764,0.19518603362217543,-0.1133177881548181
1746482540820209200,2.987209228515625,-0.2659352479755878,0.00930968013703823,-0.16490772667117415
1746482540830188300,2.997188232421875,-0.6004366671770811,-0.06872779152840376,0.021304215443879365
1746482540840166400,3.00716650390625,-0.5853542488574981,-0.1660008556701243,0.25892131409291175
1746482540850144500,3.01714453125,-0.39440556054413317,-0.1819445669941604,0.27047661773227155
1746482540860123400,3.027123291015625,-0.26214462352097034,-0.0975394599929452,0.3091128570534289
1746482540870101200,3.037101318359375,-0.3115677028596401,0.009723375504463911,0.4306629419047385
1746482540880080100,3.047080078125,-0.3379500983506441,0.05199979795888066,0.3148412081049755
1746482540890058200,3.057058349609375,-0.31510815194547176,0.07268675828725099,0.3241129673844203
1746482540900037400,3.067037353515625,-0.3466284948468208,-0.029124387675523757,0.25452030265498904
1746482540910015200,3.07701513671875,-0.2865723778128624,-0.3356602338477969,0.15648209935966878
1746482540919994400,3.086994384765625,-0.06013795009851455,-0.5334690171889961,0.12968224564157427
1746482540929972500,3.096972412109375,0.5105687647253274,-0.6263537832438946,0.26493162389099595
1746482540939951400,3.106951416015625,0.6945569663763046,-0.5344308479584753,0.3240992676526308
1746482540949929200,3.11692919921875,0.4795014262884855,-0.45857963429093357,0.44665005397908386
1746482540959908400,3.126908447265625,0.24766543179154393,-0.2556393332801759,0.48313930786680426
1746482540969886200,3.13688623046875,0.0019160627543926237,-0.08826192855983972,0.4226173268867656
1746482540979865300,3.146865234375,-0.16481062297224996,-0.027036913876980543,0.42780616423413154
1746482540989843500,3.156843505859375,-0.2691583016753197,0.056064124788343904,0.29119178124181927
1746482540999821300,3.1668212890625,-0.24894202759861944,0.08632745336592197,0.2082473579103127
1746482541009800400,3.176800537109375,0.026470073774456978,0.11356851151287554,-0.035194720565155144
1746482541019778300,3.1867783203125,0.21894436421990393,0.02930865820124745,-0.20308456831965593
1746482541029757200,3.196757080078125,0.39192251155674457,0.019523469506949186,-0.4330951374877244
1746482541039735300,3.2067353515625,0.2911503532528877,0.03790244515389204,-0.39657925132140515
1746482541049714400,3.21671435546875,0.11753215444684027,0.10744959024116396,-0.2583281705053523
1746482541059692300,3.2266923828125,-0.11873042432069777,0.2430218437694013,-0.27135961111187934
1746482541069671400,3.23667138671875,-0.3397498412489891,0.20763795730769632,-0.215866491144523
1746482541079649300,3.246649169921875,-0.33204818083047866,0.1765850857876241,-0.2156084612628445
1746482541089628200,3.256628173828125,-0.12455343138575553,0.15033128511235117,-0.13704890195205807
1746482541099606300,3.266606201171875,0.06045008478760719,0.1202555880613625,-0.06719933985210955
1746482541109585400,3.27658544921875,0.11562076786756514,0.11467428079769014,-0.1229047143306583
1746482541119563300,3.286563232421875,0.063164019921422,0.061597501257061954,-0.14437011168561875
1746482541129542400,3.29654248046875,0.04845978726446628,0.03452463928386569,-0.1853125090572983
1746482541139520500,3.3065205078125,0.021250877821445465,0.06760477884784341,-0.2780222838714719
1746482541149498000,3.316498046875,0.024877251625061034,0.01747165154367685,-0.3835033139860257
1746482541159477200,3.326477294921875,0.07040799970030784,-0.047715252507478,-0.39945283399634063
1746482541169455400,3.336455322265625,0.12146247963309287,-0.024700579883903263,-0.3372837433964014
1746482541179434200,3.346434326171875,0.04108487458229065,-0.008193097197264432,-0.2389381546523422
1746482541189412400,3.356412353515625,-0.035187633237242694,-0.03192264009192586,-0.14312515312582252
1746482541199391500,3.3663916015625,-0.04479425049424171,-0.013707915095984935,-0.0906928089685738
1746482541209369300,3.376369384765625,-0.09927461322247981,0.002897475007176399,-0.00013999299257993697
1746482541219348500,3.386348388671875,-0.06522562862634658,0.011824439436942339,0.0015670666536316275
1746482541229326300,3.396326416015625,0.04942015672922134,0.030481793633848425,-0.008259476964361965
1746482541239305200,3.40630517578125,0.08344283784031868,0.03745119425505399,0.013211729076877236
1746482541249283300,3.416283447265625,0.03101297790110111,0.028542642264813182,0.028922106569074093
1746482541259262200,3.42626220703125,-0.09359832115173339,0.004279577015340328,0.018960282666236162
1746482541269240300,3.436240234375,-0.16203765112757681,-0.014173632911592722,0.029161504815518855
1746482541279219500,3.446219482421875,-0.11577858877778052,-0.044256344225257635,0.033160840117372574
1746482541289197300,3.456197265625,-0.022515198668837545,-0.05686988821327686,0.04352631291765719
1746482541299176200,3.46617626953125,0.030724808609485624,-0.046118046443909405,0.01900017628520727
1746482541309154300,3.476154296875,0.03915010712742805,-0.039509003567695614,0.034971944659948344
1746482541319132400,3.48613232421875,0.0020750527083873748,-0.05896043075174093,0.05766114818882197
1746482541329111300,3.496111328125,-0.052231122496724125,-0.06637275283485651,0.03640654404032975
1746482541339089400,3.50608935546875,-0.054339492952823636,-0.07927914228960871,0.01649977430421859
1746482541349068300,3.516068359375,-0.05415712212324142,-0.07845730451270938,0.01309274233970791
1746482541359046100,3.526046142578125,-0.04890227033495903,-0.10068988684788345,0.02030007990263402
1746482541369025300,3.536025390625,-0.054959086155891415,-0.14316694644093514,0.021248320538178087
1746482541379003400,3.54600341796875,-0.058846156722307204,-0.15816621652171015,-0.009730316701903939
1746482541388982300,3.555982177734375,-0.061924833515286444,-0.19535554497018456,-0.014841010779142379
1746482541398960400,3.56596044921875,-0.08053074978590011,-0.2021782305970788,-0.043349604643881316
1746482541408939300,3.575939208984375,-0.12471475942730903,-0.21978826769813894,-0.02066189895235002
1746482541418917400,3.58591748046875,-0.13197159868776798,-0.20769860145375132,-0.04366086255013942
1746482541428896500,3.595896484375,-0.10233224722743034,-0.17611220757886767,-0.07724007421005517
1746482541438874400,3.605874267578125,-0.04746083935499191,-0.1412184427216649,-0.07672138409819454
1746482541448853200,3.615853271484375,-0.010839373922348022,-0.11293269782736896,-0.04767181522455066
1746482541458831400,3.625831298828125,0.031335049462318416,-0.10100903579965233,-0.06592818740513175
1746482541468810200,3.635810302734375,0.03850537948310375,-0.10071063737496733,-0.0589595905015245
1746482541478788400,3.645788330078125,0.03277881852984428,-0.07228036944344639,-0.05393726882748306
1746482541488766500,3.655766357421875,0.013134206861257552,-0.05876593109294772,-0.038746056371182204
1746482541498745300,3.665745361328125,-0.032765959048271176,-0.0976597253717482,-0.06156045718230307
1746482541508723200,3.67572314453125,-0.05788111108243465,-0.11640271202549338,-0.013300503338873386
1746482541518702300,3.685702392578125,-0.08463760058283805,-0.08952931814715266,0.0027017332393676043
1746482541528680400,3.695680419921875,-0.06080488957464695,-0.0696191874101758,0.03693571901358664
1746482541538659300,3.705659423828125,-0.04033434847593307,-0.059345484546571965,0.04227386517114937
1746482541548636700,3.71563671875,-0.01873743369579315,-0.06824702227413654,0.05354472584594041
1746482541558615800,3.72561572265625,-0.02326397120952606,-0.0665833268456161,0.06499645951297134
1746482541568593700,3.73559375,-0.024560440760850906,-0.02624035667181015,0.03543886805195361
1746482541578572800,3.74557275390625,-0.04028992481231689,-0.0281181332424283,0.0034475466379895806
1746482541588551000,3.755551025390625,-0.03866670752465725,-0.043560617046058174,-0.011378412702493368
1746482541598529800,3.76552978515625,-0.03934124578535556,-0.03931289647370577,-0.007773775806650519
1746482541608507600,3.775507568359375,-0.05173486341238021,-0.03300941241532564,-0.007332717508263886
1746482541618486500,3.785486572265625,-0.0513607694029808,-0.03164148506298661,0.013563903515413403
1746482541628464600,3.795464599609375,-0.046778117787837976,-0.04598360640928149,-0.003931384632177651
1746482541638442800,3.80544287109375,-0.021432079607248303,-0.05862301549091935,0.010477335676923393
1746482541648422000,3.815421875,0.0033142391145229337,-0.058548927341401574,0.006788710292056203
1746482541658399700,3.825399658203125,0.031164369070529937,-0.07214987493157386,0.01867686261497438
1746482541668379000,3.83537890625,0.019185177463293075,-0.0838251151561737,-0.015271328487806022
1746482541678356700,3.845356689453125,0.007885200291872023,-0.09032368339523672,-0.00037263270467519755
1746482541688335600,3.855335693359375,-0.05227437711656093,-0.06070756668001413,-0.011144275153055787
1746482541698313700,3.865313720703125,-0.07284896311163902,-0.06756663879454136,-0.037366694309376176
1746482541708292600,3.875292724609375,-0.04962824652194976,-0.07881883130148053,-0.051821957173943514
1746482541718270700,3.885270751953125,-0.028260464322566986,-0.07251826985254883,-0.05040712193995714
1746482541728249900,3.895249755859375,0.012885200536251067,-0.06622808366715907,-0.06674092856012284
1746482541738228000,3.90522802734375,0.011125789648294448,-0.0744156279064715,-0.030587372900173066
1746482541748206800,3.915206787109375,-0.019227263039350507,-0.08391045535206794,-0.023225173569098114
1746482541758184700,3.925184814453125,-0.0040618426114320755,-0.0806008924126625,-0.03153247173056006
1746482541768163600,3.93516357421875,-0.00044072950482368465,-0.048914253033697605,-0.048287645567953584
1746482541778141700,3.9451416015625,0.010667524486780166,-0.004170125291496515,-0.03845379542633891
1746482541788120800,3.955120849609375,-0.04195347411036491,0.015691051737219096,-0.06129070033021271
1746482541798098700,3.9650986328125,-0.11200725354552268,0.01905687490850687,-0.046356750570610165
1746482541808076500,3.97507666015625,-0.10153905102312565,0.021900135510414837,-0.06271043093502521
1746482541818055700,3.9850556640625,-0.07651742249131202,0.010132102435827255,-0.03572422433197498
1746482541828033800,3.99503369140625,-0.07266776132583617,-0.01792977057471871,0.012127733232453464
1746482541838012700,4.0050126953125,-0.05119242709875107,-0.06126257021427154,0.018962547688558696
1746482541847990800,4.01499072265625,-0.030403321570158005,-0.1259236968256533,0.08643632056787609
1746482541857969700,4.0249697265625,0.021498715102672577,-0.1754698180221021,0.13670871021226047
1746482541867947800,4.03494775390625,0.09765724115371703,-0.17611995249390602,0.12476751252785324
1746482541877927000,4.044927001953125,0.07980009742379188,-0.11974106266796589,0.036569662180170416
1746482541887904800,4.05490478515625,-0.020189386069774627,-0.10455796045288443,-0.06615655280090868
1746482541897883600,4.064883544921875,-0.1419739372640848,-0.14716697586253286,-0.06900646233931183
1746482541907861800,4.07486181640625,-0.2187584862589836,-0.19366043149009346,-0.05294876924678683
1746482541917840600,4.084840576171875,-0.26482933256030083,-0.2553494104228914,-0.007157251343503594
1746482541927818800,4.09481884765625,-0.21902502824068068,-0.19153949381336569,0.056301294545084236
1746482541937798000,4.1047978515625,-0.038806992778182024,-0.12916779331341385,0.08506240186616777
1746482541947775700,4.114775634765625,0.10258534520566463,-0.05862593810036778,0.13663045734427867
1746482541957755000,4.1247548828125,0.07774316489398479,-0.029935557927936313,0.19318433841094373
1746482541967732700,4.134732666015625,-0.07869067487716674,-0.0019542028076946732,0.20628698109015822
1746482541977711600,4.144711669921875,-0.11434592562615871,-0.0015663725338876246,0.1821666122470051
1746482541987689700,4.154689697265625,-0.07271803020834923,-0.02893471032232046,0.09801723357252776
1746482541997667800,4.164667724609375,0.026581717455387115,-0.08856631833389401,-0.07117701131142676
1746482542007646700,4.174646728515625,0.08390928630828857,-0.1223585516899824,-0.17620602334216237
1746482542017624800,4.184624755859375,0.06754033530950546,-0.09882949980348348,-0.1191909545045346
1746482542027603700,4.194603759765625,0.06487374644875527,-0.032740824607014656,-0.04947027948126197
1746482542037581600,4.20458154296875,0.09718260937929153,-0.00691810882538557,0.039372079315036536
1746482542047560700,4.214560791015625,0.05450315908193588,-0.03886223009675741,0.15205584388263524
1746482542057538800,4.224538818359375,0.022479542833566665,-0.07288549572974443,0.30476321047656235
1746482542067517700,4.234517578125,0.041350247520208355,-0.0612501491241157,0.35042101899757977
1746482542077495800,4.244495849609375,0.011555997759103775,-0.10841609718576073,0.2084114258982241
1746482542087475000,4.254474853515625,-0.016395839005708693,-0.12598536388501524,0.0717815530758351
1746482542097452500,4.26445263671875,-0.00014905308187007903,-0.16749255553260445,0.09893398309126496
1746482542107431700,4.274431640625,0.09201426683068276,-0.16579188909456133,0.14239413543753326
1746482542117409800,4.284409912109375,0.10376841751039027,-0.16391601222008464,0.12988938558623195
1746482542127388700,4.294388671875,-0.01680383528470993,-0.13936463154852388,-0.04501337313763797
1746482542137366800,4.30436669921875,-0.17289806783795356,-0.07876286333054304,-0.3846594617512077
1746482542147345700,4.314345703125,-0.23373510611653325,-0.21867314606308935,-0.3550526973862201
1746482542157323800,4.32432373046875,-0.20894319468736647,-0.2252401033632457,-0.07466624166667461
1746482542167301600,4.334301513671875,-0.17640052300095557,-0.11076675196513533,-0.08984211042337119
1746482542177280800,4.34428076171875,-0.1461000772833824,-0.02221022437289357,-0.21413031500168145
1746482542187258600,4.354258544921875,0.01017068088054657,0.0617328180745244,-0.3742883629277348
1746482542197237800,4.36423779296875,0.13718962559700013,0.18327435429319738,-0.4695119471937418
1746482542207215900,4.3742158203125,0.10169453384578227,0.2690907893970609,-0.4307074386335909
1746482542217194800,4.38419482421875,-0.031356092250347134,0.24146979202181099,-0.4205919950716197
1746482542227172900,4.3941728515625,-0.055739422878623004,0.09328326385319233,-0.23453677788823843
1746482542237151700,4.40415185546875,0.08066869695186614,-0.025927491330355403,-0.11569865540936589
1746482542247129600,4.414129638671875,0.2427092706888914,0.046954205007106065,-0.06294146321192383
1746482542257108700,4.424108642578125,0.3032359278440475,0.10580036172941326,-0.0794167971946299
1746482542267086800,4.4340869140625,0.20748422805070876,0.10525792541578412,-0.1799362228464335
1746482542277065700,4.444065673828125,-0.022338088536262513,0.10846461250260471,-0.2041421510811895
1746482542287043800,4.4540439453125,-0.22173954789638517,0.09948255688473581,-0.21217384717166424
1746482542297022700,4.464022705078125,-0.3619745325386524,0.06563114068731665,-0.20227935288399457
1746482542307000600,4.47400048828125,-0.45151276464462275,-0.13347601190134883,0.0018695201989263296
1746482542316979700,4.483979736328125,-0.5391933861851692,-0.11880801960155367,0.05014182206727564
1746482542326957800,4.493957763671875,-0.4062544037699699,0.019033201771974564,0.02666727684698999
1746482542336936700,4.503936767578125,-0.09103577718734741,0.039389030449837444,-0.08480345866903662
1746482542346914800,4.513914794921875,0.11193009665608405,-0.0755053228393197,-0.13123371286727487
1746482542356893000,4.523892822265625,0.024743980634212494,-0.2274300146229565,-0.028270328129455447
1746482542366871800,4.533871826171875,-0.10266308661699294,-0.29228724832832814,0.19678331275098024
1746482542376849700,4.543849609375,-0.11192191334962844,-0.3273552007086575,0.2299453584447503
1746482542386828500,4.55382861328125,-0.07523147433400154,-0.31219387193396686,0.2310024662822485
1746482542396806700,4.563806640625,-0.01004559319615364,-0.245282774438709,0.24039858259372412
1746482542406785800,4.573785888671875,-0.0696995591700077,-0.26342282676324247,0.19241488840840756
1746482542416764000,4.583763916015625,-0.2615571790218353,-0.21249825682044027,0.0018591449353843926
1746482542426742800,4.59374267578125,-0.21988778254985808,-0.0805212513051927,-0.2212826709743589
1746482542436721000,4.603720947265625,-0.055527241432666775,0.0765611155025661,-0.22359365133047102
1746482542446699800,4.61369970703125,-0.03765490013360977,0.14822203787341712,-0.15294066389314828
1746482542456677600,4.623677734375,-0.09551906008124351,0.01895034579411149,-0.19587321216873824
1746482542466656800,4.63365673828125,-0.19467852249145506,0.002226882269233465,-0.06307904505170882
1746482542476634600,4.643634521484375,-0.44129766010046,0.13195114042162895,0.10479392463322729
1746482542486613800,4.65361376953125,-0.7619277903378009,0.2869729214377701,0.27119667563512917
1746482542496592000,4.663591796875,-0.9911632469475269,0.17922230242341755,0.34444263870771974
1746482542506570800,4.67357080078125,-1.446735516116023,0.19471417832672594,0.2380745418266393
1746482542516548600,4.683548583984375,-1.7578163122415542,0.05223799062892794,0.07533346883717458
1746482542526526700,4.693526611328125,-1.2418728687405585,-0.5124592546470463,0.07269793726839124
1746482542536505600,4.703505615234375,-0.5368254880100488,-0.6267965585753321,-0.23056962782293558
1746482542546484700,4.713484619140625,0.30562253071963785,-0.7375910753302276,-0.5149040539832785
1746482542556463600,4.723463623046875,1.2867092048108577,-0.556516349973157,-0.17368713585641235
1746482542566441700,4.733441650390625,1.816622136953473,-0.3560761952150613,0.10432857214380055
1746482542576420900,4.7434208984375,1.4615122294872998,-0.2036757026132196,0.19665734828375278
1746482542586398700,4.753398681640625,0.9832581729114055,-0.22878055244907736,0.23869711243808267
1746482542596377600,4.763377685546875,0.48002808051109314,-0.12656162940301,0.27315548155270514
1746482542606355700,4.773355712890625,0.20227613801360128,-0.06635207537300884,0.06450900478959083
1746482542616334600,4.78333447265625,0.1557815133422613,0.10468355959393083,-0.01737915095463395
1746482542626312700,4.793312744140625,-0.010311550655961036,0.21256350407637656,0.1563939461521804
1746482542636291800,4.803291748046875,-0.028773674541711806,0.042816812941432,0.1741615849677473
1746482542646269700,4.813269775390625,0.19610534042418,0.016021671931073067,0.20703078519478438
1746482542656248800,4.823248779296875,0.5420914457142353,0.0744798522491008,0.21103987470567226
1746482542666226700,4.833226806640625,0.6410550932914019,0.14161781730279327,0.045979514756053684
1746482542676205600,4.84320556640625,0.6148948161184787,0.10095295823086052,-0.21937910237535832
1746482542686183700,4.85318359375,0.29135610495805736,0.1546750499377027,-0.3167161716639995
1746482542696162800,4.863162841796875,-0.09605155952274799,0.09534509175382554,-0.30417335482463237
1746482542706140700,4.873140625,-0.3048328416466713,0.12200009364113211,-0.3064541592381894
1746482542716119800,4.883119873046875,-0.2099742913007736,0.1510241627473384,-0.2692234758660197
1746482542726097700,4.89309765625,-0.10407178437113761,0.12502941486705094,-0.2228860875830054
1746482542736075500,4.903075439453125,-0.18789923761487007,0.07908117203209548,-0.20388313481882214
1746482542746054700,4.9130546875,-0.3376876480221748,0.0016924831315875053,-0.2671786721654236
1746482542756032800,4.92303271484375,-0.3968517846524715,-0.058325968773104246,-0.2806028018839657
1746482542766011600,4.93301171875,-0.4486696501731872,-0.045367593402788044,-0.1912912181407213
1746482542775989800,4.94298974609375,-0.40041035391688345,-0.014893179357796906,0.16355945386737583
1746482542785969000,4.952968994140625,-0.25032734447717664,-0.008717742125876247,0.19145371522605417
1746482542795946500,4.962946533203125,-0.18630816903114317,-0.17772808181028812,0.08592866330668329
1746482542805925600,4.972925537109375,0.0305079509884119,-0.18998598076105117,0.3295809139341116
1746482542815903700,4.98290380859375,0.17220599392056465,-0.25893958040196446,0.41739436807408925
1746482542825882600,4.992882568359375,0.12522329347133634,-0.42186289179027076,0.33024975310638544
1746482542835860700,5.00286083984375,0.21215221986174582,-0.4660888408772647,0.3798360601827502
1746482542845839600,5.012839599609375,0.16498247240781783,-0.4107091912217438,0.3029787382125854
1746482542855817700,5.022817626953125,0.07353694537580013,-0.6102884913668036,0.02925064440369606
1746482542865796900,5.032796875,-0.2218693117558956,-0.4348510412443429,-0.06119330437034368
1746482542875774700,5.042774658203125,-0.2780062095195055,-0.41232079113684594,0.15922814666479826
1746482542885753600,5.052753662109375,-0.3100257341146469,-0.29673633669167754,0.23942221184223889
1746482542895731700,5.062731689453125,-0.37104280513525006,-0.3186585379034281,0.06755757870525121
1746482542905710600,5.072710693359375,-0.3045446723550558,-0.23666429143622517,-0.008299991637840867
1746482542915688700,5.082688720703125,-0.13920096541941165,-0.13407112825028597,0.07755867517255247
1746482542925666800,5.092666748046875,0.1286930154085159,-0.15324556512385606,0.03247567086480558
1746482542935645700,5.102645751953125,0.26979426149129865,-0.08278634669296443,-0.05231419767029583
1746482542945623600,5.11262353515625,0.2389846972078085,-0.04388444217294454,0.011511427965015173
1746482542955602700,5.122602783203125,0.3933919995874166,-0.007083966911584139,-0.022097776974365112
1746482542965580800,5.132580810546875,0.394625925296545,0.018007365855574605,-0.05026734814308583
1746482542975559700,5.1425595703125,0.39408407350480557,0.03432254084050655,0.031050898758694528
1746482542985537800,5.152537841796875,0.374043740516901,-0.00009651917703449725,0.004427899444848299
1746482542995516700,5.1625166015625,0.21363222928643225,-0.051356823880225416,-0.061080126319453115
1746482543005494500,5.17249462890625,0.0011094225466251372,0.009346797277033329,-0.10735065991133451
1746482543015473700,5.1824736328125,-0.1411374864399433,0.003923237858340144,-0.2689705970834941
1746482543025451800,5.19245166015625,-0.17742402082979677,0.016222162939235566,-0.15485665358230472
1746482543035430700,5.2024306640625,-0.10802782852053641,0.027760625041648744,-0.17631825154498218
1746482543045408800,5.21240869140625,-0.1060766944527626,0.018789967600628732,-0.2091810950964689
1746482543055387600,5.2223876953125,-0.12453472668528556,0.002788900066167116,-0.2653461960412562
1746482543065365800,5.23236572265625,-0.09312018224596977,-0.011931260812282561,-0.2120859496925026
1746482543075345000,5.242344970703125,-0.04862871409058571,0.024276290057227014,-0.15463322008997202
1746482543085322500,5.252322509765625,-0.03164250797629356,-0.007881766225770115,-0.026751228803396223
1746482543095301600,5.262301513671875,-0.06321136619448661,-0.04910385732166469,0.049968511326983565
1746482543105279700,5.27227978515625,-0.17873627247214316,-0.03787080790661275,0.031099560206010936
1746482543115257900,5.2822578125,-0.2178092227101326,-0.06857596196755766,0.1755001400951296
1746482543125236700,5.29223681640625,-0.1911784054160118,-0.11506335318051278,0.21384550671093164
1746482543135214800,5.30221484375,-0.2308276942372322,-0.17316380610205231,0.17529614195562898
1746482543145193700,5.31219384765625,-0.09080430651903151,-0.2491949063811451,0.31220512398034334
1746482543155171600,5.322171630859375,0.01614800172448158,-0.2846007854789495,0.3171997173972428
1746482543165150700,5.332150634765625,-0.02420037527680397,-0.2874439730156213,0.26043621216788887
1746482543175128600,5.342128662109375,-0.09945990666151046,-0.3187750769551843,0.25214951840303834
1746482543185107700,5.352107666015625,-0.1313303781747818,-0.2581344380315393,0.1137531473647803
1746482543195085800,5.3620859375,-0.03831657891273498,-0.17381942046657203,-0.012951470705494284
1746482543205064700,5.372064697265625,-0.0070996028721332545,-0.10515059258379042,-0.030094840142875907
1746482543215042600,5.38204248046875,0.02184709014892578,-0.08745726111344992,-0.03789258134700358
1746482543225021700,5.392021728515625,0.0012087912678718567,-0.07214139936417341,-0.02721168592199683
1746482543234999600,5.40199951171875,-0.03364274188280105,-0.08694383169859647,-0.026226985733583567
1746482543244978700,5.411978759765625,0.02168108593225479,-0.12223909002877771,0.014262772499769925
1746482543254956800,5.421956787109375,0.04676993448138237,-0.13086743683815003,0.016614596322923898
1746482543264935700,5.431935791015625,0.07159750174582004,-0.14079042656794188,-0.01772825665324926
1746482543274913800,5.441913818359375,0.046104748570919035,-0.15951178591176868,-0.05778429964445531
1746482543284892700,5.451892578125,-0.01780804389119148,-0.15539207563325763,-0.04003500020317733
1746482543294870500,5.46187060546875,-0.08064180894494057,-0.13445442847944794,-0.022536679848283527
1746482543304849700,5.471849609375,-0.09321604383587836,-0.08733297714665532,-0.0495285855397582
1746482543314827800,5.481827880859375,-0.058759647482633584,-0.0964830097425729,-0.062098582646995776
1746482543324805600,5.4918056640625,-0.050232642155885694,-0.10561273020282387,-0.07997479640357195
1746482543334784800,5.50178466796875,-0.05807108069658279,-0.13048632856607437,-0.05777969653457403
1746482543344763000,5.511762939453125,-0.10663315929174423,-0.15976904860846697,0.02573021519258618
1746482543354741800,5.52174169921875,-0.17846388527154922,-0.1662926051583141,0.05090250424146652
1746482543364719600,5.5317197265625,-0.16698621344566345,-0.15862338570468126,0.06401764107607305
1746482543374698800,5.54169873046875,-0.07579495343565941,-0.17904117370285091,0.04689407231770456
1746482543384676600,5.551676513671875,-0.03296820362210274,-0.12368811979331075,0.023235183506458996
1746482543394655700,5.56165576171875,0.024449381601810455,-0.09719941438362002,0.016307210874184967
1746482543404633900,5.5716337890625,0.0378846172362566,-0.07086955279745161,0.04254530252367258
1746482543414612700,5.58161279296875,-0.026249709022045133,-0.03503412317596376,0.043184477210044855
1746482543424590600,5.591590576171875,-0.0023778350472450256,-0.013895254361629486,0.0038446196641772983
1746482543434569500,5.601569580078125,0.042426936841011044,-0.014141191946715115,-0.04374284174516797
1746482543444547600,5.611547607421875,0.01279576868712902,-0.01993497291728854,-0.028251404233276843
1746482543454526700,5.621526611328125,-0.06332476344108581,-0.01809562866091728,-0.006617445378378033
1746482543464504800,5.6315048828125,-0.100160163885355,-0.0442257298912853,0.030386443500593302
1746482543474483700,5.641483642578125,-0.015650573596358297,-0.10719963406808673,0.010667159160599111
1746482543484461800,5.6514619140625,0.06804653126597404,-0.10977540284022688,0.013172566110268234
1746482543494440700,5.661440673828125,0.04301028968691826,-0.10311726012527941,0.005048296365514397
1746482543504418600,5.67141845703125,-0.04867547584176063,-0.0900332490812987,0.020571151928976177
1746482543514396700,5.681396728515625,-0.11737316449284553,-0.07558350264206529,0.0010196253713220358
1746482543524375600,5.69137548828125,-0.1016319900035858,-0.05346190640069544,0.02182232103385031
1746482543534353700,5.701353759765625,-0.08974164572358131,-0.07633132533468305,0.00560249618217349
1746482543544332500,5.71133251953125,-0.05249883352220058,-0.08943404107913375,-0.012749080001190304
1746482543554310700,5.721310546875,-0.04817804771363735,-0.07930106186047196,0.01766125583164394
1746482543564289500,5.73128955078125,-0.02925064440369606,-0.08671089972555637,0.02184533658325672
1746482543574267400,5.741267333984375,0.02098082870841026,-0.1001325452260673,-0.0049671939533203835
1746482543584246300,5.751246337890625,0.036943536993861194,-0.11202939231209456,-0.007633271357417106
1746482543594224400,5.761224365234375,-0.031920740395784374,-0.1147145397428423,0.02794379958882928
1746482543604203500,5.77120361328125,-0.03192483204901218,-0.1357527977269143,0.003989069636166095
1746482543614181600,5.781181640625,-0.006711480337381362,-0.13494732656292616,-0.03142228935435414
1746482543624160500,5.791160400390625,-0.11709084042012691,-0.15428455278277398,0.08409063422456384
1746482543634138600,5.801138671875,-0.22326222741901874,-0.16813275313228368,0.2583835904870182
1746482543644117500,5.811117431640625,-0.25868834558725357,-0.22102496988624332,0.3445250197615474
1746482543654095400,5.821095458984375,-0.2792728684544563,-0.3236429752524942,0.5937351967770605
1746482543664074500,5.831074462890625,-0.17002806535959242,-0.4729240937247872,0.6326128436386584
1746482543674052400,5.84105224609375,-0.03231587719321251,-0.5729967985223978,0.30131138952225445
1746482543684031500,5.851031494140625,0.203626968100667,-0.4639372888665646,0.1041459455858916
1746482543694009600,5.861009521484375,0.14404022214412687,-0.43826337043847885,0.12264642872065305
1746482543703988500,5.870988525390625,-0.0475309819817543,-0.5476499566242099,0.22492709189131854
1746482543713966600,5.880966552734375,-0.06755377931296826,-0.49775352415274826,0.25702406563684344
1746482543723944400,5.8909443359375,0.27594693890213967,-0.3435903692599386,0.3930908246837556
1746482543733923300,5.90092333984375,0.9427671725690364,-0.2170336352277547,0.4029274513043463
1746482543743901400,5.9109013671875,1.30919693095088,-0.025320026956498622,0.2060031957127154
1746482543753880600,5.920880615234375,1.6001123064041136,0.13255261344611644,0.1374257724404335
1746482543763858400,5.9308583984375,1.6083973196685313,0.25311500243432816,-0.06140986973047256
1746482543773837600,5.940837646484375,1.0275205084860324,0.29479976087221876,-0.11878156998604536
1746482543783815400,5.9508154296875,0.45592005969285965,0.23802502186279742,-0.031529110729694367
1746482543793794300,5.960794189453125,0.18994389518499374,0.19061448792293667,0.008603285433351994
1746482543803772400,5.9707724609375,0.12088847913742065,0.14651024725316092,0.07353928346335888
1746482543813751600,5.98075146484375,0.25229835228919983,0.20139201212283223,0.1754763938933611
1746482543823729400,5.9907294921875,0.3464811953306198,0.149774464080343,0.1990162594348192
1746482543833708500,6.00070849609375,0.37635143293738366,0.04214100060567725,0.26726006683856246
1746482543843686700,6.010686767578125,0.450745871925354,-0.14385182343255729,0.3048132601633668
1746482543853665500,6.02066552734375,0.6179787536084651,0.002452749747247435,0.8384455050900578
1746482543863643400,6.030643310546875,1.3235329148173332,0.3363165423320606,1.2450786790445447
1746482543873622500,6.04062255859375,1.3553659769296644,0.24045140875950455,0.8210621163517237
1746482543883600400,6.050600341796875,0.3652694824308157,0.05362615248512011,0.39065877523124215
1746482543893579500,6.06057958984375,-0.37566578876078127,0.04990040082710329,0.5493325028836726
1746482543903557600,6.0705576171875,-0.18396891242861746,0.20370375966392457,0.6188654733151197
1746482543913536500,6.08053662109375,0.2845616225123405,0.17269134801840408,0.4051923274964094
1746482543923514600,6.0905146484375,0.4329740683913231,0.10467725771730765,0.3787497262507677
1746482543933493200,6.1004931640625,0.20517595110833645,0.07907581087038852,0.4092576772391796
1746482543943471400,6.110471435546875,0.07016776120364665,0.08774332064636982,0.542994532033801
1746482543953449500,6.120449462890625,0.13896014240086077,-0.08922859990121797,0.56242988486588
1746482543963428600,6.1304287109375,0.23858429971337317,-0.31845870448239144,0.6850637463659047
1746482543973406500,6.140406494140625,0.7194441548734903,-0.5123705899829044,0.9804378547936677
1746482543983385600,6.150385498046875,1.4346563712656497,-0.48048535929191855,1.2208598913282156
1746482543993363500,6.160363525390625,2.382018470409512,-0.62668630313389,1.2970359530359505
1746482544003342300,6.17034228515625,2.9461545746713873,-0.8153994874801487,1.1806132211357354
1746482544013320400,6.180320556640625,2.660110020124912,-0.7616285881955176,0.9213467833995819
1746482544023299300,6.19029931640625,2.0380957273900506,-0.6212029763519764,0.9617752398997544
1746482544033277400,6.20027734375,1.0552069723129271,-0.39464360708370805,1.0707564236223697
1746482544043256600,6.210256591796875,-0.13591273752897978,-0.08879654689319431,1.1451356650412081
1746482544053234700,6.220234619140625,-0.7595125458896159,0.05711121355532668,1.3568687827080488
1746482544063213600,6.230213623046875,-1.0827359074905514,0.10514969753464683,1.3100970946609973
1746482544073191400,6.24019140625,-1.2498073150016367,0.23260316121084615,0.955030441814661
1746482544083170300,6.25017041015625,-0.4865384853184223,0.5317225023152307,1.1165069519281388
1746482544093148400,6.2601484375,0.3274573093762621,0.715584264574945,0.9300462226837873
1746482544103127600,6.27012744140625,0.5759177274703979,0.5462788509340957,0.4940998604834079
1746482544113105400,6.28010546875,0.385882610337995,0.3755986783413216,0.02027940244078636
1746482544123084500,6.29008447265625,-0.004980637956783175,0.08380873027695343,-0.22592530914843081
1746482544133062700,6.300062744140625,-0.2487006200581789,-0.09527684882320463,0.030765725141763685
1746482544143041300,6.310041259765625,-0.47447103090584275,-0.01686431503398344,0.4432376882523298
1746482544153019400,6.320019287109375,-0.874709389256686,0.031053602172434327,0.776526809054613
1746482544162997500,6.32999755859375,-1.110131571677327,-0.0580721218761988,0.879344793972373
1746482544172976400,6.339976318359375,-1.1826996720209717,-0.19033678522640837,0.9222147984057665
1746482544182954500,6.34995458984375,-1.3988956143155693,-0.30929676225297154,0.9670230774253606
1746482544192933600,6.35993359375,-1.6134753535851836,-0.30977705658320337,0.7157476384431123
1746482544202911500,6.369911376953125,-1.392133865095675,0.2916421553578228,0.6294055720299482
1746482544212890400,6.379890380859375,-1.2210384627655149,0.33038331635817886,0.6408569403707981
1746482544222868500,6.389868408203125,-1.0327350282639265,-0.08114457083530724,0.5590548554748297
1746482544232847400,6.399847412109375,-0.10365326669812201,-0.5261142339793965,0.2699842311054468
1746482544242825500,6.409825439453125,1.439154267206788,-0.5977949570292607,0.003002688947319984
1746482544252804600,6.4198046875,0.875476720367372,-0.2148030266314745,-0.1563134282618761
1746482544262782500,6.429782470703125,-0.20995500207841394,-0.14686134397946296,-0.10530687912404536
1746482544272761600,6.43976171875,-1.3054027993649244,-0.43399734702445564,0.28799861122369763
1746482544282739500,6.449739501953125,-1.5392255837649107,-0.6181386934105306,0.11492051064372062
1746482544292718300,6.45971826171875,-1.1748054116398094,-0.24168153507634996,-0.3956418243408203
1746482544302696400,6.469696533203125,-0.8109592400103807,0.10430062469094992,-0.2007072812616825
1746482544312675600,6.479675537109375,-0.3228565741151571,0.056831967355683445,0.05369534983038902
1746482544322653400,6.4896533203125,0.017632687324285506,-0.09588767419792711,0.18146306708753107
1746482544332632600,6.499632568359375,0.2653396201699972,-0.12139701318144798,0.2758405559182167
1746482544342610700,6.509610595703125,0.33394144723117347,-0.17037066825218497,0.33800095175504685
1746482544352589600,6.519589599609375,0.1680862836420536,-0.1286003686890006,0.2796913861274719
1746482544362567400,6.5295673828125,-0.05069558349251747,-0.10771284428723156,0.15900105991065502
1746482544372546600,6.539546630859375,-0.23896774607300758,-0.163937274203822,0.01749181754887104
1746482544382524400,6.5495244140625,-0.3645885144293308,-0.25367431681752206,0.0017056348741054533
1746482544392502500,6.55950244140625,-0.4700286645442247,-0.2507818833116442,0.09102934744656085
1746482544402481700,6.569481689453125,-0.49367315950393675,-0.20890373945981264,0.23187691102921962
1746482544412459300,6.579459228515625,-0.48603871910274027,-0.18891257937587796,0.3273012785643339
1746482544422438400,6.5894384765625,-0.47443712863624093,-0.1364483787756413,0.29805004963874815
1746482544432416500,6.59941650390625,-0.3250754192084074,-0.013592472022771834,0.33833529827594755
1746482544442395400,6.6093955078125,-0.2816217696681618,-0.05563457426466047,0.30382687947452064
1746482544452373500,6.61937353515625,-0.23614655117243527,-0.17110986924692986,0.26463234868347646
1746482544462352600,6.6293525390625,-0.3655599898099899,-0.14271145775839686,0.32112814288735386
1746482544472330500,6.63933056640625,-0.5013736508786678,-0.05246105879507958,0.2799099973142147
1746482544482309600,6.6493095703125,-0.48403030188977714,-0.03590805646628141,0.07767886748611927
1746482544492287500,6.65928759765625,-0.3305617416650057,-0.002590601015090942,-0.13088321892917154
1746482544502266400,6.669266357421875,-0.22746961598098275,0.11161408950947224,-0.14482289695441722
1746482544512244500,6.679244384765625,-0.2711556129723787,0.08483743400387465,-0.005104629662632942
1746482544522223400,6.689223388671875,-0.37621465481519695,0.015075038730725646,0.07201426585316657
1746482544532201500,6.699201416015625,-0.2630611538439989,0.03944792103022337,0.04185001373589039
1746482544542180600,6.7091806640625,-0.07463233939707278,0.032876725946366786,-0.03774842363595962
1746482544552157700,6.71915771484375,0.0611205313950777,0.019530556834861636,-0.07063362514972686
1746482544562136600,6.729136474609375,0.1349199270993471,0.05059935657642781,-0.043866614255309105
1746482544572114700,6.73911474609375,0.11469546971619128,-0.04393646462112665,0.02676876446008682
1746482544582093800,6.74909375,0.11491320412009953,-0.15406287285611034,0.028752047231793403
1746482544592071700,6.75907177734375,0.1303542266190052,-0.19971666278913616,0.02957213144302368
1746482544602050800,6.76905078125,0.17030279064774512,-0.20276333700865506,0.1389250710874796
1746482544612028700,6.779028564453125,0.28997312616705895,-0.2270040442958474,0.3204074273973703
1746482544622007600,6.789007568359375,0.4788417933359742,-0.28074586361646653,0.4731102639466524
1746482544631985700,6.798985595703125,0.5733128056690097,-0.41644232804626224,0.4611760805249214
1746482544641964800,6.80896484375,0.5973930616974831,-0.3629411856137216,0.4189601560860872
1746482544651942700,6.818942626953125,0.355095294418931,-0.14402619361877442,0.29295535684823987
1746482544661920800,6.828920654296875,-0.06521335366666317,-0.008010726367682217,0.14012918618023396
1746482544671900000,6.83889990234375,-0.4958101715326309,0.012824702520668505,0.04773731820881366
1746482544681877500,6.84887744140625,-0.7230401335388421,0.004059358393400907,-0.009798924958705902
1746482544691856600,6.858856689453125,-0.724875532272458,-0.014124240811914204,-0.017937807750701903
1746482544701834800,6.868834716796875,-0.5563213388577103,-0.12761574156582356,0.10352525640428066
1746482544711813600,6.878813720703125,-0.23604513662457466,-0.20236498534083366,0.24748189191818235
1746482544721791700,6.888791748046875,0.01175356615781784,-0.1897188542574644,0.2834773344069719
1746482544731771000,6.89877099609375,0.09132862265408039,-0.1447593301989138,0.21639584878087043
1746482544741748700,6.908748779296875,0.055716042003035544,-0.11328691809251903,0.1643827529489994
1746482544751727600,6.9187275390625,-0.07966331930160522,-0.0650252837486565,0.08169745547771454
1746482544761705700,6.928705810546875,-0.18206863176524637,-0.05172039649561047,0.03373100468814373
1746482544771684600,6.9386845703125,-0.27122750916481014,-0.0889301832102239,0.03294014657139778
1746482544781662700,6.948662841796875,-0.2471796941012144,-0.1445060860902071,0.10054477928876876
1746482544791641600,6.9586416015625,-0.14012275643944738,-0.1935197078451514,0.2381692891716957
1746482544801619700,6.96861962890625,0.022051088288426397,-0.19627222142368553,0.31074703412652016
1746482544811598800,6.978598876953125,0.07359802791327237,-0.21066651134863495,0.3341577203303575
1746482544821576700,6.98857666015625,-0.0647457361549139,-0.18785817495211957,0.2992027268052101
1746482544831555600,6.9985556640625,-0.24705168380737302,-0.16737243628427384,0.21233692877888677
1746482544841533700,7.00853369140625,-0.3377110288977623,-0.18192133224904536,0.12463000375330448
1746482544851512600,7.0185126953125,-0.3344891442418098,-0.17941650982126592,0.05438333209455013
1746482544861490700,7.02849072265625,-0.1655655329927802,-0.10129691283032298,-0.03171908034384251
1746482544871469800,7.0384697265625,-0.0060404492080211635,-0.06025266251936554,0.015490414598584175
1746482544881447700,7.04844775390625,0.10090893642604351,-0.13222279696986078,0.20398060384392738
1746482544891426800,7.0584267578125,0.12844810073673724,-0.1718864065773785,0.3301461466014385
1746482544901404700,7.06840478515625,0.12248422389626502,-0.1503328925475478,0.3301683584332466
1746482544911382800,7.0783828125,0.031385318344831464,-0.13623086356744168,0.30272213310301305
1746482544921361700,7.088361572265625,-0.21500264085680246,-0.06777925863191485,0.16336977651417253
1746482544931339800,7.09833984375,-0.3752197985589504,-0.05464227529168129,0.06469546727240086
1746482544941318700,7.108318603515625,-0.34007921933382745,-0.09726502696573734,-0.0046808512926101685
1746482544951296800,7.118296875,-0.29408231505155563,-0.12809899503812194,0.016291794109344483
1746482544961276000,7.12827587890625,-0.1946604023128748,-0.12465133880227804,0.06769932526350021
1746482544971253800,7.138253662109375,-0.05363923572897911,-0.1201414601624012,0.06705810475051403
1746482544981232600,7.148232666015625,0.0098076927870512,-0.10359057672545313,0.10125555790662764
1746482544991210800,7.158210693359375,0.051857320748269556,-0.10729644550606608,0.20713936013579368
1746482545001189600,7.168189697265625,0.01183247661292553,-0.13113558625504373,0.27345570660829543
1746482545011167700,7.178167724609375,-0.06766133134067058,-0.11807765950039029,0.2966360911875963
1746482545021147000,7.18814697265625,-0.14669570508897303,-0.1190323298767209,0.22800796064138412
1746482545031124500,7.19812451171875,-0.17274959927797318,-0.12296557767242193,0.15625088441967963
1746482545041103600,7.208103515625,-0.21710808870345352,-0.13262480189949274,0.12639175272881983
1746482545051081700,7.218081787109375,-0.1957961283445358,-0.14878843958452342,0.13401099556088447
1746482545061060600,7.228060546875,-0.1672586006462574,-0.15000760611593722,0.1173959608465433
1746482545071038700,7.238038818359375,-0.15040215839147567,-0.13999883779883385,0.10205693741738796
1746482545081017900,7.248017822265625,-0.11858780097961424,-0.12049801851511001,0.13482348098754882
1746482545090995700,7.25799560546875,-0.15643676238059998,-0.08563961723223328,0.21929157022237777
1746482545100974800,7.267974853515625,-0.22375731745958327,-0.0892623377740383,0.25277590667307376
1746482545110952700,7.27795263671875,-0.31739070992469787,-0.13315569390580057,0.18156769650578497
1746482545120931600,7.287931640625,-0.358275093498826,-0.1306039635963738,0.08621697872877121
1746482545130909700,7.29790966796875,-0.33864597166031596,-0.09446165998280048,0.05091419467926025
1746482545140888600,7.307888671875,-0.2313239533215761,-0.07744915038347244,0.07269932550787925
1746482545150866700,7.31786669921875,-0.14640285962224006,-0.09427855850085616,0.10302958184182644
1746482545160845800,7.327845703125,-0.08307926522493361,-0.10073504116386174,0.07635492540597916
1746482545170824000,7.337823974609375,-0.001273088675737381,-0.0924095497585833,0.03256839064955711
1746482545180802600,7.347802490234375,0.06954524539113044,-0.05816606550365686,-0.011973930910229682
1746482545190780700,7.35778076171875,0.1429547649949789,-0.047314708882570264,-0.02454582771360874
1746482545200759600,7.367759521484375,0.18020634502470492,-0.027232728710025546,0.035981998485326766
1746482545210737700,7.377737548828125,0.12180267137289047,-0.037351825533807274,0.10910744045078753
1746482545220715800,7.3877158203125,0.00848667331635952,-0.05442921706289053,0.1344984868168831
1746482545230694700,7.397694580078125,-0.07532149070501327,-0.06320610549747943,0.0953062941133976
1746482545240672500,7.407672607421875,-0.1730138031721115,-0.040421588367968796,0.08092354849576949
1746482545250651600,7.417651611328125,-0.2245245024397969,-0.10054624059349297,0.13939210407733915
1746482545260629800,7.427629638671875,-0.2198345910578966,-0.15585340953469276,0.14560732533037662
1746482545270608600,7.437608642578125,-0.2168593746393919,-0.1374229959614575,0.09462240350246429
1746482545280586800,7.447586669921875,-0.2155821943104267,-0.1134466386988759,0.08097381737828255
1746482545290565600,7.457565673828125,-0.1821463731765747,-0.09059124829024076,0.15095102444589137
1746482545300543700,7.467543701171875,-0.09507394666224718,-0.09447218137681483,0.194960262042284
1746482545310523000,7.47752294921875,-0.05649374837726354,-0.10007453142851591,0.20766426079273223
1746482545320500700,7.487500732421875,-0.04019932391941547,-0.13031184878200291,0.18924714509248733
1746482545330479600,7.497479736328125,-0.08439911565184592,-0.11410612552091479,0.16710428686738013
1746482545340457700,7.507457763671875,-0.10370002844929695,-0.11515139679014683,0.14031623318493366
1746482545350436600,7.5174365234375,-0.21746113992482421,-0.09725158296227454,0.15081307727992535
1746482545360414700,7.527414794921875,-0.39296003791093825,-0.06353285323381423,0.10008943673670291
1746482545370393900,7.537393798828125,-0.2993067717015743,-0.06992357718423009,-0.028938509714603423
1746482545380371700,7.547371826171875,-0.07156359947621822,-0.10477131094262003,-0.11736907283961773
1746482545390350600,7.5573505859375,0.0565630142211914,-0.16662410213500262,0.009825228443741799
1746482545400328700,7.56732861328125,0.06848901433646679,-0.20220248825550077,0.1828308483093977
1746482545410307600,7.5773076171875,0.04163783228993415,-0.18531638151481747,0.29984511636197564
1746482545420285700,7.58728564453125,-0.04190203618407249,-0.15109145582988856,0.3808686181008816
1746482545430264800,7.597264892578125,-0.12204992413222789,-0.11885989591926335,0.3725105396002531
1746482545440242700,7.60724267578125,-0.2528875503540039,-0.08679083309397101,0.25089549975395203
1746482545450221800,7.617221923828125,-0.3014581045165658,-0.06979176749810576,0.1412421158581972
1746482545460199700,7.62719970703125,-0.24222236395478247,-0.0829319657087326,0.04021276792287826
1746482545470178600,7.637178466796875,-0.16458149039149284,-0.07270940851047634,-0.04632686688899994
1746482545480156700,7.64715673828125,-0.1793319002777338,-0.05954203003197908,-0.07285773093998432
1746482545490135600,7.657135498046875,-0.10138999794125557,-0.06947817150428891,-0.08708499373495578
1746482545500113700,7.66711376953125,0.05178805490434169,-0.08667568228170275,-0.01931611036658287
1746482545510092800,7.6770927734375,0.1571241601228714,-0.07846972560286522,0.09561433714926243
1746482545520071000,7.68707080078125,0.1294213296830654,-0.07995996416062116,0.1919932289302349
1746482545530048500,7.697048583984375,0.010105798950791358,-0.07020984677970409,0.24423019664585588
1746482545540027600,7.707027587890625,-0.14853198060542344,-0.11121113473176955,0.21784078689217568
1746482545550006500,7.717006591796875,-0.25551263816058634,-0.07334332249984145,0.1508364581555128
1746482545559985700,7.726985595703125,-0.2722203195944428,-0.07546995926499367,0.12676584673821925
1746482545569963500,7.736963623046875,-0.24973171667158603,-0.0949215325795114,0.0992494787812233
1746482545579942400,7.7469423828125,-0.22014614122509954,-0.1045928856357932,0.046970425489544866
1746482545589920500,7.75692041015625,-0.2613356452256441,-0.11338175676912068,0.02481470778286457
1746482545599899600,7.766899658203125,-0.18483985004425046,-0.12853314867168664,0.03850011878609657
1746482545609877500,7.77687744140625,-0.028543957439064977,-0.15908508493229745,0.07871054862141609
1746482545619856600,7.786856689453125,0.07832476417422295,-0.17540610513612626,0.1962497173309326
1746482545629834800,7.796834716796875,0.11522037037312984,-0.16908420863822102,0.28754209962785243
1746482545639813600,7.806813720703125,0.07925181589126587,-0.15111030666083097,0.3492302017778158
1746482545649791500,7.81679150390625,-0.03132248224169016,-0.11600874427184461,0.350057884773612
1746482545659770400,7.826770263671875,-0.15211276170164345,-0.09365779625400901,0.2521113052845001
1746482545669748500,7.83674853515625,-0.20144494788646697,-0.07592135629430413,0.10124328294694424
1746482545679727600,7.8467275390625,-0.15889935310184955,-0.11098594767376779,-0.036732524591684336
1746482545689705700,7.856705810546875,-0.10508592984974384,-0.12297200741320848,-0.04915887544453144
1746482545699684600,7.8666845703125,-0.1389677411854267,-0.1046758877441287,-0.03877718216180801
1746482545709662700,7.876662841796875,-0.2017050601273775,-0.08743731430396437,-0.00961421604156494
1746482545719641600,7.8866416015625,-0.2315446103349328,-0.08004749631360172,0.020627777487039565
1746482545729619500,7.896619384765625,-0.2214487482562661,-0.04443813053295016,0.13012509403824807
1746482545739598600,7.9065986328125,-0.19648352608680725,-0.05944499939829111,0.23423721041977405
1746482545749576400,7.916576416015625,-0.21347207028865814,-0.038164603221416474,0.2299433126181364
1746482545759555600,7.9265556640625,-0.21299977660179137,0.011137187825143337,0.10779811141788959
1746482545769533700,7.93653369140625,-0.12895429669320582,-0.001848696606606245,-0.01564531289935112
1746482545779512600,7.9465126953125,-0.014799509724974631,-0.05839841295480728,-0.05359831919670105
1746482545789490400,7.956490478515625,0.060635962748527526,-0.07015300202593207,-0.00784311471581459
1746482545799469600,7.966469482421875,0.09750234285295009,-0.06516761482879518,0.04511223040223122
1746482545809447400,7.976447509765625,0.08777356052100659,-0.09694368605688214,0.1266629708856344
1746482545819426600,7.986426513671875,0.0766711517482996,-0.14217398988083005,0.21070319009721278
1746482545829404700,7.99640478515625,0.07969196087419986,-0.17326310175806284,0.2659755799859762
1746482545839383600,8.006383544921874,-0.020460019704699513,-0.19065335862860083,0.311172566062212
1746482545849361700,8.016361572265625,-0.14751345121264456,-0.16838628950193524,0.27186522254645823
1746482545859339500,8.026339599609376,-0.2000152073442936,-0.16740882277190686,0.1722942567259073
1746482545869318400,8.036318359375,-0.1668091033130884,-0.1606935430422425,0.10668927339315414
1746482545879296500,8.046296630859375,-0.1048521210938692,-0.16647256483510137,0.1041986256211996
1746482545889275600,8.056275634765624,-0.07201134324371815,-0.1700683973699808,0.09950082319378853
1746482545899253500,8.06625341796875,-0.059447337485849856,-0.1704930525228381,0.0969271733134985
1746482545909232600,8.076232666015626,-0.041593408626317975,-0.13523732248544693,0.14119769219458103
1746482545919210800,8.086210693359375,-0.09717734868228435,-0.09804127203524111,0.16875146955251694
1746482545929189600,8.096189697265626,-0.2619458860784769,-0.04520633842647075,0.15291735608279705
1746482545939167500,8.10616748046875,-0.36589901250600815,-0.02622895849496126,0.06966273429095744
1746482545949146600,8.116146728515625,-0.28667350009977816,-0.02713525968492031,-0.007350947284698486
1746482545959124500,8.12612451171875,-0.20284078615903853,-0.059358490158617494,0.00005436053574085235
1746482545969103600,8.136103515625,-0.06672142014205455,-0.061841831406950945,0.023867782321572304
1746482545979081700,8.146081787109376,0.01111000755727291,-0.08610650409162043,0.024651041653752325
1746482545989060600,8.156060546875,0.04656768990755081,-0.07542670464515686,0.10205167672038078
1746482545999038500,8.16603857421875,-0.02587912214398384,-0.06605842618867755,0.2186673008441925
1746482546009017300,8.176017333984374,-0.14962649784386156,-0.10658464397490024,0.2804021647453308
1746482546018995500,8.185995361328125,-0.1944330232977867,-0.11183642702326178,0.241572375613451
1746482546028974600,8.195974609375,-0.18338614410459994,-0.10747238659486175,0.18606033174991607
1746482546038952700,8.20595263671875,-0.10772855331301688,-0.12376666492223738,0.1308159989118576
1746482546048931600,8.215931640625,-0.04122340627014637,-0.09160729346498847,0.11519757401943206
1746482546058909700,8.22590966796875,0.010123919129371642,-0.11788023723214865,0.029380992785096167
1746482546068888600,8.235888671875,0.025103753857314587,-0.11439093381166457,0.04155190757215023
1746482546078866400,8.245866455078126,-0.05724748935401439,-0.06928411023691296,0.1011924295425415
1746482546088845600,8.255845458984375,-0.1648579692453146,-0.05252645218148827,0.13458674962222575
1746482546098823400,8.265823486328125,-0.22703180908560752,-0.09914952553808688,0.02004500916302204
1746482546108802600,8.275802490234375,-0.27447394374012946,-0.09652166125252842,-0.07247662266790866
1746482546118780700,8.28578076171875,-0.30156653332710265,-0.09285714739561081,-0.09142506876587868
1746482546128759600,8.295759521484374,-0.2728133170515299,-0.06127703713104128,0.019185177463293075
1746482546138737700,8.305737548828125,-0.14212123678028582,-0.024257658421993254,0.16851123105585575
1746482546148716800,8.315716796875,-0.05008709620535373,-0.02554550627544522,0.29003391644358634
1746482546158694400,8.3256943359375,0.05772036756277084,-0.04726137126013636,0.31410277429521083
1746482546168673500,8.335673583984375,0.126436176392436,-0.11197861197292804,0.2369698502540588
1746482546178651600,8.345651611328124,0.1388259946271777,-0.1509884338468313,0.17878537231087682
1746482546188630500,8.355630615234375,0.08284662551283836,-0.1271354107029736,0.16339607999920844
1746482546198608600,8.365608642578126,-0.04025309993326664,-0.11977438041567802,0.16407003373801707
1746482546208587500,8.37558740234375,-0.15462737487107514,-0.15652940910011529,0.1704378152042627
1746482546218565400,8.3855654296875,-0.27016894002258773,-0.1623204135917127,0.1468359903424978
1746482546228544500,8.39554443359375,-0.2997401946827769,-0.1595147085212171,0.08173252679109573
1746482546238522600,8.405522705078125,-0.24696692813336849,-0.1452151111423969,-0.02890811457633972
1746482546248500500,8.41550048828125,-0.14636018952429294,-0.14263839252218602,-0.07123276008665562
1746482546258479600,8.425479736328125,-0.05137479792833328,-0.09227627876773475,0.003605331015586853
1746482546268457700,8.435457763671875,-0.031074352699518203,-0.10099529953524469,0.1725572915762663
1746482546278436600,8.4454365234375,-0.06575403641462325,-0.12220482243299484,0.27274434346854687
1746482546288414500,8.45541455078125,-0.15222762025296688,-0.07760434094518423,0.24440613773465156
1746482546298393600,8.4653935546875,-0.17970833237469194,-0.042540334087610245,0.1731318765938282
1746482546308371500,8.475371337890625,-0.17476210814416407,-0.036167584185302255,0.09107026397883891
1746482546318350600,8.4853505859375,-0.15072715256214142,-0.05090703428611159,0.014130232161283493
1746482546328328700,8.49532861328125,-0.08297522032856941,-0.04983502114042639,-0.016286533412337302
1746482546338307600,8.5053076171875,-0.03676993399262428,-0.013483897081762551,-0.0031517420291900635
1746482546348285700,8.51528564453125,-0.05273088871240616,-0.0016048048481345175,0.05679799202084541
1746482546358264600,8.5252646484375,-0.026150340300798415,-0.02293430086374283,0.09606208091676234
1746482546368242400,8.535242431640626,-0.07109715100824833,-0.026278788986057042,0.11672609876096247
1746482546378221600,8.5452216796875,-0.11183774219751358,-0.08900003357604146,0.12677929074168204
1746482546388199700,8.55519970703125,-0.10177519786655902,-0.11510083564668894,0.11122399421334266
1746482546398178600,8.565178466796874,-0.12062310619950294,-0.11984203882440923,0.1049222637206316
1746482546408156700,8.57515673828125,-0.13856032942831514,-0.13833192749992013,0.11144669705331325
1746482546418135600,8.585135498046874,-0.11451952862739562,-0.1403879832468927,0.13830197075307368
1746482546428113400,8.595113525390625,-0.06229425134956836,-0.14709683323577047,0.14765782811939715
1746482546438092500,8.605092529296876,-0.06465104360878467,-0.15862258198708296,0.15462006834745406
1746482546448070400,8.6150703125,-0.0598614712446928,-0.12164485046267509,0.17850597084760664
1746482546458049500,8.625049560546875,-0.0788970111042261,-0.1205769289702177,0.15862755042314527
1746482546468027600,8.635027587890624,-0.13898001614511013,-0.13008914594203233,0.16937749249637127
1746482546478006500,8.645006591796875,-0.25160861645936966,-0.15391820368841289,0.17830021914243696
1746482546487984600,8.654984619140626,-0.3195540254384279,-0.12378390831798314,0.17820844920575618
1746482546497963800,8.6649638671875,-0.3197901722818613,-0.07612900769561529,0.21699030754268167
1746482546507941400,8.67494140625,-0.23441548959612846,-0.09401055521443485,0.2080541368931532
1746482546517920500,8.68492041015625,-0.12180910111367702,-0.08804945485293865,0.18874913244247435
1746482546527898600,8.694898681640625,-0.026247955456376076,-0.08120017348006367,0.14859189409911633
1746482546537877500,8.70487744140625,-0.010713409455120563,-0.10266118692085147,0.15069149672687052
1746482546547856000,8.71485595703125,-0.05961129587590694,-0.11321180702969431,0.15223463451564312
1746482546557834800,8.724834716796876,-0.05571165808886289,-0.11510215082094073,0.18201193314194677
1746482546567812600,8.7348125,0.04538052594959736,-0.1629683561064303,0.1930558897256851
1746482546577791700,8.744791748046875,0.15544482873380183,-0.11914002803489565,0.12004033787548542
1746482546587769900,8.754769775390624,0.24094810623526572,-0.10172025280892848,0.02018354085087776
1746482546597748700,8.764748779296875,0.38357027827501294,-0.09108122376427054,0.003855506384372711
1746482546607726800,8.774726806640626,0.4291594785392284,-0.046870910637825725,0.10165303279161453
1746482546617705700,8.784705810546875,0.26530221076905725,-0.174407887879014,0.20211247188448905
1746482546627683600,8.79468359375,-0.09381284068524837,-0.22760025662332772,0.14500292969644069
1746482546637662700,8.804662841796874,-0.5207236635148524,-0.08926219164356589,-0.010400397983193397
1746482546647640800,8.814640869140625,-0.8475064711630343,-0.005584522134065628,-0.1273521221935749
1746482546657618700,8.82461865234375,-0.9222229817122221,0.017293372367322445,-0.09262684577107429
1746482546667597800,8.834597900390625,-0.7274281393647194,-0.037571313503384586,-0.0103349315315485
1746482546677576000,8.844575927734375,-0.7335860774725675,0.19666092848032712,-0.030165421161055563
