time,seconds_elapsed,z,y,x
1746483184718573800,0.02757373046875,-1.8792028040289879,0.7937472623161971,-0.43445495459884403
1746483184728552000,0.037552001953125,-1.4259598545908927,1.0180652823984622,-0.4588436920545995
1746483184738530800,0.04753076171875,-0.6941770271480083,1.276953680602461,-0.7621111840806901
1746483184748510000,0.057510009765625,-0.2777402520596981,1.3588146560788155,-0.9762874571159481
1746483184758488000,0.067488037109375,-0.07539163333177566,1.324944096789509,-1.0732000173822045
1746483184768467000,0.077467041015625,0.11551321583986282,1.2293418884694576,-1.0401704389616846
1746483184778445000,0.087445068359375,0.30328444316089154,1.1596113496392966,-0.9728903620235622
1746483184788424000,0.097423828125,0.5074813201040029,1.2314492360122502,-0.8903548482865095
1746483184798401800,0.10740185546875,0.7192933482259511,1.5310694575771688,-0.7831155397951602
1746483184808381000,0.117380859375,1.3653683155059813,1.8342840503722428,-0.6960378525838256
1746483184818358800,0.12735888671875,2.322559150224924,1.985796800354123,-0.6322562852859497
1746483184828338000,0.137337890625,3.2861376401543616,2.0382183308564126,-0.616582038553059
1746483184838316000,0.14731591796875,3.898381064981222,2.2361377349652347,-0.6184791043460369
1746483184848295000,0.157294921875,4.2055367966175075,2.4792320594489574,-0.8986518442496657
1746483184858273000,0.16727294921875,4.184575841653347,2.585435595151782,-1.4587395499035716
1746483184868252000,0.177251953125,3.7512913921386,2.5715064385205504,-2.0787161993309855
1746483184878229800,0.187229736328125,2.9726743328064678,2.623165898609161,-2.492884444965422
1746483184888209000,0.197208984375,2.241132912904024,2.958056317128241,-2.7653213299199937
1746483184898187000,0.20718701171875,1.753724659013748,3.419021969772875,-3.0277222662895915
1746483184908166000,0.217165771484375,1.3881056324928998,3.767746560116112,-3.2640219621971247
1746483184918144000,0.22714404296875,1.1118600029051304,4.028425787259638,-3.3204742095202207
1746483184928123000,0.237122802734375,1.1205600267112255,4.1759035826370114,-3.158598763217032
1746483184938102000,0.24710205078125,1.4407733928412199,4.454326264002919,-2.7683430158287283
1746483184948079900,0.257079833984375,1.7764596379131077,4.633628645925223,-2.313021506550908
1746483184958058800,0.267058837890625,1.8042577454209328,4.8032422852650285,-1.9781006928935645
1746483184968036900,0.277036865234375,1.421979260522127,5.1534781569540495,-1.6889862293824554
1746483184978016000,0.28701611328125,0.6876245367646217,5.683609700283408,-1.5340394132986663
1746483184987993900,0.296993896484375,-0.4703402147114277,6.1970870459318155,-1.5828449452608824
1746483184997973000,0.306972900390625,-1.9496072965979574,6.391984179610014,-1.7299691048949957
1746483185007951000,0.316951171875,-3.3828368499308823,6.27839345626533,-1.7943103519022463
1746483185017930000,0.326929931640625,-4.418021024912595,5.971542260533571,-1.6934195356547832
1746483185027907800,0.336907958984375,-5.106287366712093,5.499015349432826,-1.6035528022468089
1746483185037887000,0.346886962890625,-5.811643959522247,4.820104280477762,-1.676494704338908
1746483185047865900,0.356865966796875,-6.454537374156713,4.180681756824255,-1.493369841518998
1746483185057845000,0.366844970703125,-7.047569318035245,3.698179979676008,-1.3299714234322308
1746483185067822800,0.37682275390625,-7.619217113101482,3.2988334555983543,-1.2666805622607469
1746483185077802000,0.386802001953125,-7.613909654343128,2.862427659192681,-0.8943196602642536
1746483185087780000,0.396780029296875,-7.0589996435880655,2.5224235509216784,-0.40905835527479645
1746483185097759000,0.406759033203125,-6.3300605151385065,2.620672328227758,0.2669739433735609
1746483185107736800,0.41673681640625,-5.7610699565827845,2.9502298612862825,1.0630278751969338
1746483185117715700,0.4267158203125,-5.56238102940619,2.8266315386682748,1.890050945779681
1746483185127694800,0.43669482421875,-5.058237329292297,2.001796918040514,2.9501679019659757
1746483185137673000,0.4466728515625,-3.8117800553709267,0.9346680372655392,4.283025109967589
1746483185147651800,0.45665185546875,-2.6677780705347653,0.3619078970432281,5.040705179733037
1746483185157630000,0.4666298828125,-2.569523155748844,0.8910217877626418,4.6242812641263
1746483185167609000,0.476609130859375,-3.370646061399579,1.524670404189825,3.3994051228940485
1746483185177587000,0.4865869140625,-4.475871156334876,1.947342274275422,2.1902450217097997
1746483185187565800,0.49656591796875,-5.428003538620471,1.9445587810367344,1.3066022382825613
1746483185197544000,0.5065439453125,-5.897601995053887,1.8350217169970273,0.20493220548033714
1746483185207522800,0.516522705078125,-6.16535569062829,1.5512363395541906,-0.9071335491299629
1746483185217501000,0.5265009765625,-6.569690524512529,0.9403560197740792,-2.0567671101123093
1746483185227479800,0.536479736328125,-6.5958765206485985,-0.09865502001941204,-3.5694822880923747
1746483185237458000,0.5464580078125,-6.190918586429953,-1.0774778408318757,-5.198817766371369
1746483185247437000,0.55643701171875,-4.877616558247804,-1.8064029407560824,-5.832145480281114
1746483185257415000,0.566414794921875,-3.430506363600492,-2.5660066720604897,-5.693755246722698
1746483185267393800,0.576393798828125,-2.371200139275193,-3.253547622194886,-5.501273357492685
1746483185277372000,0.586371826171875,-1.5442764374136924,-3.5563638633221384,-5.221718749487399
1746483185287350800,0.596350830078125,-1.1161720208853483,-3.451580131289363,-4.844283028444647
1746483185297329000,0.606328857421875,-1.014469888255,-3.3838603477597236,-4.590102515670657
1746483185307308000,0.61630810546875,-1.3644932862371206,-3.051647331756353,-4.260604896105826
1746483185317287000,0.626286865234375,-2.121132907038927,-2.740012993401289,-3.7638074671015143
1746483185327265000,0.63626513671875,-2.806879374971986,-2.3238930291771887,-3.452185695967078
1746483185337244200,0.646244140625,-3.2376246613979336,-2.0041350055992604,-3.166108700455725
1746483185347221800,0.6562216796875,-3.586708148181438,-1.6512071183472872,-2.787873937989771
1746483185357201000,0.666200927734375,-3.7161516896963116,-1.3218120823740958,-2.222001219193637
1746483185367179000,0.676178955078125,-3.374873908227682,-1.1575076553583143,-1.6698904837682842
1746483185377158000,0.686157958984375,-2.848997684255242,-0.8907909016162157,-1.3571116515532136
1746483185387136000,0.696135986328125,-2.264544768151641,-0.49062429332733154,-1.1004273392647503
1746483185397115000,0.706114990234375,-1.6417523306511341,-0.1770049186348915,-0.7607724828228354
1746483185407092700,0.7160927734375,-1.0223924248825758,0.10598141738474369,-0.4818161329716444
1746483185417071900,0.72607177734375,-0.5316816953808069,0.32782559469938277,-0.37756080872714515
1746483185427050000,0.736050048828125,-0.29553587486073374,0.6502075370401144,-0.30585254008322954
1746483185437028900,0.74602880859375,-0.2071544115744531,1.3366688752442597,0.03663929335027933
1746483185447007000,0.756007080078125,-0.01016542018353939,1.89915428968966,0.7428636089056729
1746483185456985900,0.76598583984375,0.08642930630519986,2.503619481730461,1.6087550470650196
1746483185466964000,0.7759638671875,0.11171630777493119,2.7144606189936398,2.4634756873905657
1746483185476943000,0.785943115234375,0.11540288733318448,2.1693366737157107,3.145937142303586
1746483185486921000,0.7959208984375,0.2603109783530235,1.66703538659811,3.7071792786896225
1746483185496899800,0.80589990234375,0.6237662509687244,1.1353285567760467,3.5407308253824707
1746483185506879000,0.81587890625,1.2843667333379387,-0.3705909697145223,2.212994029134512
1746483185516856800,0.82585693359375,1.6826973583713174,-1.1672019508987665,1.2129331899821758
1746483185526836000,0.8358359375,1.9111852114841341,-1.575696827071905,1.0133891072809695
1746483185536814000,0.84581396484375,2.8956524679243563,-2.1609330025076865,0.661502838036418
1746483185546793000,0.85579296875,4.487570946478844,-2.3126883290737865,0.15819675779044629
1746483185556770800,0.865770751953125,5.473558836615085,-2.933773816525936,1.2901356721282005
1746483185566749700,0.875749755859375,5.909879292824864,-3.9981747336417435,2.8157570934325453
1746483185576727800,0.885727783203125,6.7687950467526905,-5.148930576652288,3.353386883562803
1746483185586707000,0.89570703125,6.727097008708119,-6.171171683430671,4.789102993014454
1746483185596685000,0.90568505859375,6.603765228071809,-5.686184519207477,5.139125806474685
1746483185606664000,0.915663818359375,6.564920241370797,-4.173934036129713,6.268835938847064
1746483185616642000,0.92564208984375,5.708922420716285,-3.537477376544475,7.4586781760990615
1746483185626621000,0.935620849609375,4.343759856915474,-2.9832231993496414,7.28109574983716
1746483185636598800,0.945598876953125,2.3972398588083683,-2.8384429724931715,6.864802182611823
1746483185646578000,0.955577880859375,0.7246520987801254,-2.579986097574234,6.0956637302428485
1746483185656555800,0.9655556640625,-0.4970417591542005,-1.6774848844200372,5.4137891353070735
1746483185666535000,0.975534912109375,-1.1932090833365916,-0.7170926233112812,5.6865223728597165
1746483185676513000,0.985512939453125,-0.998256566209346,0.37656010725200173,7.150439909923076
1746483185686492000,0.995491943359375,-0.2995920183837414,1.3901742554605006,9.346555869492889
1746483185696470000,1.005469970703125,0.6566683305520564,2.247861344376206,10.249052406471968
1746483185706449200,1.01544921875,1.6341618755221365,3.0736031429767605,9.095632897210121
1746483185716427800,1.025427734375,2.275537871330976,3.501408284297585,7.218927755215764
1746483185726406000,1.035406005859375,2.3887182603091,3.3720214414060115,5.771563878068328
1746483185736384800,1.045384765625,2.203891854268312,3.0120863057404756,4.227010961800813
1746483185746363000,1.05536279296875,2.025815507009625,2.7547937984257933,2.258576215136051
1746483185756342000,1.065342041015625,2.0682997269958254,2.6131658981204033,0.27330957613587376
1746483185766319900,1.07531982421875,2.1406828261613846,2.629298117753863,-1.3008935052469373
1746483185776299000,1.085299072265625,2.143945627349615,2.6329636545240875,-2.2400793121978637
1746483185786276900,1.09527685546875,2.2424527633309363,2.3592221167117358,-2.704512056431174
1746483185796255700,1.105255859375,2.864807247805595,1.9150269816040992,-2.8854566526025534
1746483185806233900,1.11523388671875,3.6555759327024218,1.84079796231091,-2.908955601611733
1746483185816213000,1.125212890625,4.302774351054429,1.8417378735095262,-2.8810946580007673
1746483185826190800,1.13519091796875,4.669269575887919,1.5453472815155982,-3.1129660160720345
1746483185836170000,1.145169921875,4.8514153645426035,1.2595926498264074,-3.635254152424633
1746483185846148000,1.155148193359375,4.971180977129936,1.3808067076563835,-4.1441710582897064
1746483185856127000,1.165126953125,4.892143096250296,1.9118109421670435,-4.474197377903759
1746483185866104800,1.175104736328125,4.174421527385712,2.466039984920621,-4.533109877860546
1746483185876084000,1.185083984375,2.858218517065048,3.0590660835802552,-4.507388284365833
1746483185886061800,1.195061767578125,1.2936368121169506,3.9013954443663357,-4.558261562512815
1746483185896041000,1.205041015625,-0.17108604997992516,4.826663200601935,-4.601534594789147
1746483185906019000,1.21501904296875,-1.653868738771975,5.590611098590493,-4.573276176293194
1746483185915998000,1.224998046875,-3.159473207964003,5.9806175473928445,-4.223111031752825
1746483185925975800,1.234975830078125,-4.494840060698986,6.130092654067278,-3.6815918329685924
1746483185935954700,1.24495458984375,-5.474346187600493,6.550532819578051,-3.1599989854037758
1746483185945932800,1.254932861328125,-6.079960549676418,7.40301123393476,-2.603541160684824
1746483185955912000,1.264911865234375,-6.591802403077483,8.46632435581386,-2.0835598399698734
1746483185965890800,1.274890869140625,-7.144516365092993,9.16346198633313,-1.4507517660200595
1746483185975869000,1.284868896484375,-7.957586898168921,9.204452752891182,-1.048552775120735
1746483185985848000,1.29484814453125,-8.528415778067707,8.546378720259666,-0.6888619696050882
1746483185995826000,1.304825927734375,-8.605206756803392,7.948405228325724,-0.5856465098023415
1746483186005805000,1.31480517578125,-8.281684412255883,7.8725196739971635,-0.5170622183978557
1746483186015783000,1.324782958984375,-7.395180978700518,8.262034539890289,-0.10121756398379803
1746483186025761800,1.33476171875,-6.052649933424592,8.924605883941053,0.583638677111268
1746483186035740000,1.344739990234375,-4.462115602704882,9.968815076899528,1.328268711167574
1746483186045717800,1.3547177734375,-2.8551725734978914,11.143586001747845,2.6744647086918354
1746483186055695600,1.364695556640625,-1.5758090552747248,12.527648496329784,3.9986137095808982
1746483186065674500,1.374674560546875,-0.6830056447923183,13.569889604085683,5.409567718219757
1746483186075652600,1.384652587890625,0.15483867953419683,13.913664463067054,6.847573984435201
1746483186085631500,1.394631591796875,0.6956935691908002,14.15560041129589,7.846224372267723
1746483186095609600,1.404609619140625,0.679865593200922,13.164174129498004,9.285665639722346
1746483186105588700,1.414588623046875,0.7209035599015653,11.521403415584563,10.12483682873845
1746483186115566800,1.42456689453125,1.5700784026682375,9.987354942196607,9.367102982959151
1746483186125545700,1.434545654296875,3.514020513111353,8.642837691539526,7.823548430079221
1746483186135523600,1.444523681640625,6.472322037172317,7.180240589424967,7.111553422167897
1746483186145502500,1.45450244140625,10.044321276521682,4.825947453548014,7.537945189559459
1746483186155480600,1.46448046875,13.155042728537321,1.524357100456953,7.677410943394899
1746483186165459700,1.474459716796875,14.397587797451019,-1.6770435703933237,6.663725483515858
1746483186175437600,1.4844375,13.640198235064744,-4.54924472784251,5.298651767042279
1746483186185416700,1.494416748046875,11.561947022897005,-6.7475733950257295,3.753201609674096
1746483186195394600,1.50439453125,8.601222655603289,-8.775194490152597,2.5163731648415326
1746483186205373400,1.51437353515625,5.633696791601181,-12.606802112543582,3.684704996553063
1746483186215351600,1.5243515625,3.289579305040836,-17.699212929594516,7.483987973922491
1746483186225330700,1.53433056640625,1.4321949495881796,-22.07075628097057,12.373778954088687
1746483186235308500,1.54430859375,-1.0779822832226753,-26.23630476607084,14.575312847054004
1746483186245287700,1.55428759765625,-5.304015924423933,-30.50062342200279,10.373206024885176
1746483186255266600,1.5642666015625,-11.458861911475658,-32.36056038454771,1.8815730402916668
1746483186265244700,1.57424462890625,-18.525954845148323,-27.952860847163198,-12.21114509063363
1746483186275223800,1.584223876953125,-27.498514320397376,-19.435552738565207,-23.38862868580818
1746483186285201700,1.59420166015625,-29.064450800955292,-8.473606914037466,-22.742357903695105
1746483186295180500,1.6041806640625,-22.560835799896715,1.5791399532631039,-15.902018546688556
1746483186305158700,1.61415869140625,-14.408487961649893,7.884439828893542,-10.631211648905277
1746483186315137500,1.624137451171875,-8.137938789144158,10.488486601012944,-6.475091501885652
1746483186325115600,1.63411572265625,-5.839108305031061,10.808951896077394,-0.4513914763525128
1746483186335094800,1.6440947265625,-4.5281946332901715,9.946346055459976,2.8597771446838975
1746483186345072400,1.654072265625,-4.5444601239144795,8.786813616275786,3.802325706066191
1746483186355051500,1.664051513671875,-5.569530901160836,7.420407774415612,5.195561394923925
1746483186365029600,1.674029541015625,-6.19765637025237,6.120441028624772,6.366510715657472
1746483186375008500,1.684008544921875,-5.672891322392225,5.030998609232903,6.234253285765647
1746483186384986600,1.693986572265625,-3.8966836134135723,3.8952018504232164,5.4545005004018545
1746483186394965800,1.7039658203125,-1.646264985769987,3.508246313624084,5.067639948409796
1746483186404943600,1.713943603515625,0.4192395575493574,3.3630116209983822,5.696280381286144
1746483186414922800,1.7239228515625,2.18269124532938,3.006470219424367,6.4562862636506555
1746483186424900600,1.733900634765625,3.5902807459712025,2.51938052996397,7.5258245436549185
1746483186434879500,1.74387939453125,4.619073758611083,1.7829576216302812,8.49480401584506
1746483186444857600,1.753857666015625,5.434829000726342,1.0156136514626444,8.83790959726274
1746483186454836500,1.76383642578125,6.249926655715703,0.383297891074419,8.842434965732693
1746483186464814600,1.773814697265625,7.226390346181392,-0.1752449232250452,8.451417878583072
1746483186474793700,1.783793701171875,8.501371119275689,-0.7232230888903141,7.569252766492962
1746483186484771800,1.793771728515625,10.279584322857856,-1.2927967080309986,6.389973424309492
1746483186494750700,1.803750732421875,12.034199793231487,-1.6436761383205651,4.94213433086574
1746483186504728600,1.813728515625,13.389369370806216,-1.7690758112721143,3.741146137960255
1746483186514707500,1.82370751953125,14.204868592333792,-1.6033651707202194,2.968997397859394
1746483186524685600,1.833685546875,14.277577270191907,-0.9002443741381168,2.393046498771757
1746483186534664700,1.843664794921875,13.640968634915351,0.4585032811190933,1.793541559486836
1746483186544642600,1.853642578125,12.412758380824327,2.366392446732521,0.7134408228054643
1746483186554621700,1.86362158203125,9.856685073757172,5.123960386046767,-0.1781391102965921
1746483186564599600,1.873599609375,2.7325480643481015,8.446926996904612,0.29586883314214646
1746483186574578400,1.883578369140625,-14.64281577296257,12.991078493261336,4.142014757038653
1746483186584556500,1.893556640625,-48.60547350025177,20.514702896523474,14.002306038594245
1746483186594535700,1.90353564453125,-59.445862152600284,24.06323942722082,18.568288258486984
1746483186604513500,1.913513427734375,-16.770588848668336,10.611206971752644,8.98554229094088
1746483186614492700,1.92349267578125,0.36990474101603027,-0.019292583360522985,4.479171951445937
1746483186624470800,1.933470703125,4.377064745146036,-0.31805764940083026,0.2750540451830253
1746483186634449700,1.94344970703125,4.728203410893679,-0.6093741530008614,-1.706971091145277
1746483186644427500,1.953427490234375,3.923465237355232,-1.628234239038825,-1.324047878602147
1746483186654406700,1.96340673828125,4.072518903747201,-2.3917058978177606,-0.35523934253212064
1746483186664384500,1.973384521484375,4.72204664182961,-2.734235579043627,0.6292898366957903
1746483186674363600,1.98336376953125,4.874508070838451,-2.401102379455417,1.3900231565520167
1746483186684341800,1.993341796875,4.407165284377336,-1.666280184316635,2.0261561371408403
1746483186694320600,2.003320556640625,3.8550411049485205,-0.7889742026954889,2.319241403979063
1746483186704299800,2.0132998046875,3.2470214352965354,-0.022753829730302093,2.1741772456146777
1746483186714277600,2.023277587890625,2.502013800099492,0.24734657510071992,1.4581442143589258
1746483186724256500,2.033256591796875,1.8243173676311968,0.20813333960920571,0.20520371589809655
1746483186734234600,2.043234619140625,1.0281675742179155,-0.024681144531071186,-1.2966945922523736
1746483186744213500,2.053213623046875,0.42148996682465073,-0.4394698601514101,-2.708760946047306
1746483186754191600,2.063191650390625,-0.33997254408895966,-0.9437319259479642,-3.905188699169457
1746483186764170800,2.073170654296875,-1.7074936537146568,-1.5013684390574693,-4.825986616514623
1746483186774148600,2.083148681640625,-3.223093447220325,-1.886131141987443,-5.049439690330624
1746483186784127700,2.093127685546875,-3.262426509699225,-1.7383360973544417,-4.250158613154292
1746483186794105600,2.103105712890625,-1.6207693099856375,-0.9531770690329372,-2.1272636648789045
1746483186804084500,2.11308447265625,-0.2041588830202818,-0.13941285460442304,-0.562677356820926
1746483186814062600,2.1230625,0.3705535603135824,0.1856143415480852,-0.06402860086150466
1746483186824041700,2.133041748046875,0.36700960409641264,0.039109482856094835,0.2585901459097862
1746483186834019600,2.14301953125,0.2333154193997383,-0.09831745862811803,0.5195006245259195
1746483186843998700,2.152998779296875,0.08121288683116436,0.00954933411180973,0.7076143086090684
1746483186853976800,2.162976806640625,-0.16571780094504354,0.25876754830330606,0.768002507141605
1746483186863955700,2.172955810546875,-0.5872270569920539,0.5288178303822875,0.7612775828007609
1746483186873933600,2.18293359375,-0.7606441802680491,0.7192550620421767,0.7798162059888243
1746483186883912400,2.192912353515625,-0.6710849053740501,0.8730135451242327,0.8448832830525934
1746483186893890600,2.202890625,-0.6916302652746439,0.9125960523195564,0.6953055197212845
1746483186903869700,2.21286962890625,-0.7331552848398685,0.9680499362550675,0.3850252993889153
1746483186913847800,2.222847900390625,-0.6575830342441796,1.2476231028303504,0.1713099218636751
1746483186923826700,2.23282666015625,-0.6331628787368535,1.3937513832949102,0.319193959954381
1746483186933804500,2.242804443359375,-0.3931149362117052,1.4505262867011128,0.5413474954791366
1746483186943783400,2.252783447265625,-0.24877777694761752,1.3844387805484235,0.34120486236289144
1746483186953761500,2.262761474609375,-0.19284896897673606,1.229202772259712,-0.21975319638475774
1746483186963740700,2.27274072265625,-0.9599380876004695,1.263189943666011,-1.0211375294506548
1746483186973718500,2.282718505859375,-1.5338170027196407,0.9053701927192509,-1.8781980109006164
1746483186983697700,2.29269775390625,-0.4567524188637733,-0.02202303123772144,-1.203548471847549
1746483186993675800,2.30267578125,0.7237316229343413,-0.4694399779360741,-0.14707929757907987
1746483187003654700,2.312654541015625,0.982138228970766,-1.1846587701994924,0.02916479275114834
1746483187013632500,2.322632568359375,0.7169394785761832,-2.073010827296227,-0.0353361748624593
1746483187023611600,2.332611572265625,0.9328525122761726,-1.6781617607682942,-0.46321270091906186
1746483187033589500,2.342589599609375,1.452979378941655,-0.9669207130294293,-0.6231630243785679
1746483187043568600,2.352568603515625,1.8064397656351328,-0.7360328130375593,-0.3430088430449366
1746483187053547300,2.36254736328125,1.9801023881047963,-0.7459927737768739,0.1468582021743059
1746483187063526400,2.3725263671875,2.0483874043017622,-0.8129406230859458,0.49595498683080075
1746483187073504300,2.382504150390625,2.0176888991773128,-0.9185955119300633,0.7403475344315171
1746483187083483100,2.392483154296875,1.999095842388272,-0.9766762372378259,0.9250587896600365
1746483187093461200,2.402461181640625,1.8541782528877258,-0.9365205332644283,0.982319138495624
1746483187103440400,2.4124404296875,1.5596230596274137,-0.7972077780336141,0.945317441573739
1746483187113418200,2.422418212890625,1.1681026991307735,-0.6721507810398936,0.9383800435259938
1746483187123397400,2.4323974609375,0.6471709458231926,-0.5957197216577828,0.7737588056460023
1746483187133375500,2.44237548828125,0.02450315761566162,-0.5797546752847731,0.6309083778083324
1746483187143354000,2.45235400390625,-0.616859978711605,-0.5580312845807522,0.5095090265393257
1746483187153332200,2.462332275390625,-1.2355080098837614,-0.47858211948648094,0.3614962475024163
1746483187163311400,2.472311279296875,-1.7041577872902154,-0.2924498915441334,0.2532340987693518
1746483187173289200,2.482289306640625,-1.975858174663782,-0.04161006750017404,0.1627498910501599
1746483187183268400,2.492268310546875,-2.125494609379768,0.20251009289994834,0.20616445068903266
1746483187193246500,2.50224658203125,-2.1223738470107314,0.40339565333798527,0.18715747933685778
1746483187203225300,2.512225341796875,-1.6675544420361519,0.4881681323468685,0.15833324365168808
1746483187213203200,2.522203125,-0.9339403075128793,0.3026031828984618,0.28574323351234193
1746483187223182000,2.53218212890625,-0.2687321852177381,-0.0453274805881083,0.40964579977393145
1746483187233160200,2.54216015625,0.25586159772872924,-0.23442104255408047,0.35523221867159005
1746483187243139300,2.552139404296875,0.5409311697632074,-0.3378691420689225,0.2611221486054361
1746483187253117400,2.562117431640625,0.6559545562595128,-0.3978204835541546,0.17758666404560208
1746483187263096300,2.572096435546875,0.5771212580412626,-0.44117447211220856,0.0856168208785355
1746483187273074400,2.582074462890625,0.3834861071228981,-0.4255415803030133,-0.04387187495231628
1746483187283053300,2.59205322265625,0.1382879422277212,-0.4064620551712811,-0.11129837462380528
1746483187293031200,2.60203125,-0.07417348971366881,-0.35243484303802247,-0.10736030452251434
1746483187303010300,2.61201025390625,-0.19818039313256738,-0.23251506280228496,-0.08847688648477196
1746483187312988200,2.62198828125,-0.306771116232872,-0.16562106257230041,-0.045603374920040365
1746483187322967300,2.63196728515625,-0.37741818538606164,-0.12054638770148157,-0.051408554067462676
1746483187332945400,2.6419453125,-0.33848259779214857,-0.11544497290924191,0.00847702870517969
1746483187342924300,2.65192431640625,-0.2794634225904941,-0.1620630778297782,0.05222542340829968
1746483187352902100,2.661902099609375,-0.18217326118350027,-0.2438562487669289,-0.030804741977900264
1746483187362881300,2.67188134765625,-0.029059505745768547,-0.31926644066870213,-0.024673838007450103
1746483187372859100,2.681859130859375,0.09230068255662918,-0.3266811008393764,0.012760551243275403
1746483187382838300,2.69183837890625,0.17847616023123264,-0.28542715330049395,-0.034394583163410423
1746483187392817200,2.701817138671875,0.1860632543593645,-0.25909137343019245,-0.07808437954708933
1746483187402795300,2.711795166015625,0.13816285454332827,-0.2399408288888633,-0.07007569900602102
1746483187412774400,2.7217744140625,0.04586626363992691,-0.2502823362916708,-0.03929842955693602
1746483187422752300,2.731752197265625,-0.06736673230826855,-0.22635683243349194,-0.02154723041951656
1746483187432731400,2.7417314453125,-0.1780243248105049,-0.18695333506688475,0.05774477135166525
1746483187442709200,2.751709228515625,-0.19973697492480277,-0.11374985942915081,0.11497472504898905
1746483187452688100,2.761688232421875,-0.15961071624159812,-0.047019817589223384,0.1377031280770898
1746483187462666200,2.771666259765625,-0.14873042578697204,-0.07044336327463388,0.1257118076406419
1746483187472645400,2.781645263671875,-0.13558043683469295,-0.1192557633690536,0.07657996633350848
1746483187482623200,2.791623291015625,-0.10647592290341854,-0.16048501485809682,0.05439107700958848
1746483187492602400,2.801602294921875,-0.06286591375768184,-0.16034677543118595,0.04098243712112307
1746483187502580500,2.81158056640625,-0.007400047123432159,-0.16675810377821326,0.04674231582209468
1746483187512559000,2.82155908203125,0.026617373290657994,-0.19599092026427387,0.01566401759982109
1746483187522537200,2.831537109375,0.04876607673466205,-0.22672961126863955,0.037851737879961725
1746483187532516400,2.841516357421875,0.01938800655901432,-0.24441870495527981,0.0492355939425528
1746483187542494200,2.851494140625,-0.014993570992350578,-0.21779548644572494,0.09211597363948822
1746483187552473300,2.861473388671875,-0.02323357607126236,-0.21762451379299164,0.14168942123427986
1746483187562451500,2.871451416015625,-0.004719429737329483,-0.24779694921672343,0.16250030020326375
1746483187572430300,2.881430419921875,-0.054202714830636975,-0.2801283162400126,0.11362126461341976
1746483187582408200,2.891408203125,-0.09168459648489952,-0.2857651530832052,0.08259908049255608
1746483187592387000,2.901386962890625,-0.18728899676203728,-0.33303982221633194,-0.018453794448822735
1746483187602365200,2.911365234375,-0.1743418369054794,-0.3990875808805227,-0.07732479335144161
1746483187612344300,2.92134423828125,-0.0042120647370815275,-0.40931028420925136,-0.00465703202560544
1746483187622322400,2.931322509765625,0.11390636516511439,-0.34666517359539867,0.045209845557808874
1746483187632301300,2.94130126953125,0.07413724935650826,-0.29103505631014703,0.021952304089069365
1746483187642279400,2.951279541015625,-0.06202011058330536,-0.2618976630225777,-0.006437631832063198
1746483187652258300,2.96125830078125,-0.13112579551339149,-0.2539662855014205,-0.021157938840985296
1746483187662236200,2.971236083984375,-0.12639058368504047,-0.26276202476695176,0.020841785563901066
1746483187672215300,2.98121533203125,-0.10362871677875518,-0.28732626492008567,0.07132467615380883
1746483187682193200,2.991193115234375,-0.03731295482814312,-0.27505188975855704,0.11500117466449737
1746483187692172300,3.00117236328125,0.010787351474165915,-0.24565496875196693,0.11679536460489034
1746483187702150400,3.011150390625,0.00984042601287365,-0.19733707417622207,0.11474325438067316
1746483187712129300,3.02112939453125,-0.043941433057188985,-0.13273089262247084,0.13253368954993783
1746483187722107100,3.031107177734375,-0.12158172209858893,-0.08663651931509375,0.12328143868856131
1746483187732086300,3.041086181640625,-0.16315116532742976,-0.02741568406149745,0.06848565333560108
1746483187742064000,3.051064208984375,-0.15073942752182481,0.03969663509428501,-0.025386004864796995
1746483187752043300,3.061043212890625,-0.04601356315612793,0.1126189557030797,-0.09403320543766021
1746483187762021400,3.071021484375,0.06511281590163708,0.18082886083722113,-0.12467216239459812
1746483187772000300,3.081000244140625,0.11237316424846648,0.25441169118136164,-0.14371844284385443
1746483187781978400,3.090978271484375,0.06743512136936188,0.23881007129326462,-0.053471112620458006
1746483187791957500,3.10095751953125,0.01938099229633808,0.14235489940568805,-0.008171104561164974
1746483187801935000,3.11093505859375,-0.05403086539506912,-0.0400989322848618,0.0436836589038372
1746483187811914200,3.120914306640625,-0.07915946143269538,-0.25501857103332876,0.1045233275309205
1746483187821892400,3.130892333984375,-0.05231763173639774,-0.4499985606893897,0.16051504467017946
1746483187831871200,3.140871337890625,-0.05214344421327114,-0.6832195798039435,0.28741072833314535
1746483187841849300,3.150849365234375,-0.08231178798377513,-0.8762254929080605,0.37326997966542835
1746483187851828200,3.160828125,-0.12867781783938406,-0.9697465110398829,0.351899567117542
1746483187861806300,3.170806396484375,-0.14991408261358738,-0.9921725701205432,0.25076887769959866
1746483187871785500,3.180785400390625,-0.07841653411090374,-0.8612130710847675,0.1309825876504183
1746483187881763300,3.190763427734375,0.07161854453384876,-0.5271481436043978,0.0774367292933166
1746483187891742200,3.2007421875,0.11110358270406723,-0.29200390134230253,0.09176869457177818
1746483187901720300,3.21072021484375,0.007016016241908073,-0.2119778862081468,0.05538140322118997
1746483187911699200,3.22069921875,-0.1273603055000305,-0.19544103129655122,0.015023381608724594
1746483187921677300,3.23067724609375,-0.15670739601552486,-0.17560703453570603,0.0027411154016852377
1746483187931656400,3.240656494140625,-0.1261854165017605,-0.16764920739904046,0.020928440934047103
1746483187941634300,3.25063427734375,-0.03158347126543522,-0.15643267072737216,0.030587226769700646
1746483187951613200,3.26061328125,0.00012508768439292906,-0.12756722624897956,0.03803644679710269
1746483187961591300,3.27059130859375,-0.07533084305524826,-0.08146379285231233,0.020857494589686394
1746483187971570200,3.280570068359375,-0.1859545332878828,-0.10776143266931175,0.060008478499948975
1746483187981548300,3.29054833984375,-0.20472645377516746,-0.14857245874628425,0.0801371473584324
1746483187991527400,3.30052734375,-0.12060673958659171,-0.18633520316854119,0.08304083291068673
1746483188001505300,3.31050537109375,-0.03747603643536567,-0.24035671621337532,0.08997618513181806
1746483188011484400,3.320484375,0.08819149367213248,-0.3522431198582053,0.1490676949173212
1746483188021462300,3.330462158203125,0.17557108643949032,-0.4153153698429465,0.12171302032805978
1746483188031441200,3.340441162109375,0.1543517728000879,-0.3672191551938653,0.10778525193631648
1746483188041419300,3.350419189453125,0.019091069439053535,-0.2820594304330647,0.09706446289233862
1746483188051398400,3.3603984375,-0.10764730477035045,-0.2587010589383542,0.06888890037424862
1746483188061376300,3.370376220703125,-0.14580547825098036,-0.3254718711800873,0.05789842754341661
1746483188071355400,3.38035546875,-0.11552958245277405,-0.3449894954681396,0.07467522869072854
1746483188081333500,3.39033349609375,-0.08757306951284408,-0.35628844972625373,0.12116598090454936
1746483188091312400,3.4003125,-0.06878302884697914,-0.36152050516083833,0.13845336192250252
1746483188101290500,3.41029052734375,-0.011699205622076988,-0.3261075387351215,0.10267485012002289
1746483188111269400,3.420269287109375,0.01170037466585636,-0.28168548255413767,0.08859956301636994
1746483188121247500,3.43024755859375,0.004644026413559914,-0.2561366152778268,0.07145845860131085
1746483188131226400,3.440226318359375,-0.039764439633488656,-0.2510286246143281,0.08869220973588526
1746483188141204500,3.45020458984375,-0.05718845264315605,-0.22288901019245386,0.04608041784726083
1746483188151183400,3.460183349609375,-0.08556640586555003,-0.16012451098263264,-0.030266031991317867
1746483188161161500,3.470161376953125,-0.09951602076292038,-0.08469912151172757,-0.08730557768307626
1746483188171140400,3.480140380859375,-0.07559563147127628,-0.07710720507800578,-0.05814831065125763
1746483188181118500,3.490118408203125,-0.05608019914031028,-0.08254077443405985,-0.0315725114800036
1746483188191097600,3.50009765625,-0.12513327710032462,-0.1439734405182302,-0.015616159870103001
1746483188201075200,3.5100751953125,-0.15796353355646134,-0.14508885441422462,-0.013819485711678861
1746483188211054300,3.520054443359375,-0.06488251427710055,-0.16128990150019526,0.06688632838018238
1746483188221032400,3.530032470703125,0.01869651716351509,-0.23485490392670033,0.08698138723000884
1746483188231011300,3.54001123046875,0.03030453737080097,-0.3019584552541375,0.09336999228857457
1746483188240989400,3.549989501953125,0.0010527239233255386,-0.3235267284616828,0.09238076205551624
1746483188250968600,3.559968505859375,-0.045165421894192696,-0.299331613881886,0.10494104148633777
1746483188260946400,3.569946533203125,-0.04647124379575252,-0.27007293230220675,0.10620653137750923
1746483188270925600,3.579925537109375,0.020365911680459974,-0.24101298816502092,0.11614318430647254
1746483188280903400,3.5899033203125,0.06547814208269119,-0.21257234496995805,0.15288155411705373
1746483188290882300,3.59988232421875,0.007530980026721954,-0.20394246379062533,0.2008813957195729
1746483188300860400,3.6098603515625,-0.08685703019797801,-0.21730463418886065,0.1876611910752952
1746483188310839300,3.61983935546875,-0.18319851257801054,-0.2486690558761358,0.1482744987130165
1746483188320817400,3.6298173828125,-0.18215572552680967,-0.2979674859218299,0.1293996293079108
1746483188330796500,3.639796630859375,-0.06724398271143436,-0.33432606263458725,0.12668825145736337
1746483188340774400,3.6497744140625,0.010968553259968757,-0.3683455288752913,0.13791136400029064
1746483188350753300,3.659753173828125,0.05087795432209968,-0.3698191085591912,0.07789601736813784
1746483188360731400,3.6697314453125,0.06188040985167026,-0.33032939421385527,0.03181443047709763
1746483188370710300,3.679710205078125,0.027414661148190498,-0.319105258757621,0.004255538552626967
1746483188380688400,3.6896884765625,-0.0063292030215263365,-0.2394033610112965,-0.04878616967462003
1746483188390667500,3.69966748046875,-0.021366613155603408,-0.13513079337105155,-0.04906155254989862
1746483188400645400,3.709645263671875,-0.03615793957412243,-0.09356602631732822,-0.032905952040851116
1746483188410624500,3.71962451171875,-0.07501812384426593,-0.13389292213916779,-0.07332980543114244
1746483188420602400,3.729602294921875,-0.11892799271941185,-0.24180121593326329,-0.020119974095374346
1746483188430581200,3.739581298828125,-0.12003858430981636,-0.25991642607748505,0.07665376222208142
1746483188440559400,3.749559326171875,-0.10631108773052692,-0.25370193547680975,0.0882044262189418
1746483188450538500,3.75953857421875,-0.08887421523928642,-0.26212504203766585,0.07736234888285398
1746483188460516400,3.769516357421875,-0.09818038824498652,-0.24451310524046418,0.07650332090072333
1746483188470495500,3.77949560546875,-0.06280336991548538,-0.2581358262710273,0.05328399255052209
1746483188480473600,3.7894736328125,-0.017526888862252236,-0.2942598635755479,0.07636771182231604
1746483188490451500,3.799451416015625,0.033113749572634694,-0.28645196630358694,0.08119812765344978
1746483188500430300,3.809430419921875,0.07066109767854213,-0.27697774325460195,0.11549231918230653
1746483188510408400,3.819408447265625,0.03830898012816906,-0.2643019476853311,0.11230419066548347
1746483188520387300,3.82938720703125,-0.026030513313412666,-0.2733887788519263,0.1457260563392192
1746483188530365400,3.839365478515625,-0.08688742533624172,-0.25898236009776593,0.1724129146695137
1746483188540344600,3.849344482421875,-0.11763386125564575,-0.25955299959257244,0.08423011576049029
1746483188550322400,3.859322509765625,-0.12742752551734446,-0.25933658036291596,0.01957118110619485
1746483188560301300,3.86930126953125,-0.11792144602537155,-0.25108751519471406,0.03937178705409169
1746483188570279400,3.879279541015625,-0.05351999326348304,-0.22666809033975005,0.03867204128690064
1746483188580258300,3.88925830078125,-0.020014029502868652,-0.22935382229238746,0.026586978152394292
1746483188590236400,3.899236328125,-0.006017652854323386,-0.2239614617295563,0.030613968646153806
1746483188600215600,3.909215576171875,-0.012198971837759018,-0.2407860475413501,0.030473391131684183
1746483188610193400,3.919193359375,-0.02452887657880783,-0.2280937392286956,0.04669219307005405
1746483188620172500,3.929172607421875,-0.04574059143364429,-0.25532895215675233,0.07738631428033113
1746483188630150400,3.939150390625,-0.07265022566914558,-0.26146497069373725,0.1297141020845622
1746483188640129300,3.94912939453125,-0.06811842745840549,-0.24416984476074574,0.12829568665400146
1746483188650107400,3.959107421875,-0.02644552385509014,-0.24093963066786525,0.09326024830378592
1746483188660086300,3.969086181640625,-0.02278641682565212,-0.24474472203925252,0.047434682000428434
1746483188670064400,3.979064453125,-0.03156067491173744,-0.22544775476455686,0.006381371600180864
1746483188680043500,3.98904345703125,-0.06300502996742725,-0.22651713756173847,0.008007803758233786
1746483188690021600,3.999021728515625,-0.04964519765675068,-0.21177418032959103,-0.01145706742927432
1746483188700000500,4.00900048828125,-0.016467735198140144,-0.18522768031805753,-0.014680267259478567
1746483188709978400,4.018978271484375,-0.014432429978251456,-0.1842357466712594,-0.04059950221814215
1746483188719957200,4.028957275390625,-0.009871990194916724,-0.20210121983811258,-0.030310236459225415
1746483188729935400,4.038935302734375,-0.03921148192584514,-0.20198636128678918,0.06628324792049825
1746483188739914500,4.04891455078125,-0.06504033518731593,-0.21163521025031803,0.06960793536379933
1746483188749892400,4.058892333984375,-0.1015671080738306,-0.2161480114996433,0.06883402838185429
1746483188759871500,4.06887158203125,-0.10015081153512001,-0.2437111412078142,0.0768986768938601
1746483188769849300,4.078849365234375,-0.10087152702510356,-0.2525182786501944,0.06989961178675294
1746483188779828200,4.088828125,-0.07801438305079937,-0.25791853025853634,0.0734220137592405
1746483188789806300,4.098806396484375,-0.0521931285738945,-0.2444301031321287,0.04730564879328012
1746483188799785500,4.108785400390625,-0.029125556719303128,-0.22042422751411794,0.0682237875290215
1746483188809763300,4.118763427734375,-0.04589373616874218,-0.2256929616972804,0.09301862156763673
1746483188819742500,4.128742431640625,-0.052556701189279555,-0.23199352314621208,0.07182298106476664
1746483188829720600,4.138720458984375,-0.02663373990356922,-0.23647066856026647,0.0577045854717493
1746483188839699500,4.148699462890625,-0.016543723043799398,-0.2599441908672452,0.05936418924704194
1746483188849677300,4.15867724609375,-0.03369710241854191,-0.26503303843885656,0.08030227479226887
1746483188859656400,4.168656494140625,-0.043132454761862754,-0.2763881067983806,0.09439034831225872
1746483188869634300,4.17863427734375,-0.04442191005051136,-0.251898831577599,0.07743461040146649
1746483188879613400,4.188613525390625,-0.02961830867230892,-0.24181655963286755,0.07423267255499959
1746483188889591600,4.198591552734375,-0.030002924075722692,-0.24424013351798057,0.08379713117070496
1746483188899570400,4.2085703125,-0.02861760719716549,-0.2196178795672953,0.07862922701351344
1746483188909548500,4.218548583984375,-0.06083996088802814,-0.20444033031016587,0.08496807464621961
1746483188919527400,4.22852734375,-0.05559036979675293,-0.17189707410186528,0.07830138329863548
1746483188929505300,4.23850537109375,-0.06951075859963894,-0.15725626206994056,0.06475099685192108
1746483188939484400,4.248484375,-0.05699146876633167,-0.20679960678741335,0.04150105416774749
1746483188949462500,4.258462646484375,-0.019259996265172958,-0.21730258836224675,0.0494010136373341
1746483188959441400,4.26844140625,-0.009072364249825477,-0.22550357660502193,0.08156338076926767
1746483188969419500,4.27841943359375,0.005099953487515449,-0.2166745195917785,0.06761654235087335
1746483188979398400,4.2883984375,0.008112579306960105,-0.21537001286447047,0.07416954419091343
1746483188989376300,4.298376220703125,-0.01634849273264408,-0.2567301972568035,0.07539901292063296
1746483188999355400,4.30835546875,-0.0240595055013895,-0.24764848065674303,0.07799275574088096
1746483189009333200,4.318333251953125,-0.06248246739804744,-0.21792788065373897,0.0776669578526169
1746483189019312400,4.3283125,-0.13374679166674613,-0.21111264768093824,0.03176657274737954
1746483189029290500,4.33829052734375,-0.11639175224006175,-0.1774330809190869,0.03337203518263995
1746483189039269400,4.348269287109375,-0.13090017006397248,-0.139793378354609,0.040791517658904194
1746483189049247200,4.358247314453125,-0.09243979876637458,-0.11157719156518578,0.035635815396159884
1746483189059226400,4.368226318359375,-0.07250000354349613,-0.04651727489456534,-0.012934811831638216
1746483189069204200,4.378204345703125,-0.05229015920758247,0.014152005601674317,-0.09742430918067693
1746483189079183400,4.388183349609375,-0.003453355324268341,0.025972791776806115,-0.18368651529066263
1746483189089161500,4.398161376953125,0.039220249754190445,0.013031038747727871,-0.22080993889607486
1746483189099140400,4.408140380859375,0.08755319576859473,-0.11041136265620588,-0.15984408660605548
1746483189109118500,4.418118408203125,0.12664251261949538,-0.3134261902078986,0.038649391063675285
1746483189119097300,4.428097412109375,0.13568214364349843,-0.5329379790522157,0.21901063438914714
1746483189129075200,4.4380751953125,0.09895663331449031,-0.6064119421944022,0.31798209994658827
1746483189139054300,4.448054443359375,0.05783318028748035,-0.5551853205651045,0.3377943232670426
1746483189149032400,4.458032470703125,-0.05446165802776813,-0.3315940073221922,0.2244764985796064
1746483189159011300,4.46801123046875,-0.22059037786126134,-0.09269874196350573,0.18694361739046872
1746483189168989400,4.477989501953125,-0.3058119158118963,0.07584946010187268,0.10392039320170879
1746483189178968300,4.48796826171875,-0.2537286773532629,0.10417290665805339,-0.006737783822417259
1746483189188946400,4.497946533203125,-0.12927052303552627,-0.019801263535022734,-0.024720088301971553
1746483189198925300,4.50792529296875,-0.0006517419070005417,-0.179228001511842,-0.019186857963725924
1746483189208903400,4.5179033203125,0.07645955482423306,-0.4211810470059514,0.034497020624578
1746483189218881300,4.52788134765625,0.07954115422666072,-0.6220015793837607,0.08469773327223956
1746483189228860400,4.5378603515625,0.13373276314139365,-0.6756751557737588,0.06753507461249827
1746483189238838500,4.547838623046875,0.18093991999626158,-0.5717395650029182,0.11498363900780677
1746483189248817400,4.5578173828125,0.05675824453234672,-0.5245204254493117,0.18651377460584043
1746483189258795300,4.567795166015625,-0.08015957838594913,-0.5513729226700961,0.22712913198024035
1746483189268774100,4.577774169921875,-0.18897709597945211,-0.5218801400735974,0.25350034849010405
1746483189278752300,4.587752197265625,-0.2445867549985647,-0.42113282395005225,0.25773089873194693
1746483189288731400,4.5977314453125,-0.2387140635728836,-0.3090935678310692,0.20856625113375485
1746483189298709500,4.60770947265625,-0.2038268745869398,-0.23860709606707095,0.21747823719009757
1746483189308688400,4.6176884765625,-0.15543372281789777,-0.2641219149433076,0.2579742790337652
1746483189318666500,4.62766650390625,-0.1371381876707077,-0.3267302006781101,0.290667684302479
1746483189328645400,4.637645263671875,-0.11393091508448124,-0.34617110646814103,0.30239567762762304
1746483189338623200,4.647623291015625,-0.11051263107359409,-0.3297302592769265,0.23621084858030078
1746483189348602400,4.657602294921875,-0.08655775499045848,-0.26541151636242866,0.18157777950838208
1746483189358580200,4.667580322265625,-0.0005202244818210602,-0.16091346940323709,0.07845029025003314
1746483189368559400,4.677559326171875,0.08734861310720443,-0.0268928292311728,-0.04938727737292647
1746483189378537500,4.687537353515625,0.08073650149106978,0.050183834578096866,-0.07793415742143989
1746483189388516400,4.697516357421875,-0.05896656823158264,0.018592180006206036,-0.07567980262339115
1746483189398494500,4.707494384765625,-0.14913199232518673,-0.03608765081688761,-0.053673868650943035
1746483189408473600,4.7174736328125,-0.16649112340509892,-0.005849602811038494,-0.1719653900977224
1746483189418451200,4.727451171875,-0.1342056413501501,0.08098828429505228,-0.38222617018967864
1746483189428430300,4.737430419921875,-0.015584522622823714,0.22142419833689927,-0.6045635378487407
1746483189438408400,4.747408447265625,-0.0851665928930044,0.32782734826505183,-0.5921252773623913
1746483189448387300,4.75738720703125,-0.21827391761243342,0.27935747799798843,-0.41248138852603733
1746483189458365400,4.767365478515625,0.043511809468269345,0.265450094807148,-0.6036172699745744
1746483189468344600,4.777344482421875,0.37724808951616284,0.156508512442559,-0.7690715246126055
1746483189478322200,4.787322265625,0.491138088068366,-0.08595511292219161,-0.6351322060484439
1746483189488301300,4.79730126953125,0.3156558489561081,-0.32401042032539845,-0.309037015338242
1746483189498279400,4.807279541015625,0.05682371098399162,-0.49718964319229125,0.06832585966400802
1746483189508258300,4.81725830078125,-0.20569734463393688,-0.5047228151760995,0.40160760087743397
1746483189518236400,4.827236328125,-0.3400233974933624,-0.41113121602609753,0.5815658894252032
1746483189528215300,4.83721533203125,-0.35952655486464496,-0.3719244102753699,0.5919757858891039
1746483189538193400,4.847193359375,-0.2714431977421045,-0.37946313521713015,0.5200565779082477
1746483189548172500,4.857172607421875,-0.09413315868079662,-0.39411739125251766,0.4621034975681454
1746483189558150400,4.867150390625,0.05913140340447425,-0.4514838308110833,0.3464422515597194
1746483189568129300,4.87712939453125,0.13795827188193796,-0.49711540891230105,0.21163645235933362
1746483189578107400,4.887107421875,0.15849778656363486,-0.5049561855405569,0.14601378723941744
1746483189588086300,4.897086181640625,0.1428589034050703,-0.4179315436907112,0.07344663674384355
1746483189598064400,4.907064453125,0.0795247876137495,-0.27802885974273084,0.046089624067023396
1746483189608043500,4.91704345703125,-0.07053308738470077,-0.18966566276550292,0.04104585774615407
1746483189618021400,4.927021484375,-0.2085936505973339,-0.15546207212954757,0.058453211881965395
1746483189627999200,4.936999267578125,-0.2600678172469139,-0.09406316218450665,0.07809037089645862
1746483189637978400,4.946978271484375,-0.2558013919740915,-0.0516267268627882,0.06146649528853595
1746483189647956500,4.95695654296875,-0.174495566162467,-0.06132467566505074,-0.008467603289708494
1746483189657935400,4.966935302734375,-0.07762567599415779,-0.09952581150457263,-0.20880678189136087
1746483189667913500,4.97691357421875,-0.013588964891433715,-0.1587653514586389,-0.16496040670648215
1746483189677892400,4.986892333984375,0.03728898943066597,-0.26659166605770585,0.045529432900995016
1746483189687870200,4.9968701171875,0.06864157454967498,-0.352071124292165,0.24853658860288558
1746483189697849300,5.006849365234375,0.08270341764986515,-0.3917123759374022,0.3955279156375676
1746483189707827500,5.016827392578125,0.06584113017618656,-0.35449425978586074,0.4344130882184952
1746483189717806300,5.026806396484375,0.036948797690868375,-0.27761107272207736,0.26662710269726814
1746483189727784400,5.036784423828125,-0.033837387672066684,-0.25081673542931676,0.07563881302587687
1746483189737763300,5.046763427734375,-0.10432838948071002,-0.26006416398510335,0.12475596822053193
1746483189747741400,5.056741455078125,-0.15962649833261966,-0.22167510435804724,0.057332756484672426
1746483189757720600,5.066720458984375,-0.17709318144023417,-0.17619784003570674,0.035052827876433726
1746483189767698200,5.0766982421875,-0.11998597733974456,-0.14656769479513168,0.028639526768028733
1746483189777677300,5.08667724609375,-0.0643143590003252,-0.18213336756452916,0.019993863497674465
1746483189787655400,5.096655517578125,-0.052092590808868404,-0.27618746965974567,0.050090822532400485
1746483189797634300,5.10663427734375,-0.02591653154492378,-0.3625308512471616,0.11349624999426304
1746483189807612400,5.1166123046875,0.0021060323685407637,-0.44748438591137524,0.1418335789453238
1746483189817591600,5.126591552734375,0.019037877947092056,-0.4450960294701159,0.16577917574346065
1746483189827569400,5.1365693359375,-0.023605916514992713,-0.39544396368116136,0.15538608428388834
1746483189837548300,5.14654833984375,-0.06463818412721156,-0.3828276432141661,0.18314846289120612
1746483189847526400,5.1565263671875,-0.07097440141141415,-0.4402414290457964,0.24658041303381323
1746483189857505300,5.16650537109375,-0.04824702129662037,-0.46474297922626134,0.3349777314763516
1746483189867483400,5.1764833984375,-0.09485387417078017,-0.3993443321205675,0.2673088744163513
1746483189877462300,5.186462158203125,-0.168665544834733,-0.30878260218575593,0.15951324721649288
1746483189887440400,5.1964404296875,-0.10728899285197258,-0.13173998188897967,0.06712364426739513
1746483189897419500,5.20641943359375,-0.09457797983884811,0.04370967012792826,0.002093465147912502
1746483189907397400,5.2163974609375,-0.1278612407594919,0.07654942506477236,-0.037787659667804833
1746483189917376300,5.226376220703125,-0.07784253361523151,0.09838891642913222,-0.1283951284404844
1746483189927354400,5.236354248046875,-0.05395078589618206,0.03922273397222161,-0.17006262521632015
1746483189937333200,5.246333251953125,-0.011360182926058768,-0.06272387493848801,-0.15208433932475746
1746483189947311400,5.256311279296875,0.08678864113688468,-0.10625731171667575,-0.11995105215683578
1746483189957290500,5.26629052734375,0.17095570159852505,-0.14504969144761562,-0.10235993895195424
1746483189967268400,5.276268310546875,0.12867138809859752,-0.16202654521167278,-0.03537336506769061
1746483189977246200,5.28624609375,0.01985328598320484,-0.1714820635601878,0.11248568471223115
1746483189987225300,5.296225341796875,-0.053689504611492155,-0.16335954738110303,0.1590571009468287
1746483189997203500,5.306203369140625,-0.06797989577054978,-0.13071093110218643,0.1156535741586238
1746483190007182300,5.316182373046875,-0.058842065069079394,-0.0795167504377663,0.04351137107685208
1746483190017160400,5.326160400390625,-0.09333645534515381,-0.14625585236698388,-0.022869930390641093
1746483190027139300,5.336139404296875,-0.13666472494006157,-0.2098553410962224,-0.035165932862088085
1746483190037117400,5.346117431640625,-0.11861118185520171,-0.25720921294540167,0.003784852300956845
1746483190047096600,5.3560966796875,-0.06730769559741019,-0.2859796726167202,0.010047565957531332
1746483190057074400,5.366074462890625,-0.06166238318681717,-0.2926099044114351,0.03911635098829865
1746483190067053600,5.376053466796875,-0.03648527183234691,-0.28795974051803347,0.09412468311339617
1746483190077031700,5.38603173828125,-0.013281506377458572,-0.30327611372396346,0.15819536955095825
1746483190087010600,5.396010498046875,-0.008071078252792357,-0.32088819665163754,0.21116211284585296
1746483190096988700,5.40598876953125,-0.01352817461490631,-0.31972806683108207,0.21413024193644523
1746483190106967800,5.4159677734375,-0.02865852372944355,-0.27463176465034483,0.19180194414183496
1746483190116945700,5.425945556640625,-0.03181318836808204,-0.18522826483994723,0.10330284582525491
1746483190126924800,5.4359248046875,-0.07196867314577102,-0.07781900660917163,-0.03982881010659039
1746483190136902700,5.445902587890625,-0.1242582478314638,-0.027594693890213965,-0.13342289347462355
1746483190146881500,5.455881591796875,-0.1369897191107273,-0.05855038864612579,-0.15716376148089767
1746483190156859600,5.465859619140625,-0.11613748521804809,-0.163146050760895,-0.05402407032810151
1746483190166838500,5.475838623046875,-0.09296996012032031,-0.30914851288869977,0.05074745981022715
1746483190176816600,5.485816650390625,-0.0396358448177576,-0.36711218768805265,0.13189239597171545
1746483190186795800,5.495795654296875,-0.050641222956776616,-0.3520141334079206,0.2349775073930621
1746483190196774000,5.50577392578125,-0.06500058769881725,-0.3385802129477262,0.23682408510781824
1746483190206752800,5.515752685546875,-0.04772913490235805,-0.28262437083944675,0.14313881632499395
1746483190216730600,5.525730712890625,-0.006106500181555748,-0.20978972851410507,0.07012954808510839
1746483190226709500,5.53570947265625,0.06037818859517574,-0.1184692891664803,0.01849047319740057
1746483190236687600,5.5456875,0.08304887008666992,-0.042300680112838746,-0.04994651869088411
1746483190246666800,5.555666748046875,0.051229836499691005,-0.030460312454402446,-0.17993783028163016
1746483190256644600,5.56564453125,-0.05467676208317279,-0.06696399672627448,-0.14442746789604424
1746483190266623700,5.575623779296875,-0.12253157016932964,-0.09136413235887884,0.018868293533846735
1746483190276601600,5.5856015625,-0.10676409219503402,-0.12836319893226028,0.04140358514264226
1746483190286579700,5.595579833984375,-0.0612380202949047,-0.193064511423558,0.11766681367717682
1746483190296558600,5.60555859375,-0.02697276259958744,-0.20095511854290962,0.2116335297498852
1746483190306536700,5.61553662109375,-0.019128478839993475,-0.18335501831397413,0.16754099778421222
1746483190316515600,5.625515625,-0.09084054687619209,-0.2180585212960839,0.11967208908498286
1746483190326493700,5.63549365234375,-0.10654372744262218,-0.31695114946365355,0.07293328039422631
1746483190336472800,5.645472900390625,-0.07471826411485671,-0.43329891643151636,0.06626622372046112
1746483190346450700,5.65545068359375,0.05502455260753631,-0.39729163737446066,0.046381592750921845
1746483190356429600,5.6654296875,0.12773907568454743,-0.2812492830939591,0.0498856553491205
1746483190366407700,5.67540771484375,0.01314297468960285,-0.17866393788829446,0.043276685538142914
1746483190376386600,5.685386474609375,-0.10024842669069767,-0.11694573286101222,0.0051746992241591214
1746483190386364700,5.69536474609375,-0.14490940619409085,-0.1022051137164235,0.0638701223641634
1746483190396343800,5.70534375,-0.07666063035428523,-0.11370704320073127,0.071015244878456
1746483190406321700,5.71532177734375,-0.04258475775122642,-0.20221943939030168,0.04353855134472251
1746483190416300800,5.72530078125,0.002301262679696083,-0.2527706459760666,0.03766023389585316
1746483190426278700,5.735278564453125,-0.017571897047758103,-0.28701164601296186,0.06961947967112064
1746483190436257500,5.745257568359375,-0.06310790582001209,-0.26438728788122534,0.0561073063429445
1746483190446235600,5.755235595703125,-0.11614859113395214,-0.23557035871967671,0.029675811013206838
1746483190456214800,5.76521484375,-0.13310089497864244,-0.2291501164138317,0.045837183675915
1746483190466192600,5.775192626953125,-0.09135492613911628,-0.28357144243121146,0.08483326928541064
1746483190476171800,5.785171875,0.01223930384814739,-0.2946362956725061,0.11913622864261268
1746483190486149600,5.795149658203125,0.09440963753461837,-0.2535473294369876,0.08547069040611385
1746483190496128500,5.80512841796875,0.11234335363209247,-0.18126053025275468,0.04043539769761264
1746483190506106600,5.815106689453125,0.03030453737080097,-0.11495119804292916,0.019673545502126216
1746483190516085500,5.82508544921875,-0.06823825444579124,-0.07442293443009257,0.03667122285850346
1746483190526063600,5.835063720703125,-0.14703005160987376,-0.11583791774958371,0.06653890318199991
1746483190536041700,5.845041748046875,-0.16092062979638574,-0.17243278841376303,0.060335226236283776
1746483190546020900,5.855020751953125,-0.11625789672732352,-0.1764586829289794,0.03679141517207026
1746483190555998500,5.86499853515625,-0.04575461995899677,-0.1353458974264562,-0.00011456629037857055
1746483190565977600,5.8749775390625,-0.019727613776922226,-0.11269085189551115,-0.017675357422232627
1746483190575955700,5.884955810546875,-0.03910568346381187,-0.15513108660951255,-0.012982377300411463
1746483190585934600,5.8949345703125,-0.009299743264913559,-0.2576268538355827,0.014388006314635276
1746483190595912700,5.90491259765625,0.09054302523434161,-0.3189161659263074,0.05506181587800383
1746483190605891600,5.9148916015625,0.13217851943671702,-0.34181904873847957,0.08295673482380807
1746483190615869700,5.92486962890625,0.033255788391828536,-0.23794366372227668,0.07599391007386147
1746483190625848800,5.934848876953125,-0.11708499520123004,-0.19432415609583256,0.07992803465239703
1746483190635826700,5.94482666015625,-0.21735504920184612,-0.1760072858996689,0.05915588025860488
1746483190645805600,5.9548056640625,-0.17197978394925592,-0.14145970413163303,0.07856025343053043
1746483190655783700,5.96478369140625,-0.09741817170083522,-0.14190350237637758,0.10250475425012409
1746483190665762600,5.974762451171875,-0.053308980861306185,-0.19842793815284968,0.06846914059221744
1746483190675740700,5.98474072265625,0.00203998139500618,-0.23999708912074563,0.0899562383223325
1746483190685719800,5.9947197265625,0.012584756284952163,-0.25775924804359673,0.09427585508711636
1746483190695697700,6.00469775390625,-0.021337971583008764,-0.27781755507960915,0.10052490554451941
1746483190705676500,6.014676513671875,-0.046667058628797525,-0.2893152467802167,0.15428360293470322
1746483190715654700,6.024654541015625,-0.08996727117300032,-0.3178628574810922,0.22027838930264115
1746483190725633500,6.034633544921875,-0.1665215185433626,-0.3369881214506924,0.32642997562251985
1746483190735611600,6.044611572265625,-0.23100655793547628,-0.2838962904714048,0.17540720111466943
1746483190745590800,6.0545908203125,-0.19523557185232637,-0.21325667397230863,0.007348901458084583
1746483190755568600,6.064568603515625,-0.05986673194169998,-0.12104761522188782,-0.12542480739280581
1746483190765547800,6.0745478515625,0.09566577507555485,-0.055167614340037106,-0.23763825103491543
1746483190775525600,6.084525634765625,0.181910810855031,-0.02242942008152604,-0.16696392854861913
1746483190785503700,6.094503662109375,0.15229367122650145,-0.05063537773787975,0.003969853479042649
1746483190795482600,6.104482666015625,0.006066168171167373,-0.17310206597745417,0.18955102340988814
1746483190805460700,6.114460693359375,-0.023867197799682615,-0.2200552480712533,0.11355696720555424
1746483190815439600,6.124439697265625,-0.08058569484353065,-0.22627368419468402,0.15239209009967744
1746483190825417700,6.134417724609375,-0.1640343779027462,-0.2249354213282466,0.11641184518001974
1746483190835396900,6.14439697265625,-0.21222002440094948,-0.2379376723729074,0.020058014775067568
1746483190845374500,6.15437451171875,-0.18211773160398007,-0.23152079106792806,-0.02784823025986552
1746483190855353600,6.164353515625,-0.08997603900134563,-0.22227453155592083,-0.042808629634976385
1746483190865331700,6.174331787109375,0.045859833899140355,-0.20358795126453041,-0.12054353815726936
1746483190875310600,6.184310546875,0.12852058145105838,-0.25483809989988804,0.010484934461489319
1746483190885288700,6.194288818359375,0.13585107046961784,-0.30386662696301936,0.10161036269366741
1746483190895267800,6.204267822265625,0.09879413622915745,-0.27640608084648843,0.08699541575536131
1746483190905245700,6.21424560546875,-0.011224573847651482,-0.21381021620184182,0.12160152277760207
1746483190915224600,6.224224609375,-0.15525836625099182,-0.21693623926788566,0.09704305477812886
1746483190925202700,6.23420263671875,-0.18394786964058876,-0.16942118550762533,0.013034034422412515
1746483190935181600,6.244181640625,-0.09794131879210471,-0.12421090155839919,-0.08402480244673788
1746483190945159700,6.25415966796875,0.008717559462785721,-0.12831088422313333,-0.048464244243875146
1746483190955138600,6.264138671875,0.01020809028148651,-0.20371990708112717,0.03407448436357081
1746483190965116700,6.27411669921875,0.006954056921601295,-0.2373524198308587,0.09512604217566549
1746483190975094500,6.284094482421875,0.004131985238194465,-0.18367299822196365,0.08296418747790157
1746483190985073700,6.29407373046875,-0.012697569009661673,-0.13923486768901347,0.06396174617037177
1746483190995051500,6.304051513671875,-0.07514613413810729,-0.17744491748735308,0.02696567527167499
1746483191005030700,6.31403076171875,-0.09793372000753879,-0.190815271192044,0.012249021524563431
1746483191015008800,6.3240087890625,-0.054800096201896666,-0.15735621531307697,0.016662307922169564
1746483191024987600,6.333987548828125,-0.025385785669088362,-0.18721140148118137,0.04285889851748943
1746483191034965800,6.3439658203125,-0.006854688200354576,-0.173196612393111,0.070460387474671
1746483191044944600,6.353944580078125,-0.026501053434610365,-0.18775266875103114,0.09916757265143096
1746483191054922500,6.363922607421875,-0.04497252967059612,-0.19030396066904068,0.11362404109239578
1746483191064901600,6.373901611328125,-0.037599370554089545,-0.18585238808766005,0.10809373336359858
1746483191074879500,6.38387939453125,-0.06205109024345874,-0.21276728302016854,0.1009831707060337
1746483191084858400,6.3938583984375,-0.06028466509282589,-0.20907018206790087,0.05052811797112226
1746483191094836500,6.40383642578125,-0.031225743868947026,-0.20282734215557574,0.044805356410145755
1746483191104815400,6.4138154296875,-0.025550036320090293,-0.2261278459832072,0.03901771291941404
1746483191114793500,6.42379345703125,-0.02169160732626915,-0.22253055214360354,0.04681662316732108
1746483191124772600,6.433772705078125,-0.015531331130862235,-0.17179770538061856,0.07357749658189713
1746483191134750700,6.443750732421875,-0.011004793617129326,-0.13770166677236556,0.07650755868442356
1746483191144729600,6.4537294921875,-0.03962883055508137,-0.13766454963237046,0.12270707286670804
1746483191154707500,6.46370751953125,-0.03890110080242157,-0.1285410397171974,0.17300583906136452
1746483191164686300,6.473686279296875,-0.007009586501121521,-0.1451050748966634,0.015954013522341846
1746483191174664400,6.48366455078125,-0.05811375079452991,-0.19774346302002668,0.09107106769643723
1746483191184642600,6.493642578125,-0.03486848428547382,-0.17587372264787554,0.11631225726306438
1746483191194621400,6.503621337890625,-0.05869476555287838,-0.15779343768656254,-0.021585005146637557
1746483191204599300,6.513599365234375,-0.08955518324077129,-0.1712220974497497,-0.04103044098131358
1746483191214578400,6.523578369140625,-0.08437748834192753,-0.13154635901302097,0.0688515640385449
1746483191224556500,6.533556640625,-0.04332476246356964,-0.07353095402643084,0.03683518124856055
1746483191234535400,6.543535400390625,0.018168693897128104,-0.007578034038841724,-0.07715119035020471
1746483191244513500,6.553513427734375,0.08916063096523284,0.08426979018375277,0.028017157085984942
1746483191254492400,6.563492431640625,0.10566168391108512,0.1633330977655947,0.02130121976919472
1746483191264470500,6.573470458984375,0.0799818837314844,0.14679931159391998,-0.01966675043515861
1746483191274449700,6.58344970703125,0.010222118806838989,-0.017165069812536238,-0.053627764486894006
1746483191284427500,6.593427490234375,-0.030153730723261832,-0.25281755385771393,0.03132964263483882
1746483191294406400,6.603406494140625,-0.043452188235521313,-0.4770416120462119,0.11986067045964299
1746483191304384500,6.613384521484375,-0.09784662624597548,-0.6671303225293755,0.13726283696368335
1746483191314363400,6.62336328125,-0.08015899386405945,-0.6754517222814261,0.07344546770006417
1746483191324341500,6.633341552734375,0.028003274691104887,-0.45661739430725573,0.034159313102811575
1746483191334320600,6.643320556640625,0.04681260457932949,-0.1917179191201925,0.03794767253510654
1746483191344298500,6.653298583984375,-0.08873919068276882,-0.03902867270484566,0.027470409923419356
1746483191354277600,6.663277587890625,-0.16108780305683612,-0.01560366571471095,0.05736673181951046
1746483191364255500,6.67325537109375,-0.15600596974790096,-0.04464095962867141,0.028293562874570487
1746483191374233600,6.683233642578125,-0.0126963999658823,-0.018110972360521553,0.09531601178981364
1746483191384212500,6.69321240234375,0.11564356422126293,-0.01976633835211396,0.16636355150267482
1746483191394190600,6.703190673828125,0.08555939160287379,-0.10628142324462532,0.1101130372967571
1746483191404169500,6.71316943359375,-0.015168927559256553,-0.20835852666720747,0.041072161231189966
1746483191414147600,6.723147705078125,-0.10899696581363677,-0.28103900134414433,0.04158756340742111
1746483191424126500,6.73312646484375,-0.14744623119533062,-0.34204759679734703,0.045643341604247684
1746483191434104300,6.743104248046875,-0.15678163029551506,-0.4232504006259143,0.09030154462866484
1746483191444083500,6.75308349609375,-0.0754290427327156,-0.508309295360744,0.14493519822247325
1746483191454061600,6.7630615234375,0.055609074497222896,-0.523966006436944,0.1454668208811432
1746483191464040400,6.77304052734375,0.048202597633004184,-0.5165215356498957,0.29358517918437715
1746483191474018600,6.7830185546875,-0.042592941057682035,-0.4934906425438821,0.35226299360245467
1746483191483997700,6.792997802734375,-0.14726035323441028,-0.43878041658252476,0.2875730792880058
1746483191493975300,6.802975341796875,-0.18582476942837237,-0.2986823561929166,0.21027853494435547
1746483191503954400,6.812954345703125,-0.1332002636998892,-0.1374791100628674,0.11127813555337487
1746483191513932500,6.8229326171875,-0.08150807038545609,0.011346446661651135,0.06638853492587804
1746483191523911400,6.832911376953125,-0.06735854900181293,0.020662264278531073,0.057527036947757
1746483191533889500,6.8428896484375,-0.09364859003424644,0.019812661711871623,-0.02055807325169444
1746483191543868400,6.852868408203125,-0.04793021043241024,0.034679099193215365,-0.058977089625596994
1746483191553846500,6.862846435546875,0.005938157877326012,-0.014827274514734744,-0.038059097020328045
1746483191563824400,6.872824462890625,0.007563713252544403,-0.1225806700080633,-0.04521116073206067
1746483191573803500,6.882803466796875,-0.000011105915904045104,-0.22305121501684189,0.015209697961062193
1746483191583781400,6.892781494140625,-0.043316579157114024,-0.27088439481556414,0.017779986840486525
1746483191593760500,6.902760498046875,-0.0999766240119934,-0.28303996590301395,0.09544628710597752
1746483191603738600,6.912738525390625,-0.12928221347332,-0.2936968228653073,0.1931435680091381
1746483191613717500,6.922717529296875,-0.09604396073818207,-0.25245734224319455,0.1508101546704769
1746483191623695600,6.932695556640625,0.0163911628305912,-0.18274506972208618,0.022315584443509576
1746483191633674500,6.942674560546875,0.11082651932835579,-0.039826545084267855,-0.033168986891210075
1746483191643652400,6.95265234375,0.11118073959350586,-0.038655893869698046,-0.11940043253675102
1746483191653631500,6.962631591796875,0.038792379730939866,-0.1314202484153211,-0.1212938450679183
1746483191663609600,6.972609619140625,-0.010655834048986434,-0.22093509964570401,-0.11762670086249709
1746483191673588500,6.98258837890625,-0.041836569732427595,-0.21773747264817356,-0.05613134480565786
1746483191683566600,6.992566650390625,-0.04922258833050728,-0.15584318040162323,0.01687222434580326
1746483191693545500,7.00254541015625,-0.10078384874165057,-0.1255482876420021,-0.05637538269460201
1746483191703523300,7.0125234375,-0.13450140942633151,-0.09411503850221634,0.04935001410245895
1746483191713502500,7.02250244140625,-0.1004869116216898,-0.037308424783498044,0.11400529549494386
1746483191723480600,7.03248046875,-0.09509995788633822,-0.10096271243989467,0.025453882469236848
1746483191733458400,7.04245849609375,-0.07235971828997134,-0.133457014939934,0.1449523685529828
1746483191743437600,7.0524375,-0.016485855376720426,-0.19188202364072202,0.13363324828967452
1746483191753415700,7.062415771484375,0.030152561679482458,-0.30033450731411576,0.0840580471292138
1746483191763394600,7.07239453125,0.04285363782048225,-0.41195188475921746,0.10388020732179283
1746483191773372400,7.082372314453125,0.027003742259740827,-0.44210926874428985,0.06369651936292647
1746483191783351300,7.092351318359375,-0.03006663696169853,-0.44797187716737386,0.0015926760189235209
1746483191793329400,7.102329345703125,-0.08904372658729552,-0.3934942909181118,0.06075637425780296
1746483191803308500,7.11230859375,-0.08770517145991324,-0.3247198837690055,0.14474822428300976
1746483191813286700,7.12228662109375,-0.05181961908638477,-0.2756291051246226,0.1252284080378711
1746483191823265500,7.132265625,-0.04943710786402225,-0.1899322047472,0.10832111237868666
1746483191833243600,7.14224365234375,-0.026929507979750633,-0.09387085448279976,0.060952189090847965
1746483191843222300,7.15222216796875,-0.004648118066787719,-0.009298574221134186,0.059122343315184116
1746483191853200400,7.162200439453125,-0.001418050104379654,-0.0538093315988779,0.034728345162421466
1746483191863179500,7.172179443359375,-0.007646715360879897,-0.09660831662267445,0.08721870311722159
1746483191873157400,7.182157470703125,-0.029397943919897078,-0.14456599958389996,0.04479848827794194
1746483191883136500,7.192136474609375,-0.04765197801291942,-0.1604901294246316,-0.01871449121162295
1746483191893114600,7.202114501953125,-0.03442775478065014,-0.15857669701874255,0.012636486472189425
1746483191903092500,7.212092529296875,-0.07042553535699844,-0.1719869443424046,-0.09047054452002048
1746483191913071400,7.2220712890625,-0.07548048065900802,-0.12984832292348145,-0.07131678510829806
1746483191923049500,7.232049560546875,-0.06489478923678398,-0.11234452267587185,-0.07558481781631708
1746483191933028400,7.2420283203125,-0.06320727454125881,-0.1040109940946102,0.02298793074712157
1746483191943006500,7.25200634765625,-0.06346972486972809,-0.1815888854242861,-0.02092559138983488
1746483191952985600,7.261985595703125,-0.03252630507349968,-0.21671733582019806,-0.005639467191696166
1746483191962963500,7.27196337890625,-0.017554361391067502,-0.16045798072069883,0.10650310317128896
1746483191972942600,7.281942626953125,0.015749942317605018,-0.1972061412729323,-0.06617109278291464
1746483191982920400,7.29192041015625,-0.06605623423159122,-0.228302851934731,-0.05507116822823882
1746483191992899300,7.3018994140625,-0.10769523556530475,-0.13817016106694935,-0.060781654829531906
1746483192002877400,7.31187744140625,-0.09818272633254528,-0.03097016167268157,-0.10126914804056286
1746483192012856600,7.321856689453125,-0.022176760494709014,0.00736819068044424,-0.22921192960366604
1746483192022834400,7.33183447265625,0.11595102273523807,0.018907383435219527,-0.30910189726799725
1746483192032813600,7.3418134765625,0.2523421914309263,0.09579539280459284,-0.27536358605623246
1746483192042791700,7.351791748046875,0.2926198412835598,0.03402764954715967,-0.23571780436635015
1746483192052770800,7.361770751953125,0.1833177550435066,-0.08879238217473029,-0.08467617902755736
1746483192062749000,7.3717490234375,-0.04825812721252441,-0.2229413249015808,0.09465119120553135
1746483192072726800,7.381726806640625,-0.2758861486256122,-0.3400989469476044,0.20917071983292698
1746483192082705700,7.39170556640625,-0.35379297964870926,-0.3431429908186197,0.26452918056994673
1746483192092683800,7.401683837890625,-0.2865419826745987,-0.3248157453589141,0.30202611366286874
1746483192102663000,7.411662841796875,-0.16264964554607866,-0.3301123904623091,0.3324213980570435
1746483192112640800,7.421640869140625,-0.04882219083607196,-0.3553653435319662,0.324200536070019
1746483192122620000,7.431619873046875,0.061631988048553465,-0.37792262777686114,0.23334727584272622
1746483192132597800,7.44159765625,0.1357253982633352,-0.3986547424212098,0.12900251974910498
1746483192142576600,7.45157666015625,0.13935294111073016,-0.44164954227805137,0.1028086325675249
1746483192152554800,7.4615546875,0.08660568578541278,-0.41379955845251676,0.09749912798255682
1746483192162534000,7.471533935546875,0.07168459550738335,-0.28663711361214517,0.1002675697825849
1746483192172511700,7.48151171875,0.015860416954755784,-0.21949995227605104,0.14488894792795182
1746483192182491000,7.491490966796875,-0.05921440551280975,-0.19263065005093813,0.13659516683518885
1746483192192469000,7.501468994140625,-0.1300011753976345,-0.15119973850995302,0.11599544639885424
1746483192202448000,7.51144775390625,-0.12744915282726288,-0.09928294265940785,0.11990151392668486
1746483192212425700,7.52142578125,-0.14144494495391846,-0.07635653284117579,0.13164075929820537
1746483192222403800,7.53140380859375,-0.1556166781693697,-0.09774565008953214,0.09565013911500572
1746483192232382700,7.5413828125,-0.16272095721662044,-0.09203706318438053,0.05305237575173378
1746483192242360800,7.55136083984375,-0.14835457821190356,-0.08573533269166946,0.01609568701535463
1746483192252339700,7.561339599609375,-0.09516016364097594,-0.12123305479139089,-0.04183905395045876
1746483192262317800,7.57131787109375,-0.026764672806859013,-0.1883120561994612,-0.07404182615801691
1746483192272297000,7.581296875,0.048287937828898425,-0.27728037946298717,0.005437076487392186
1746483192282274800,7.59127490234375,0.10341127463579178,-0.3448341587759554,0.08707564138472079
1746483192292253700,7.601253662109375,0.06291326003074646,-0.3328330475978553,0.14129194634929299
1746483192302231800,7.611231689453125,0.0014069441884756089,-0.28276012604832645,0.10700725330114363
1746483192312210700,7.621210693359375,-0.08988017741143703,-0.23511574681997296,0.1478486745163798
1746483192322188800,7.631188720703125,-0.14228957908451556,-0.19055077503696083,0.11645005829855799
1746483192332168000,7.64116796875,-0.1393903505116701,-0.18394743124917148,0.10217296501249075
1746483192342145800,7.651145751953125,-0.1178401974827051,-0.1546710678823292,0.0973484674654901
1746483192352124700,7.661124755859375,-0.05335691165626049,-0.15941709336563945,0.03316591815128922
1746483192362102800,7.671102783203125,0.023595395120978354,-0.14383213235139847,0.07473024681359529
1746483192372081000,7.681080810546875,0.045268297746777535,-0.13323781923130154,-0.0033801439575850962
1746483192382059800,7.691059814453125,0.056846507337689395,-0.10765081190168857,0.031968525060266255
1746483192392038000,7.701037841796875,0.06272621302604675,-0.12805574041828513,0.018799100755155087
1746483192402016800,7.711016845703125,-0.009633505263924598,-0.17038243175521492,-0.1087345154851675
1746483192411994600,7.72099462890625,-0.08553601072728634,-0.16234920129477975,-0.029891426525264976
1746483192421973800,7.730973876953125,-0.08467734807133674,-0.10452917274981736,0.09674056470021605
1746483192431952000,7.740951904296875,-0.03775719146430492,-0.16756021394133566,0.0840323281660676
1746483192441930800,7.7509306640625,0.017853052076697348,-0.3278722103200853,0.047915889646112916
1746483192451908900,7.760908935546875,0.028604747715592384,-0.22379721107855438,0.20978636751323937
1746483192461887700,7.7708876953125,-0.016853519645333288,-0.1589604356393218,0.1500553907804191
1746483192471865900,7.780865966796875,-0.09673369656801223,-0.19227467622011898,0.07692556490078568
1746483192481845000,7.790844970703125,-0.11748480817377567,-0.21217808495536444,0.07648132826462388
1746483192491822600,7.800822509765625,-0.05186345822811127,-0.19301906484663486,0.07416019184067844
1746483192501801700,7.8108017578125,0.016831892335414884,-0.15639146193414927,0.08404021921157837
1746483192511779800,7.82077978515625,0.09187865775227547,-0.13648849159032106,0.03665580609366297
1746483192521758000,7.830758056640625,0.09424772497117519,-0.1486943315602839,-0.053123102900385855
1746483192531736800,7.84073681640625,0.006955225965380668,-0.1432052326247096,-0.06337678588926791
1746483192541715000,7.85071484375,-0.06155073950588703,-0.15263444748818875,-0.040261721631139516
1746483192551693600,7.860693603515625,-0.11493337012529373,-0.1549262116871774,-0.04253653469532728
1746483192561671700,7.870671630859375,-0.12335106985867023,-0.15717515965774653,-0.04950988083928823
1746483192571650800,7.88065087890625,-0.0638134237408638,-0.19139117138385772,-0.01875175448209047
1746483192581628700,7.890628662109375,-0.03873977276086807,-0.2002969468951225,0.036125060217827555
1746483192591607800,7.90060791015625,-0.03534779223501682,-0.20730580274388194,0.05842603161409497
1746483192601586000,7.9105859375,-0.025389292800426483,-0.19669497688040136,0.04735504089295864
1746483192611564800,7.920564697265625,-0.09156476949751377,-0.17966712358146905,0.05660451527535915
1746483192621542700,7.930542724609375,-0.09388415235579013,-0.1643745696425438,0.06257569863945245
1746483192631521800,7.940521728515625,-0.05694003084003925,-0.2107797624647617,0.10406754658743739
1746483192641499600,7.950499755859375,-0.025699089401960373,-0.2481890172742307,0.0784885764338076
1746483192651478800,7.960478759765625,-0.03496317683160305,-0.22129399608597158,0.0437228218704462
1746483192661457000,7.970456787109375,-0.04439560656547546,-0.19463103008791804,0.029314211159199473
1746483192671434800,7.980434814453125,-0.029679098948836326,-0.19791604310795663,0.029214988568425176
1746483192681414000,7.990413818359375,0.014698387438058852,-0.20148805637583136,0.033914106170088054
1746483192691391700,8.000391845703126,0.05081014978289604,-0.1656783457174897,0.022336481101065873
1746483192701370600,8.01037060546875,0.009116787913441657,-0.13969824741706252,0.007683978631347417
1746483192711348700,8.0203486328125,-0.03264379397332668,-0.14847513585165142,0.005454027622193098
1746483192721327900,8.030327880859375,-0.056306409111618994,-0.15493205690607428,0.03321662542521953
1746483192731305700,8.0403056640625,-0.10510638811588287,-0.15777473298609257,0.0418690106973052
1746483192741284900,8.050284912109374,-0.12327508201301098,-0.15763357094973324,0.052991000953316686
1746483192751263000,8.060262939453125,-0.06719196026325225,-0.13613134871572255,0.07039265600070357
1746483192761241600,8.07024169921875,0.023704700714349745,-0.13655308125913143,0.09464666116088628
1746483192771219700,8.0802197265625,0.043698856472969054,-0.1827215427160263,0.12401362542062998
1746483192781198800,8.09019873046875,-0.009744564422965049,-0.20577771639376877,0.11466390553414821
1746483192791176700,8.1001767578125,-0.03187748577594757,-0.16799758244529364,0.04939955233260989
1746483192801154800,8.11015478515625,-0.07615618796348571,-0.18586232495978475,0.017965426409989594
1746483192811134000,8.120134033203126,-0.07970072870254516,-0.2153235433742404,-0.0004874912559986114
1746483192821111600,8.130111572265625,-0.09372223979234695,-0.24738866067677734,0.0006473579928278923
1746483192831090700,8.140090576171875,-0.08581775027811527,-0.25414018076360223,0.06909794001504778
1746483192841068800,8.15006884765625,-0.028010873475670814,-0.23045549992397427,0.03332520036622882
1746483192851047700,8.160047607421875,0.058712301209568975,-0.18305603536739945,0.021051848118007182
1746483192861025800,8.17002587890625,-0.0452829107940197,-0.1605164329096675,0.09864946706146001
1746483192871005000,8.1800048828125,-0.11784136652648448,-0.31949805746749044,0.16425503491610288
1746483192880982800,8.189982666015625,-0.13140636602044103,-0.38311332828775047,0.11006079565286636
1746483192890962000,8.1999619140625,-0.04292611853480339,-0.2883860031060874,-0.005686375073343515
1746483192900939800,8.209939697265625,-0.013247019585967064,-0.20564590670764446,0.07215440497621893
1746483192910918700,8.219918701171874,-0.08028875772356986,-0.15424334398955106,0.07889481914713978
1746483192920896800,8.229896728515625,-0.15821955414414404,-0.11769684348925948,0.010052169067412613
1746483192930875000,8.239875,-0.17272388031482697,-0.10372311706393957,-0.061316200097650285
1746483192940853800,8.249853759765625,-0.1548889484167099,-0.10333324096351862,-0.0462901881404221
1746483192950831900,8.259831787109375,-0.13564824137389658,-0.16754998480826616,-0.05184358448386192
1746483192960811000,8.26981103515625,-0.018975918626785278,-0.16834040453359483,-0.05588160782828927
1746483192970788600,8.27978857421875,0.05224748910963535,-0.1985787448003888,0.04732596092894673
1746483192980767700,8.289767822265626,0.09195172298848628,-0.2338189850077033,0.12926570072993634
1746483192990745900,8.299745849609375,0.10060966121852398,-0.222732066065073,0.17845950135737657
1746483193000724700,8.309724853515625,0.1285153207540512,-0.19507877385541794,0.1731245700702071
1746483193010702800,8.319702880859374,0.09796060801446438,-0.193040253765136,0.1381609548471868
1746483193020682000,8.329681884765625,-0.0007657236754894256,-0.16837430680319665,0.12885390505865216
1746483193030659600,8.33965966796875,-0.05429623833298683,-0.1726242193326354,0.10275441816225647
1746483193040638700,8.349638671875,-0.04775719195306301,-0.1592393987111747,-0.00011982698738574981
1746483193050616800,8.359616943359375,0.04573883786797523,-0.10411007055491209,-0.04675079138949513
1746483193060594200,8.36959423828125,0.12020575757026672,-0.05766790672317147,0.011628770734369754
1746483193070573000,8.379572998046875,0.12568448124229908,-0.031089550268650054,0.06751695443391799
1746483193080551000,8.389551025390626,0.0327910934895277,-0.047459378050267696,0.08008096019178629
1746483193090529800,8.39952978515625,-0.11679331877827644,-0.15294979704767464,0.10283435153067111
1746483193100508000,8.4095078125,-0.17467209177315235,-0.17751491398364305,0.05569704504162073
1746483193110487000,8.419487060546874,-0.14621931974887847,-0.1812121610663831,0.0010588614031672478
1746483193120465200,8.429465087890625,-0.11247428653538226,-0.28889570619389415,0.005355097292363643
1746483193130444000,8.439444091796876,-0.3079156100928783,-0.2660087516032159,-0.10315203917771577
1746483193140422100,8.449422119140625,-0.7533154448151588,-0.22488617535904049,-0.15458689673021433
