time,seconds_elapsed,z,y,x
1746482494753927200,0.01692724609375,-0.3835010124310851,0.0568377395093441,0.021945874348282813
1746482494763906300,0.02690625,-0.6174579446047544,0.06706161188185214,-0.05165127678215503
1746482494773885200,0.03688525390625,-0.7148778698712587,0.03421674237847328,-0.13611468984186648
1746482494783863300,0.04686328125,-0.6887164236545562,0.010913608202338217,-0.16226795275211334
1746482494793842400,0.056842529296875,-0.5571642194226384,-0.07455752059519291,-0.0005418517917394638
1746482494803821300,0.0668212890625,-0.27737989431470633,-0.1581874054402113,0.2241132912904024
1746482494813800400,0.076800537109375,0.012196049228310584,-0.2507961310327053,0.3532160565435886
1746482494823778000,0.086778076171875,0.2679810745894909,-0.2839835303634405,0.38701720385849475
1746482494833757200,0.096757080078125,0.5101110840857028,-0.2614233235090971,0.4202934505164623
1746482494843736000,0.106736083984375,0.7103624382734298,-0.2312596559137106,0.4580898049473762
1746482494853715200,0.116715087890625,0.7991828774988651,-0.13599077120125294,0.4894008890122175
1746482494863693300,0.126693359375,0.6888333280324935,-0.09853051685690879,0.5127268195420503
1746482494873672200,0.136672119140625,0.5185130017280578,-0.23731997886598108,0.4758014027267694
1746482494883651300,0.1466513671875,0.3712088093519211,-0.36918344100415706,0.41995676590800285
1746482494893630200,0.156630126953125,0.25474866805076596,-0.4524246187925339,0.34776305183470246
1746482494903608300,0.1666083984375,0.1662128909856081,-0.521090158739686,0.2351625085711479
1746482494913587500,0.17658740234375,0.02118424232602119,-0.5152770885467529,0.10560030911266803
1746482494923566000,0.186566162109375,-0.15381985788047312,-0.5045265619516373,-0.013488427126407623
1746482494933544200,0.196544189453125,-0.18902794938385487,-0.5560492439180612,-0.029489713856577872
1746482494943523000,0.206523193359375,-0.05374503419101238,-0.5550578947931528,0.007525134807825088
1746482494953502200,0.216502197265625,0.14146248061060904,-0.5319581742346287,0.06896130802333354
1746482494963481000,0.226481201171875,0.28993951615840197,-0.5089812032729387,0.1574286960273981
1746482494973459200,0.236459228515625,0.37846447956860063,-0.4979921917468309,0.2567003866404295
1746482494983438300,0.246438232421875,0.5540308898329734,-0.4054360731244087,0.330219796359539
1746482494993417200,0.256417236328125,0.7648875169262289,-0.3767483233004808,0.4936655607193708
1746482495003396400,0.266396240234375,1.0413292536079883,-0.4836912791937589,0.6670265698939561
1746482495013374200,0.276374267578125,1.2468325369745492,-0.5057774387955666,0.7564876451104879
1746482495023353300,0.286353271484375,1.2854115662157535,-0.4082674971580505,0.7612783865183591
1746482495033332200,0.296332275390625,1.2037445058763026,-0.418524102756381,0.7756102787315845
1746482495043311000,0.30631103515625,1.1055816532880067,-0.4606704690903425,0.6650374419033527
1746482495053289200,0.316289306640625,0.9804664963662624,-0.41859599894881244,0.4337286861509084
1746482495063268000,0.32626806640625,0.8530766725108027,-0.33009178606569767,0.20348142215013504
1746482495073247200,0.336247314453125,0.6404609267905355,-0.25240415075123307,0.009842179578542708
1746482495083226000,0.34622607421875,0.2879173626810312,-0.13262334059476852,-0.10942308227121829
1746482495093204200,0.356204345703125,-0.07428922504782676,-0.15690905606746672,-0.17879414013922212
1746482495103183400,0.366183349609375,-0.36747809839099643,-0.15561083295047282,-0.2686462604999542
1746482495113162200,0.376162353515625,-0.6077113343551754,-0.08152209891080855,-0.4167220217704773
1746482495123141400,0.386141357421875,-0.6968868706285953,0.009902385333180427,-0.48749067147672176
1746482495133119200,0.396119140625,-0.7522410935819148,0.1238666181653738,-0.47291152650415896
1746482495143098000,0.40609814453125,-0.8192685109332203,0.10235855071246623,-0.4246574909448623
1746482495153077200,0.4160771484375,-0.8989028964012861,0.005361819294095039,-0.44553953545391556
1746482495163056000,0.42605615234375,-0.9923764221295713,-0.06574526858627795,-0.49916123552620406
1746482495173034200,0.4360341796875,-1.032805170890689,-0.1260883858680725,-0.5673895530998706
1746482495183013000,0.44601318359375,-1.0869222532644867,-0.17988193537592886,-0.6264671804904938
1746482495192992300,0.4559921875,-1.2108026076942682,-0.11657178498208522,-0.6706751555293798
1746482495202971100,0.46597119140625,-1.372193193089962,-0.019751579174399375,-0.6629039370059967
1746482495212949200,0.47594921875,-1.56255312172994,-0.08461597327291966,-0.5767524247288703
1746482495222928400,0.485928466796875,-1.6405378402948378,-0.20318857668340204,-0.49705520315766333
1746482495232907300,0.4959072265625,-1.548915203130245,-0.22313889330029485,-0.4395516932159662
1746482495242885000,0.505885009765625,-1.4684353067487477,-0.25168694239258765,-0.4582160616755485
1746482495252864000,0.515864013671875,-1.5173337776914237,-0.2888169418692589,-0.5304612136751413
1746482495262843100,0.525843017578125,-1.6072643701158462,-0.38551790521144863,-0.5065437469929457
1746482495272822000,0.535822021484375,-1.6530884020492433,-0.5361830984532833,-0.4669067331314087
1746482495282800000,0.545800048828125,-1.5930376918427644,-0.6897346607863902,-0.43246787243485446
1746482495292779300,0.555779296875,-1.4329019288137554,-0.7833394116789102,-0.43732641838192937
1746482495302758100,0.565758056640625,-1.3311872289627789,-0.7400561502695083,-0.42893852926492687
1746482495312737300,0.5757373046875,-1.3348990890927612,-0.6674275519102811,-0.3168184629946947
1746482495322715400,0.58571533203125,-1.3528076707489787,-0.6952794354319572,-0.15851473769843577
1746482495332694300,0.5956943359375,-1.3074286061041056,-0.7451677941948175,-0.020218612164258954
1746482495342673400,0.60567333984375,-1.1989011574983597,-0.7919125942349433,0.09000234248638153
1746482495352652300,0.61565234375,-1.0265512250624595,-0.8498480658531189,0.16177110914587975
1746482495362630100,0.625630126953125,-0.8651362358778715,-0.8811123881667852,0.22624270453453063
1746482495372609000,0.635609130859375,-0.7377262460172176,-0.8467606212317943,0.2800368385642767
1746482495382588200,0.645588134765625,-0.6568949058495461,-0.8664052329003811,0.3464899631589651
1746482495392567000,0.655567138671875,-0.5949513676337898,-0.8897165503829717,0.37591830221712585
1746482495402545200,0.665545166015625,-0.5244467756912112,-0.9124182115346193,0.37116497021019457
1746482495412524300,0.675524169921875,-0.41677331356629727,-0.939946269929409,0.3131266227394342
1746482495422503200,0.685503173828125,-0.3229009977787733,-0.8571113348543643,0.2136351518958807
1746482495432482300,0.695482421875,-0.3297274827979505,-0.8248451420217752,0.13951543819606305
1746482495442460400,0.70546044921875,-0.35594416633322834,-0.8800970736443996,0.04113572798669338
1746482495452439300,0.715439208984375,-0.3530101587079465,-0.9171692054539918,-0.013026070311665534
1746482495462418400,0.72541845703125,-0.3501509698845446,-0.9366951591789722,-0.1261626201480627
1746482495472397300,0.735397216796875,-0.38177915707454085,-0.910745894408226,-0.23830372920632362
1746482495482375200,0.745375244140625,-0.4987177295424044,-0.7984884654939174,-0.3539829492628574
1746482495492354000,0.75535400390625,-0.6425185899727046,-0.6672656393468379,-0.43420740957856174
1746482495502334000,0.765333984375,-0.8266524837046861,-0.5989911445438861,-0.45410570374727244
1746482495512311800,0.775311767578125,-0.9658055183291435,-0.5739332756549119,-0.47512511090040205
1746482495522291000,0.785291015625,-1.0409880389548838,-0.5491881259769201,-0.4721995788425207
1746482495532270000,0.79527001953125,-1.0906104402579366,-0.5493640670657157,-0.4424357242196798
1746482495542249000,0.8052490234375,-1.160093580198288,-0.5311018496662377,-0.39219723684489727
1746482495552227000,0.81522705078125,-1.2771920194029807,-0.5697516060560941,-0.3804962776571512
1746482495562206000,0.8252060546875,-1.3382996913164853,-0.6481973662614822,-0.41005671866238114
1746482495572185000,0.83518505859375,-1.3481892171680927,-0.7342553550362586,-0.41334114716053005
1746482495582164000,0.8451640625,-1.297331721112132,-0.8752911346673965,-0.4309644821345806
1746482495592141800,0.855141845703125,-1.2663754418343305,-0.9574942015796899,-0.44483986275196075
1746482495602121000,0.865120849609375,-1.2909510801643131,-0.9511702592551707,-0.5201344654500484
1746482495612099800,0.875099853515625,-1.3490015564642845,-1.0557792192429303,-0.5952905364602804
1746482495622079000,0.885078857421875,-1.3984119224518536,-1.1704676746964453,-0.6095791740536689
1746482495632056800,0.895056884765625,-1.4115285936564206,-1.2626806789696217,-0.6243120482832193
1746482495642036000,0.905035888671875,-1.429911222565174,-1.3337076873511076,-0.679953271484375
1746482495652014800,0.915014892578125,-1.5433283429086206,-1.3536498206615448,-0.6806137812197208
1746482495661994000,0.924993896484375,-1.6654636072367428,-1.5155489401012658,-0.7303478262037039
1746482495671972000,0.93497216796875,-1.7642226721525192,-1.6792092239946126,-0.7936199826747179
1746482495681951000,0.944950927734375,-1.7788666990548372,-1.7174100675731896,-0.9208511088371276
1746482495691930000,0.95493017578125,-1.7260177369207144,-1.66847155688107,-1.0680629467546938
1746482495701908000,0.964907958984375,-1.6882582073688506,-1.5948843426227568,-1.189403845834732
1746482495711886800,0.974886962890625,-1.563747446081042,-1.586772932359576,-1.185060263672471
1746482495721866000,0.984865966796875,-1.3072259231388568,-1.6433429608434438,-1.0287480044543742
1746482495731844900,0.994844970703125,-1.0042494499485939,-1.7604513369202612,-0.8012959241300821
1746482495741823000,1.004822998046875,-0.6769120040923357,-1.9039198966562747,-0.5603554166793823
1746482495751801900,1.0148017578125,-0.4113758384369314,-2.0134446857362986,-0.3456745551228523
1746482495761781000,1.024781005859375,-0.18779804226271807,-2.157502443537116,-0.15074702630639075
1746482495771759900,1.034759765625,0.005571078130602836,-2.322536938393116,-0.016783961540460586
1746482495781738000,1.044738037109375,0.1468553526300937,-2.4757670136868954,0.02922317187488079
1746482495791717000,1.054717041015625,0.28709245616421103,-2.584463535249233,0.030974399456381797
1746482495801696000,1.064696044921875,0.5284643407694996,-2.5769740562766787,0.023649755656719205
1746482495811675100,1.074675048828125,0.7421889975797384,-2.5748224312007424,0.014967267507314681
1746482495821653000,1.084653076171875,0.595817190682888,-2.6367706455916164,-0.0201034613519907
1746482495831632000,1.0946318359375,0.12055413261651993,-2.8772739306688306,-0.19369652571678161
1746482495841611000,1.104611083984375,-0.17179434437975286,-3.1954929081112144,-0.19459961203634737
1746482495851590000,1.11458984375,-0.3257973037421703,-3.4299107357949015,-0.048179216757416723
1746482495861568000,1.124568115234375,-0.5740676426243037,-3.699800274354219,0.010267126992344855
1746482495871547000,1.134546875,-0.7718062833387405,-3.948978448796272,0.11831716734468936
1746482495881526000,1.144526123046875,-1.0079998154580592,-4.091815140369534,0.33255379226505755
1746482495891504000,1.154504150390625,-1.2267846052020788,-4.169795621150731,0.5245072737067937
1746482495901483000,1.16448291015625,-1.2367185547173023,-4.338215082269906,0.6984066275417804
1746482495911462100,1.174462158203125,-1.0779892974853515,-4.603620168891549,0.872958892327547
1746482495921441000,1.18444091796875,-0.866356717583537,-4.87999322425127,1.0662374848932028
1746482495931419000,1.1944189453125,-0.6742448307096958,-5.173347225028276,1.5156775349169969
1746482495941398000,1.20439794921875,-0.5424994419932365,-5.435207186388969,2.177797043547034
1746482495951377000,1.214376953125,-0.3918857232103124,-5.577271724545955,2.628900642868876
1746482495961356000,1.22435595703125,-0.261509248226881,-5.855870054739714,2.472727499860525
1746482495971334000,1.234333984375,-0.12716394267771391,-6.390456239390373,1.9237153149724004
1746482495981313000,1.24431298828125,0.23170688822455704,-6.970694168147444,1.4623095173448324
1746482495991292000,1.2542919921875,0.6863654766142367,-7.401832837805151,0.9812918412744999
1746482496001270000,1.26427001953125,0.9920296545185148,-7.528485287296771,0.7048030505806208
1746482496011249200,1.274249267578125,0.9709725457035004,-7.130708204492926,0.7690320693850516
1746482496021228000,1.28422802734375,0.594084667801857,-6.460480208209157,1.0020160648733376
1746482496031207200,1.294207275390625,-0.002080751796811819,-5.982961480170488,1.2475421465486287
1746482496041185000,1.30418505859375,-0.7430757903516292,-5.832617189446092,1.5194319190144538
1746482496051164000,1.314163818359375,-1.5051166856750846,-5.711743323355913,1.6080261482685803
1746482496061143000,1.32414306640625,-2.270708259217441,-5.403730682629346,1.3217168053060768
1746482496071122000,1.334121826171875,-3.2165874263271688,-5.341951979586482,0.9372656525433063
1746482496081100000,1.34410009765625,-4.116470858198404,-5.486954324761033,0.48313247626721856
1746482496091079000,1.354078857421875,-4.615726201748847,-5.6702264870971435,-0.033412440258264536
1746482496101058000,1.36405810546875,-4.685610469835996,-5.6963201287746426,-0.7380179224401712
1746482496111037000,1.374036865234375,-4.661823643796145,-5.446323623687029,-1.5827216111421585
1746482496121015000,1.38401513671875,-4.966128954437375,-4.740492106841504,-2.5001556050121785
1746482496130994200,1.393994140625,-5.479283644002676,-3.763579795825481,-3.1952047388195988
1746482496140972800,1.403972900390625,-5.748455974203348,-3.167876586911082,-4.255616878560185
1746482496150951000,1.413950927734375,-4.764875729730725,-2.9663389923051,-5.851482633435726
1746482496160929800,1.4239296875,-2.864791465714574,-1.9026861170776188,-7.548661229363083
1746482496170909000,1.433908935546875,-0.8116904768943786,0.01206336275935173,-9.340027344506979
1746482496180888000,1.44388818359375,-0.3910094883650541,2.9932307986229656,-8.920636980310082
1746482496190866000,1.453865966796875,-2.1934230672240256,5.625210702806711,-6.535710513499379
1746482496200845000,1.463844970703125,-7.5130457261025905,7.282948684227466,-4.235519846948981
1746482496210824000,1.473823974609375,-15.328532430279253,7.810316023540496,-2.340931257739663
1746482496220803000,1.483802978515625,-22.638532787561417,7.605632239863276,-0.21201719530522822
1746482496230781200,1.49378125,-25.819587420475482,7.973035227191447,1.8047358843266963
1746482496240760000,1.503760009765625,-23.543138864040372,8.82179608232975,2.8621587791234253
1746482496250739000,1.513739013671875,-18.719412885934112,10.1182539432168,2.1738947754114863
1746482496260717800,1.5237177734375,-13.605003003042935,12.416361373752355,-0.8782862248301505
1746482496270696000,1.533696044921875,-7.864023063808679,14.32708627424836,-4.050342143252491
1746482496280674800,1.5436748046875,-4.284162589564919,16.414149738425014,-4.048417020408809
1746482496290654000,1.553654052734375,-3.6512329350620507,26.480038703632353,6.7821876122891895
1746482496300632000,1.563632080078125,65.43913342986106,25.277702895510195,21.578350364923477
1746482496310611000,1.57361083984375,120.42338676023482,21.923365579354762,33.18895182087421
1746482496320590000,1.583590087890625,48.51677113444805,29.867483339619636,20.390997021877766
1746482496330569000,1.59356884765625,-41.820376137995716,31.835362790489196,3.0207080036133527
1746482496340547000,1.603547119140625,-16.74188064057827,25.23620184134245,11.16263790822029
1746482496350526000,1.61352587890625,29.526335322010514,5.961571486139297,28.03663218630552
1746482496360504800,1.6235048828125,51.365931900310514,-22.53421433495283,20.52888807374239
1746482496370484000,1.63348388671875,46.98428567259312,-19.51510499870777,14.131423416894673
1746482496380461800,1.6434619140625,30.778434985733032,-8.193461938923598,9.773070386481285
1746482496390441000,1.65344091796875,10.656541320472956,-0.26690672335624693,3.000967530354857
1746482496400419800,1.663419921875,-3.4931098270297047,5.411739801561832,-1.0750979599580168
1746482496410398000,1.67339794921875,-13.014185812604426,7.30709411444664,-3.0142928758740424
1746482496420377000,1.683377197265625,-16.063226176732776,8.558879889914392,-5.332917024737596
1746482496430356000,1.69335595703125,-16.843938162517546,8.47244137738943,-6.144535605439543
1746482496440335000,1.703335205078125,-19.78689364888668,7.096974861717224,-4.445165636947751
1746482496450313000,1.71331298828125,-20.426192253899572,3.9556457977309822,-4.419497527205944
1746482496460291800,1.723291748046875,-16.041154630178212,-0.37450901994109154,-6.449063911181688
1746482496470271000,1.73327099609375,-7.287686818665265,-2.609794375860691,-7.188501637291908
1746482496480249900,1.743249755859375,2.8365502906143663,-1.4206120638221502,-3.794655317568779
1746482496490228000,1.75322802734375,13.300844699656963,0.4688949843391776,2.3533251676276326
1746482496500206800,1.763206787109375,17.438359514927864,-0.27761574889719487,5.461611209189892
1746482496510186000,1.77318603515625,11.016659411489963,-2.349418223316967,5.870611696797609
1746482496520164000,1.7831640625,1.0094704725325108,-1.7806258176818488,3.8011294820189474
1746482496530143000,1.79314306640625,-2.142134778535366,-0.8341296877175569,1.7846382681936024
1746482496540122000,1.8031220703125,-0.09593699323236941,-0.07845891194790601,0.6335112537831068
1746482496550101000,1.81310107421875,2.0178274308651685,0.36646278386861086,0.34771482877880333
1746482496560078800,1.823078857421875,1.4878268204391,0.5789540264263748,1.329188164100051
1746482496570058000,1.83305810546875,-0.8600485573500394,1.350208448036015,2.2317755942329764
1746482496580036900,1.843036865234375,-3.044254298895597,1.9665335892185567,3.0556095133855936
1746482496590016000,1.85301611328125,-4.277486765062808,1.5619557403586803,3.301985782149434
1746482496599993900,1.862993896484375,-4.41405855102241,0.43465486108511686,2.5477333487451075
1746482496609973000,1.872972900390625,-3.963080039384961,-0.4139870438486337,1.0386201407797635
1746482496619951900,1.882951904296875,-3.1201392687022684,-0.5061556244581937,-0.6597331980153918
1746482496629930000,1.892929931640625,-2.008715319126844,-0.4071709340929985,-2.2458441593348977
1746482496639909000,1.9029091796875,-0.5989981588065624,-0.5318202270686626,-3.0963036350846287
1746482496649888000,1.912887939453125,0.9791063139289617,-0.8929812512673437,-3.8498455821320414
1746482496659867100,1.9228671875,2.1410639344334603,-1.0174398439764976,-4.203349223445356
1746482496669845000,1.932844970703125,2.721326997631788,-0.9834584447238593,-4.038671871463954
1746482496679824000,1.942823974609375,2.615687525552511,-0.4493835705962032,-3.5318373248308896
1746482496689803000,1.952802978515625,1.3054273492842912,0.4583854268930852,-2.6072125426739454
1746482496699780900,1.96278076171875,-0.31827216893434523,1.2626711804889141,-1.6864200321562588
1746482496709760000,1.972760009765625,-1.0958405959963797,2.1627594872824845,-1.220146482361853
1746482496719739000,1.98273876953125,-1.241141047334671,4.424127232833206,-0.3241052590020001
1746482496729718000,1.992718017578125,-0.023667291313409805,3.5805081244975328,-1.7344564794421196
1746482496739696000,2.002696044921875,1.0523094973057507,2.9031349326342344,-2.296122248067707
1746482496749675000,2.012675048828125,0.6039163259863853,3.109088005594909,-1.7063514979422092
1746482496759654100,2.022654052734375,-0.0061550154983997345,2.947877160680294,-1.4839663456186651
1746482496769633000,2.032633056640625,-0.7806617169022559,2.7806282046452164,-1.4722902286112307
1746482496779611000,2.04261083984375,-1.4060194748461246,2.333105970941484,-1.9096635548748075
1746482496789589800,2.05258984375,-1.8857295754492283,2.0789608217418194,-2.4292870020627975
1746482496799569000,2.06256884765625,-1.772842616459727,1.5511118363916874,-2.911953322122991
1746482496809547000,2.072547119140625,-0.8124047626435756,0.49810942491833116,-3.6291961675599214
1746482496819526000,2.08252587890625,1.067189671051502,0.5714446737095713,-3.630265550357103
1746482496829505000,2.092505126953125,2.0985914048850534,0.6680237642377614,-3.9346304822310803
1746482496839484000,2.10248388671875,1.168223110640049,0.22392058172989635,-3.4240476889804006
1746482496849462000,2.1124619140625,2.467565002530813,0.788437757731229,-2.034351718556136
1746482496859441200,2.122441162109375,2.654524913468957,1.1736590180836617,-1.3936987763248383
1746482496869420000,2.132419921875,1.6457582052916286,1.3198247079491614,-0.38900034049972887
1746482496879399200,2.142399169921875,-0.8813076184779405,1.7077480668671428,0.22772936289571225
1746482496889376800,2.152376708984375,-0.20968436844348906,1.4290559209100901,1.064894984243065
1746482496899356000,2.16235595703125,0.5414496406793594,1.2894282545112072,1.0838643269985913
1746482496909334800,2.172334716796875,1.8562755174279213,0.3445497888766229,1.0872605453081428
1746482496919313000,2.18231298828125,-0.3069453037559986,0.1759010490462184,0.4822205490540713
1746482496929292000,2.1922919921875,-1.754924097931385,-0.3334301367081702,0.11225815956667065
1746482496939271000,2.20227099609375,-1.3919219759106636,-0.9806872995100915,-0.6245330706227571
1746482496949250000,2.21225,-1.1634890678554772,-1.6675703702576457,-1.5110874306477606
1746482496959228200,2.222228271484375,-1.2588929771244526,-2.147123965124786,-2.23404894599244
1746482496969207000,2.23220703125,-1.6377636994063853,-2.755334188912809,-3.669988196675479
1746482496979186200,2.242186279296875,-1.325450146615505,-3.418994204983115,-4.847549629025161
1746482496989163800,2.252163818359375,0.9710089321911335,-3.358646703787148,-4.814996435944736
1746482496999143000,2.262142822265625,1.5358762733370064,-2.7888243705824016,-3.8845226354986426
1746482497009121800,2.272121826171875,0.35172318763732907,-2.3942563129529355,-1.8490252540387213
1746482497019101000,2.282100830078125,-0.3608931670427322,-1.9063956391200423,0.38906982553936537
1746482497029079000,2.2920791015625,-1.408883047583699,-1.5848589154317974,1.6066227112114428
1746482497039058000,2.302057861328125,-1.7802701361119746,-1.3448995279729365,3.2084973511129617
1746482497049037000,2.312037109375,0.640157852190733,-0.9094362731143831,4.237051878821849
1746482497059016000,2.322015869140625,2.738732890462875,-0.9169073396474122,4.305174982455372
1746482497068994000,2.331994140625,4.188241962945461,-0.9132403415724635,4.209483488416671
1746482497078973000,2.341972900390625,4.423120978400111,-0.7236573886543511,3.3784175721839067
1746482497088952000,2.3519521484375,3.178783180850744,-0.787847536753118,2.368849922887236
1746482497098930000,2.361929931640625,3.534488131600618,-0.46230508455485103,2.267886187534034
1746482497108908800,2.37190869140625,2.9589111803919077,-0.4665992746174335,1.5519681609600782
1746482497118888000,2.381887939453125,1.7008979087114333,-0.5714274303138256,1.078727037175372
1746482497128866800,2.39186669921875,0.9865069455742835,-0.5114502237349748,0.7597374406866729
1746482497138845000,2.401844970703125,0.5286766683459282,-0.7317635382205248,0.5104304522331804
1746482497148824000,2.411823974609375,0.0914589710354805,-1.1139087521284818,0.17351795330196618
1746482497158803000,2.421802978515625,-0.2743231370925903,-1.4534443661049008,-0.17079656551405786
1746482497168781000,2.431781005859375,-0.8075275119960308,-1.897486940999329,-0.5867861813567579
1746482497178760000,2.441760009765625,-1.4958791939914227,-2.2937425133243203,-0.8739416197545826
1746482497188739000,2.451739013671875,-2.2013795791864395,-2.5112778875291344,-1.0630498678330331
1746482497198718000,2.461718017578125,-2.9695079777300357,-2.5004253618642687,-0.8174155034776777
1746482497208695800,2.47169580078125,-3.36370603300333,-2.628526548859477,-0.423830100210011
1746482497218675000,2.481675048828125,-3.157152948322892,-2.9480943105623125,-0.054451136633753776
1746482497228653800,2.49165380859375,-2.730236280274391,-3.2167607370674607,0.12654117113687097
1746482497238633000,2.501633056640625,-2.086555514654517,-3.3560420742467043,0.3410103627040982
1746482497248611000,2.511611083984375,-1.0812293023198842,-3.417645712983608,0.4936958097271621
1746482497258590000,2.52158984375,-0.07447627205252647,-3.498180554422736,0.5653175691314041
1746482497268569000,2.531569091796875,0.605491027957201,-3.5536885066330433,0.6916887905288487
1746482497278547000,2.541546875,0.8726619552075863,-3.5747266184866424,0.6276720262356102
1746482497288526000,2.551526123046875,1.2096715578377246,-3.7035166645288466,0.23667020972035824
1746482497298505000,2.5615048828125,1.554754576808214,-3.4477924294441937,-0.3116207482211292
1746482497308484000,2.571484130859375,1.3781997400283812,-3.2920851503819226,-0.4295514004662633
1746482497318462000,2.5814619140625,0.916713862901926,-2.8721549802199005,-0.6201983293540776
1746482497328440800,2.59144091796875,0.6073363635629415,-2.104367211807519,-0.33604075759798285
1746482497338420000,2.601419921875,0.3394575803041458,-1.5643721538506448,0.37237931443601846
1746482497348398000,2.611398193359375,0.09109481389820576,-0.8355921614855527,1.2162575120992958
1746482497358377000,2.621376953125,-0.11344283930659294,-0.19450009718462824,1.9942143539570272
1746482497368356000,2.631356201171875,-0.10924947926998138,0.46072556027844547,2.854104944266379
1746482497378335000,2.6413349609375,0.5761129577815532,0.9543027120620011,3.4086288783133027
1746482497388313000,2.65131298828125,1.1032114170253275,1.8344174674935638,3.483735557223856
1746482497398292000,2.6612919921875,1.1369792465925217,3.045961687335372,3.4041496870726347
1746482497408271000,2.67127099609375,0.940904885828495,3.681683895166218,3.207562116089463
1746482497418249000,2.6812490234375,0.41503158446550364,4.043603190386295,2.6165254376813767
1746482497428227800,2.691227783203125,0.42094869955480096,4.359512429581582,1.7201327705353497
1746482497438207000,2.70120703125,0.05889291847348213,4.457298557811975,0.6939131155148148
1746482497448185900,2.711185791015625,-0.08190437622666358,4.494349939094484,-0.6361957436267286
1746482497458164000,2.7211640625,0.8063163826406001,4.76540764465034,-1.8071128425911067
1746482497468143000,2.73114306640625,1.7140438060104846,4.902370475754141,-3.03668737077266
1746482497478122000,2.7411220703125,2.8941788882404564,5.129424496671557,-5.141609439983964
1746482497488101000,2.75110107421875,3.047961921241879,5.6037084805727,-6.970651498049497
1746482497498079000,2.761078857421875,2.012207252895832,5.104875161826611,-8.383126432645321
1746482497508057900,2.771057861328125,0.3355179027676582,3.1502754637688395,-8.424143502688407
1746482497518036500,2.781036376953125,-0.039973113948106764,0.8658553439326584,-5.743371218284964
1746482497528014600,2.7910146484375,0.5158201093822717,-0.7081557220093906,-1.1386815204657614
1746482497537993700,2.80099365234375,0.4275391838610172,-1.5252759688675404,1.1457027974046765
1746482497547972600,2.81097265625,0.08760930987000465,-1.5290204160928724,0.6425659362457692
1746482497557951700,2.82095166015625,0.21861586291790008,-0.9806662567220628,-0.683443597818166
1746482497567929900,2.830929931640625,0.5370598812878131,-0.3617218729518354,-1.417657890191674
1746482497577908700,2.84090869140625,1.0182231033086777,-0.36682737939730287,-1.03309670118317
1746482497587887900,2.850887939453125,1.196248597162962,-0.23519977184161542,-0.5126280353426933
1746482497597865700,2.86086572265625,0.614461685398221,0.07067965624853968,-0.4871436116047203
1746482497607844900,2.870844970703125,-0.3447591938436031,0.30827246070653197,-0.3637153848566115
1746482497617823700,2.88082373046875,-0.9672259065210819,0.5015706347554921,-0.31060178043693304
1746482497627802600,2.890802734375,-1.0321791479468345,0.5762099884152412,-0.35789968431517477
1746482497637780700,2.90078076171875,-0.7270809333622456,0.5136740372642874,-0.3747979198850691
1746482497647759600,2.910759521484375,-0.08798048126995563,0.22095205078050492,-0.5136411579079926
1746482497657738800,2.92073876953125,0.466320457676053,0.15214184166565536,-0.5945372338749468
1746482497667716900,2.930716796875,0.670827715742588,0.1706983658365905,-0.6546367516592144
1746482497677695700,2.94069580078125,0.6619254473626613,0.20162527288943527,-0.8435608022771776
1746482497687675000,2.9506748046875,0.6316285087764263,0.180216428027302,-1.1100281113028525
1746482497697653800,2.96065380859375,0.5897065988481044,0.28590046990066764,-1.1469384766794741
1746482497707631900,2.9706318359375,0.5246580803543329,0.4052198000252247,-1.0207548137433826
1746482497717610800,2.98061083984375,0.3781517603576183,0.5019241243682802,-0.8011008399493992
1746482497727589600,2.990589599609375,0.37949148452877995,0.693893095640093,-0.9728511990569532
1746482497737567700,3.000567626953125,0.35299393822550773,0.852541688851267,-0.9381943116955459
1746482497747546600,3.010546630859375,-0.12524842791259289,0.9576954232402145,-0.8249754904031753
1746482497757525800,3.02052587890625,-0.7733949407696723,0.7353694537580013,-0.9114373838037252
1746482497767504600,3.030504638671875,-1.0317781659305094,0.3702396720588207,-0.888015007162094
1746482497777482800,3.040482666015625,-0.7763648964911699,-0.1870557725280523,-0.8208174939408898
1746482497787461600,3.050461669921875,-0.33338439787030216,0.2277006482578814,-0.9811894038133323
1746482497797440800,3.060440673828125,-0.12237667186856269,0.7195055296719074,-1.4322089781135319
1746482497807419000,3.0704189453125,0.22150457009673116,1.4129451824560761,-1.7983184184998273
1746482497817397800,3.080397705078125,-0.1836848347902298,1.3859592681139707,-1.8142757199577986
1746482497827376600,3.090376708984375,-1.319419049757719,0.5893088317021727,-1.4048320186272263
1746482497837355500,3.10035546875,-2.058189251869917,-0.3356508814975619,-0.8443453767836093
1746482497847333600,3.110333740234375,-2.3763819258272645,-0.7528589332193136,-0.39215135187655686
1746482497857312800,3.120312744140625,-1.7101292629152536,-0.9333569546669721,-0.18035919749885795
1746482497867291600,3.130291748046875,0.03221007873117924,-0.9958642642453313,0.06321487332582473
1746482497877269800,3.140269775390625,1.5003782589763401,-0.989519863654673,0.35803836213350293
1746482497887248600,3.15024853515625,2.1177678145200014,-0.8210089248597622,0.32960634063631294
1746482497897227800,3.160227783203125,1.8716086956381797,-0.5466168141841888,0.2366808041796088
1746482497907206700,3.17020654296875,0.8933020076543092,-0.5497118575900792,0.23938801731169224
1746482497917184800,3.180184814453125,-0.11217267324030399,-0.6413751190260052,0.08280921611189841
1746482497927164000,3.190163818359375,-0.8375602466881275,-0.7255477324455976,-0.4015443263828754
1746482497937142500,3.200142578125,-1.2255804901093243,-0.9172013541579246,-0.5580486010417341
1746482497947120600,3.21012060546875,-0.7794540946781635,-0.8056012201085686,-0.9438707498967647
1746482497957099800,3.220099853515625,0.4927426006555557,-0.5286600094720721,-0.9577180734634398
1746482497967078700,3.23007861328125,1.2482570168197153,-0.6553109976589679,-0.9691773328498006
1746482497977057800,3.240057861328125,0.9918523982554673,-0.8648851837262511,-0.9537328032195568
1746482497987035600,3.25003564453125,0.27145547270178794,-0.823413063392043,-0.9858055193066596
1746482497997014800,3.260014892578125,0.0424117392718792,-0.5340858339130878,-1.092684762313962
1746482498006993700,3.26999365234375,0.18994857136011123,-0.32568215292990205,-1.0146946369215846
1746482498016971800,3.2799716796875,0.04026069871783256,-0.16827829908281564,-1.0526450128704308
1746482498026951000,3.289950927734375,-0.008030161720514297,0.07649374935477972,-1.007983448845148
1746482498036929500,3.299929443359375,-0.36373628151416776,-0.0006146247670054436,-0.7624523987337947
1746482498046908700,3.30990869140625,-0.4585550843715667,-0.009752747729420662,-0.739081460018456
1746482498056886800,3.31988671875,-0.32306524842977524,0.15457272207438943,-0.6183861653655767
1746482498066865700,3.32986572265625,-0.30388825427293775,0.06410246981531381,-0.42918812011182306
1746482498076844800,3.3398447265625,-0.4325935446411371,-0.269672388677299,-0.523684266886115
1746482498086822700,3.34982275390625,-0.3266343390882015,-0.37983284531235695,-1.0035387443959713
1746482498096801800,3.3598017578125,0.25548575015366076,-0.11103840851336717,-1.142043544244766
1746482498106780700,3.36978076171875,0.4782815291047096,-0.27703444187790155,-0.717035047905147
1746482498116759800,3.379759765625,0.6185352184474467,-0.39039077194482086,-0.700205201396346
1746482498126738000,3.389738037109375,0.4599439083814621,-0.29693711996078487,-0.719823217318952
1746482498136716500,3.399716552734375,0.24666823744773864,-0.25709523117691274,-0.5936904077872633
1746482498146695700,3.40969580078125,0.32550036662220955,-0.230949274790287,-0.4806313071012497
1746482498156673800,3.419673828125,0.7383306416511535,-0.21358575979620217,-0.2898991841480136
1746482498166652700,3.429652587890625,0.8044640327721834,-0.46897944775223727,-0.2265525011360645
1746482498176631800,3.4396318359375,0.872750218012929,-0.26931816841214895,-0.19717296965569256
1746482498186609700,3.449609619140625,0.9693687637686729,-0.15158669200092553,-0.20019787043482065
1746482498196588800,3.4595888671875,0.8580588448375464,0.1308247667402029,-0.3783671566739678
1746482498206567700,3.469567626953125,0.1414911221832037,0.037514322619140145,-0.2792065252199769
1746482498216546800,3.479546875,-0.8205261097788811,-0.47902679451406,-0.30738252612948413
1746482498226525000,3.48952490234375,-0.7073322767972946,-0.09404518813639878,-1.2578002134516835
1746482498236503800,3.49950390625,0.15617255848646164,0.0503717583656311,-0.4684516244858503
1746482498246482700,3.509482666015625,0.8913029427915811,-0.503245874491334,-0.13934212745577096
1746482498256460500,3.51946044921875,0.9638520461738109,-0.7093143905252218,-0.7136380989432335
1746482498266439700,3.529439697265625,0.8252794417858124,-0.7058411614567041,-0.6121288585364818
1746482498276418600,3.53941845703125,0.7471896554112434,-0.7268573537394404,-0.22353125361874698
1746482498286397700,3.549397705078125,0.9375134898245334,-0.6457939583815634,-0.4770616319209337
1746482498296375800,3.559375732421875,0.6087444767951965,-0.5814085799716413,-0.3233211228869855
1746482498306354700,3.569354736328125,0.8976140256345272,-0.593017623092234,-0.5346111729614437
1746482498316333800,3.579333740234375,1.158235969632864,-0.5872996838368475,-0.4362118812687695
1746482498326312000,3.58931201171875,0.6764543234527111,0.0263568226583302,-0.1174851004347205
1746482498336290800,3.599290771484375,-0.10373509976267814,0.3365501684248447,-0.33550606619939205
1746482498346269700,3.609269775390625,-0.8555594292372465,0.36952940489761527,-0.49241577985398466
1746482498356248600,3.61924853515625,-0.15070786333978176,1.0233293404065071,-0.29455870039165016
1746482498366226700,3.629226806640625,1.1744880162537097,1.8057389238893984,-0.2815526499547064
1746482498376205600,3.63920556640625,2.0515654498159885,-0.3778061983229592,-1.1904523319743574
1746482498386184700,3.649184814453125,2.433148353666067,1.7028355987757444,-0.08759812175570987
1746482498396162800,3.659162841796875,3.619432021653652,2.632187701715529,0.02689816299341619
1746482498406141700,3.6691416015625,5.310293104997277,2.882583142992854,-0.5225386039823293
1746482498416120800,3.679120849609375,6.151342362844944,3.2555104467004536,-1.5227828368775547
1746482498426099700,3.689099609375,5.817513728338479,4.2076513045534485,-1.5269555925175546
1746482498436077800,3.699077880859375,5.0451148128688335,4.229861090534925,-1.3877254010036586
1746482498446056700,3.709056640625,4.3131437693774695,4.416991681864857,-3.157655052626133
1746482498456035600,3.71903564453125,5.501762017792463,4.869557754954696,-3.6421427428945896
1746482498466013700,3.729013671875,5.826903487974405,4.630208316087723,-2.947319234536588
1746482498475992600,3.73899267578125,3.3865947411596773,3.9398458787918087,-1.961699300929904
1746482498485971700,3.7489716796875,0.663188599166274,3.3288410558491943,-1.26633920147717
1746482498495949800,3.75894970703125,-0.895505070656538,2.345255112288147,-1.0512637876451014
1746482498505928700,3.7689287109375,-2.215954047983885,1.4958423691123723,-0.6104144558340311
1746482498515907800,3.778907958984375,-2.477141809171438,1.227546091093868,-0.3489122218698263
1746482498525886700,3.78888671875,-1.9015519984811544,0.7844073331713676,-0.8120119639337062
1746482498535864800,3.79886474609375,-1.229413784661889,0.02157733329683542,-1.313872521546483
1746482498545843700,3.80884375,-0.39934652407765386,-0.5871661205850541,-1.3945529089361428
1746482498555822800,3.81882275390625,0.20978081455528735,-1.1796326856657862,-0.8047486949324607
1746482498565801000,3.828801025390625,0.4703828848093748,-1.6727081715375185,-0.21896657605171202
1746482498575779800,3.83877978515625,0.38546471371948715,-1.8339777609020471,-0.1781207709223032
1746482498585759000,3.848759033203125,0.18178104699552058,-1.8740739167079328,-0.1821031185567379
1746482498595737900,3.85873779296875,0.4102700691521168,-2.0877382946982976,0.05281505986452102
1746482498605715700,3.8687158203125,1.210006488880515,-2.1766285842895505,0.21725626500248907
1746482498615694800,3.87869482421875,2.1423241636276242,-2.403931319271028,0.655508566057682
1746482498625673700,3.888673828125,2.926833788129687,-2.6482980017781257,1.3678449347525834
1746482498635651800,3.89865185546875,3.3602269587159155,-2.736409123690426,2.2189251727491617
1746482498645630700,3.908630615234375,3.479856962224841,-2.858938648033142,2.959009380069375
1746482498655609900,3.91860986328125,3.2903327537566422,-2.9289760608553883,3.4126796150088308
1746482498665588700,3.928588623046875,2.7791785903587938,-2.833554323668778,3.584830663871765
1746482498675566800,3.93856689453125,2.4053642746835946,-2.849680113561451,3.5993297293454405
1746482498685546000,3.9485458984375,2.214388698363304,-3.050928954353928,3.3445828148603436
1746482498695524900,3.95852490234375,1.733996460714936,-3.2770550467714665,2.9263275921732186
1746482498705502700,3.968502685546875,1.4173948553413152,-3.4572672370150683,2.7213965557366606
1746482498715481900,3.97848193359375,1.0964157655358313,-3.5558196734428402,2.8904221660554406
1746482498725460700,3.988460693359375,0.45178982802033424,-3.4933208394318815,3.1405408362179994
1746482498735438800,3.99843896484375,-0.46042730798423287,-3.420413424131274,3.3369232400178905
1746482498745417700,4.008417724609375,-1.3533102134436368,-3.397460418567061,3.4211475836247205
1746482498755396900,4.01839697265625,-2.025211695897579,-3.338918797749281,3.295713862273097
1746482498765375700,4.028375732421875,-2.6872271596312522,-3.293018924100697,2.977452799254656
1746482498775353900,4.038353759765625,-3.266162773618102,-3.4494691304847596,2.5210177757769823
1746482498785333000,4.0483330078125,-3.607079905080795,-3.7499788482353087,2.050140969970822
1746482498795311900,4.058311767578125,-4.020180521483719,-4.004089510643482,1.7692846317172048
1746482498805289700,4.068289794921875,-4.493033888059855,-4.21345882178843,1.7693401612967252
1746482498815268900,4.078268798828125,-4.784130465298891,-4.4685251774862405,1.8261890067219733
1746482498825247700,4.088247802734375,-4.9902276229053735,-4.6237294754624365,1.7686276291131973
1746482498835227000,4.098226806640625,-5.5293461902886625,-4.746883853705227,1.4895792170643805
1746482498845204700,4.108204833984375,-6.167506146660447,-5.014717921039462,0.8912246168583631
1746482498855184000,4.118183837890625,-6.492829987671971,-5.347558129030466,0.43440731606483457
1746482498865162800,4.128162841796875,-6.260163972091674,-5.452184040153027,-0.030668694508075713
1746482498875140900,4.138140869140625,-5.413672815451026,-5.3284594608068465,-0.020717209336161613
1746482498885120000,4.1481201171875,-4.120975183880329,-5.0335342651903625,0.45040626470744605
1746482498895099000,4.158098876953125,-2.8064281240731477,-4.564092168362438,1.1020517255961895
1746482498905078000,4.168078125,-1.9883061528265475,-3.9953713666588064,1.5968918830528855
1746482498915055900,4.178055908203125,-1.970209355121851,-3.1121774960428477,1.3554878497436642
1746482498925034800,4.18803466796875,-2.492017306742072,-2.1682598382644356,0.7311731711119412
1746482498935014000,4.198013916015625,-2.8897698396265503,-1.463570915582776,0.160756086884439
1746482498944991700,4.20799169921875,-3.3131822989463804,-0.7287240243941545,-0.5175318817362189
1746482498954971000,4.217970947265625,-4.123299827435613,-0.08393683190234005,-0.9452499292954802
1746482498964949800,4.22794970703125,-5.160350380811095,0.3706697705717757,-0.9176926448062062
1746482498974928000,4.237927978515625,-6.107962070801854,0.6341217868968844,-0.8266044067792594
1746482498984907000,4.247906982421875,-7.059059264820814,0.5254474771663546,-0.92781247228235
1746482498994886000,4.257885986328125,-7.723390604281425,0.16964366915188728,-1.2052649934418498
1746482499004865000,4.267864990234375,-7.6898659358203405,-0.34737931321412324,-1.8235661108724772
1746482499014842600,4.277842529296875,-7.050361579102277,-0.8793357338830828,-2.6896789366975424
1746482499024821800,4.28782177734375,-6.02781067572236,-1.1558882374629378,-3.6915047396957874
1746482499034800600,4.297800537109375,-4.970436880764365,-1.2985187389396131,-4.783902501761913
1746482499044778800,4.30777880859375,-4.0804479431808,-1.232832068672776,-5.61275337229371
1746482499054758000,4.3177578125,-2.8065795152425763,-0.7831400897145271,-6.5085729157269
1746482499064736800,4.32773681640625,0.03981996921300888,0.031900236463872716,-6.868000101870298
1746482499074715000,4.33771484375,10.043735585588216,2.9754084339454767,-5.201292632052302
1746482499084694000,4.347694091796875,31.369164497888086,5.698747063660622,-2.5526030006080864
1746482499094673000,4.3576728515625,56.44828426468372,4.347228994330764,4.023574840097129
1746482499104652000,4.367652099609375,30.030822136473653,4.350613083811104,5.166530530750751
1746482499114629600,4.377629638671875,6.0419876696348185,9.030366936573385,0.7680429122172295
1746482499124608800,4.38760888671875,-7.510705300456285,6.827795517253875,0.7618187770053744
1746482499134587600,4.397587646484375,-11.44494327623844,1.6224306673265994,-0.4693967963814735
1746482499144565800,4.407565673828125,-4.003044385504722,-1.3948419550105928,1.9826039956621824
1746482499154545000,4.417544921875,6.763859343916177,-1.294741412357986,1.301845106883347
1746482499164523800,4.427523681640625,10.526695627897977,0.054657107534632085,-1.4255245319135486
1746482499174503000,4.4375029296875,5.5394660177648065,1.259177347023785,-1.7719183412216604
1746482499184481000,4.44748095703125,-1.859166562694311,1.8683510090164839,-1.2640158730961382
1746482499194460000,4.4574599609375,-6.966638170754909,1.2203438315648585,-1.130284278998524
1746482499204439000,4.46743896484375,-9.699663789486884,-0.07546966700404882,-0.9334156991168856
1746482499214416600,4.477416748046875,-9.140009799075125,-1.929046739128232,-0.41555458542630075
1746482499224395800,4.487395751953125,-4.720736728274822,-2.7220406988590953,0.32986163057163354
1746482499234374700,4.497374755859375,0.5525216543138027,-1.418950852611661,0.3398217374414205
1746482499244352800,4.507352783203125,4.048949227589368,-0.5109070567689836,-0.143718296713382
1746482499254332000,4.517331787109375,4.403932878327369,0.11743110522516072,-0.6029299452975392
1746482499264310800,4.527310791015625,2.6954455374002455,0.18457506162822246,-0.5637886059984565
1746482499274290000,4.5372900390625,0.9967857630044221,-0.21972075541988015,-0.4371465317703783
1746482499284267800,4.547267822265625,0.1938531775832176,-0.3477637824870646,-0.39174496303275225
1746482499294247000,4.557246826171875,0.6734066263198852,-0.34380846899002787,-0.4840089668408036
1746482499304226000,4.56722607421875,1.7987550563514232,-0.3166974669635296,-0.6508307835049927
1746482499314203600,4.57720361328125,2.085813171854615,-0.26968919368162747,-0.7320059686742723
1746482499324182800,4.587182861328125,0.845067845839262,-0.16505005775131285,-0.5585314161226153
1746482499334161700,4.59716162109375,-0.7949597068458795,-0.1991674314085394,-0.39333749292120335
1746482499344139800,4.607139892578125,-1.5214619635373352,-0.301380216974765,-0.2673851545229554
1746482499354119000,4.617118896484375,-1.194911211079359,-0.24194551977477965,-0.21856910116672515
1746482499364097800,4.627097900390625,-0.14556582427620887,-0.3831878548286855,-0.18700550364553928
1746482499374077000,4.637076904296875,0.2081102509945631,-0.5123340208321809,-0.27692718211114403
1746482499384054800,4.6470546875,-0.1621826125562191,-0.6606275165066122,-0.4114904047273099
1746482499394034000,4.657033935546875,-0.2644318576753139,-0.6693083972208201,-0.34611543075814843
1746482499404012800,4.6670126953125,-0.02542553315758705,-0.5481845749575645,-0.27213994783461093
1746482499413990700,4.67699072265625,0.1364975516796112,-0.4054921872258186,-0.25448066476434467
1746482499423969800,4.6869697265625,0.10839490826725959,-0.35125929645262655,-0.31081176992580295
1746482499433948700,4.69694873046875,-0.03817980079054832,-0.2595643247041851,-0.35388606475964185
1746482499443926800,4.7069267578125,0.07966039669215678,-0.2596582865979522,-0.40415363209843636
1746482499453906000,4.716906005859375,0.4398340172886848,-0.13435381764918564,-0.39284401031583543
1746482499463884800,4.726884765625,0.49964112799763677,-0.15677702718563377,-0.31107728899419307
1746482499473864000,4.736864013671875,0.31622517327666283,-0.2382381166242063,-0.19917568778023123
1746482499483841800,4.746841796875,0.20707623177170753,-0.3172129422049969,-0.17620003199279308
1746482499493821000,4.756821044921875,-0.004514847075939178,-0.4618959192320704,-0.06311389716938137
1746482499503799600,4.766799560546875,-0.30879122388362884,-0.5731831148747354,-0.06257394507378339
1746482499513777400,4.77677734375,-0.36055882052183147,-0.5326161997519433,-0.1471640532530844
1746482499523756500,4.786756591796875,-0.3212158211708069,-0.5626376823976635,-0.14590060918852685
1746482499533735400,4.7967353515625,-0.3657125500231981,-0.6319849940638989,-0.15850845408812164
1746482499543714600,4.806714599609375,-0.16680384261608122,-0.6469441513299942,-0.2992589870370924
1746482499553692700,4.816692626953125,0.14417583122253416,-0.7867574764940887,-0.5568019619815051
1746482499563671600,4.826671630859375,0.3450304120004177,-0.8209176663797348,-0.6410942562580109
1746482499573650700,4.836650634765625,0.49091187809705733,-0.6790510619476438,-0.6118078098885714
1746482499583628500,4.846628662109375,0.6002034429430961,-0.5006880797673017,-0.4529560953207314
1746482499593607400,4.856607421875,0.34616906064152714,-0.46387474502436815,-0.2714922975808382
1746482499603586600,4.866586669921875,0.07341711838841437,-0.5506637514874339,-0.11630363556519151
1746482499613564400,4.876564453125,0.10716682777702807,-0.5685130041718482,0.16830825582966208
1746482499623543600,4.88654345703125,-0.03793780872821808,-0.45370099540390074,0.5871591063223779
1746482499633522400,4.8965224609375,-0.16024609153568745,-0.38685909068733454,0.7664531588077544
1746482499643500500,4.90650048828125,-0.24004911156892775,-0.17839995318986474,0.6772707544021308
1746482499653479700,4.916479736328125,-0.24938626423478125,-0.001383271051943302,0.5229933620125055
1746482499663458600,4.92645849609375,-0.19718553687632082,0.12895579453054815,0.1831670945264399
1746482499673437700,4.936437744140625,0.024532968232035636,0.3741773768339306,-0.22704218434914944
1746482499683415300,4.946415283203125,0.13893851509094238,0.7111334957111627,-0.44678778194934127
1746482499693394400,4.95639453125,0.33883214188218114,0.9938238444589078,-0.5268227110423147
1746482499703373300,4.966373291015625,0.16205401774048805,1.124249821139872,-0.4874116148911416
1746482499713351400,4.976351318359375,0.017006079858541488,1.4545114108145236,-0.4187611263826489
1746482499723330600,4.98633056640625,0.2661713948190212,2.0705723481029272,-0.02389876198172569
1746482499733309400,4.996309326171875,0.5378256049633026,3.1062206334650515,0.8909975301042199
1746482499743288600,5.00628857421875,0.8404536300420761,4.18063557959497,1.8109572430595755
1746482499753266700,5.0162666015625,0.8821668656557798,5.190829690226912,2.562055304086208
1746482499763245600,5.02624560546875,0.32457565299272534,5.924640808627009,3.029887335368991
1746482499773224700,5.036224609375,-0.4993734169721603,6.441265220129489,2.9017396788835526
1746482499783202300,5.046202392578125,-1.1925988424837588,6.7982888522624965,1.9746363777838647
1746482499793181400,5.056181396484375,-1.51095284448266,5.87122602930367,0.4115231379531324
1746482499803160300,5.066160400390625,-0.9539011455237865,3.74642349384129,-2.152402782310545
1746482499813138400,5.076138427734375,-0.3408218543946743,1.5621632456295191,-4.722162669424712
1746482499823117600,5.08611767578125,0.26539865688085557,0.2644222130641341,-6.664999156713486
1746482499833096400,5.096096435546875,1.0554022026240826,-1.4988377515360711,-9.34086262628734
1746482499843074600,5.106074462890625,2.052250509470701,-3.652009180131554,-12.389917603462933
1746482499853053700,5.1160537109375,1.9149720365464686,-5.1763627734571696,-14.41049170268774
1746482499863032600,5.126032470703125,0.08350012098550796,-5.215968223136663,-14.181501745271682
1746482499873011700,5.13601171875,-1.373056531921029,-3.9982431227028368,-12.394889546656607
1746482499882989300,5.1459892578125,-1.5171902775675057,-3.3997096587985753,-10.568161610752343
1746482499892968400,5.155968505859375,-0.7115268058776855,-3.7380876271724697,-8.290127246430515
1746482499902947300,5.165947265625,-0.7654033574938773,-3.415639633858204,-5.584060361772775
1746482499912925400,5.175925537109375,-1.2061433837115765,-2.9382538845494386,-4.060196890051663
1746482499922904600,5.185904541015625,-1.0470984846591949,-3.004595365463197,-2.8424335034340618
1746482499932883500,5.195883544921875,0.4206728052228689,-2.7562831602007147,-0.9387493152298033
1746482499942861600,5.205861572265625,1.208501345014572,-1.756901681614667,0.3790872145768255
1746482499952840400,5.21584033203125,1.07538116081357,-1.0158890343379228,1.3790294688507914
1746482499962819600,5.225819580078125,0.3798918820232153,-0.6272020706363022,1.9989747002266347
1746482499972798500,5.235798583984375,-0.18709961166977881,-0.43272535432726145,2.7531942542746664
1746482499982776300,5.2457763671875,-0.5165630367040633,-0.19887805654052643,3.6194787834048268
1746482499992755500,5.25575537109375,-1.3670312802821396,0.06617781478464603,4.175007510580122
1746482500002734300,5.265734375,-2.143979529619217,0.008380655658617616,4.805948329353332
1746482500012712400,5.27571240234375,-1.8770611158251762,0.03492321014739573,5.843315693593025
1746482500022691600,5.285691650390625,-1.5542203238010406,1.8708589001841842,7.1535349533289665
1746482500032670500,5.29567041015625,-1.7130723306298254,4.152228400278092,7.712482256776094
1746482500042648600,5.305648681640625,-2.0643056889235973,4.663165413793921,5.6593795143902295
1746482500052627500,5.31562744140625,-2.457299629104137,4.254645987701416,3.260274300101399
1746482500062606600,5.325606689453125,-2.9252982491254804,2.8714576456055045,0.8604872410282493
1746482500072585500,5.33558544921875,-2.1086048493772744,1.3205088908210396,-0.3720709791392088
1746482500082563300,5.345563232421875,0.8257260165095329,0.14034385184422135,-1.2999001102954149
1746482500092542500,5.35554248046875,3.3406665181994435,-0.8143190718322992,-0.17147621834129095
1746482500102521300,5.365521240234375,3.368264134699106,-1.3277065472401677,0.7316188690528274
1746482500112499500,5.37549951171875,2.091834916362166,-1.310118137449026,-0.19237930563837288
1746482500122478600,5.385478515625,0.8859680115044116,-1.6341878867462276,-0.8964458586379885
1746482500132457500,5.39545751953125,0.0183563254237175,-1.3533128437921405,-0.4140317597731948
1746482500142435600,5.405435546875,0.13407763105630874,-0.6168690388008952,0.3702700671970844
1746482500152414500,5.41541455078125,0.33539047699570657,-0.16542115608602762,0.6870432297453284
1746482500162393600,5.4253935546875,0.42109249193966386,0.13902210172116755,0.5979556640163064
1746482500172371700,5.435371826171875,0.6947486895561218,0.10523235258311033,0.09089110801964997
1746482500182350300,5.445350341796875,0.3694844697773456,-0.19168430911153553,0.1657829751357436
1746482500192329500,5.45532958984375,0.43758360801339147,-0.5063970319986343,-0.3272229526311159
1746482500202308400,5.465308349609375,0.7227946343451738,-0.8134595323935151,-0.580585719281435
1746482500212286500,5.475286376953125,0.9626204585522413,-0.6707295160651207,-0.564977523522079
1746482500222265600,5.485265625,0.8996417320698499,-0.496106524130702,-0.5909554298654198
1746482500232244500,5.495244384765625,0.5172971961975097,-0.3074684508472681,-0.3952306131914258
1746482500242222600,5.50522265625,0.49322483121454713,-0.30114041686952114,-0.2619093534603715
1746482500252201500,5.515201416015625,0.36473932107686996,-0.3600134615987539,-0.2705053323701024
1746482500262180600,5.5251806640625,0.020675708281993863,-0.33447043954133987,-0.15656711076200008
1746482500272158700,5.53515869140625,0.15782675543427466,-0.3055585255727172,0.043430268664658066
1746482500282137300,5.545137451171875,0.6579004296302795,-0.4031120140910148,0.033088907392323015
1746482500292116500,5.555116455078125,0.5647533593773841,-0.3338300958111882,-0.15700696348398924
1746482500302094300,5.56509423828125,0.3375193057179451,-0.14693419001996516,-0.4045356171533465
1746482500312073500,5.575073486328125,0.26893969048857685,0.10297697487175464,-0.48469519553929563
1746482500322052400,5.58505224609375,0.2514052028417587,0.07809007863551377,-0.365600906342268
1746482500332031500,5.595031494140625,0.5787129111468792,-0.08976005816310643,-0.22510990111231802
1746482500342009600,5.605009521484375,1.104298043218255,-0.19259762456417082,-0.18780659089535473
1746482500351988500,5.614988525390625,0.9926257207155227,-0.38589433730840683,0.09808891056925058
1746482500361967600,5.624967529296875,0.8121732919752598,-0.49522331155538557,0.2900575895801186
1746482500371945700,5.63494580078125,0.9894383228510618,-0.4595099008783698,0.3458797223061323
1746482500381924600,5.644924560546875,0.8562228615820408,-0.5105021292299032,0.45739334711581464
1746482500391903500,5.654903564453125,0.7884744364798069,-0.44620998206138607,0.4985092013582587
1746482500401881300,5.66488134765625,0.7564011358708143,-0.16350713915824888,0.293555660828948
1746482500411860500,5.674860595703125,0.5188508553802966,-0.3196478412017226,0.5749912602752447
1746482500421839400,5.68483935546875,0.9809744458884,-0.20230887123942373,0.45054391961246726
1746482500431817500,5.6948173828125,1.1865139696121214,-0.12179185771793126,0.38420799165666103
1746482500441796600,5.704796630859375,0.816134012299776,-0.23219927485138175,0.32062779214978215
1746482500451775500,5.714775390625,0.22289573219418524,-0.22363222977519034,0.5186480262845754
1746482500461754600,5.724754638671875,0.32166999467909335,0.2215229825362563,0.87238459957093
1746482500471732700,5.734732666015625,0.35740240231752396,0.23807518114745616,1.3728218463823199
1746482500481711600,5.744711669921875,0.41086277434825896,-0.19113339723050593,1.4111954161792992
1746482500491690500,5.7546904296875,0.5908452474892139,-0.3775920806482434,1.5984578171953558
1746482500501668400,5.76466845703125,0.33219489582479,-0.5757922013945878,1.58891535121575
1746482500511648000,5.77464794921875,0.06474281354546546,-0.9076920597955584,1.150743421920389
1746482500521627000,5.784626953125,-0.15239303994774817,-0.7571404099307953,0.6908795930378139
1746482500531605000,5.79460498046875,-0.6166162330836057,-0.4352648096770048,0.4654797690682113
1746482500541584100,5.804584228515625,-1.4299141451746225,0.44142727782949803,0.39241657868400215
1746482500551563000,5.81456298828125,-1.2848469180703161,1.1425193450629711,-0.05363609392382204
1746482500561541000,5.824541015625,-1.047549735558033,1.0037789828926325,-0.6529477025937288
1746482500571519700,5.834519775390625,-0.9409604154080152,0.5842980178028345,-0.59703504204005
1746482500581499000,5.844498779296875,-0.5459381842702626,0.5386925970561802,-0.6666792177610099
1746482500591477800,5.854477783203125,-0.11852817974686622,0.8846470650989562,-0.48854854649920015
1746482500601455900,5.864455810546875,1.0662123504519463,1.7362196897223592,-0.6951220529131591
1746482500611435000,5.87443505859375,1.668253530216217,2.513084644690156,-1.385585466365516
1746482500621414000,5.884413818359375,1.9005524660497903,3.268377819319069,-2.132056159852445
1746482500631392000,5.89439208984375,3.054364774021506,3.782601599420607,-3.215260853898525
1746482500641371100,5.90437109375,4.630353277516365,3.8671635044187305,-4.547286579512059
1746482500651350000,5.91435009765625,5.461062927657365,4.248523120906949,-5.619367237475514
1746482500661328100,5.924328125,5.190139369875192,4.239546910507976,-5.112472777348756
1746482500671307000,5.93430712890625,4.628112805113196,4.090352082079649,-4.471373844915628
1746482500681286000,5.944285888671875,4.8916404074251645,4.297074385847151,-3.114707306781411
1746482500691264000,5.954263916015625,4.507295053124428,4.474560950519145,-1.2449246575266122
1746482500701243000,5.964242919921875,3.8271027121871706,4.521872444531321,0.08045417741835117
1746482500711222000,5.974221923828125,2.7592998776733872,4.95584370726645,1.3979104026705025
1746482500721201000,5.984200927734375,0.8804664914786815,4.927658646267652,2.9815590655297037
1746482500731179000,5.994178955078125,-0.9599354572519659,4.4861575725495815,4.142808830025792
1746482500741158000,6.004157958984375,-2.259011099421978,3.891165726774931,4.7912166241675616
1746482500751137000,6.014136962890625,-3.1690488455608485,2.59684341661185,4.948318572458625
1746482500761115100,6.024115234375,-2.8780966452285646,1.616959250178188,4.2914521620512005
1746482500771094000,6.034093994140625,-1.915992465635389,0.9043794281162321,3.299573460310697
1746482500781073000,6.044072998046875,-0.9049087126873433,-0.22158961803168056,2.0307792668968436
1746482500791051000,6.054051025390625,0.1344399615626782,-1.3477015797816216,0.6502765106230974
1746482500801030000,6.06402978515625,1.2287450916200875,-2.0966836715675887,-0.44230362227261066
1746482500811009000,6.074009033203125,1.9925660022281109,-2.6337939678683875,-1.3443091608643531
1746482500820987000,6.08398681640625,1.9821810940749942,-3.0666677907556292,-2.093984203350544
1746482500830966000,6.093966064453125,1.5386474916160107,-3.07090937384814,-2.320745963323116
1746482500840945000,6.10394482421875,1.009404713819921,-2.395303776179254,-1.9019173246622085
1746482500850923000,6.113923095703125,0.39359950485825534,-1.7327638501800595,-1.2664607820302247
1746482500860902100,6.123902099609375,-0.4489934753000736,-1.5483388645470142,-0.6781909379869699
1746482500870881000,6.133881103515625,-1.3587322384923697,-1.3664949814483522,-0.00009235445857048034
1746482500880860000,6.14385986328125,-1.8856600173443554,-0.9416143492721021,0.8097083631664515
1746482500890838000,6.153838134765625,-2.122770152851939,-0.6634354865994304,1.3438286838710307
1746482500900817000,6.16381689453125,-2.141279038488865,-0.6120262749448419,1.5948995401918886
1746482500910796000,6.173796142578125,-1.804509089833498,-0.5942247338596731,1.7351637509286402
1746482500920774000,6.18377392578125,-1.343981244084239,-0.49984969271440055,1.7222423100352287
1746482500930753000,6.1937529296875,-0.9083376642227172,-0.4801577347727492,1.575721376991272
1746482500940732000,6.20373193359375,-0.4662485614836216,-0.4283812607083469,1.3067781793713569
1746482500950710000,6.2137099609375,-0.01331599316895008,-0.452352247676067,0.9675357031226157
1746482500960689200,6.223689208984375,1.140249646565318,-0.603241787725687,1.032086793488264
1746482500970668000,6.23366796875,1.932375591289997,0.1388185054404661,1.002125370466709
1746482500980646000,6.24364599609375,1.3975555978834628,0.5071294013937935,1.3809317953407763
1746482500990625000,6.253625,0.6957441303342581,0.2550331475479528,1.6812129650324583
1746482501000604000,6.26360400390625,0.4909025257468223,0.2850815182005986,2.004808374816179
1746482501010582000,6.27358203125,0.5307517210543156,0.5090833119405433,2.29675543140471
1746482501020561000,6.283560791015625,0.4413327314138412,0.43851445912271736,2.3055881416797637
1746482501030540000,6.2935400390625,0.17832886071503162,0.22768398938402531,2.2293027743786573
1746482501040519000,6.303518798828125,-0.00554302107989788,0.20853249499462545,2.0639263342171907
1746482501050497000,6.3134970703125,-0.057795186364650725,0.2861141857165843,2.0833768846184015
1746482501060476200,6.32347607421875,-0.07899228817224502,0.06464205658473074,2.539105221131444
1746482501070455000,6.333455078125,0.02740063262283802,-0.4104769168358296,3.3780157133847473
1746482501080433000,6.343432861328125,0.23803660270273683,-1.0602466469805687,4.371031310200691
1746482501090411800,6.353411865234375,0.4471639217853546,-1.8292001712366937,5.250927892836928
1746482501100391000,6.363390869140625,0.5265729740649462,-2.493903266619146,5.995051146414876
1746482501110369000,6.373369140625,0.3920511063724756,-2.7651620477050542,6.571493774542212
1746482501120348000,6.383347900390625,0.012112462598085403,-2.3892265020921823,6.607067776748537
1746482501130327000,6.3933271484375,-0.4411889390289783,-1.4541411161974072,5.921688973084092
1746482501140305200,6.40330517578125,-0.8574182088464498,-0.5715479148883372,4.7363422936856745
1746482501150284000,6.413283935546875,-1.266648998078704,-0.003508848371170461,3.54088163203001
1746482501160263200,6.42326318359375,-1.6016589513242243,0.4541469490731135,2.5524966176241635
1746482501170242000,6.433241943359375,-1.8239333367496728,0.7498186887405812,1.7857313241273163
1746482501180220000,6.443219970703125,-1.9066238949179648,0.8377116378575563,1.4132611165374516
1746482501190198800,6.45319873046875,-1.8917267700374125,0.7566768110070378,1.3801146337389945
1746482501200178000,6.463177978515625,-1.7882313242495058,0.697587200917676,1.5152555101126433
1746482501210156000,6.473156005859375,-1.6160954729557035,0.6668118311647325,1.6631056459337472
1746482501220135000,6.483135009765625,-1.4417209028244018,0.5881885955005883,1.8093740655213593
1746482501230114000,6.493114013671875,-1.2189888367593287,0.46138986940607424,1.7907962063014506
1746482501240092200,6.503092041015625,-0.9105606009691953,0.3807870407646522,1.6308587423235177
1746482501250071000,6.513071044921875,-0.6781073513567447,0.17463764151427894,1.4483943892389535
1746482501260050200,6.52305029296875,-0.4770189618229866,-0.11752495752107352,1.3041811486154793
1746482501270027800,6.53302783203125,-0.35459552820324897,-0.362895227580145,1.131271390339732
1746482501280007000,6.5430068359375,-0.34964228971004485,-0.5704799203306437,0.8984083908826113
1746482501289985800,6.55298583984375,-0.517889901393652,-0.7767506078731268,0.5605459708154201
1746482501299964000,6.5629638671875,-0.8338473636448382,-0.9986554293338209,0.2692290288239717
1746482501309943000,6.572943115234375,-1.1770195805579424,-1.1129966787848622,-0.005588029265403747
1746482501319922000,6.582921875,-1.6675994502216576,-1.2370339042767882,-0.3111374947488308
1746482501329900000,6.592900146484375,-2.152711117607355,-1.3810747109428048,-0.605543050405383
1746482501339879000,6.60287890625,-2.5062030684828756,-1.4261165064573287,-0.9541343697577714
1746482501349858000,6.612858154296875,-2.6870173162728546,-1.3810242959298193,-1.2614198652535675
1746482501359837000,6.6228369140625,-2.734680400201678,-1.3110640399970113,-1.509636501187086
1746482501369814800,6.632814697265625,-2.5740315730839964,-1.1419667526815085,-1.6705840189903973
1746482501379794000,6.6427939453125,-2.136463162639737,-0.9296273396845907,-1.6088514931768179
1746482501389772800,6.652772705078125,-1.4517337627947329,-0.8138271966621279,-1.4689064313918352
1746482501399751000,6.6627509765625,-0.6706015057712793,-0.8147791636247187,-1.2711480630636214
1746482501409730000,6.67272998046875,0.14217793540358542,-0.8831869294185191,-1.0248919135481118
1746482501419709000,6.682708984375,0.8702256679713726,-0.8966674654994159,-0.7571779654622077
1746482501429687000,6.69268701171875,1.425893803617358,-0.9387269572675228,-0.5497761549979449
1746482501439666000,6.702666015625,1.745237401175499,-0.9079530488193035,-0.22550796051919458
1746482501449645000,6.71264501953125,1.9796055444985627,-0.5732627194495872,0.11114449923634528
1746482501459623000,6.722622802734375,2.1348989820629356,-0.1180531643799506,0.3425988009393215
1746482501469601800,6.732601806640625,2.0064719241142273,0.15309278571493923,0.6708738929718733
1746482501479581000,6.742580810546875,1.758946777576208,0.35250513179525733,1.092391916847229
1746482501489559000,6.75255908203125,1.140322127279639,0.8586554955564438,1.3707500085443258
1746482501499538000,6.762537841796875,-0.43269115979671474,1.2508604773163794,1.2093676064550876
1746482501509516500,6.7725166015625,-3.199199945935607,1.4952698299214242,0.7179080313473939
1746482501519495400,6.782495361328125,-6.981887177813053,2.065973622135818,0.264256501108408
1746482501529473500,6.7924736328125,-10.555286931610107,3.3152743027895686,0.5498533118873834
1746482501539452700,6.80245263671875,-12.392207760226725,4.736722817435861,1.8434341560333967
1746482501549431600,6.812431640625,-12.106874568819999,5.405841975694894,3.0000977617830036
1746482501559409700,6.82240966796875,-10.225595543038844,5.3403468824774025,3.307106778424978
1746482501569388500,6.832388427734375,-7.7969304722666735,5.074787482076883,2.5636118858784434
1746482501579367700,6.84236767578125,-5.519981565093993,4.892793669113517,1.2428648023873567
1746482501589345800,6.852345703125,-3.3153339240223167,4.602804176333547,0.15644085403382776
1746482501599324700,6.86232470703125,-1.24850953027606,3.9778155439630147,-0.691732556605339
1746482501609303800,6.8723037109375,0.6436421871751546,3.2452211078763007,-1.3807318888545035
1746482501619281400,6.882281494140625,2.566781748086214,2.6118767350926992,-1.893285105395317
1746482501629260500,6.892260498046875,4.032504288744926,2.2569641037642953,-2.0379934360593555
1746482501639239400,6.902239501953125,5.123203430199623,2.092708776587248,-1.9441870251148938
1746482501649217500,6.912217529296875,5.813591586458682,1.9296894209459423,-1.6387480342686176
1746482501659196700,6.92219677734375,6.775362734705209,2.2310195151686667,-1.2793185100376605
1746482501669175600,6.932175537109375,7.3531047549933195,2.3819869062274694,-1.1741899100899695
1746482501679153700,6.942153564453125,7.354224698933958,2.0018927796304227,-0.9400123209029435
1746482501689132800,6.9521328125,7.294930798444152,1.7833286468997596,-0.9788047006338835
1746482501699111700,6.962111572265625,7.080676637867093,1.8148881527677176,-1.131562482240796
1746482501709089500,6.972089599609375,6.962703753915429,1.98682848148942,-1.309204529735446
1746482501719068400,6.982068359375,6.527973197245598,1.9331161805242298,-1.3082348079204558
1746482501729047600,6.992047607421875,5.470280837857723,1.869418199856579,-0.9261234962821007
1746482501739026400,7.0020263671875,4.352212043440342,1.907237058380246,-0.5093249021440744
1746482501749004500,7.012004638671875,3.4514649804770943,2.005989109033346,-0.22093056960105895
1746482501758983700,7.021983642578125,2.815430345696211,2.0471204531058667,0.00015314473509788512
1746482501768962600,7.031962646484375,2.5559581562548876,1.9139128828823566,0.05239128149449825
1746482501778940700,7.041940673828125,2.760212316343188,1.4305515662953256,-0.41182080572545526
1746482501788919800,7.051919921875,2.6882740383356807,0.8279211884662508,-1.1698130101799964
1746482501798898700,7.061898681640625,2.392814005190134,0.27593904785662887,-2.043531780964136
1746482501808876500,7.07187646484375,2.3617209477901455,-0.3817155903190374,-2.424704934969544
1746482501818855400,7.08185546875,1.8641864366829395,-0.7633364880919457,-2.369443650996685
1746482501828834600,7.09183447265625,1.4481898065775631,-0.49342561448365446,-2.4240350728839632
1746482501838812700,7.101812744140625,1.448016788098216,-0.4685767121702432,-2.1221838773965835
1746482501848791600,7.11179150390625,1.6944184835642575,-0.7163399052478373,-1.6178011078298091
1746482501858770700,7.121770751953125,1.6071581332623959,-0.7324639415748417,-1.1702362040281296
1746482501868748500,7.13174853515625,1.285020521071553,-0.5328498623773456,-0.7819909196794033
1746482501878727700,7.141727783203125,0.9277525587886571,-0.21708909174203872,-0.4792763853609562
1746482501888706600,7.15170654296875,0.4471592456102371,0.13886837246418,-0.24517186141014097
1746482501898684400,7.161684326171875,-0.9114210171908139,1.101818647492677,-0.08940554563701152
1746482501908663600,7.17166357421875,-1.9848200642764566,2.0386852177157997,0.08928104247450828
1746482501918642400,7.181642333984375,-2.2144927432596684,2.2370814455561336,0.32449265088438983
1746482501928621600,7.19162158203125,-2.8220529787063597,2.70317700843513,0.291608618414402
1746482501938599700,7.201599609375,-3.4761668755352497,3.6593618809819217,0.384129665723443
1746482501948578600,7.21157861328125,-3.834195300796628,3.941874754270911,0.67718380677104
1746482501958557700,7.2215576171875,-3.8066158044755456,3.7996892200827594,0.9269833279818296
1746482501968535600,7.23153564453125,-3.2018782252341507,3.4697885726749895,0.9277736015766859
1746482501978514700,7.2415146484375,-2.1916133874535557,3.0666110921323297,1.0472545520037413
1746482501988493600,7.25149365234375,-1.0193769495189189,2.6169363565698265,1.415940564879775
1746482501998471400,7.261471435546875,0.0609551117002964,2.3198807247959077,1.7941566226452588
1746482502008450600,7.271450439453125,0.9983663101941347,2.150269131282717,2.3366011195808647
1746482502018429400,7.281429443359375,1.8525240559399128,1.9591525390565394,2.802434086000919
1746482502028407600,7.291407470703125,2.4772733265966176,1.6366181826330721,3.0178713188827038
1746482502038386700,7.30138671875,2.838488565200567,1.2965961003139614,3.1881916451871395
1746482502048365600,7.311365478515625,2.981505289515853,1.1427692281708122,3.2142075454533097
1746482502058343700,7.32134375,3.081848993274569,1.1807860934846102,3.135215257281065
1746482502068322600,7.331322509765625,3.0397943968772885,1.2490149955801666,3.0468197654694316
1746482502078301700,7.3413017578125,2.8732039047509432,1.4059692059636115,3.15169292935133
1746482502088279600,7.351279541015625,2.4295424381285904,1.7414748337715864,3.041848991319537
1746482502098258400,7.361258544921875,1.6066437539994716,2.011761554954946,2.691788768458366
1746482502108237600,7.371237548828125,0.503835072556138,2.0489716339305044,2.280367191183567
1746482502118215700,7.381215576171875,-0.6015712241649628,1.9606364940039813,1.7761147699981927
1746482502128194600,7.391194580078125,-1.618634636044502,1.8504751605860887,1.1596148567706346
1746482502138173700,7.401173583984375,-2.2565070076465603,1.9450866043031214,0.6204384217202663
1746482502148151600,7.411151611328125,-2.533187521520257,1.9934850167691707,-0.058635144320130346
1746482502158130700,7.421130615234375,-2.656939573395252,1.7875199611097574,-0.8525450498521328
1746482502168109600,7.431109619140625,-2.3135177656352517,1.4391235798075794,-1.3310890292853117
1746482502178087700,7.441087646484375,-2.1470213815331456,0.8519144968636333,-1.7586469178467987
1746482502188066600,7.451066650390625,-2.5763959641277787,-0.36104733469113703,-3.272240047705173
1746482502198045400,7.46104541015625,-4.131885869473218,-2.612511233603954,-7.221813539785146
1746482502208024600,7.471024658203125,-5.1084243787407875,-3.6216181335210798,-9.17629341085553
1746482502218002400,7.48100244140625,-5.155776497024298,-2.775916081431508,-6.488142706638574
1746482502227981600,7.490981689453125,-4.58922047213912,-2.2675144316121933,-3.181444509014487
1746482502237960700,7.500960693359375,-3.9572301443129776,-2.954967703463137,-0.004653963285684585
1746482502247938600,7.5109384765625,-3.3189790025264023,-3.324115780892968,1.9644699346870182
1746482502257917700,7.520917724609375,-2.8386440480232236,-2.8117116174340246,2.358870819056034
1746482502267896600,7.530896484375,-2.7368396240621804,-2.0083258814178406,2.5745313392996785
1746482502277874700,7.540874755859375,-2.883776736691594,-1.6881505092106759,3.0223171923756595
1746482502287853600,7.550853515625,-2.906596471264958,-1.2473245582751928,3.5740760456234213
1746482502297832400,7.56083251953125,-2.750139835140109,-0.3668539751432836,3.6679555218040942
1746482502307810600,7.570810546875,-2.726614582645893,0.4825669513389468,3.2029467312484976
1746482502317789400,7.58078955078125,-2.685909062770009,1.0363225313618778,2.469858666425943
1746482502327768600,7.5907685546875,-2.5017647937744854,1.127710629118234,1.7419588178962468
1746482502337746700,7.60074658203125,-2.049187030246854,0.9538897473469377,1.2092594699054955
1746482502347725600,7.6107255859375,-1.5021382543861865,0.7176428045399487,0.8573404674351215
1746482502357704700,7.62070458984375,-0.887476077979803,0.6560352202802896,0.54286593721807
1746482502367682800,7.630682861328125,-0.27293898925781246,0.5918560319669545,0.2776478976011276
1746482502377661700,7.64066162109375,0.2914028667092323,0.44634880601018667,0.12197861246168613
1746482502387640800,7.650640869140625,0.7191600772351026,0.18501593726351856,0.02721884631514549
1746482502397618400,7.660618408203125,1.0630471644192934,-0.011187164446711539,-0.02309504438340664
1746482502407597600,7.67059765625,1.3502519949167966,-0.06385024861991405,0.028992870250344274
1746482502417576400,7.680576416015625,1.479091140797734,-0.08434314768090843,0.056362523213028905
1746482502427554600,7.690554443359375,1.4849714310079811,-0.10332564217895268,0.02627776607275009
1746482502437533700,7.70053369140625,1.3588514809578656,-0.13869754594191908,0.0018044190734624861
1746482502447512600,7.7105126953125,1.0635393318504094,-0.10986074303612112,0.001866378393769264
1746482502457490700,7.72049072265625,0.6196680218696594,-0.04972922267839312,0.03686404201686382
1746482502467469600,7.730469482421875,0.23037819690406322,-0.0030715163998305795,0.11929857959747314
1746482502477448700,7.74044873046875,-0.1677291407674551,0.07219035307243465,0.22597148637771605
1746482502487426600,7.750426513671875,-0.6418535501927137,0.2669616684138775,0.3503846325099468
1746482502497405400,7.760405517578125,-1.0585480994343757,0.5439195379242301,0.4471937324017286
1746482502507385300,7.77038525390625,-1.5328677391707897,0.9467902906052768,0.4860463178873062
1746482502517364200,7.7803642578125,-2.1130846251398325,1.441123813714087,0.6818658271074295
1746482502527342300,7.79034228515625,-2.4464906503200528,1.3028534071430564,1.1387234599113463
1746482502537321200,7.8003212890625,-2.673705414757132,0.43053222819715736,1.2980530211240053
1746482502547300400,7.81030029296875,-2.990207066887617,-0.8749266852691769,1.4338848023712634
1746482502557278200,7.8202783203125,-3.2427690385490653,-1.3568171986512838,1.3251923724621533
1746482502567257000,7.830257080078125,-3.4221354256182908,-0.5085415697466582,0.6728431472182274
1746482502577236200,7.840236328125,-3.3245039034277197,0.30505342559479176,-0.009109189128875731
1746482502587214300,7.85021435546875,-2.6853584431499242,0.22342253254726527,-0.1716805087417364
1746482502597193200,7.860193115234375,-1.7005039409577845,-0.11056830678358673,0.08664952492713927
1746482502607172400,7.87017236328125,-0.4877689038962125,-0.4379001266166568,0.4700602287262678
1746482502617150200,7.880150146484375,0.6513444321155548,-0.44601350964121517,0.7934469641953706
1746482502627129300,7.89012939453125,1.2402835537225008,-0.12157339266166091,1.0611667575001715
1746482502637108200,7.900108154296875,1.706765923961997,0.1896579909157008,1.3276777595371008
1746482502647086000,7.910086181640625,2.107727482020855,0.4131765311833471,1.510067293819785
1746482502657065200,7.920065185546875,2.2760265316307544,0.5857816074240952,1.513237740549445
1746482502667044000,7.930044189453125,2.4434610733658073,0.6722889474015683,1.2637918550819158
1746482502677022200,7.940022216796875,2.487064068248868,0.6271037978935986,0.7439075650006532
1746482502687001300,7.95000146484375,2.3390151949852704,0.635193946173042,0.24086978030204773
1746482502696980200,7.959980224609375,2.2302537914931775,0.5734991220213472,0.01715454841852188
1746482502706958300,7.969958251953125,1.9828022947132586,0.4358962394483387,-0.12226035201251506
1746482502716937200,7.979937255859375,1.4698375747621057,0.3932676425553858,-0.18589491205513475
1746482502726916400,7.989916259765625,0.959538274627924,0.24704198439726605,-0.0692939009785652
1746482502736894500,7.99989453125,0.5013561152219772,0.029390034608077258,0.02828033806681633
1746482502746873300,8.009873291015625,0.08264262737333775,-0.21121093868995083,-0.10982874046266078
1746482502756852200,8.019852294921876,-0.5496048900842666,-0.35702439931798724,-0.5024380652397871
1746482502766830000,8.029830078125,-1.1672183175116777,-0.38924551089983433,-0.826298263439536
1746482502776809200,8.039809326171875,-1.3821546151340007,-0.41612040261551736,-0.987477836433053
1746482502786788400,8.049788330078124,-1.3286007196009157,-0.40632962443064896,-0.9877373641520738
1746482502796766200,8.05976611328125,-1.438018541175127,-0.3478679369812831,-0.7220452772825956
1746482502806745300,8.069745361328126,-1.4615876328110693,-0.20515914610400796,-0.15287351694107054
1746482502816724200,8.07972412109375,-1.2434043160915373,-0.04802223609741777,0.5476987642019987
1746482502826702300,8.089702392578126,-0.9083189595222473,0.07685867367703467,1.3053735732704401
1746482502836681500,8.099681396484375,-0.564270544296503,0.1832736967060715,2.059401550269127
1746482502846660400,8.109660400390625,-0.4577425989449024,0.34898536017127335,2.6010931830108164
1746482502856638200,8.11963818359375,-0.638939708572626,0.4641667867735028,2.7184178321868178
1746482502866617000,8.1296171875,-0.7710875406101345,0.3693600396800786,2.528894208240509
1746482502876596200,8.13959619140625,-0.5634720873951912,0.18011873980648815,2.2614853805810213
1746482502886574300,8.14957421875,-0.4319321581229567,0.06606237171143294,1.95308987801671
1746482502896553200,8.15955322265625,-0.3182105018749833,-0.00210924723893404,1.6556149979174135
1746482502906532400,8.169532470703125,-0.23902006078213453,-0.037485973307490345,1.371342713740468
1746482502916510500,8.179510498046875,-0.12304068873524665,0.03193520731255412,1.163832766726613
1746482502926489300,8.1894892578125,0.07815612960904836,0.1018235670529306,0.9747720841169357
1746482502936468500,8.199468505859375,0.0808189190775156,0.11964154781624674,0.8175953170239925
1746482502946446000,8.209446044921876,-0.2081587663114071,0.08130743324682116,0.5778560020565986
1746482502956425200,8.21942529296875,-0.4297662122607231,-0.036114100432395935,-0.1999316207140684
1746482502966404000,8.229404052734376,-0.5966781914263963,-0.24512714548557996,-1.6954530873090028
1746482502976383200,8.23938330078125,-0.9060957305148243,-0.4075944202020764,-3.2733605761677023
1746482502986361300,8.249361328125,-1.0962240423560141,-0.11780863330066203,-3.040862318369746
1746482502996340200,8.25934033203125,-0.9463432774901389,0.17889774664416908,-1.3600789769262074
1746482503006319400,8.2693193359375,-0.09954583137929439,-0.0189193661339581,-0.4155874647825956
1746482503016297200,8.279297119140624,0.7818383594661951,-0.21347879229038952,0.10949147133231163
1746482503026276400,8.2892763671875,0.7116390340805053,0.0518880081474781,0.4259054451793432
1746482503036255200,8.299255126953126,0.803880972187221,0.2727446357294917,-0.6692360626369714
1746482503046233000,8.309233154296875,0.5374766453951597,0.4470343040563166,-0.5743675754189491
1746482503056212200,8.319212158203126,0.440376453602314,0.5437602557092904,0.142967624476552
1746482503066191000,8.329191162109375,0.05986000993996858,0.5215370257243513,0.41956396719813344
1746482503076169200,8.339169189453125,-0.7105123681381345,0.5006434369079769,0.4557669149577617
1746482503086148400,8.3491484375,-0.8506678578034043,0.3659792381353676,0.42873160851597786
1746482503096127200,8.359127197265625,-0.5605205441132187,0.16659297634437678,0.4265256229043007
1746482503106105300,8.369105224609376,-0.2888093430846929,0.011890782671421766,0.3009983780503273
1746482503116084200,8.379084228515625,-0.023795301607251167,-0.04914791565909982,0.13562018432319164
1746482503126063400,8.3890634765625,-0.03439969772994518,0.032406039694696666,0.17743337318003177
1746482503136041200,8.399041259765625,-0.2763403221338987,0.13932736827805636,0.26169571070969105
1746482503146020000,8.40902001953125,-0.5233657024562358,0.09441855149343609,0.1307242289751768
1746482503155999200,8.418999267578124,-0.5622124427229166,-0.011956102992594241,0.1967418847620487
1746482503165977300,8.428977294921875,-0.4807902970552444,-0.03155380677953362,0.457437478518486
1746482503175956200,8.438956298828124,-0.5470061057627201,0.01799815963581204,0.5381570288747549
1746482503185935400,8.448935302734375,-0.6164525669544935,0.1360641286984086,0.46059506576657294
1746482503195913200,8.458913330078126,-0.7475929755151272,0.21364567328989503,0.36075931152999396
1746482503205892400,8.468892333984375,-0.6011608897984028,0.3093925507776439,0.11908522910773753
1746482503215871200,8.478871337890626,-0.37405017025768755,0.38573578574582934,0.04612579135894775
1746482503225849000,8.48884912109375,-0.3671019585549831,0.5025944248452783,-0.0072498249977827065
1746482503235828200,8.498828125,-0.4320931939035654,0.5781761739216744,0.04878770404458046
1746482503245807000,8.50880712890625,-0.35335692631900306,0.559892329212278,-0.07587035675942898
1746482503255785200,8.51878515625,-0.4227496114969253,0.4569948493175208,-0.2086889276653528
1746482503265764400,8.528764404296876,-0.9967577059537172,0.2168891852557659,-0.17965923253595828
1746482503275743200,8.5387431640625,-1.3830676383256912,0.206222099160403,0.08708265564739703
1746482503285721300,8.548721435546875,-1.3348340610325335,0.24021306995898484,0.356445539984107
1746482503295700200,8.5587001953125,-1.0095406151592732,0.17408479340448973,0.6280395443737506
1746482503305679400,8.568679443359375,-0.7691168250590562,0.1088540502116084,0.768785401147604
1746482503315657500,8.578657470703124,-0.8426987786203622,0.13591098396331072,0.5846200893640517
1746482503325636000,8.588635986328125,-0.8593699274361133,0.25295813137218354,0.5008557644844055
1746482503335615200,8.598615234375,-0.9086550596088171,0.4370478937014937,0.459364062666893
1746482503345593000,8.608593017578125,-0.9072282416760921,0.64914341493994,0.6581237169921398
1746482503355572200,8.618572265625,-0.3903074775755405,0.8494513216204941,0.8517834178298711
1746482503365551400,8.62855126953125,-0.0643663814485073,0.6652940470129252,0.9769909292101859
1746482503375529200,8.638529296875,0.11725158393979072,0.3513404719300568,0.8669131824225187
1746482503385508400,8.64850830078125,0.3963414970427751,0.03437456328868866,0.507462615403533
1746482503395487200,8.6584873046875,0.4164811987519264,-0.2983843961596489,0.230068984824419
1746482503405465300,8.66846533203125,0.34323826788663864,-0.4696972406327724,-0.12884265301227568
1746482503415444500,8.678444580078125,0.11398586014211178,-0.5149665612928569,-0.42010815707743165
1746482503425423000,8.688423095703126,-0.05263385807871818,-0.3971919033270329,-0.17091770767569542
1746482503435401200,8.698401123046875,-0.013044190490245819,-0.04406615541540086,0.24214988324046133
1746482503445380000,8.708380126953125,-0.002946574845910072,-0.021932795671001076,0.29341829818487164
1746482503455359200,8.718359130859374,0.11508417677283286,-0.12971760921590028,0.3678875559747219
1746482503465337300,8.72833740234375,0.17911913430988788,-0.0636244039747864,0.5067161809504032
1746482503475316200,8.738316162109374,-0.7337824768275022,-0.2123822292253375,0.3862883050620556
1746482503485295400,8.74829541015625,-2.5146494097888468,-0.9199850665923207,-0.32584465001523494
1746482503495273500,8.7582734375,-1.9385446353137492,-0.29680516414418817,-1.0690817684084177
1746482503505251800,8.768251953125,-0.41340252195894717,-0.0746614193610847,-0.5342582678705453
1746482503515231000,8.77823095703125,0.43253567697405815,-0.11766484091579914,-0.07395838565826415
1746482503525208800,8.788208740234374,0.7465835062116384,0.41615350116752087,0.048017888715863224
1746482503535188000,8.79818798828125,-0.05438157852888107,0.7649019107777625,0.5416641602128743
