time,seconds_elapsed,z,y,x
1746482384891225900,0.016225830078125,0.9921604412913322,-0.2533668583035469,0.04580430431962013
1746482384901205800,0.026205810546875,0.21774872469455003,-0.14083353505730628,-0.3228793704688549
1746482384911185700,0.036185546875,-0.5488099403142929,-0.0181079036206007,-0.5707470468342304
1746482384921165800,0.046165771484375,-1.2006523850798607,-0.05631634598374367,-0.7213882746785879
1746482384931146800,0.056146728515625,-1.6067872541233896,-0.05149345587193965,-0.8864999264240264
1746482384941127000,0.066126953125,-1.7615926159098743,0.03272913416922092,-1.040660560566187
1746482384951106800,0.07610693359375,-1.7413865709662437,0.05929156240224838,-1.052995141482353
1746482384961086700,0.086086669921875,-1.6796312487989664,0.0879991859704256,-0.9776800805181264
1746482384971066600,0.096066650390625,-1.801468991485238,0.21115327195227146,-1.0098293689727782
1746482384981047000,0.106047119140625,-2.0810735761120913,0.37230595693886276,-1.047645012626052
1746482384991027000,0.11602685546875,-2.247322999715805,0.5308902527421713,-1.0223387219339608
1746482385001007900,0.1260078125,-2.368610122781992,0.5591963097721337,-0.9419698847115039
1746482385010987800,0.13598779296875,-2.2998978210836647,0.5148334364324808,-0.8152998995631933
1746482385020967700,0.1459677734375,-2.0734844361573455,0.37543957878947254,-0.7918746003121138
1746482385030947600,0.155947509765625,-1.768426553583145,0.2211591176599264,-0.7923597534805535
1746482385040928000,0.165927978515625,-1.4025754718720913,0.03996142351031303,-0.583190933343768
1746482385050908000,0.175907958984375,-1.014701358923316,-0.15914192968606947,-0.3885685249537229
1746482385060887800,0.1858876953125,-0.5867150158166885,-0.28951486100554463,-0.2510299397885799
1746482385070868700,0.19586865234375,-0.24063217215389013,-0.3644406303912401,-0.14387246436178683
1746482385080848600,0.2058486328125,-0.03350362567305565,-0.40062604249417777,-0.09653612816929817
1746482385090828800,0.215828857421875,0.01586655443459749,-0.3295949424594641,-0.10081541292369366
1746482385100809000,0.22580908203125,-0.024603403119742868,-0.2276169154971838,-0.05835691190063953
1746482385110788900,0.235788818359375,-0.03335048093795776,-0.20980594899654387,0.05079378316998481
1746482385120768800,0.245768798828125,-0.06268968040794133,-0.13731588232517242,-0.01667056429386139
1746482385130748700,0.255748779296875,-0.04619301137626171,-0.09591361235678196,-0.06081248835921287
1746482385140729900,0.265729736328125,0.030340777727961538,-0.12255670461058615,0.0006967500925064087
1746482385150709800,0.275709716796875,0.2715554259449243,-0.19697861612737178,0.17365969986021518
1746482385160690000,0.28568994140625,0.5596317785799503,-0.2104413242906332,0.3054167790144682
1746482385170669800,0.295669921875,0.8096224384486674,-0.2421604046344757,0.3759340843081474
1746482385180649700,0.305649658203125,0.9924351665794848,-0.32032793242037294,0.5125169761836529
1746482385190629600,0.315629638671875,1.1057593479424714,-0.36004677934646606,0.6046528235673904
1746482385200609800,0.32560986328125,1.1562450880765913,-0.3875473652124405,0.6662970865756273
1746482385210590000,0.33558984375,1.0736077214002608,-0.29747020392417906,0.640543636637926
1746482385220571000,0.34557080078125,0.9051812460184097,-0.23095979618430137,0.6300625746339559
1746482385230550800,0.35555078125,0.7114467263787985,-0.2658013924628496,0.6694599345207214
1746482385240530700,0.36553076171875,0.5678817205309867,-0.2498544662684202,0.6563111146122217
1746482385250510600,0.375510498046875,0.4944213475227356,-0.21443477784097192,0.7467799055665731
1746482385260491000,0.385490966796875,0.4857499652892351,-0.21664602414965628,0.9051490973144769
1746482385270471000,0.395470947265625,0.5685176803469657,-0.21018471918106077,1.0254109689861535
1746482385280450800,0.405450927734375,0.5884668279200792,-0.20982056204378605,1.1113818639993667
1746482385290431700,0.415431640625,0.5166355174183845,-0.19634733248651026,1.0541612626522778
1746482385300411600,0.42541162109375,0.33676761056780813,-0.14370295301377772,0.9465566279798746
1746482385310391800,0.435391845703125,0.11921616201102733,-0.0382113649725914,0.94770287540555
1746482385320372000,0.4453720703125,-0.027913258320093153,0.0027799861073493958,0.9515735793590545
1746482385330351900,0.455351806640625,-0.07872165453732013,-0.03318389219939708,0.8950988279432058
1746482385340331800,0.465331787109375,-0.13426058640778063,-0.07984452108740805,0.785434338131547
1746482385350311700,0.475311767578125,-0.15771920340657233,-0.08676935191452503,0.6431628792256117
1746482385360292900,0.48529296875,-0.22535773839354514,0.04204349048137664,0.532871197426319
1746482385370272800,0.495272705078125,-0.23578853151500223,0.1650350793778896,0.523016742888093
1746482385380253000,0.5052529296875,-0.21996844657063483,0.17474749509692192,0.6671288612246513
1746482385390233300,0.5152333984375,-0.06929156289100646,0.19856676210165022,0.8244915062785149
1746482385400213200,0.525213134765625,0.13327215989232064,0.20245500171184538,0.8407803777784109
1746482385410193200,0.535193115234375,0.20833353835642338,0.16480419323146342,0.7167015781670808
1746482385420173300,0.54517333984375,0.18501637565493584,0.1117190842539072,0.6898907281309365
1746482385430153500,0.555153564453125,0.14433891282975672,0.05102876096963882,0.6733411598682403
1746482385440134400,0.565134521484375,0.21587825464755295,-0.060201078462600706,0.5612731160461902
1746482385450114300,0.5751142578125,0.34404841522574425,-0.10310381612181663,0.3824690390348434
1746482385460094200,0.58509423828125,0.31934242851436134,-0.04363748167455196,0.19772212797105312
1746482385470074400,0.595074462890625,0.15467676697075367,0.07542261299192905,0.06530103195011615
1746482385480054300,0.60505419921875,0.015448621283471584,0.07920446961820125,0.03678337799608707
1746482385490034400,0.615034423828125,-0.08074789966791868,0.07380290283560753,0.058304889452457424
1746482385500014300,0.625014404296875,0.003322422420978546,0.18721593152582644,0.005170680636167526
1746482385509995300,0.634995361328125,0.1273345865368843,0.34365912364721296,-0.03877952024936676
1746482385519975200,0.64497509765625,0.08382219254672527,0.49321080268919465,-0.04111176258921623
1746482385529955300,0.654955322265625,-0.01509235519170761,0.5729384193986654,-0.040186464437842365
1746482385539935200,0.664935302734375,-0.10086743537187576,0.5933545999616384,-0.017993921852111815
1746482385549915400,0.674915283203125,-0.18991759169995784,0.47621524422466754,-0.0657218877106905
1746482385559895300,0.684895263671875,-0.23930852233469485,0.2876993360161781,-0.13532850790023804
1746482385569875200,0.694875244140625,-0.3667833941251039,0.11764788978099823,-0.26859657613933086
1746482385579855000,0.704855224609375,-0.620327070300281,-0.03153437142670154,-0.41550154006481166
1746482385589836300,0.714836181640625,-0.8230398461654782,-0.13589081795811653,-0.5280003765195608
1746482385599816400,0.72481640625,-0.8489064010888338,-0.24677988112866878,-0.5327846881866455
1746482385609796400,0.73479638671875,-0.6910933819189667,-0.37828035517334935,-0.537994531789422
1746482385619776300,0.7447763671875,-0.4575874083831906,-0.5352560467362404,-0.5126987624913454
1746482385629756200,0.754756103515625,-0.26102614088505505,-0.6777326728254556,-0.43180736269950865
1746482385639736300,0.764736328125,-0.14825111783742903,-0.8568851248830557,-0.22266016987264156
1746482385649716500,0.774716552734375,-0.11599047796279191,-1.1124831032395361,-0.05340834958255291
1746482385659697400,0.784697509765625,-0.09570026186704635,-1.401242177441716,0.022741408640146253
1746482385669677300,0.79467724609375,-0.22321254305839539,-1.6650766537457704,0.14744740023911
1746482385679657200,0.8046572265625,-0.3813581551834941,-1.8142320269465446,0.3072995240211487
1746482385689637000,0.81463720703125,-0.5333876225158571,-1.8666414286196231,0.5358206948816776
1746482385699617300,0.8246171875,-0.622954788455367,-1.8811738118410108,0.7309434540092945
1746482385709597400,0.834597412109375,-0.6741741035610437,-1.948582629725337,0.7131564529061317
1746482385719577300,0.844577392578125,-0.5892401503801346,-1.8666665630608796,0.6260697056055069
1746482385729557200,0.85455712890625,-0.36960166641622777,-1.7502455847263336,0.6506278082787991
1746482385739538200,0.8645380859375,-0.07803191870748996,-1.7066344065368175,0.7943652480840683
1746482385749518300,0.874518310546875,0.26961729748919605,-1.5613023910164832,1.0195154812067746
1746482385759498200,0.884498291015625,0.7378818749703466,-1.5475474219083785,1.2948410733401774
1746482385769478400,0.894478515625,1.1633372382946312,-1.7228823615044355,1.4634154327601194
1746482385779458300,0.904458251953125,1.452123638895154,-1.878199179944396,1.5841121887177227
1746482385789438200,0.914438232421875,1.5234633664876223,-1.9605670820295809,1.6540239293336867
1746482385799418000,0.924418212890625,1.3675187715381383,-2.0951988398373125,1.6355360864847897
1746482385809398500,0.9343984375,1.1562344936173408,-2.170052128508687,1.1925602640390396
1746482385819379500,0.94437939453125,0.8838596410483122,-2.2573738536089656,-0.005407996523380279
1746482385829359400,0.954359375,0.6009364333927631,-2.6144594450622796,-1.615292924401164
1746482385839339300,0.96433935546875,0.2358475682258606,-3.1450574368596076,-3.203395644059777
1746482385849319200,0.974319091796875,-0.2764320920705795,-3.841337573766708,-4.772703062355518
1746482385859299000,0.984299072265625,-0.9642891224168241,-4.335156279221176,-6.0562716310530895
1746482385869279500,0.994279541015625,-1.67551665308699,-4.487605433270335,-6.6750085095524785
1746482385879259400,1.00425927734375,-2.2447093100860713,-4.597123208087682,-6.571368686857819
1746482385889239300,1.0142392578125,-2.529062550544739,-4.819896190685034,-5.691817556658387
1746482385899220200,1.02422021484375,-2.3430678313769397,-5.077051919877529,-4.342314334282279
1746482385909200100,1.0342001953125,-1.6443991918981073,-5.236602430364489,-2.9188638321638107
1746482385919180300,1.04418017578125,-1.0309536978051066,-5.031051216202974,-1.8299042278528213
1746482385929160400,1.054160400390625,-0.5401907266594469,-4.782909983593226,-0.8511088795691728
1746482385939140400,1.064140380859375,-0.34577158575654027,-4.637833404138684,0.04790332242548465
1746482385949120300,1.074120361328125,-0.5542971395537257,-4.668174181866646,0.3338134369373321
1746482385959100200,1.08410009765625,-1.2257245747551322,-4.981107912382483,-0.34201311000585555
1746482385969081300,1.094081298828125,-1.9772022827491162,-5.4624008982628585,-1.6272551648736
1746482385979061200,1.104061279296875,-2.633068283942342,-5.436185676032305,-2.970273701405525
1746482385989041400,1.11404150390625,-3.15276523475796,-4.838377019271254,-4.014781000527739
1746482385999021300,1.124021240234375,-3.397439083518088,-4.435490630629658,-4.356389621385932
1746482386009001200,1.134001220703125,-3.259379981610179,-4.177399081891775,-3.8707366867303845
1746482386018981000,1.143981201171875,-2.6260019988179204,-3.8009284064888953,-2.811015451863408
1746482386028961300,1.153961181640625,-2.122632205685973,-3.377439959323406,-2.586249834144115
1746482386038941400,1.16394140625,-2.472712886813283,-3.4811440794259307,-3.4389556275159117
1746482386048921300,1.17392138671875,-3.3202374781548976,-3.8458278709232805,-5.3465358002454035
1746482386058902300,1.18390234375,-4.236316550284624,-4.424700941067933,-8.018104787495732
1746482386068882200,1.193882080078125,-4.6869104465186595,-5.605114255717396,-10.256121614205837
1746482386078862000,1.203862060546875,-4.84162988358736,-6.61114832406044,-10.67551840814352
1746482386088842500,1.213842529296875,-5.0964808429688215,-6.577481032258272,-8.351454698574543
1746482386098822400,1.223822509765625,-5.240923800694942,-6.562924683639407,-4.757917581155896
1746482386108802300,1.23380224609375,-5.550951872897148,-7.145760227674246,-1.909982557696104
1746482386118782200,1.2437822265625,-5.904631455299258,-7.854538611626625,-0.13232991060614585
1746482386128762400,1.253762451171875,-6.394717988488078,-8.829391359764337,-0.7548585826039313
1746482386138743300,1.263743408203125,-6.509128796043992,-9.962256741297244,-3.2195190958648916
1746482386148723500,1.273723388671875,-5.626875421148538,-10.904770231366157,-6.430929704076052
1746482386158703400,1.283703369140625,-4.582926924952864,-11.357543225204944,-9.792751823028922
1746482386168683300,1.293683349609375,-4.6530946861565115,-11.22302720273137,-12.85121409549713
1746482386178663200,1.3036630859375,-6.194453190296888,-9.992595765459537,-14.50392635771036
1746482386188643300,1.313643310546875,-8.283988013023137,-8.155029040154814,-13.717400717210769
1746482386198623200,1.323623291015625,-9.633157473400235,-5.727751039826869,-11.450502079409361
1746482386208603400,1.333603271484375,-10.433249282437563,-3.0828634310141205,-9.566015197497606
1746482386218583300,1.343583251953125,-11.287167958730459,-1.2899813583493231,-8.484681265759468
1746482386228564200,1.353564208984375,-11.00619997679591,1.0595724740460515,-7.79331812698841
1746482386238544100,1.363544189453125,-9.461410329163074,4.459556565871835,-7.621697824001312
1746482386248524300,1.373524169921875,-8.410963703119755,8.280163486298918,-7.732263646566867
1746482386258504400,1.38350439453125,-7.991167096209526,12.9424299054265,-8.05126705238521
1746482386268484400,1.393484375,-8.574631585797666,18.748426214450596,-7.705937365177273
1746482386278464300,1.40346435546875,-11.79329026544094,25.124326689743995,-5.148102309134602
1746482386288444200,1.413444091796875,-18.004422203338144,31.10929074190855,-1.1705810719430445
1746482386298424300,1.42342431640625,-27.955963489353657,35.45859186633825,2.920622074007988
1746482386308405500,1.433405517578125,-34.74128296992779,34.485977837038035,7.353745975506305
1746482386318385400,1.443385498046875,-26.184689145123958,24.894476316106317,11.277084956133365
1746482386328365300,1.453365234375,41.492623024010655,24.165808990335464,31.734254532098767
1746482386338345200,1.46334521484375,151.12609576611518,25.727557956075668,44.93846373486519
1746482386348325400,1.473325439453125,46.779960200834275,1.4858201567918061,22.465149566555024
1746482386358305300,1.48330517578125,-22.06091527043581,-41.334011840200425,-3.0296728158354758
1746482386368285200,1.49328515625,48.39670098595619,-42.69866937708854,4.22670964076668
1746482386378265300,1.503265380859375,82.09100237560271,-26.948787849760055,3.533555819186568
1746482386388245000,1.513244873046875,81.83790907354354,-21.48337257211208,-10.68609240912795
1746482386398226000,1.523225830078125,56.99116949112415,-17.543185332536698,-9.277364259845017
1746482386408206000,1.5332060546875,24.63234864372015,-8.872657085517048,-3.7926469003558156
1746482386418186000,1.54318603515625,3.4244916333556175,1.343044840016961,-7.74180830450356
1746482386428166000,1.553165771484375,-14.87286488404274,12.08081892106533,-9.475184002971648
1746482386438145800,1.563145751953125,-27.665121763658522,18.524933100885153,-6.673052114787698
1746482386448126000,1.5731259765625,-29.420985772788523,21.6108357534647,1.8196292098149656
1746482386458106000,1.583106201171875,-18.39723611077666,23.88490647485256,17.413498629915715
1746482386468086000,1.5930859375,-2.9634932474851605,23.5166413177371,26.61235107858181
1746482386478067000,1.60306689453125,4.937791333225369,19.319769473612308,22.091097642731665
1746482386488046800,1.613046875,6.3166960066527125,11.034152982604503,14.77146202661991
1746482386498026800,1.62302685546875,5.785879988190532,1.3446218800753353,8.02806913214922
1746482386508007200,1.633007080078125,4.468827667564153,-7.658477110344171,1.8080334645673632
1746482386517987000,1.642987060546875,2.743151291427016,-13.630966296339034,-3.036151071938872
1746482386527967000,1.652967041015625,-0.43962066679894923,-14.199474624335766,-4.046151998086273
1746482386537947000,1.66294677734375,-1.3299006962835789,-10.437427444905042,-4.303161889067292
1746482386547926800,1.6729267578125,-1.4290882157444953,-4.879873397263884,-4.608635951226949
1746482386557907000,1.682906982421875,-2.3603005595982074,0.20131050785183904,-4.237361090901493
1746482386567888100,1.69288818359375,-3.4157027622222897,2.9329689298838377,-3.2367437869101763
1746482386577868000,1.702867919921875,-2.69097979016304,3.53441039018929,-3.7851737879961727
1746482386587848000,1.712847900390625,-0.29027357041835783,2.94823897973001,-4.771474397343397
1746482386597827800,1.722827880859375,2.2017595184147356,1.9544377854943273,-5.137791927522421
1746482386607808000,1.73280810546875,3.187550424674153,0.5653174230009317,-4.3940220174267886
1746482386617788200,1.7427880859375,3.71410352499485,0.08663783448934555,-2.6987866645216942
1746482386627768000,1.75276806640625,3.9088562817662953,0.1504962664157152,-0.33614531395100056
1746482386637748000,1.762748046875,2.9060271469444037,0.41370822690725323,0.9831707868888974
1746482386647727900,1.772727783203125,1.0079881250202656,0.7683294740736484,0.7640987046360969
1746482386657708000,1.7827080078125,-0.8970201513946056,1.3821703972250223,-0.20420235683582721
1746482386667689000,1.79268896484375,-1.6216799950897693,1.662930873888731,-1.2927037690505385
1746482386677669000,1.802669189453125,-1.1924006895631551,1.8800573750317096,-1.4209937566161155
1746482386687649000,1.81264892578125,-0.3937953196913004,2.3094097457945346,-0.6790456551201641
1746482386697629000,1.82262890625,0.13909633600115776,2.8877187523156405,-0.009363163889944553
1746482386707608800,1.83260888671875,0.4156190289646387,3.1405648016154766,0.4456504484824836
1746482386717589000,1.842589111328125,0.6817857476085424,2.6652795317173004,0.2300438503831625
1746482386727569000,1.85256884765625,0.9209405406862496,2.0154180316358805,-0.2112191767953336
1746482386737549000,1.862549072265625,1.4314888471454381,1.2348065836161375,-0.1883166593093425
1746482386747529000,1.872529052734375,1.6875784084111451,0.9472714982509612,-0.270486846865341
1746482386757510000,1.882510009765625,1.9583593428522348,0.29949674131572246,0.05775017817914486
1746482386767489800,1.89248974609375,1.3050912491977213,0.29207214427292344,0.17710194926857947
1746482386777470000,1.902469970703125,0.3829407481998205,0.05847732340991497,0.2170201181590557
1746482386787450000,1.9124501953125,-0.0145960961073637,-0.21291268284022807,-0.03177022600919008
1746482386797430000,1.922429931640625,-0.3852005098253488,-0.4993605574905872,-0.35143209573626516
1746482386807410000,1.932409912109375,-0.7215858430773019,-0.7930103263437748,-0.7909960639119148
1746482386817390000,1.94239013671875,-0.9236749340862035,-0.9838789351582526,-1.1246760106626896
1746482386827370000,1.952369873046875,-0.9899725758582353,-1.1034703602224587,-1.1693191622484476
1746482386837350000,1.962349853515625,-1.0754185702145098,-1.1339829873859881,-1.1425368076544253
1746482386847331000,1.9723310546875,-1.1934598432272672,-1.2614958530992268,-1.0731393732361494
1746482386857311000,1.98231103515625,-1.1414911710590123,-1.4182237073808908,-0.966962579409778
1746482386867291000,1.992290771484375,-0.8240116138070821,-1.447013748535514,-0.679381462945789
1746482386877271000,2.00227099609375,-0.6409533864825964,-1.2908236543923615,-0.30703890032358466
1746482386887251000,2.0122509765625,-0.5774275475114584,-1.0533248118281364,-0.052313832344114776
1746482386897230800,2.02223095703125,-0.3213467540740967,-0.5001759655267,0.24736169960461554
1746482386907211000,2.0322109375,0.07071078203916549,0.13517360959947108,0.7056240115746856
1746482386917191000,2.04219091796875,0.3816208977729082,0.35542379572093485,0.8914964926023036
1746482386927171000,2.052171142578125,0.6405933209985494,0.369280471637845,1.0480982362862676
1746482386937151000,2.06215087890625,0.7508645445317029,-0.12482231145501137,1.0513237011387944
1746482386947132000,2.0721318359375,1.1437637921661137,-0.898315451902151,1.017977823310718
1746482386957112000,2.082112060546875,1.9553122302412986,-1.7542992440313099,0.9187729143235832
1746482386967092000,2.092092041015625,2.9063907195597887,-2.678993584293127,0.6608796646367758
1746482386977072000,2.102072021484375,3.8369823011666533,-3.59500368283987,0.644085547028482
1746482386987052000,2.112052001953125,4.547853858006,-4.526591289746761,0.8425783671110868
1746482386997032000,2.122031982421875,5.386856120195985,-5.339352610743045,1.117785958888009
1746482387007011800,2.13201171875,6.466784861311316,-5.757994786921143,1.1288163253378123
1746482387016991700,2.14199169921875,7.340422968074679,-5.660686505335569,0.9309533275913446
1746482387026972200,2.15197216796875,7.112021624201536,-5.214788657963275,0.7347116474363953
1746482387036952000,2.1619521484375,5.7163230523616075,-4.471676627254486,0.1026850061878562
1746482387046933000,2.17193310546875,3.30986279913485,-3.6627193747162816,-0.5533511639405042
1746482387056913000,2.181912841796875,0.506720272603631,-2.769977923554182,-0.7564574691679328
1746482387066892800,2.191892822265625,-1.9301853877693413,-2.259654658022523,-0.8420872956585138
1746482387076873000,2.201873046875,-3.9032431180596348,-2.0576322025090454,-1.5022653878971934
1746482387086853000,2.21185302734375,-5.70458819090426,-2.6673978390455244,-2.2391968302749095
1746482387096833000,2.2218330078125,-7.19765466556251,-3.590848901247978,-2.9649548444703218
1746482387106813000,2.23181298828125,-7.9010215458601705,-4.299126934462786,-3.642003042162955
1746482387116792800,2.241792724609375,-7.807780952104926,-4.27097460668981,-3.6761429199129343
1746482387126773000,2.25177294921875,-7.546918185088038,-3.8669495694071054,-3.5064737509936093
1746482387136753200,2.261753173828125,-7.331546418657899,-3.4685172375649214,-3.1229987497866154
1746482387146734000,2.271734130859375,-7.182632452997565,-2.851259783968329,-2.584652335819602
1746482387156714000,2.2817138671875,-7.305175129082799,-2.1632997316390274,-2.490877489057183
1746482387166694000,2.29169384765625,-7.521870253071189,-1.5532710602521895,-2.31756791780889
1746482387176673800,2.301673828125,-7.75952516297996,-0.7825801177442073,-1.94724378233701
1746482387186654000,2.311654052734375,-7.723252657115459,0.06894318784475326,-1.9696388617575167
1746482387196634000,2.321634033203125,-7.175206686910986,0.6869131736248731,-2.187564112062752
1746482387206614000,2.331614013671875,-6.398576417481899,1.446865864497423,-2.3982696402475234
1746482387216594000,2.341593994140625,-6.096483229932189,2.091708075112104,-2.0603601661682127
1746482387226573800,2.35157373046875,-6.058475278577208,2.7413737603604793,-1.582278835810721
1746482387236554000,2.361553955078125,-5.790049967351555,3.3087434397161006,-1.5340113562479614
1746482387246535200,2.37153515625,-5.5850534644633525,3.62029360691905,-1.2991565984517335
1746482387256515000,2.38151513671875,-5.434572980138659,3.8493244808673857,-0.8101923472911119
1746482387266495000,2.391494873046875,-5.014793908885121,3.9917409012019633,-0.5851616488948465
1746482387276475000,2.401474853515625,-4.687168220672011,4.24919298299253,-0.6380939053982496
1746482387286455000,2.411455078125,-4.35993591569066,4.398361800196767,-0.7603104182690381
1746482387296435000,2.42143505859375,-4.128443035542965,4.647990056493878,-1.2929641735523938
1746482387306415000,2.4314150390625,-3.7993776699155566,4.831945524919033,-2.0789470854774117
1746482387316395000,2.44139501953125,-2.9634938320070505,5.241316014882922,-3.0966508410871025
1746482387326375000,2.451375,-2.4811247413277626,5.744745429247617,-3.975817940405011
1746482387336355000,2.46135498046875,-3.1043741288155315,6.170844935694337,-4.126066369539499
1746482387346336000,2.4713359375,-4.702980706831813,6.507192859545349,-3.6936622099906202
1746482387356316000,2.48131591796875,-6.417548244455457,6.649870561164617,-2.615512168985605
1746482387366296000,2.491296142578125,-6.955126012137532,6.705562053248286,-1.0823281304072587
1746482387376276000,2.50127587890625,-5.944087851896882,7.410264566063881,0.2672922155424952
1746482387386256000,2.511255859375,-3.1909839062541723,8.19715027204752,1.6243021602869032
1746482387396236800,2.52123681640625,-0.5449602791488171,8.77343566378653,2.463511927747726
1746482387406217000,2.531217041015625,2.8880484226614236,9.096334323477745,3.666883216397464
1746482387416196900,2.54119677734375,7.152552372032403,8.648943607199191,4.3257811326324935
1746482387426176800,2.5511767578125,11.83159866104722,8.048112387746572,2.465358724658191
1746482387436156700,2.56115673828125,15.917814666235445,8.091822934657335,-0.7468892111599444
1746482387446137900,2.571137939453125,18.441168776005505,7.049848368883133,-2.6659000017032026
1746482387456117800,2.58111767578125,17.69609275174737,5.230117159998416,-3.1863466018423434
1746482387466098000,2.591097900390625,14.479896662825345,3.301689137290418,-2.7067665573596953
1746482387476077800,2.601077880859375,11.646827784585952,1.3142925005242228,-2.01670573335886
1746482387486057700,2.6110576171875,8.215952003151179,-0.5855481639944017,-2.565012984848022
1746482387496037600,2.62103759765625,4.596452176958322,-1.9739085019007323,-3.4545535941421983
1746482387506018000,2.63101806640625,1.8267238442510365,-2.490601594725251,-4.307235422116518
1746482387515998000,2.640998046875,0.25094693768024445,-2.4059375445269047,-5.094337401199341
1746482387525977900,2.650977783203125,-0.8112146760761737,-2.785954660364985,-5.165513462662696
1746482387535957800,2.660957763671875,-2.201592929676175,-3.161120098388195,-4.275569533264637
1746482387545937700,2.670937744140625,-3.095385935717821,-2.773073259221017,-3.1587384639486666
1746482387555918800,2.6809189453125,-3.463748707988858,-1.9893590228803455,-2.012316120097786
1746482387565899000,2.69089892578125,-3.253202754279971,-1.2515735940217971,-0.5193896384321153
1746482387575879000,2.70087890625,-2.4762872381687164,-0.7621648139640689,0.9614158320028334
1746482387585858800,2.71085888671875,-1.4311393030554056,-0.4656679851166904,2.044932295411825
1746482387595838700,2.720838623046875,0.012373743882775306,-0.04626622274294495,2.745888022914529
1746482387605818600,2.730818603515625,1.453074656009674,0.34976445478498935,2.7361338138803837
1746482387615799000,2.740799072265625,2.6402467972695827,0.5058762229949235,2.2712799216255544
1746482387625779000,2.750779052734375,3.332286227867007,0.4186569353558123,1.6412888047926126
1746482387635758800,2.7607587890625,3.4159330638468264,0.42310280884876844,0.44154776240400967
1746482387645738800,2.77073876953125,2.9616438202261923,0.42500440468639133,-0.6654959262605756
1746482387655719700,2.7807197265625,2.092316562399268,0.6241957284271716,-1.200576981756091
1746482387665699800,2.790699951171875,1.0548200188219548,0.9206215378649533,-1.2991051605254411
1746482387675680000,2.800679931640625,-0.08723053968548775,0.9900463717468082,-1.437379512619227
1746482387685660000,2.810659912109375,-0.9153086722791194,0.9378690252639352,-1.8525602962970733
1746482387695639800,2.820639892578125,-1.1956640752732752,0.9016267684072256,-2.246730440650135
1746482387705619700,2.83061962890625,-1.139732929214835,0.6882923530235886,-2.287526999810338
1746482387715600000,2.840599853515625,-0.8323439733445643,0.5233220094449818,-2.1876263636440036
1746482387725579800,2.850579833984375,-0.26621815657019615,0.28182693685144183,-2.0748228451542556
1746482387735560000,2.860559814453125,0.8354571369290351,0.037219723586738106,-1.5962684904575346
1746482387745539800,2.870539794921875,1.8286153570860624,-0.12062471363469958,-0.5173609090834855
1746482387755519700,2.880519775390625,2.2837807990193366,-0.09008125294148922,0.60771915233545
1746482387765500700,2.890500732421875,2.145937677949667,-0.17836758529022334,1.671626075389236
1746482387775480800,2.900480712890625,1.4880495232790707,-0.40763665190860626,2.5216470135912297
1746482387785461000,2.9104609375,0.461986227864027,-0.6008475860655308,2.8348621913969514
1746482387795441000,2.92044091796875,-0.5379734890013933,-0.6389031759545206,2.625870481392741
1746482387805420800,2.9304208984375,-1.3672919770449399,-0.6143529643267392,2.106192235277593
1746482387815401000,2.94040087890625,-1.6717758591234684,-0.28894845929443835,1.5843489200830458
1746482387825380900,2.950380859375,-1.4015496359556912,0.22245587947219608,1.189026829215884
1746482387835360800,2.96036083984375,-0.5973106441110372,0.9206260679095983,0.8975758855812251
1746482387845340700,2.970340576171875,0.2890799767196178,1.1729445862039922,1.0658484855756163
1746482387855320800,2.98032080078125,0.5189654216706753,1.2244614229515194,1.0976222187161444
1746482387865301000,2.990301025390625,0.6030465574145317,1.6569059145107865,0.6465245376784354
1746482387875281000,3.000281005859375,1.102802251702547,2.0712287661850453,-0.3207954403342679
1746482387885261800,3.01026171875,1.6462608941167591,2.3037100728482005,-1.573930694182217
1746482387895241700,3.02024169921875,1.8606378042906522,2.468314651854336,-2.5310969789817928
1746482387905222000,3.030221923828125,1.673193909227848,2.110068199928105,-2.3055912104196845
1746482387915201800,3.040201904296875,1.0907646079063416,1.2376637266129256,-0.912373057218641
1746482387925182000,3.050181884765625,0.5541144764631987,0.22273440415263174,0.6741982150889932
1746482387935161900,3.060161865234375,-0.18198270704746244,-0.8262070780247449,1.97566133691743
1746482387945141800,3.070141845703125,-1.367243461728096,-1.5839496916323899,2.900889784055948
1746482387955121700,3.08012158203125,-3.02923559346199,-2.2044179239690305,3.2582506853193043
1746482387965102000,3.09010205078125,-4.7037107746720315,-2.461029463282227,2.7268875543683766
1746482387975082000,3.10008203125,-5.676908741340041,-2.2758675416767598,1.7107270826779304
1746482387985062000,3.110061767578125,-5.572564569768309,-1.8930197324573992,0.7383420398280024
1746482387995042800,3.120042724609375,-4.804384148776531,-1.5059206955343485,0.13568258203491568
1746482388005022700,3.130022705078125,-3.5772301257401704,-0.9581897826284169,0.024320640655606983
1746482388015002600,3.140002685546875,-2.038114432090521,-0.3899889131456613,0.16559446682631968
1746482388024983000,3.149983154296875,-0.8028706261008978,0.08882920705378056,0.24800591579228637
1746482388034963000,3.159962890625,0.4130477171719074,0.316993235039711,0.31542130954787134
1746482388044942800,3.16994287109375,1.4691513460636139,0.36643501907885073,-0.07863266107961535
1746482388054922800,3.1799228515625,1.97565651461184,0.2524088269263506,-0.6454917605645955
1746482388064902700,3.189902587890625,2.0624439867049453,0.060413844430446624,-1.1352081452667713
1746482388074882800,3.1998828125,1.8915268635511397,0.06527823559641838,-1.5729077808752656
1746482388084863000,3.209863037109375,1.6728326747000217,0.08998305326402187,-1.8878132498554885
1746482388094843000,3.2198427734375,1.365219846946001,0.03904898484051227,-2.0145468017593027
1746482388104822800,3.22982275390625,1.0557640216737985,0.006669979283213615,-2.0227629875712094
1746482388114803700,3.2398037109375,1.1451888565331696,-0.18415069873631,-1.7488509154975413
1746482388124783900,3.249783935546875,1.451854758825898,-0.24695114604234694,-1.442984931410849
1746482388134764000,3.259763916015625,1.6976573193550109,-0.17662848653793334,-1.208390431986004
1746482388144744000,3.269743896484375,1.4474866267442703,-0.14913900658786297,-0.8537655315577983
1746482388154723800,3.279723876953125,0.9995791931152344,-0.028593641799688336,-0.6339484761565923
1746482388164703700,3.289703857421875,0.645599750983715,0.08610942670106887,-0.7171259410589933
1746482388174684000,3.299683837890625,0.5911269870400429,0.1596598160803318,-1.1384206775724888
1746482388184663800,3.309663818359375,0.8945137215316296,0.27292612977623937,-1.8455923569805919
1746482388194643700,3.319643798828125,1.4038766175985335,0.5563491036474705,-2.8959131646871565
1746482388204624000,3.329623779296875,1.801567775684595,0.7710328878134488,-4.968743520849943
1746482388214603800,3.339603759765625,2.5581553740382192,1.2463579052001237,-7.234889878979325
1746482388224584000,3.349583984375,3.671359192767739,1.949382255670428,-8.59135651062727
1746482388234564900,3.35956494140625,4.718212762755155,2.5100468844294546,-8.937355475398897
1746482388244544800,3.369544677734375,6.034689329320192,2.9168980850487944,-8.36462689935863
1746482388254525000,3.37952490234375,7.385847917687893,3.347732803323865,-7.5242124322831625
1746482388264504800,3.3895048828125,8.786253644305468,4.046775098420679,-7.008134548747539
1746482388274485000,3.399485107421875,10.394365717291832,4.52720006929487,-7.607663453429937
1746482388284465000,3.40946484375,11.180437768805026,6.540684794780612,-9.969878906738758
1746482388294444800,3.41944482421875,10.50992335679531,9.99699137006998,-11.50255258464217
1746482388304424700,3.4294248046875,9.360220237708091,13.110814295232295,-9.941125105941294
1746482388314404600,3.439404541015625,6.57569356431961,15.619133332955837,-7.30373778975606
1746482388324385000,3.449385009765625,0.965851111036539,17.12515748886466,-3.934412163305282
1746482388334365000,3.459364990234375,-6.430106697255373,17.258536031740903,-0.4827081133753061
1746482388344344800,3.4693447265625,-14.311749588906764,15.992765570062398,4.2699452636420725
1746482388354325800,3.47932568359375,-20.26730283766985,13.858209702348708,8.206986606407165
1746482388364305700,3.4893056640625,-23.540861566758153,11.655008752954005,9.929591320014
1746482388374285800,3.499285888671875,-23.712559026634693,10.085567479145526,9.150507812213897
1746482388384266000,3.509265869140625,-19.523724358493087,8.418671208757162,6.0766959949225186
1746482388394245400,3.519245361328125,-13.4741858350873,6.004556056863069,2.812501306506991
1746482388404225300,3.529225341796875,-7.553581150108576,3.19075448141247,0.20458792208731172
1746482388414205400,3.539205322265625,-1.9428209974586963,-0.24859820086332038,-2.120517405489087
1746482388424185600,3.549185546875,2.433618309265375,-4.246836775255203,-4.986212542045116
1746482388434165500,3.55916552734375,4.27959162838757,-7.690825136241316,-9.242635476291179
1746482388444145400,3.5691455078125,2.374886718833446,-9.545870235091447,-12.925469418275355
1746482388454125300,3.579125244140625,-3.5116040996193885,-10.550683237206936,-15.160665926867722
1746482388464105500,3.58910546875,-11.076986746680737,-11.277081449002027,-15.949093601596354
1746482388474085600,3.599085693359375,-17.98635580077171,-11.263976468235253,-15.446253969818352
1746482388484066600,3.609066650390625,-20.001343039774895,-11.896903784650563,-11.935037992733717
1746482388494046500,3.61904638671875,-12.66387599889636,-13.262677758347987,-6.141571494936943
1746482388504026400,3.6290263671875,-3.1083284193992613,-17.877077095407248,0.7645012210223824
1746482388514006300,3.63900634765625,25.055152031230925,-33.798147548568245,16.23342375344038
1746482388523986700,3.648986572265625,66.4696689022541,-33.19138577002287,32.75141380556822
1746482388533966600,3.658966552734375,43.60435565001964,-21.035219639289377,29.33042228928804
1746482388543946500,3.668946533203125,9.274514715632796,-0.26685952321365475,13.828390902668238
1746482388553926400,3.678926513671875,2.334789101722836,6.675909842306375,-4.593249289263785
1746482388563906300,3.68890625,0.0428863710463047,10.12631216198802,-14.1478239320755
1746482388573886500,3.698886474609375,-0.07258943539261818,3.6420834139227867,-10.927660108566284
1746482388583866400,3.708866455078125,-2.3443957189798352,0.1895595720425248,-0.9737114691480994
1746482388593846500,3.718846435546875,-6.106697749954462,-0.3756571670629084,3.417629346370697
1746482388603826400,3.728826416015625,-7.7536887119114395,0.6496181928448379,3.7904815390154716
1746482388613807400,3.738807373046875,-7.030298449760675,0.7737377628579736,0.19467720731720328
1746482388623787500,3.74878759765625,-4.978066644990444,-0.8190037225171923,-1.827848610497266
1746482388633767400,3.758767333984375,-0.8196540031194687,-2.026005038232356,-0.9033756579011678
1746482388643747600,3.76874755859375,3.1309400641798972,-2.001216780065,0.9094187374576925
1746482388653727500,3.7787275390625,4.543859235411882,-1.6454691592171786,1.7440215956449507
1746482388663707400,3.788707275390625,3.651201955401897,-1.4248355267360806,1.7929549917705356
1746482388673687600,3.7986875,2.232257532531023,-1.5235335091143845,0.7995388513296842
1746482388683667500,3.80866748046875,1.1355436608314513,-1.479563434484601,-0.3683307696975767
1746482388693647400,3.8186474609375,1.1893231818139551,-1.492586582186818,-1.1549787214025855
1746482388703627300,3.828627197265625,2.2386416806101797,-1.4477268652409314,-1.0256794106639922
1746482388713607400,3.838607421875,2.283571540182829,-0.96521515122056,0.13524053735584018
1746482388723587600,3.848587646484375,1.7411761430859565,-0.4758820667475462,0.7004100763186812
1746482388733567500,3.8585673828125,0.594714782398939,-0.19392098212242126,0.3952788362473249
1746482388743547400,3.86854736328125,-0.7163584638178349,-0.38592707053422926,-0.010317834266275167
1746482388753528300,3.8785283203125,-0.7042308036506175,-0.49585839458853004,-0.19428689282536504
1746482388763508500,3.888508544921875,-0.4416366827964782,-0.4999281282454729,0.02972761426568031
1746482388773488600,3.898488525390625,-0.4288017511427402,-0.4943032741010189,0.5878017881400883
1746482388783468500,3.908468505859375,0.08767945249676704,-0.4301937900230288,0.6002849837467074
1746482388793448400,3.918448486328125,1.0258639734506607,-0.10721855796426534,0.38821021303534503
1746482388803428400,3.928428466796875,1.0849474460601807,0.32686493297368285,0.3039591275520623
1746482388813408300,3.938408203125,0.5720446854293346,0.7209677111789584,-0.08590016786456108
1746482388823388700,3.948388671875,0.08778934261202812,0.7976613670200109,-0.3509283839978278
1746482388833368600,3.95836865234375,0.39421325284242625,0.9800964940100908,-0.4156837647639215
1746482388843348500,3.968348388671875,0.03263736423254013,0.837749631780386,-0.5696024068437516
1746482388853328400,3.978328369140625,-0.5494879857063293,0.74391341021955,-0.36254312620684503
1746482388863308500,3.98830859375,0.08927052108049392,0.6858312236070633,-0.21649843237251043
1746482388873288400,3.998288330078125,0.8774526966154574,0.2874932920500636,-0.14467574356868862
1746482388883268400,4.008268310546875,0.9704466221332549,0.16098697303086518,-0.14068272840976714
1746482388893249500,4.01824951171875,0.5857008703380823,0.07951923465579748,-0.1899538320571184
1746482388903229400,4.0282294921875,-0.30688568252325055,-0.24345073670595882,-0.04171498917937279
1746482388913209300,4.038209228515625,-1.0741980885088442,-0.39966918016076086,0.07026449957638979
1746482388923189500,4.048189453125,-0.9913584772586822,-0.4383244895085692,0.15737492001354694
1746482388933169400,4.05816943359375,-0.7056669739335775,-0.5868707909002899,0.24883506009280681
1746482388943149600,4.068149658203125,-0.5651543413937091,-0.5292150130063296,0.39156887581348415
1746482388953129500,4.07812939453125,-0.23844869063496588,-0.40252135472148654,0.4640434526547789
1746482388963109400,4.088109375,-0.1002379052966833,-0.40793811907321215,0.36636838358342644
1746482388973089500,4.098089599609375,-0.22370587953329085,-0.34476766941100356,0.4256339347615838
1746482388983069400,4.1080693359375,-0.22205986589193344,-0.2400049801662564,0.25939444802999495
1746482388993049300,4.11804931640625,-0.3903729440271854,-0.12892273251116276,0.2562766082704067
1746482389003029200,4.128029296875,-0.34777298870682716,0.08150047160089015,0.10395224964469671
1746482389013009700,4.138009765625,-0.08463876962661743,0.21300474503785372,-0.13948036688268184
1746482389022989600,4.147989501953125,0.25037469075024127,0.428378849555552,-0.2907292052313685
1746482389032969500,4.157969482421875,-0.049883098065853115,0.2989934679687023,-0.11260288135111331
1746482389042950400,4.167950439453125,0.04563946914672851,0.2423299159824848,-0.053856385610997676
1746482389052930300,4.177930419921875,0.4197147738456726,0.28144904344975946,-0.09175999980866908
1746482389062910500,4.187910400390625,0.1876759502530098,0.15800474234968423,0.07004530386775731
1746482389072890600,4.197890625,-0.02355973928570747,0.024859715968370437,0.17889000172913072
1746482389082870500,4.20787060546875,0.029703064346313476,-0.08645107974559069,0.3296297215119004
1746482389092850400,4.217850341796875,0.20008593449294565,-0.3129766928747296,0.4395841341808438
1746482389102830300,4.227830322265625,0.337556715118885,-0.44519495979994533,0.21588468438833952
1746482389112810500,4.237810546875,0.3296504720389843,-0.2643079390347004,-0.13641221148371696
1746482389122790700,4.247790771484375,-0.10297522130608558,-0.16270283703804014,-0.20295506018847226
1746482389132770600,4.2577705078125,-0.3550362577080726,-0.2210086032733321,-0.15420681137144565
1746482389142750500,4.26775048828125,-0.052419338545203205,-0.43564796377569437,0.17252718869894743
1746482389152730400,4.27773046875,0.8188479474335908,-0.4639858772486448,0.07488163798302412
1746482389162710500,4.28771044921875,0.8665537014603615,-0.5211638084977865,0.20584961258620021
1746482389172690400,4.2976904296875,1.0993062262803315,-0.4436281488746404,0.25598054793328046
1746482389182670300,4.30767041015625,1.0896242056995629,-0.3295405819237232,0.17354191869944333
1746482389192651500,4.317651611328125,0.7012579253196716,-0.21255290961712597,0.14187281497716903
1746482389202631400,4.32763134765625,0.15773089384436606,-0.2518479781731963,-0.15981398372873662
1746482389212611300,4.337611328125,-0.44160102696120734,-0.3598059563279152,-0.12649199823290108
1746482389222591500,4.347591552734375,-0.4845557870686054,-0.4095113597393036,0.049693128451704975
1746482389232571400,4.3575712890625,-0.1177624560713768,-0.46308775936514135,0.30945933240354057
1746482389242551600,4.367551513671875,0.3798819451510906,-0.44955286274850365,0.18173033972159028
1746482389252531500,4.377531494140625,-0.016318682116270064,-0.6047998308226465,0.43919206612333656
1746482389262511600,4.38751171875,0.05664835441708564,-0.5444222267493606,0.6555519668079912
1746482389272491500,4.397491455078125,0.361844768679142,0.18605945496708154,0.4223234950393438
1746482389282471400,4.407471435546875,0.08739654390215873,0.1907598877429962,0.3027019670978188
1746482389292451300,4.417451416015625,-0.9015443508207798,0.01710661762356758,0.5367291880287229
1746482389302431500,4.427431396484375,-1.5726403621107339,0.16505466086119414,0.5663536341808736
1746482389312411600,4.43741162109375,-1.4984066666424274,0.4398348940715193,0.30321167018562556
1746482389322391600,4.4473916015625,-1.3236439739763737,0.38013475086838006,0.25782025751583276
1746482389332371500,4.457371337890625,-0.5708136823296547,0.6223689513914287,-0.4916685416832566
1746482389342352400,4.467352294921875,-0.3076537442862987,1.0081228573158383,-0.8752055752757936
1746482389352332300,4.477332275390625,0.53708443120718,0.8830152991786598,-0.9374718426398932
1746482389362312400,4.4873125,1.9120698853641747,1.14046518901214,-0.8496750473737716
1746482389372292600,4.497292724609375,3.11053206692338,1.4283172313719987,-0.7067043541572987
1746482389382272500,4.5072724609375,3.219423818796873,1.9083081947430967,-0.6025581163104623
1746482389392252700,4.517252685546875,2.9830180321663615,2.341937219911814,-0.8653642724800854
1746482389402232600,4.527232666015625,2.556884038928151,2.886180290701985,-1.2469669770091771
1746482389412212700,4.537212646484375,2.0487235043883323,3.440678798046708,-1.9747332622870801
1746482389422192600,4.547192626953125,2.091684109714627,4.00196711166203,-1.9422176247380674
1746482389432172500,4.557172607421875,1.8322294559299945,4.977675015324354,-0.8108895357750355
1746482389442152400,4.56715234375,1.740692158961296,5.207906497234106,0.0916148922495544
1746482389452132600,4.577132568359375,1.7190180872917173,5.3463294640183445,0.80780384471938
1746482389462112800,4.58711279296875,1.356582951503992,4.5979038370713585,0.9797112940847873
1746482389472092700,4.5970927734375,0.7108984448462724,3.594999006664753,0.5748515595436096
1746482389482072600,4.607072509765625,0.28994039294123647,3.2113346203655,0.45280864967405793
1746482389492052500,4.617052490234375,-0.4764858778595924,2.6997505411177873,0.6596952040925622
1746482389502032600,4.62703271484375,-0.2907154689669609,1.7700022784672675,0.4053670995414257
1746482389512013600,4.637013671875,0.25711948883533475,0.5363676612399518,-0.45734687762558457
1746482389521993700,4.64699365234375,0.3143804221928119,0.12894143721163273,-1.0481064926579593
1746482389531973600,4.6569736328125,0.2761374930381775,0.24404110381454228,-1.0182458996623753
1746482389541953500,4.66695361328125,1.165115792274475,-1.6592860876455902,-2.5575372421398757
1746482389551933400,4.676933349609375,1.0103940171182155,-1.2888516236670315,-2.3340917671084402
1746482389561913600,4.68691357421875,0.46900224410593505,0.361928647570312,-0.4579214626431465
1746482389571893800,4.696893798828125,0.8762439053475857,-0.23352102497443555,-0.48415042113810774
1746482389581873700,4.706873779296875,-0.09647884502410888,0.17055764219164848,0.11932020690739154
1746482389591853600,4.716853515625,-0.9240145413041114,1.033394368955493,0.8332184180915355
1746482389601833500,4.72683349609375,-1.5168296275615691,1.1260026561565697,0.9206874427080154
1746482389611813600,4.736813720703125,-1.9774100802808998,1.2030533087417483,0.5566571466833353
1746482389621793500,4.74679345703125,-2.5024159511595965,1.4545847683116793,0.5047101018249989
1746482389631773400,4.7567734375,-2.840243299913406,1.1790605848662554,0.3903559928923845
1746482389641753600,4.766753662109375,-2.835189523655176,1.215277853412181,0.625341975852847
1746482389651733800,4.776733642578125,-2.7775597569853065,1.4726960329331458,1.1414672056615351
1746482389661713700,4.786713623046875,-2.792241777810454,1.20438821060732,1.381369017714262
1746482389671693600,4.796693603515625,-2.710537892591953,1.2621746291436253,1.8555349281936884
1746482389681674500,4.806674560546875,-2.652183903300762,1.451921978843212,2.3520400962531567
1746482389691654700,4.816654541015625,-2.3685171838015315,1.1189891241326928,2.0176555814296004
1746482389701634600,4.826634521484375,-1.7867974920541048,0.7064907114066183,1.5947726989418267
1746482389711614700,4.83661474609375,-1.210362462711334,0.3915905031234026,1.3884762193709612
1746482389721594600,4.8465947265625,-0.6492565199255943,-0.10406140910759568,1.306981008467078
1746482389731574500,4.856574462890625,0.3155149791806936,-0.9139332922726869,0.8230459836453199
1746482389741554400,4.866554443359375,1.8105337569504976,-1.2387814785964786,0.43210254625380035
1746482389751534600,4.87653466796875,3.2513603412836787,-1.0494928324498236,0.302418181720376
1746482389761514800,4.8865146484375,3.912590207597613,-1.0802755087263882,0.09953355641961097
1746482389771494700,4.89649462890625,3.528093462127447,-0.6619112727068365,0.26030864026546474
1746482389781474600,4.906474609375,2.392979424884915,-0.2387789455026388,0.7136644024282693
1746482389791454500,4.916454345703125,1.2049807696729897,-0.10295622434467076,0.8560913441568613
1746482389801434600,4.9264345703125,-0.06429623882174491,-0.03194207544475794,0.7190595394700765
1746482389811414500,4.93641455078125,-1.438915197753906,-0.08484466746225952,0.41660511739253997
1746482389821394700,4.946394775390625,-2.61240718870759,-0.4350141959168017,-0.05979775835871696
1746482389831374600,4.95637451171875,-3.433987775975466,-0.8884979683734476,-0.4751216037690639
1746482389841354500,4.9663544921875,-3.8887066431850195,-1.3104561372317374,-0.7358633747547865
1746482389851334700,4.976334716796875,-4.119619093096256,-1.6039540765240787,-0.9761293439447879
1746482389861314600,4.986314453125,-4.250492375153303,-1.7484814976632594,-1.265675184610486
1746482389871295700,4.996295654296875,-4.342969583320618,-1.953922675579041,-1.7801210830301046
1746482389881275600,5.006275634765625,-4.6630999473422765,-2.261628880704939,-2.147561479759216
1746482389891255600,5.016255615234375,-5.079595174619556,-2.500673491406441,-2.048257640442252
1746482389901235500,5.0262353515625,-5.302236639791727,-2.670552503684163,-1.5994529657125471
1746482389911215600,5.036215576171875,-5.20545442790687,-2.716084420803189,-1.076496428579092
1746482389921195500,5.046195556640625,-4.863627780383825,-2.6526982825636862,-0.4242015638709068
1746482389931175700,5.05617578125,-4.63401647619903,-2.6660347339987753,0.3158411423951387
1746482389941155600,5.066155517578125,-4.563304525116085,-2.625907890793681,1.070981464549899
1746482389951135700,5.0761357421875,-4.670656646332144,-2.5471125864982604,1.5591162791490554
1746482389961115600,5.08611572265625,-4.540406464609504,-2.4566876346856352,1.381307058393955
1746482389971095600,5.096095458984375,-3.5871307575076816,-2.478321958866715,0.15440145716071127
1746482389981075500,5.106075439453125,-1.7996090428322553,-2.4564634705409407,-1.395630182778835
1746482389991055600,5.1160556640625,0.036815526700019835,-2.3261945841178298,-2.850551343438029
1746482390001035800,5.126035888671875,1.2801666512995957,-2.0679897842638195,-3.658422554305196
1746482390011015700,5.136015625,1.6694994386240838,-1.8169105985060332,-3.5560435453265904
1746482390020995600,5.14599560546875,1.4734160177707671,-1.7170957409270107,-3.0230981136202812
1746482390030975500,5.1559755859375,0.7972270672559738,-1.6127353488728402,-2.2836259007185697
1746482390040955600,5.16595556640625,-0.17847206857800482,-1.3365502173006534,-1.2963134839802979
1746482390050935600,5.175935546875,-1.0297875766351818,-1.1272193384699523,-0.48232817414700985
1746482390060915700,5.185915771484375,-1.3190756431475281,-1.0869378161597996,-0.17343582797646523
1746482390070896600,5.195896728515625,-1.1579276343360543,-1.042832936169207,-0.06214578278958797
1746482390080876500,5.20587646484375,-0.8868333961620927,-0.8068255012065172,0.07153495790362357
1746482390090856400,5.2158564453125,-0.759596424780786,-0.6207797825038432,0.2753051338672638
1746482390100836600,5.225836669921875,-0.5132397375002503,-0.5428516894970089,0.17582593798339366
1746482390110816500,5.23581640625,0.46282647808045146,-0.385688877864182,-0.14311667755842208
1746482390120796700,5.245796630859375,1.4429589201867579,-0.18894889279827473,-0.27664427351653575
1746482390130776600,5.255776611328125,1.9089125903770325,-0.1572613035712391,-0.0029869068562984463
1746482390140756500,5.265756591796875,1.86420397233963,-0.15266338132172821,0.4919131640940904
1746482390150736600,5.275736572265625,1.4925731381833554,-0.10203523704223334,0.9233972861886024
1746482390160716500,5.285716552734375,1.2586112375736236,-0.14873809763677417,1.000168975701928
1746482390170696400,5.295696533203125,1.3948492615342138,-0.31106165303364397,0.871177854129672
1746482390180676600,5.305676513671875,1.7437594375774264,-0.41312268210425973,0.5453875646501779
1746482390190656800,5.31565673828125,1.9519924381688236,-0.5235134403638542,0.1515291165947914
1746482390200636700,5.32563671875,2.0366995968565345,-0.5854932189367711,-0.32203181372880935
1746482390210616600,5.335616455078125,2.1756793207406995,-0.6211567991226912,-1.0703174476832151
1746482390220596500,5.345596435546875,2.7249010567262766,-0.7134159806251525,-2.1790239549934864
1746482390230576600,5.35557666015625,3.626094109891355,-0.7589109267346561,-3.5327620384603735
1746482390240556500,5.365556640625,4.244811991429328,-0.7936690825134516,-4.773026887482405
1746482390250536700,5.37553662109375,4.3047117488577955,-0.898636354419589,-5.5326773805379865
1746482390260516600,5.3855166015625,3.704592477066815,-0.9259551539778709,-5.737272901409864
1746482390270496500,5.39549658203125,2.586550278395414,-0.8941970567978919,-5.575670719090104
1746482390280477400,5.4054775390625,1.2076527653612197,-0.8368990063004195,-5.266861959549784
1746482390290457600,5.41545751953125,-0.16750044657811522,-0.6379748090632259,-4.746740938103199
1746482390300437800,5.425437744140625,-1.2751217890001834,-0.34282135764881966,-4.078989561066031
1746482390310417700,5.435417724609375,-2.102526552376896,-0.19281565122902392,-3.2424475515097377
1746482390320397600,5.4453974609375,-2.577014388287067,-0.02278524778187275,-2.464301616820693
1746482390330377500,5.45537744140625,-2.6144740581095216,0.14134849884212017,-1.9536492654651403
1746482390340357600,5.465357666015625,-2.3145757502555844,0.15484817801490425,-1.573382704910636
1746482390350337500,5.475337646484375,-1.833362551613152,0.14383973113596438,-1.3901222330123186
1746482390360317700,5.485317626953125,-1.1726736603081225,0.045685207984596486,-1.4495774615436792
1746482390370297600,5.495297607421875,-0.4242880731105804,-0.22114684270024298,-1.7017875510275362
1746482390380277800,5.50527783203125,0.2391138765454292,-0.4673747890345752,-1.9737778612583874
1746482390390257700,5.515257568359375,0.534860836873576,-0.6610184155203401,-2.1757763513743877
1746482390400237800,5.52523779296875,0.5153530763924121,-0.8118542891539633,-2.2774176937282085
1746482390410217700,5.5352177734375,0.2526279495697468,-0.8355046293325722,-2.4985738887786866
1746482390420197600,5.54519775390625,-0.11776369818039238,-0.784121209706366,-2.618751589298248
1746482390430177800,5.555177734375,-0.526655391651392,-0.7615206708416342,-2.465354925265908
1746482390440158000,5.565157958984375,-0.8723124111175536,-0.7882241149805486,-2.137690658608079
1746482390450137900,5.575137939453125,-1.0124070374410599,-0.6443782463647425,-1.9211644614458083
1746482390460117800,5.58511767578125,-1.0768670154571534,-0.43687136809080834,-1.948172295358777
1746482390470097700,5.59509765625,-1.0848585987329482,-0.40442762673422694,-2.2586533720254898
1746482390480077800,5.605077880859375,-0.9637912558972835,-0.4566131565235555,-2.6266677692502736
1746482390490057700,5.6150576171875,-0.6708920131504535,-0.40435061597526073,-3.09902458448112
1746482390500038000,5.625037841796875,-0.41078908805754033,-0.4250406450435519,-3.6211896789759397
1746482390510017800,5.635017822265625,-0.17116790131079032,-0.48124563960731026,-3.9200089594215153
1746482390519998700,5.644998779296875,0.07546352952420711,-0.42942178273722525,-3.9894764634013176
1746482390529979000,5.654978759765625,0.19282034567045048,-0.3503349481493234,-3.836443956506252
1746482390539958800,5.664958740234375,0.17225392471551895,-0.2597080440238118,-3.477439379689097
1746482390549939000,5.67493896484375,0.1425971106637269,-0.16172142478525636,-3.1458687532424925
1746482390559918800,5.6849189453125,0.12704524820148944,-0.08687588102892041,-2.65614111649394
1746482390569898800,5.694898681640625,-0.02696750190258026,-0.14597820446938276,-2.2656752334862946
1746482390579879000,5.70487890625,-0.2827706474423408,-0.37507176839038725,-1.9199065703392029
1746482390589858800,5.71485888671875,-0.5045569570899009,-0.5196165790557861,-1.7169816130280493
1746482390599838700,5.724838623046875,-0.798848384847492,-0.6617806320644914,-1.6643272966831921
1746482390609818600,5.734818603515625,-0.9976239673942326,-0.6941914940647781,-1.587151702544093
1746482390619798800,5.744798828125,-1.1490765116214752,-0.639669191890955,-1.4567097976416348
1746482390629779000,5.754779052734375,-1.2315759311318397,-0.4865856854610145,-1.5064964495956896
1746482390639758800,5.7647587890625,-1.4422650927037,-0.2717383812963962,-1.806802753728628
1746482390649738800,5.77473876953125,-1.517706410396099,-0.036017215929180384,-2.0187322707504034
1746482390659718700,5.78471875,-1.2502321162849663,0.08895290649868548,-2.049737065345049
1746482390669698800,5.79469873046875,-0.7608537313655018,0.10286971510499715,-1.9802105246543884
1746482390679679000,5.804678955078125,-0.25517507676929235,0.07384418469406664,-1.8020599431157112
1746482390689659000,5.814658935546875,0.20586890180855988,0.037341450270265336,-1.6570611050724982
1746482390699638800,5.824638671875,0.5815683005779981,0.1457720143727958,-1.5690870535433292
1746482390709618700,5.83461865234375,0.8456950378268957,0.32551589298490435,-1.5050778149694204
1746482390719598800,5.844598876953125,0.989406174147129,0.47799069293197244,-1.4878455251395701
1746482390729578800,5.854578857421875,1.0907166771113872,0.7135336887206882,-1.4470686935931443
1746482390739558700,5.86455859375,1.1530693806499241,0.9817004220753908,-1.4755156203985214
1746482390749538800,5.874538818359375,1.1464648678183555,1.0859767160426825,-1.5580857670575379
1746482390759519000,5.88451904296875,1.2897878816038368,1.1693873321138322,-1.6628379349082707
1746482390769499000,5.894498779296875,1.5236252790510654,1.2233399446409194,-1.6757313187509775
1746482390779479800,5.904479736328125,1.8573902006715535,1.286378365421295,-1.645414506420493
1746482390789459700,5.914459716796875,2.1504723987698555,1.421681885010749,-1.50906951495409
1746482390799440000,5.92443994140625,2.323806519937515,1.5610408174708486,-1.2977303650408982
1746482390809419800,5.934419677734375,2.4354238973826168,1.6164114070370792,-0.9567097732037305
1746482390819400000,5.94439990234375,2.597671976390481,1.7033792041331528,-0.6504588814526796
1746482390829379800,5.9543798828125,2.7916069870382545,1.7466259329244493,-0.3979039240539074
1746482390839359700,5.96435986328125,2.953835776823759,1.8368296432018278,-0.16310849522948265
1746482390849339600,5.974339599609375,3.0654069770395753,1.9401608383387325,0.09421908339858054
1746482390859319800,5.98431982421875,3.199851687842607,2.0733467812523245,0.38088556923568245
1746482390869300000,5.994300048828125,3.3925901821821927,2.256658252685517,0.6498083085894584
1746482390879279900,6.00427978515625,3.5888580196917057,2.32779792766124,0.8309031268864869
1746482390889259800,6.014259765625,3.759499833035469,2.2827891576334833,0.8474228845328092
1746482390899239700,6.02423974609375,3.7856945969998836,2.22953044565469,0.7014590008497238
1746482390909219800,6.0342197265625,3.6102082662343977,2.1802277778252956,0.5247691395133733
1746482390919199700,6.04419970703125,3.358672130489349,2.1037458650387824,0.4764303482800722
1746482390929180000,6.054179931640625,3.017111440426111,2.0334318272322416,0.4039765219658613
1746482390939159800,6.064159912109375,2.6676164502322672,1.9071939498908816,0.29638883842825886
1746482390949139700,6.0741396484375,2.4578724605560303,1.8787980226203798,0.311966931310296
1746482390959120000,6.084119873046875,2.3637632672727107,1.921390963678062,0.37662498918175696
1746482390969099800,6.094099853515625,2.2675614856243134,1.8372412927426396,0.25048984156250953
1746482390979079700,6.10407958984375,2.1334844390898944,1.665119177713245,0.08501637076735497
1746482390989059600,6.1140595703125,2.0067863968908783,1.5196959767781197,-0.007897475251555442
1746482390999040000,6.1240400390625,1.9200503627240657,1.3444995688699186,0.024876667103171348
1746482391009020000,6.13402001953125,1.8893647170811891,1.3437814837284385,0.10930793145895004
1746482391018999800,6.143999755859375,1.9781027387201784,1.4136613679014145,0.21778467279076574
1746482391028979700,6.153979736328125,2.28405435526371,1.2346277199178934,0.5083452434569598
1746482391038959600,6.163959716796875,2.5564304499417543,1.441642284630239,0.3792413091599941
1746482391048939800,6.173939697265625,2.5022294886767864,1.457770704871416,0.19674919128566978
1746482391058920000,6.183919921875,2.299147879499197,1.1207798069417476,0.2266603454247117
1746482391068899800,6.19389990234375,2.1503227611660956,0.8457676646716892,0.21409312479645012
1746482391078879700,6.203879638671875,2.0448603992193934,0.8204930842921138,0.15868950974345206
1746482391088860000,6.21385986328125,1.8256465704083442,0.9079083328947425,0.16043810697644947
1746482391098840800,6.2238408203125,1.5274574045598506,0.9036746408477425,0.18261866686344147
1746482391108821000,6.233821044921875,1.2744552879154682,0.8836179412469267,0.17974632629752157
1746482391118801000,6.24380078125,1.091977490827441,0.8624562030136584,0.17956190964132546
1746482391128780800,6.25378076171875,0.97644264767766,0.8841388963811099,0.18747107533067464
1746482391138760700,6.2637607421875,0.9424573759675026,0.8962124882735312,0.1380024032846093
1746482391148740900,6.273740966796875,1.0006114587724209,0.9517097729593514,0.026913725888729093
1746482391158720800,6.283720703125,1.0803571956604718,1.0148318534351886,-0.12193944949507712
1746482391168700700,6.29370068359375,1.2182745510101318,1.073347170767933,-0.2628708919689059
1746482391178680800,6.303680908203125,1.3431880478799343,1.2046969842955468,-0.3674821900442242
1746482391188660700,6.31366064453125,1.5265946502506733,1.3273453127123416,-0.4513217721171677
1746482391198641000,6.323640869140625,1.9169699323654175,1.405287653440237,-0.49388724064603445
1746482391208620800,6.333620849609375,2.4431845945119854,1.4024933465465903,-0.490836913164705
1746482391218600700,6.3436005859375,2.935416907557845,1.2764520146906375,-0.5543209588207304
1746482391228580600,6.35358056640625,3.276715147292614,1.0073191397175192,-0.5089268427371978
1746482391238561000,6.36356103515625,3.5024224297761917,0.7617521415099501,-0.37158670275360345
1746482391248541000,6.373541015625,3.5465509098380803,0.6303937062844633,-0.27389059089422224
1746482391258520800,6.383520751953125,3.421066335082054,0.5643938784152269,-0.18417115700244902
1746482391268500700,6.393500732421875,3.215751267763972,0.4379720228090882,-0.026914602671563623
1746482391278481000,6.40348095703125,2.988507861754298,0.30187165375351904,0.10352876353561878
1746482391288460800,6.413460693359375,2.6055910789519547,0.19561609560251234,0.11212415792346
1746482391298440700,6.423440673828125,2.183733447858691,0.12427607574909924,0.06496347055882215
1746482391308420900,6.4334208984375,1.8152409117281436,0.1390668176457286,0.0845899620488286
1746482391318400800,6.44340087890625,1.5240923120409249,0.24097528650313615,0.23396584613248705
1746482391328381000,6.453380859375,1.271713880252838,0.32294103752821685,0.3450286584347486
1746482391338360800,6.46336083984375,1.0171861614763735,0.33891835886090993,0.4181087999537587
1746482391348340700,6.4733408203125,0.902765417048335,0.2024234375298023,0.45545806820429857
1746482391358320600,6.483320556640625,0.8858809177428484,0.05292582676261663,0.47511166689693923
1746482391368300800,6.49330078125,0.9506137944161891,-0.096223116697371,0.5422080578312277
1746482391378281000,6.503281005859375,1.07209848588109,-0.22569413074105976,0.6577635053776204
1746482391388260900,6.5132607421875,1.1637351515710352,-0.33063100750893354,0.7261325465962291
1746482391398240500,6.523240478515625,1.1971914309710263,-0.4249056204870343,0.7552426865506917
1746482391408220700,6.533220703125,1.0633645598053931,-0.4576242332622409,0.7468699219375848
1746482391418200800,6.543200927734375,0.8447007660925387,-0.49024464635998005,0.6408016299869865
1746482391428180700,6.5531806640625,0.5947200430959463,-0.5410720395386218,0.5157669178903103
1746482391438160600,6.56316064453125,0.34023499441742894,-0.6166837453618645,0.3972978479195386
1746482391448140500,6.573140625,0.25124329027831555,-0.6597314444497228,0.3134588503684848
1746482391458120700,6.58312060546875,0.31758243310451506,-0.6732394530594349,0.32414069564156234
1746482391468100900,6.593100830078125,0.3852203835695982,-0.735649732004106,0.3351887438785285
1746482391478080800,6.603080810546875,0.5234031118571758,-0.8179825627759099,0.34271040808763353
1746482391488060700,6.613060791015625,0.6793938840359449,-0.8518141052290796,0.44850496113076804
1746482391498040600,6.62304052734375,0.8786544736206531,-0.8783461383238435,0.6003735022803768
1746482391508020700,6.633020751953125,0.9523971707016229,-0.8455211425647139,0.7317609078720212
1746482391518000600,6.643000732421875,0.9076900139689444,-0.7388856451854109,0.8637649475246667
1746482391527980500,6.65298046875,0.7859241674751043,-0.5699903832480311,0.964810369811952
1746482391537961700,6.662961669921875,0.6174608672142028,-0.3132340286366641,1.064366138063371
1746482391547941600,6.672941650390625,0.4742027353584766,-0.014778905328363179,1.1501659142933784
1746482391557921500,6.682921630859375,0.41685879989266394,0.2353082006521523,1.1530995565924793
1746482391567901700,6.692901611328125,0.44388826111555096,0.36412118917852637,1.099936779268831
1746482391577881600,6.702881591796875,0.5536012662440538,0.4323531600140035,1.0113466416679322
1746482391587861800,6.71286181640625,0.7203624387621879,0.5140615752771497,0.8956368803426623
1746482391597841700,6.722841552734375,0.9075012133985757,0.542268117455393,0.7881520726576448
1746482391607821800,6.73282177734375,1.0242688132137059,0.5445781479634344,0.6450399251438677
1746482391617801700,6.7428017578125,1.0197451983094215,0.5849433299690485,0.5468337448704987
1746482391627781600,6.75278173828125,0.8364467324882745,0.562356088977307,0.41526184955742207
1746482391637761500,6.762761474609375,0.6076794779121876,0.5596997292496264,0.27113787638628856
1746482391647741400,6.772741455078125,0.40784430330991744,0.5707718890145421,0.15308076648358254
1746482391657721900,6.782721923828125,0.334524215555191,0.6028596565403044,0.12916530909538268
1746482391667701800,6.79270166015625,0.23874504323303697,0.5162425725780427,0.13341107517266645
1746482391677681700,6.802681640625,0.16518588602542877,0.35297581804692746,0.2188083532826975
1746482391687661600,6.81266162109375,-0.017612229058146477,0.28547464570403097,0.340408305157721
1746482391697641700,6.822641845703125,-0.18044775256514548,0.2882762591212988,0.3967119743229821
1746482391707621600,6.83262158203125,-0.2575701552122831,0.27561127720698714,0.4998942259758711
1746482391717601800,6.842601806640625,-0.3064572279781103,0.18650442225560546,0.47501295576281843
1746482391727581700,6.852581787109375,-0.2727162864178419,0.07968991504758596,0.42995099424310024
1746482391737561600,6.8625615234375,-0.2127630452364683,0.05199789826273918,0.3852843887165189
1746482391747541800,6.872541748046875,0.01970832455456257,0.14614157833755015,0.33871783132012934
1746482391757521700,6.882521728515625,0.2443172904074192,0.21136326144114134,0.4495173530437052
1746482391767501600,6.89250146484375,0.28422844503521916,0.08506137895286082,0.6314606048636138
1746482391777481500,6.9024814453125,0.36715573456883427,-0.020513065066188572,0.7218353608589619
1746482391787461600,6.912461669921875,0.6065975278943777,0.0322118322968483,0.7370073571581393
1746482391797441800,6.92244189453125,0.8599778302013874,0.1350549516558647,0.7082191426344215
1746482391807421700,6.932421630859375,1.1052858852118252,0.24180823019593953,0.6278804082892835
1746482391817401600,6.942401611328125,1.263608899730444,0.34188086192831396,0.540068050127849
1746482391827381500,6.952381591796875,1.3024544709533452,0.4135932222254574,0.33797077581249174
1746482391837361700,6.962361572265625,1.204445347622037,0.509194115371257,0.13308529555071144
1746482391847341800,6.972341796875,1.0942086108803748,0.6138831548579037,-0.06360544354598968
1746482391857321700,6.98232177734375,0.9676374099314212,0.6645030427657067,-0.17460954793095587
1746482391867301600,6.992301513671875,0.8331389231145382,0.6857957139022648,-0.2262688618890941
1746482391877281800,7.00228173828125,0.6665449238568544,0.6838529092714191,-0.24314229181129485
1746482391887261700,7.01226171875,0.5839975735515356,0.5873113742746412,-0.18242676102053373
1746482391897241600,7.02224169921875,0.5451899962514638,0.46137774057686326,-0.041263884411007166
1746482391907221500,7.032221435546875,0.5671300253808498,0.4323369395315647,0.07850118018705397
1746482391917201700,7.04220166015625,0.5646130741238594,0.44125995843857524,0.16583799325861034
1746482391927181800,7.052181884765625,0.43238194771707056,0.4840471068941056,0.20171704282611608
1746482391937161700,7.06216162109375,0.22749650398790836,0.48070861012116073,0.1710356349669397
1746482391947141600,7.0721416015625,-0.0019599018961191177,0.4605341293595731,0.11181078112535178
1746482391957121500,7.08212158203125,-0.20183248589932917,0.4708369121871888,0.0926302798371762
1746482391967101700,7.092101806640625,-0.34203064566254615,0.46847617440521716,0.09604717560857534
1746482391977081900,7.102081787109375,-0.44337797350585456,0.4382939482398331,0.06785539260804653
1746482391987061800,7.112061767578125,-0.5241425320476293,0.42785467955097556,-0.006755027218163013
1746482391997041700,7.122041748046875,-0.5938859303593635,0.4372947080694139,-0.038818573618121445
1746482392007021600,7.132021484375,-0.621651304641366,0.3191178259782493,-0.010277100397087633
1746482392017001700,7.142001708984375,-0.58818567289114,0.17833704402148723,0.05492193248327821
1746482392026981600,7.151981689453125,-0.49356502295434473,0.10298983435332774,0.11354706686604768
1746482392036961500,7.16196142578125,-0.4042991780489683,0.04674158516973257,0.14897238131668417
1746482392046941700,7.171941650390625,-0.3849368904531002,-0.02259644721150398,0.19396818226501344
1746482392056921600,7.181921630859375,-0.3826876502215862,-0.09376593280360102,0.20137243063952773
1746482392066901800,7.19190185546875,-0.4078437187880277,-0.1759416733175516,0.110686581134703
1746482392076881700,7.201881591796875,-0.48103638077080246,-0.19709931989759205,0.016063958436530083
1746482392086861600,7.211861572265625,-0.5313438417285681,-0.23767164184786377,-0.028021778462175278
1746482392096841500,7.221841552734375,-0.5343021070122719,-0.2926221063058823,0.03508022734001279
1746482392106822000,7.23182177734375,-0.5128723654925823,-0.3555510022971779,0.12635858111158013
1746482392116801800,7.2418017578125,-0.42234921400249004,-0.4012459279581904,0.1850050688096322
1746482392126781700,7.25178173828125,-0.28062136045396324,-0.4508021321572363,0.16540404055444521
1746482392136761600,7.26176171875,-0.17067571561336517,-0.4221517917342484,0.10979602550314739
1746482392146741500,7.271741455078125,-0.03240413999855518,-0.3439576682023704,0.03257794392919168
1746482392156721700,7.2817216796875,0.062032385542988774,-0.28231727765165265,-0.06479961263346486
1746482392166701600,7.29170166015625,0.0653992316275835,-0.25652524926923215,-0.20346090908506884
1746482392176681700,7.301681640625,-0.025258944419026375,-0.23521007403992114,-0.32778701625466344
1746482392186661600,7.31166162109375,-0.2558890702575445,-0.2469333181247115,-0.4180046819921583
1746482392196641800,7.321641845703125,-0.5712596725314856,-0.2291953437950462,-0.4546114247797057
1746482392206621700,7.33162158203125,-0.819644066247344,-0.16012378033027053,-0.44237084228992457
1746482392216601600,7.3416015625,-0.9749439335525035,-0.1258627604186535,-0.39417602610457686
1746482392226581500,7.35158154296875,-0.9470897119432687,-0.1394233759984374,-0.3171940548414364
1746482392236561700,7.361561767578125,-0.7023387062937021,-0.17575893716178834,-0.25647932776827365
1746482392246541800,7.371541748046875,-0.317522811871767,-0.24970285590328276,-0.20915543093224986
1746482392256521700,7.381521728515625,0.13824761021733284,-0.3697784112226218,-0.18008432608023284
1746482392266501600,7.391501708984375,0.6145896956920623,-0.5016578015822917,-0.15298799189990386
1746482392276481500,7.4014814453125,0.9719722242653369,-0.5848314670924097,-0.08683409684696235
1746482392286461700,7.411461669921875,1.2093062316566705,-0.6229479933883995,-0.025153091158065945
1746482392296441600,7.421441650390625,1.3303542852699757,-0.6314248028978705,0.04459145793113857
1746482392306421800,7.431421875,1.3188193302989004,-0.6127313544742763,0.06106660925075411
1746482392316401700,7.441401611328125,1.1838988186776638,-0.594061433056742,0.10491829993156715
1746482392326381600,7.451381591796875,1.0458809255629777,-0.5400006109148263,0.1480075731388293
1746482392336361700,7.46136181640625,0.9547650688767433,-0.4982701319053769,0.17410059376182033
1746482392346341600,7.471341552734375,0.8589367967158555,-0.4463480022925883,0.23964644905216992
1746482392356321500,7.481321533203125,0.7876748105347156,-0.3951363590367138,0.3235227098736912
1746482392366301700,7.4913017578125,0.6946545815318822,-0.3259674726773053,0.3874028421752155
1746482392376281900,7.50128173828125,0.5923842936247586,-0.28005028256773945,0.44790027323588727
1746482392386261800,7.51126171875,0.5128899011492729,-0.239798278613016,0.4993660008506849
1746482392396241200,7.5212412109375,0.4940659582138061,-0.17946075082179158,0.5267831827495247
1746482392406221300,7.53122119140625,0.5165139368653298,-0.1091206287259236,0.5388130816306919
1746482392416201500,7.541201416015625,0.5339133999556303,-0.030480076600797473,0.5223953961193561
1746482392426181400,7.551181396484375,0.5049491712778806,0.03729925509635359,0.42564007224142547
1746482392436161300,7.561161376953125,0.3557119650125503,0.06164769707433879,0.3324828459206968
1746482392446141200,7.57114111328125,0.16825930212140083,0.06550302079562098,0.2875701932111755
1746482392456121000,7.58112109375,0.07199965280592441,0.09031308893598615,0.2987440415185876
1746482392466101500,7.5911015625,0.029951486149430273,0.12890505072399974,0.34519546636901793
1746482392476081400,7.601081298828125,0.05113806656301021,0.12010576779451221,0.3894870280381292
1746482392486061300,7.611061279296875,0.1390776313006878,0.06972069328958168,0.4004190121473744
1746482392496041200,7.621041259765625,0.2478554014056921,0.011960742635093629,0.4395158181849867
1746482392506021400,7.631021484375,0.29980946052670476,-0.06611958179138601,0.48758675226233894
1746482392516001300,7.641001220703125,0.34132395869791504,-0.12319069166518747,0.4926177686994895
1746482392525981200,7.650981201171875,0.3695335696160793,-0.160864917553775,0.46220600809454915
1746482392535961300,7.66096142578125,0.4101455659896135,-0.18485121168848126,0.43820378573834895
1746482392545941200,7.670941162109375,0.4128554094702005,-0.23806971952104938,0.43148631405159826
1746482392555921400,7.68092138671875,0.4035305317640304,-0.2603363685226068,0.3976333634842187
1746482392565901300,7.6909013671875,0.4461883547514677,-0.2511567079734057,0.440772247986868
1746482392575881200,7.700881103515625,0.5253583375781774,-0.2913974233491346,0.5107732743214816
1746482392585861000,7.710861083984375,0.5421931525230408,-0.3439815970672294,0.5480655151551589
1746482392595841300,7.72084130859375,0.44572833602428436,-0.37182551647815854,0.5320625113919377
1746482392605821400,7.730821533203125,0.327452085211873,-0.36668227183818813,0.5319339896414429
1746482392615801300,7.74080126953125,0.2023977185666561,-0.33834399303905666,0.5539626103697345
1746482392625781200,7.75078125,0.007845452803373336,-0.3136300056843087,0.5270126806564629
1746482392635761200,7.76076123046875,-0.251764683803916,-0.2637923541953787,0.5203725850548595
1746482392645741300,7.7707412109375,-0.5666144770741462,-0.20659714301787316,0.5104170812949538
1746482392655721200,7.78072119140625,-0.8536305070012807,-0.1702676828017458,0.4894213838109746
1746482392665701400,7.790701416015625,-1.0117617983400822,-0.08035941180698573,0.49992995487637815
1746482392675681300,7.800681396484375,-0.9730097506195307,0.031114538579434154,0.48594424575231965
1746482392685661400,7.810661376953125,-0.7986819422394037,0.12645341978818178,0.4311733025796711
1746482392695641300,7.820641357421875,-0.6027706630825996,0.2207674149286002,0.2760931789724156
1746482392705621200,7.830621337890625,-0.4688882623374462,0.22957769417613744,0.0744906293714419
1746482392715601200,7.84060107421875,-0.43936990690827366,0.17890622221156954,-0.10017766300942749
1746482392725581300,7.850581298828125,-0.44801498565673825,0.1715725183226168,-0.2369123479131609
1746482392735561500,7.8605615234375,-0.517568998876214,0.16983108148276804,-0.29219021769464015
1746482392745541400,7.870541259765625,-0.5202297425180673,0.12378398138321936,-0.2619911134596914
1746482392755521300,7.880521240234375,-0.42931963753700253,0.07748356410972773,-0.13682685669921338
1746482392765501200,7.890501220703125,-0.25583412519991394,0.00034464871920645234,-0.07073467437140643
1746482392775481300,7.9004814453125,-0.09549217207431793,-0.15764650349654255,-0.08262129232436419
1746482392785461200,7.910461181640625,0.022043489503860474,-0.2806821507304907,-0.05205956532210111
1746482392795441400,7.92044140625,0.14321429271399974,-0.4121370320677757,0.023066987332701683
1746482392805421300,7.93042138671875,0.22291385237276554,-0.6050513213656842,0.026841829696297646
1746482392815401200,7.940401123046875,0.1730003591686487,-0.7272945030476897,-0.02654226222783327
1746482392825381400,7.95038134765625,0.010963877084851264,-0.8251238858979195,-0.05160955653227865
1746482392835361300,7.960361328125,-0.24049685533642767,-0.8866420383084564,-0.10047149485684931
1746482392845341200,7.970341064453125,-0.5289724364221096,-0.9161053756147622,-0.09565452302917837
1746482392855321300,7.9803212890625,-0.7437608500063418,-0.8961185263797641,-0.09391016357988119
1746482392865301200,7.99030126953125,-0.9401870929479599,-0.8722925373733044,-0.10652779922112822
1746482392875281400,8.000281494140625,-1.0395160667061805,-0.831331508366391,-0.1017000868037343
1746482392885261300,8.01026123046875,-1.1028186183154582,-0.7490024769868702,-0.034074265167862175
1746482392895241200,8.0202412109375,-1.1661129866182804,-0.6911779183972626,0.0490884405568242
1746482392905221000,8.03022119140625,-1.276768241032958,-0.5648438141398131,0.16589271912053227
1746482392915201300,8.040201171875,-1.3696891013145447,-0.45581981418877837,0.32264278523400425
1746482392925181400,8.050181396484374,-1.4605471838474273,-0.39862054789066315,0.4689247949555516
1746482392935161300,8.060161376953126,-1.4386983401328324,-0.32738048128038644,0.5769073230296373
1746482392945141200,8.070141357421875,-1.3294739953041075,-0.23433804044574497,0.6395081561103463
1746482392955121200,8.08012109375,-1.2413128967702387,-0.15801014917716383,0.6333277139097452
1746482392965101300,8.090101318359375,-1.1230606113553045,-0.06804653126597404,0.6595280308321118
1746482392975081200,8.100081298828124,-1.0283528676569462,-0.003329290553182363,0.6203158182539046
1746482392985061400,8.110061279296875,-0.9385738125324249,0.0817823572821915,0.5538512954823672
1746482392995041300,8.120041259765625,-0.7542816594988108,0.14864084780737757,0.5122717692509293
1746482393005021400,8.130021484375,-0.5827028575658798,0.18921426573619246,0.49296910288780926
1746482393015001300,8.14000146484375,-0.43829204854369164,0.21664938515052198,0.4397977769315243
1746482393024981200,8.149981201171874,-0.39449791500270365,0.23187910298630593,0.40304713216125965
1746482393034961200,8.159961181640625,-0.3631710488468408,0.238687175565958,0.37703868454918266
1746482393044941300,8.16994140625,-0.20355448738634585,0.25060002393871544,0.44014702876061196
1746482393054921500,8.17992138671875,-0.037595278900861735,0.2334133268162608,0.5075169759392738
1746482393064901400,8.1899013671875,0.09847264918982981,0.19442615516558287,0.5733408627197146
1746482393074881300,8.19988134765625,0.219787244784832,0.15417451653704045,0.5620091752357781
1746482393084861200,8.209861083984375,0.30971359942555426,0.10513415290564299,0.5181150884516537
1746482393094841300,8.21984130859375,0.4131839107722044,0.07779504121169448,0.5216830100663006
1746482393104821200,8.2298212890625,0.45802375397384165,0.03671250471696257,0.527439673896879
1746482393114801400,8.239801513671875,0.530775101929903,0.005531622903048991,0.507719439708814
1746482393124781300,8.24978125,0.627328181234002,-0.0611468348801136,0.49341794263385236
1746482393134761200,8.25976123046875,0.7074971119701862,-0.16722469837665557,0.4450833891842514
1746482393144741400,8.269741455078124,0.7709171524792909,-0.252062059315294,0.3855686855506152
1746482393154721300,8.27972119140625,0.8677414499402045,-0.3094992260225117,0.30623138333298267
1746482393164701200,8.289701171875,0.9398942474812269,-0.3374206676490605,0.22434293532781302
1746482393174681000,8.29968115234375,0.9944593658834695,-0.35488428201675415,0.19124942482560872
1746482393184661500,8.30966162109375,0.9918085591137409,-0.36052769473120566,0.0907069105591625
1746482393194641400,8.319641357421874,0.9176596193194388,-0.3073147215902805,-0.009238514596968889
1746482393204621300,8.329621337890625,0.7222194648057222,-0.24063991706892846,-0.051036871210858224
1746482393214601200,8.339601318359374,0.4575304174989462,-0.141128718611598,-0.018247896613180638
1746482393224581000,8.3495810546875,0.1647130078166723,-0.04007219040840864,0.11153517905436455
1746482393234561300,8.359561279296875,-0.09873509951829909,0.037924949246644975,0.21821656140200793
1746482393244541400,8.36954150390625,-0.3719312784075737,0.12877499460354447,0.29213483424559233
1746482393254521300,8.379521240234375,-0.6381067648798227,0.24981018873527644,0.33219716084711254
1746482393264501200,8.389501220703124,-0.827411777639389,0.33492695113718507,0.35663616718538105
1746482393274481400,8.3994814453125,-0.8735527665674686,0.3921948987573385,0.4100106144983321
1746482393284461300,8.40946142578125,-0.8397060265451669,0.42277693789526816,0.452343224119395
1746482393294441200,8.419441162109376,-0.8061924639999866,0.40314927736148237,0.47853820727951824
1746482393304421000,8.429421142578125,-0.7789093202769756,0.41866584931463,0.5030542974419892
1746482393314401300,8.4394013671875,-0.755465316325426,0.423057946793735,0.5179875896144658
1746482393324381400,8.44938134765625,-0.7090338200181722,0.39460064472481604,0.48445495704263447
1746482393334361300,8.459361328125,-0.7418535550802946,0.35817324055954813,0.4530272608608007
1746482393344341200,8.46934130859375,-0.7468038709640502,0.3273227597437799,0.36265688877962526
1746482393354321200,8.479321044921875,-0.7132645894557237,0.3209730984561145,0.3214220112673938
1746482393364301300,8.48930126953125,-0.6537748741328716,0.2463696928925812,0.29734716206640005
1746482393374281500,8.499281494140625,-0.5490834965586662,0.17742095208987593,0.2561787739191204
1746482393384261400,8.509261474609374,-0.4295744890809059,0.12290405674353241,0.19370361304469405
1746482393394241300,8.5192412109375,-0.32430151222646236,0.08639511177465319,0.14456117727831005
1746482393404221200,8.52922119140625,-0.21272622035741806,0.08552738902941345,0.13219663961529732
1746482393414201000,8.539201171875,-0.0767237587183714,0.07722235589027404,0.11113434316851198
1746482393424181000,8.549180908203125,0.10017068527936934,0.05580781193971634,0.09311930546313524
1746482393434161000,8.559160888671874,0.2875035211831331,0.003409223921597004,0.07902538672424853
1746482393444141000,8.56914111328125,0.3703571609586477,-0.027833178821206093,0.042396468637511134
1746482393454121200,8.579121337890625,0.4120020075112581,-0.02905541409254074,0.028895547355711457
1746482393464101000,8.58910107421875,0.4551683645427227,-0.032076953870803115,0.02389861585125327
1746482393474081000,8.5990810546875,0.4941238258808851,-0.06855170430913567,0.0527953322507441
1746482393484061000,8.60906103515625,0.46137657153308387,-0.09899126623645424,0.08013027922622859
1746482393494041000,8.619041015625,0.42656653943657874,-0.12431655388996005,0.08974054974503815
1746482393504020000,8.62902001953125,0.4565659563809633,-0.17014760008603333,0.05823642732612788
1746482393514000000,8.638999755859375,0.5088379954099654,-0.20012085967585444,0.009386471700295806
1746482393523980000,8.64897998046875,0.5646317788243294,-0.24442381952181458,-0.06419979270994663
1746482393533960200,8.658960205078126,0.575921234601736,-0.32886239040121434,-0.11318426143564284
1746482393543940000,8.668940185546875,0.5514519792556762,-0.38305063831508157,-0.10069989678524434
1746482393553920000,8.678919921875,0.49362055253386494,-0.4124157028786838,-0.0849747235827148
1746482393563900000,8.68889990234375,0.46442894484102726,-0.4314107645973563,-0.06570047959648072
1746482393573880000,8.698880126953124,0.4957879597008228,-0.42674072695970533,-0.06176832777932286
1746482393583860200,8.708860107421875,0.5164204133629798,-0.4112403754889965,-0.09846000890396535
1746482393593840000,8.718840087890625,0.48455286445915696,-0.41029827233329413,-0.1734006835978478
1746482393603820000,8.728820068359376,0.43535774865746496,-0.3689258129812777,-0.15800876093767582
1746482393613800000,8.738800048828125,0.3535527411520481,-0.33789880655482407,-0.10247019439339637
1746482393623780000,8.748780029296874,0.2663110955506563,-0.303494286519289,-0.06760748226158321
1746482393633760000,8.758760009765625,0.2089507934719324,-0.2516352122053504,-0.03233063637092709
1746482393643740000,8.768739990234375,0.18339783454239367,-0.23191738917008042,-0.026525968680158257
1746482393653720000,8.778719970703126,0.11348200227320193,-0.14750775212422013,-0.0478138175111264
1746482393663700200,8.7887001953125,0.06627367637455463,-0.060901627947390076,-0.09869308700747788
1746482393673680100,8.79868017578125,-0.017157471027970314,-0.015635229896754026,-0.09784414202794432
1746482393683660000,8.808659912109375,-0.09635200377404689,0.0633706484094262,-0.10057933914549648
1746482393693640000,8.818639892578124,-0.2343079375684261,0.11975026888772844,-0.14973434213250875
1746482393703619800,8.828619873046875,-0.41165187889933585,0.1792865998312831,-0.18307773574255407
1746482393713600300,8.838600341796875,-0.5908943473279475,0.2607099145427346,-0.1452514245647937
1746482393723580200,8.848580078125,-0.6828133370906114,0.3330328079536557,-0.08945091914869845
1746482393733560000,8.85856005859375,-0.7035054119855165,0.34688056991174815,0.03712934188954532
1746482393743540000,8.8685400390625,-0.6363806717395782,0.3162365714535117,0.13289916186146436
1746482393753520000,8.87852001953125,-0.5539841280817985,0.2911211271584034,0.17687230523116887
1746482393763500000,8.8885,-0.4801104980975389,0.23949308512136339,0.17912519872449337
1746482393773480000,8.89847998046875,-0.38846214196979995,0.180213651548326,0.11947488601244985
1746482393783460000,8.908460205078125,-0.30625439888238903,0.12992679498717188,0.07245104983523487
1746482393793440000,8.91843994140625,-0.24960429089963435,0.08909297255650162,0.060091188347339626
1746482393803420200,8.928420166015625,-0.21377193001806735,0.03537862576469779,0.06781842159852385
1746482393813400000,8.938400146484375,-0.13134557574391365,-0.03597220774367452,0.09231398042961955
1746482393823380000,8.9483798828125,-0.07539338689744472,-0.08793971086814999,0.07378960496261716
1746482393833360000,8.95835986328125,-0.02882394342422485,-0.11932853634431957,0.05966814062967896
1746482393843340000,8.968340087890626,0.08153262030482292,-0.1617924441948533,0.05204568292722106
1746482393853320200,8.9783203125,0.15101298376619815,-0.22378069833517072,0.03461253676302731
1746482393863300000,8.988300048828124,0.21555881343483924,-0.2662834768913686,0.0383355758741498
1746482393873280000,8.998280029296875,0.26698972546458244,-0.2492461251117289,0.03844838859885931
1746482393883260000,9.008260009765625,0.27273089946508405,-0.2245418919660151,0.05268507680930197
1746482393893240000,9.018239990234376,0.28357553408443925,-0.21555647534728048,0.07432086229510605
1746482393903220000,9.028219970703125,0.25206395901143547,-0.17452070060372352,0.06227912684567272
1746482393913198800,9.03819873046875,0.21952479445636272,-0.13839943977817892,0.12448467699848115
1746482393923179300,9.04817919921875,0.25465923620164393,-0.08192030444815754,0.1602053211338818
1746482393933159200,9.0581591796875,0.23759470415413378,-0.07273644264787435,0.20261143438257276
1746482393943139000,9.06813916015625,0.2070814924687147,-0.0496007739931345,0.20644429054372013
1746482393953119000,9.078118896484375,0.19333178405761717,-0.012553045972436666,0.15147358701527117
1746482393963099000,9.088098876953126,0.13108838611245155,0.007423866390436887,0.09916684199906885
1746482393973079000,9.0980791015625,0.030006431207060813,-0.017564152132719755,0.09397358420491218
1746482393983059000,9.108058837890624,0.0010240823507308959,-0.018423399310559033,0.1270834613200277
1746482393993039000,9.1180390625,0.016854104167222977,-0.02880889198556542,0.15094298726990818
1746482394003019000,9.12801904296875,0.029405542704463,-0.04812967852726578,0.11307722086459397
1746482394012999200,9.137999267578126,0.08104746713638306,-0.07771160071194172,0.07804981969036161
1746482394022979000,9.14797900390625,0.1704039129346609,-0.04676218956634402,0.1147515838176012
1746482394032959000,9.157958984375,0.1788303804963827,0.021959318351745603,0.19743015928715466
1746482394042939000,9.16793896484375,0.17629647810459137,0.12241729613989591,0.33070494952797885
1746482394052919000,9.1779189453125,0.22964929810762405,0.05928279457390308,0.7682493945747614
1746482394062899200,9.187899169921875,0.15858078867197037,0.11641922476887702,1.019226581262797
1746482394072879000,9.197879150390625,0.1278314301431179,0.15074176560938357,0.7937490158818662
1746482394082859000,9.20785888671875,-0.10650397995412349,-0.01952478468120098,0.24018077512457967
1746482394092839000,9.2178388671875,-0.3684177173286676,-0.3519488130867481,-0.6017836978718638
1746482394102819000,9.227819091796874,-1.0410627116262912,-0.23218919184878467,-1.6859332715526223
1746482394112799000,9.237799072265625,-1.9325702370792626,0.6020097617127,-2.1968093486614526
