time,seconds_elapsed,z,y,x
1746483104154514200,0.02551416015625,-0.20799276209473608,0.1221586452037096,0.5215794035613537
1746483104164493000,0.0354931640625,-0.16043255401849746,0.13704992486536502,0.47285804275125265
1746483104174472000,0.045471923828125,-0.17369886282682417,0.22998773628175256,0.34650106907486916
1746483104184450800,0.055450927734375,-0.25200959847569465,0.2548147190243006,0.27480653669536115
1746483104194430000,0.065429931640625,-0.3487053011208772,0.23762802190184593,0.25612317127436396
1746483104204408800,0.075408935546875,-0.3653437167108059,0.2246095503747463,0.24181729028522966
1746483104214388000,0.085387939453125,-0.30737317377924916,0.1899678605824709,0.15558043781220912
1746483104224366800,0.095366943359375,-0.12524433625936507,0.11718845557570456,0.08469166885763406
1746483104234346000,0.105345947265625,0.1318961953639984,0.06574000788927079,0.026398762103915212
1746483104244324900,0.115324951171875,0.40916356921494007,-0.002830254989862442,0.015412088665366171
1746483104254304800,0.1253046875,0.6325608211904764,-0.08305529982745646,0.005516133072972297
1746483104264284000,0.135283935546875,0.7586708343684673,-0.11665887874364853,-0.018702070121467112
1746483104274262800,0.1452626953125,0.816777570900321,-0.11745616660118102,-0.0870411545932293
1746483104284242000,0.155241943359375,0.8104536285758018,-0.08254325865209103,-0.1494248377919197
1746483104294220800,0.165220703125,0.6713830115377902,-0.004724690434336662,-0.19514555548131465
1746483104304200000,0.175199951171875,0.5378308656603098,0.058606502747535705,-0.20161884314864872
1746483104314178800,0.1851787109375,0.5138432563513518,0.06439210041165351,-0.16998451847881077
1746483104324158000,0.195157958984375,0.4883855744898319,0.051743046718835825,-0.18107143742144108
1746483104334137000,0.20513720703125,0.3614648294508457,0.14001520441174506,-0.28872926358580586
1746483104344116000,0.215115966796875,0.2795996161907911,0.23401333853602407,-0.27857378027439117
1746483104354095000,0.22509521484375,0.2974228576511144,0.18361235407590865,-0.10411328542530536
1746483104364074000,0.235073974609375,0.3412257590204477,0.1002338136434555,0.011150924089550972
1746483104374053000,0.24505322265625,0.37107027766406536,0.0962169792175293,0.030873277169466015
1746483104384032000,0.255031982421875,0.3095207072019577,0.10486907222867012,-0.012536825489997863
1746483104394011100,0.26501123046875,0.12620587476789952,0.11855331418812275,-0.0948965442687273
1746483104403990000,0.274989990234375,-0.004106850796937942,0.0946089594990015,-0.08673895677626133
1746483104413969200,0.28496923828125,-0.17018237913846967,0.12405951038897037,-0.005204582905769348
1746483104423948000,0.294947998046875,-0.24001345573365687,0.15673369950056076,0.050751113072037696
1746483104433927200,0.30492724609375,-0.2542284435689449,0.17218319756686687,0.11117957054972648
1746483104443906000,0.314906005859375,-0.12868074044883251,0.11931436168849467,0.19834873543679712
1746483104453885200,0.32488525390625,0.04116670764684677,0.04609656526446342,0.3357774304866791
1746483104463864000,0.334864013671875,0.27868016325831413,0.015006430473923683,0.4951093297868967
1746483104473843000,0.344843017578125,0.5677665697187185,-0.018844985723495484,0.6956389163941145
1746483104483821800,0.35482177734375,0.8283902672827244,-0.09302139804661273,0.944993031924963
1746483104493801000,0.364801025390625,1.0422744255036116,-0.17669219942390918,1.0245412004143
1746483104503779800,0.37477978515625,1.0963818632662297,-0.17041969502568244,0.9544722234100103
1746483104513759000,0.384759033203125,1.051419270467758,-0.069189856082201,0.9085311409682035
1746483104523737900,0.39473779296875,0.9206997176676988,0.01551847164928913,0.8517419167757034
1746483104533717000,0.404717041015625,0.832148743033409,0.04090133470892906,0.7841314388394355
1746483104543696000,0.41469580078125,0.7486381006538867,-0.03924129254221916,0.7242056701868772
1746483104553675000,0.424675048828125,0.7224778234809637,-0.0644926381766796,0.7351379830896854
1746483104563654000,0.43465380859375,0.792881147006154,-0.13229191668331622,0.7401929283916949
1746483104573633000,0.444633056640625,0.9545020340263843,-0.33635727620124817,0.6983247944772243
1746483104583612000,0.45461181640625,1.1759060663580894,-0.5811176342010498,0.5915881748110056
1746483104593591000,0.464591064453125,1.3950696262866258,-0.7471867328017949,0.42526597823202605
1746483104603570000,0.47456982421875,1.5376777698010204,-0.825466488790512,0.24643968938887117
1746483104613549000,0.484549072265625,1.5834160231471062,-0.8584750244230032,0.08320143029987812
1746483104623528000,0.49452783203125,1.4945792173087595,-0.8640542858600616,-0.011966332125663757
1746483104633507000,0.504507080078125,1.3325813136696816,-0.8452046239614486,0.030173604467511175
1746483104643486000,0.51448583984375,1.2381406964749098,-0.8536614866614342,0.13750702098309994
1746483104653466000,0.524466064453125,1.174933421933651,-0.8106430136680602,0.252324071252346
1746483104663445000,0.534445068359375,1.166904429256916,-0.7147323239207267,0.4268319123744964
1746483104673424100,0.544424072265625,1.2383517088770866,-0.6214905611217022,0.6354407605409622
1746483104683403000,0.554403076171875,1.4396920273452996,-0.5517863257765769,0.8675847980737685
1746483104693382100,0.564382080078125,1.6376362736344336,-0.4175578880727291,0.9418453815490007
1746483104703361000,0.574361083984375,1.6978484580129385,-0.11369301467537879,0.741356711474061
1746483104713340200,0.584340087890625,1.5571590076014399,0.21125907041430472,0.4954775785773992
1746483104723319000,0.594319091796875,1.2313462140291929,0.4203285218298435,0.3322071707844734
1746483104733298200,0.604298095703125,0.8334545649349689,0.5295622190088033,0.26420389413833617
1746483104743277000,0.614277099609375,0.5337114476427436,0.7340665544658899,0.28231764297783374
1746483104753256200,0.624256103515625,0.4529547801464796,0.96362992785573,0.3768856859445572
1746483104763234800,0.63423486328125,0.5131920989662409,1.1591530844777822,0.5071171629667282
1746483104773214000,0.6442138671875,0.6524395338758826,1.2956710944235323,0.6560948415130377
1746483104783192800,0.65419287109375,0.696275752992928,1.3100801435261964,0.8142647112965583
1746483104793172000,0.664171875,0.5536816380038857,1.0150953266769647,1.1543483145445586
1746483104803150800,0.67415087890625,0.10346300482302903,0.37677754939496516,1.7367273469835518
1746483104813130000,0.6841298828125,-0.6163818398058414,-0.38237610005438327,2.273416056871414
1746483104823108900,0.69410888671875,-1.2477677719980478,-0.9830021523237228,2.5859452982395887
1746483104833088000,0.704087890625,-1.6965394212409852,-1.4063561594545841,2.616034147033095
1746483104843067000,0.71406689453125,-1.7328458293750881,-1.4892963084697723,2.3352672406286
1746483104853046000,0.7240458984375,-1.3995219295203685,-1.3670260195851325,1.6240215897798538
1746483104863025000,0.73402490234375,-0.8826622479572892,-1.125066690480709,0.4170727349042892
1746483104873004000,0.744004150390625,-0.3651075698673725,-0.935847017917037,-0.9933955360442399
1746483104882983000,0.75398291015625,0.044713148082047696,-1.0082447301298378,-2.2564929791212083
1746483104892962000,0.763962158203125,0.37747766048833725,-1.2782915050774812,-3.288767988657951
1746483104902941000,0.77394091796875,0.6035509998053312,-1.6214163757175206,-3.969722546139359
1746483104912920000,0.783920166015625,0.7148738512832671,-2.0723849504828453,-4.3070477905899285
1746483104922899000,0.79389892578125,0.8492512690037488,-2.5717390782326457,-4.498438961973786
1746483104932878000,0.803878173828125,1.0298563310224562,-2.9488661717176434,-4.5387347320049996
1746483104942857000,0.81385693359375,1.1982464929819105,-3.289506824326515,-4.555877005463838
1746483104952836000,0.823836181640625,1.1415554684668778,-3.364479939985275,-4.943762224328518
1746483104962815000,0.83381494140625,1.029358245307207,-3.3092560654133556,-5.402402064374089
1746483104972793600,0.843793701171875,0.675816610071063,-3.598590309154987,-5.792366427600383
1746483104982772500,0.8537724609375,0.34912732592523094,-3.844558873900771,-6.341845060956477
1746483104992751600,0.863751708984375,0.22568507065176963,-3.608286942782998,-7.119960015985369
1746483105002730500,0.87373046875,0.37228316058516503,-3.1491449984341857,-7.687533693480491
1746483105012709600,0.883709716796875,0.5265419944047928,-2.836571333402395,-7.613418071433902
1746483105022688500,0.8936884765625,0.5254909875145182,-2.703630597421527,-6.993090708872676
1746483105032667600,0.903667724609375,0.34444822819828985,-2.6106512849509715,-6.177454709222912
1746483105042647600,0.9136474609375,0.10658405945301055,-2.3174124349862337,-5.391786562335491
1746483105052626700,0.923626708984375,-0.16955577167272567,-1.7726152374446391,-4.553717197081446
1746483105062605600,0.93360546875,-0.4906606067497283,-1.0901099433898924,-3.7139340136468406
1746483105072584700,0.943584716796875,-0.9300830475628376,-0.3854074305742979,-2.9147417837977407
1746483105082563600,0.9535634765625,-1.4900436197057365,0.17620821529924868,-2.37903916233778
1746483105092542700,0.963542724609375,-1.8813012376129625,0.6238795020848512,-2.1135767925709485
1746483105102521600,0.973521484375,-2.203420729625225,1.068240056887269,-1.7782295701950788
1746483105112500700,0.983500732421875,-2.594294024389982,1.4543752172142266,-1.164996549808979
1746483105122479600,0.993479736328125,-2.9496424167871473,1.9398370132118463,-0.5680237593501806
1746483105132458800,1.003458740234375,-3.227372147452831,2.5719506751567125,-0.09064999274015426
1746483105142437600,1.013437744140625,-3.4212791010498997,3.2102000633776187,0.46436873908638954
1746483105152416800,1.023416748046875,-3.5089199751019478,3.8310026422351595,1.02357147859931
1746483105162395600,1.033395751953125,-3.4967046366512773,4.334190649059415,1.5830103649556635
1746483105172374500,1.04337451171875,-3.4671453646898267,4.497650441944599,2.1528893967837095
1746483105182353400,1.053353515625,-3.3286990170300004,4.518353038233518,2.7410768232405185
1746483105192332500,1.06333251953125,-3.011081512612104,4.638557626760005,3.3216935221821067
1746483105202311400,1.0733115234375,-2.4886253262162206,4.800997721208632,3.8652655618429184
1746483105212290600,1.08329052734375,-1.8004793959259986,5.0666865932077165,4.3933693987369535
1746483105222269400,1.09326953125,-1.0415496183604,5.46217351924777,4.79541466037929
1746483105232248600,1.10324853515625,-0.34724984161555766,5.907377539137006,5.074686944311857
1746483105242227500,1.1132275390625,0.18072017629835754,6.188824244499206,5.302275802758336
1746483105252206600,1.12320654296875,0.6065028353482484,6.293737740391492,5.520059891027212
1746483105262185500,1.133185546875,0.8312953410744667,6.293091259181499,5.661333571067452
1746483105272164600,1.14316455078125,0.8479355102300643,6.214989782369137,5.636015589937568
1746483105282143500,1.1531435546875,0.6732937405299395,6.074003102576732,5.546465082871913
1746483105292122600,1.16312255859375,0.4492103329211473,6.178874512892961,5.362341856664419
1746483105302101500,1.1731015625,0.37586876398697494,6.53891603154242,5.092077055051923
1746483105312080600,1.18308056640625,0.3343454249221831,6.808862853246927,4.828565819352865
1746483105322059500,1.1930595703125,0.5883904016830027,7.131373974925279,4.482699541050195
1746483105332038700,1.20303857421875,0.9063486823625863,7.592490434217453,4.155688769865035
1746483105342017500,1.213017578125,1.070770013756305,7.817011137264966,3.912413097465038
1746483105351996700,1.22299658203125,0.9869931216560304,7.918723791289329,3.665691668525338
1746483105361975600,1.2329755859375,0.7541158014126121,8.198575336414574,3.2784704665273425
1746483105371954700,1.24295458984375,0.2562691556163132,8.840456359136104,2.7199031023085114
1746483105381933600,1.25293359375,-0.29802360002323985,9.410849770227074,2.2812094872266053
1746483105391912700,1.26291259765625,-0.7137338144026696,10.141368276822567,1.7539830176889895
1746483105401891600,1.2728916015625,-0.9466073352538049,11.054926890563964,0.9800321966022253
1746483105411871700,1.282871826171875,-1.0047218167006968,11.773395478403568,0.13584580977261065
1746483105421850600,1.2928505859375,-1.428526636338979,12.062681206828355,-1.0402917272537946
1746483105431829800,1.302829833984375,-1.8339761534668504,12.423429412442445,-2.1470967848569154
1746483105441808600,1.31280859375,-0.9682090723395347,12.189222012639044,-1.7853227433264254
1746483105451787800,1.322787841796875,0.7575152345925569,11.892051083922386,-0.8605389712154865
1746483105461766400,1.332766357421875,2.763962608787417,12.671881610697508,2.074971459844708
1746483105471745500,1.34274560546875,5.685685922035574,11.290061342084407,8.040364550098776
1746483105481724400,1.352724365234375,8.898269081157446,9.490068852892518,11.266629028570652
1746483105491703600,1.36270361328125,11.181526148563623,8.07094615084529,9.010427725872397
1746483105501682400,1.372682373046875,11.405599107843637,7.452766321706771,4.3331607214897865
1746483105511661600,1.38266162109375,9.427332702994345,6.356958458936214,1.614336062067747
1746483105521640400,1.392640380859375,6.133658237594366,6.439110672444105,0.15612404316961764
1746483105531619600,1.40261962890625,2.8503496833860873,7.679177368545532,0.22076164277493954
1746483105541598500,1.412598388671875,-0.4440323457613587,8.79438083665967,0.10468553235530853
1746483105551577600,1.42257763671875,-3.860644039522111,9.977430929553508,-0.3440770567983389
1746483105561556500,1.432556396484375,-6.910081001752615,10.185733488249777,-0.4576075743883848
1746483105571535600,1.44253564453125,-9.10714213321805,9.610074703976512,-0.3742021459490061
1746483105581514500,1.452514404296875,-9.25790786422491,7.63087598671317,-0.6108382342040538
1746483105591493600,1.46249365234375,-6.864141088354587,6.5130275570482015,-1.006542017865181
1746483105601472500,1.472472412109375,-3.6177667187899347,6.053968614807725,0.20708324603438377
1746483105611451600,1.48245166015625,-0.4827513679951429,5.2732157124906776,2.2644290328174828
1746483105621430500,1.492430419921875,1.995927733746171,4.99653636766076,3.775888657778501
1746483105631409700,1.50240966796875,3.14742182790339,4.915130588606,4.541209597685933
1746483105641388500,1.512388427734375,3.0921096905261276,4.384830702972412,4.775639115807413
1746483105651367700,1.52236767578125,1.74732414432168,3.364598013406992,3.3884555665954945
1746483105661346600,1.5323466796875,-0.21409400157928465,-0.5429021775752305,1.2660934100225567
1746483105671325700,1.54232568359375,-2.9734803884923457,-11.787910325968264,3.9513571606263516
1746483105681304600,1.5523046875,-8.646089971333742,-32.199821541059016,19.69973909704685
1746483105691283700,1.56228369140625,-9.949225410288571,-56.984407741904256,35.859950314760205
1746483105701262600,1.5722626953125,1.6198878509759902,-63.4304590272665,36.07759353325367
1746483105711241500,1.582241455078125,27.714572315526006,-48.77522333319187,27.530143968892094
1746483105721220600,1.592220703125,43.20918611936569,-27.1952573497653,23.97466799432039
1746483105731199500,1.602199462890625,39.8260716215372,-13.351488845223187,16.49869849168062
1746483105741178600,1.6121787109375,26.31956172595024,-3.9476080372259017,0.7554775912851095
1746483105751157500,1.622157470703125,15.186260971373319,-0.6880331175655127,-15.63895096310377
1746483105761136600,1.63213671875,9.876460618329048,-1.9182788230068981,-23.440506172561644
1746483105771115500,1.642115478515625,5.171806425327063,0.704362321075797,-28.012432980072496
1746483105781094700,1.6520947265625,-4.054994352972507,3.245111802282929,-26.449285837972162
1746483105791073500,1.662073486328125,-14.688533568042516,3.143132314015925,-21.07303586746454
1746483105801052700,1.672052734375,-20.785350559973715,1.7228063736587762,-14.447128365689515
1746483105811031600,1.682031494140625,-21.298336322712895,-1.3228718205600976,-4.4231288694456214
1746483105821011500,1.692011474609375,-19.14009095185399,-3.740940970776975,5.744220528590679
1746483105830990600,1.701990478515625,-15.771450385057925,-4.496063757275045,12.237110722017288
1746483105840969500,1.711969482421875,-10.667430963277816,-5.282264111343026,14.933201571583748
1746483105850948600,1.721948486328125,-5.2094654171139,-5.586633427131176,14.898464604723452
1746483105860927500,1.731927490234375,-1.664489793768525,-5.4483384706407785,13.13258773562312
1746483105870906600,1.74190673828125,0.10860182901620864,-3.9983988977864384,11.148708751589059
1746483105880885500,1.751885498046875,2.1790683786571026,-1.9428256736338136,9.028218234106898
1746483105890864600,1.76186474609375,1.9609061047255991,-0.5474210067065433,7.3947916871219865
1746483105900843500,1.771843505859375,-1.4162608828753231,-0.15694454750595613,5.704194807672501
1746483105910822700,1.78182275390625,-4.910584177348017,-0.6682711631275713,3.082194737972319
1746483105920801500,1.791801513671875,-5.489622667187452,-1.4494244629390536,-1.2329603712275623
1746483105930780700,1.80178076171875,0.5133721317082643,-0.6801768511071801,-7.651590857961773
1746483105940759600,1.811759521484375,7.565317180609703,-1.5496572536692022,-14.136189608383178
1746483105950738700,1.82173876953125,15.528906534063815,-3.6188176891475914,-14.418651628267764
1746483105960717600,1.831717529296875,16.192251200574635,-3.103919955307245,-8.361888414305447
1746483105970696200,1.8416962890625,11.492542062759398,-1.207855667522177,-2.5773010962739584
1746483105980675300,1.85167529296875,6.702275286662578,2.3887109537854787,2.000799869827181
1746483105990654200,1.861654296875,2.8733026889503,6.193851132750511,1.9810624653086064
1746483106000633300,1.87163330078125,0.06444470738172531,4.362820531216263,5.005520469105243
1746483106010612200,1.8816123046875,-1.2304478038847446,5.429570057284832,3.414973571164906
1746483106020591400,1.89159130859375,-0.8223311133742331,3.6136566531226038,1.840890755160898
1746483106030570200,1.9015703125,0.053469724380969995,0.3802712367296219,0.8602211374379694
1746483106040549400,1.91154931640625,0.40729368368983265,-1.1066961904011665,-0.4106614065572619
1746483106050528300,1.9215283203125,0.3896118965268135,-2.03082310603857,-0.5889329841271043
1746483106060507400,1.93150732421875,-0.6709726771712303,-2.3221759961262345,0.160128456505388
1746483106070486300,1.941486328125,-2.23123695731163,-1.6408653186835347,0.6486528549440205
1746483106080465400,1.95146533203125,-2.9818448967337607,-0.44763877275548875,0.7959056093938648
1746483106090444300,1.9614443359375,-3.117532885596156,0.9098886930570006,0.9639762570753693
1746483106100423400,1.97142333984375,-3.0271780764102934,1.423571059758216,1.8134904147990047
1746483106110402300,1.98140234375,-2.231435110232234,1.6212480334132908,2.2548618707880377
1746483106120381400,1.99138134765625,-1.1235516097426415,1.7990848728276787,1.706964515274018
1746483106130360300,2.0013603515625,0.055306292158365244,1.4740576766751705,0.6136897511776537
1746483106140339500,2.01133935546875,1.0871405721902847,1.385055158881098,-0.6700644032198936
1746483106150318000,2.021318115234375,2.0019722746074198,1.3616089629724621,-1.6693243743181228
1746483106160297200,2.031297119140625,2.807184495398402,0.8485901016812771,-2.0620713540002704
1746483106170276000,2.041276123046875,2.784426135623455,0.7288762923464178,-1.8417011947609483
1746483106180255200,2.051255126953125,2.0521254217863083,0.6774016873054206,-1.3718813506618142
1746483106190234000,2.061234130859375,1.2923299673020838,0.5178668127790094,-0.854847408510372
1746483106200213200,2.071213134765625,0.6247662217915058,0.5238860730685293,-0.37083756488673386
1746483106210192100,2.081192138671875,0.1833311990469694,0.6409603276800364,0.10673077444732189
1746483106220171300,2.091171142578125,-0.23612346255779265,0.6564731733061373,0.5219817007519304
1746483106230151200,2.101151123046875,-0.7120376780092715,0.5244587218573317,0.5259989005040377
1746483106240130300,2.11113037109375,-1.0955191089570522,0.2758938570080325,0.23107282810471952
1746483106250109200,2.121109130859375,-1.444077695083618,0.19172597456248475,-0.23132519543059168
1746483106260088300,2.13108837890625,-1.8086533500313757,0.08123597544580698,-0.6764166217908263
1746483106270067200,2.141067138671875,-1.790476472827792,-0.06055782861155457,-0.9344253145508468
1746483106280046300,2.15104638671875,-1.6726847906619309,-0.060394600873859595,-1.4253130811199546
1746483106290025200,2.161025146484375,-1.6360013659089803,-0.3974801822165027,-1.7519576493412254
1746483106300004400,2.17100439453125,-1.1915069555938242,-0.6550066078849136,-2.040828074963391
1746483106309983200,2.180983154296875,-0.4646528167247772,-0.7053190372787416,-1.9170679859124122
1746483106319962400,2.19096240234375,0.17493395757973193,-0.46270467833168805,-1.0381813109710811
1746483106329941200,2.200941162109375,0.7830553340405225,-0.1675887824486941,-0.12800002817567438
1746483106339920400,2.21092041015625,1.068818149036169,-0.03670640376973897,0.23998452190011738
1746483106349899300,2.220899169921875,1.0592238067388533,0.024606471859663723,0.4629689187584445
1746483106359878400,2.23087841796875,0.9041653469741344,0.1830463176909834,0.467290837078169
1746483106369857300,2.240857177734375,0.6991419560790062,0.3576200271235779,0.5509050494300202
1746483106379836400,2.25083642578125,0.5397814152061939,0.35127953552305696,0.4748196982130408
1746483106389815300,2.260815185546875,0.3883551744639873,0.283907469452545,0.31044483630955216
1746483106399794400,2.27079443359375,0.2893956185400486,0.258160339657776,0.20753124553021043
1746483106409773300,2.280773193359375,0.3273568081438541,0.22555048448666928,0.20818841253099962
1746483106419752400,2.29075244140625,0.3774778066188097,0.18145247262828051,0.24653993489295242
1746483106429731300,2.3007314453125,0.3708469903022051,0.10269128979817033,0.15240215483596548
1746483106439710500,2.31071044921875,0.20044541545510292,0.06146795659326017,0.06677220048122108
1746483106449689000,2.320689208984375,0.07855857293009758,-0.014185944403894245,0.08680307152103632
1746483106459668200,2.330668212890625,0.08012742968201637,-0.07015851845126599,0.08375931991096586
1746483106469647000,2.340647216796875,0.06806815857589245,-0.12384341995287686,0.0256503366230987
1746483106479626200,2.350626220703125,-0.054874915003776545,-0.12158164903335272,0.012997063412889838
1746483106489605000,2.360605224609375,-0.013087445110082625,-0.05370623655058443,0.039291086500696834
1746483106499584300,2.370584228515625,0.25852467945814134,-0.0688610990518704,0.10861994919478893
1746483106509563100,2.380563232421875,0.33350364033579827,-0.23183409480080008,0.21883725058361886
1746483106519542300,2.390542236328125,0.18493103545904158,-0.3773149807399139,0.4053822605779394
1746483106529521200,2.400521240234375,-0.11333178014755248,-0.32972090692669154,0.48811132412571456
1746483106539500300,2.410500244140625,-0.5296025510191917,-0.17044935951158402,0.23810663573164492
1746483106549479200,2.420479248046875,-0.7886591453969478,-0.17104608329571783,0.08397307225950061
1746483106559458300,2.430458251953125,-0.730312170368433,-0.006186945006623864,-0.03348448258116841
1746483106569437200,2.440437255859375,-0.014002806389331816,0.4270927552677691,0.07170425005592405
1746483106579416300,2.450416259765625,0.4723942246317863,0.34081151566375045,0.2776627663766965
1746483106589395200,2.460395263671875,0.32627076647281644,0.20590309633910656,0.232239205002971
1746483106599374300,2.470374267578125,0.05152852718532085,0.03573744913972914,-0.024033384679444134
1746483106609353200,2.480353271484375,-0.0732417618215084,-0.0823708977598697,0.03781754334941506
1746483106619332400,2.490332275390625,-0.13308745097517966,-0.08719302068669349,0.107872418763116
1746483106629312300,2.500312255859375,-0.20303134029507636,-0.23144582613557577,0.18376005545090882
1746483106639291400,2.51029150390625,-0.35905309213399883,-0.3459149032173678,0.1469972818514332
1746483106649270300,2.520270263671875,-0.3947895914256572,-0.3866528275255114,0.15985650769621132
1746483106659249400,2.53024951171875,-0.28498364731669423,-0.3453206271186471,0.18982194930575788
1746483106669228300,2.540228271484375,-0.12023732175230979,-0.3042052112676203,0.22741394027099013
1746483106679207400,2.55020751953125,0.022686463582515717,-0.28485943641513584,0.2171322732966393
1746483106689186300,2.560186279296875,0.12551906154751777,-0.24527623510006813,0.17958353695124388
1746483106699165400,2.57016552734375,0.14989245530366896,-0.23449388859458267,0.1303934261182323
1746483106709144300,2.580144287109375,0.11552724436521529,-0.15101948657222092,0.10345310448352246
1746483106719123500,2.59012353515625,0.09082593382894992,-0.02586838155426085,0.12717610803954302
1746483106729102300,2.600102294921875,0.14499299282431602,0.0014355857610702514,0.06993165089283138
1746483106739081500,2.61008154296875,0.16169512130022048,0.1107989372016862,0.11189498881008475
1746483106749060000,2.62006005859375,-0.011024082839488983,0.14306523963212966,0.10196761516612023
1746483106759039200,2.630039306640625,-0.027777649241685867,0.1671931707272306,0.24071126527208833
1746483106769018000,2.64001806640625,0.06505377919077873,0.1610261725300923,0.23899244212284682
1746483106778997200,2.649997314453125,0.16322189247608185,0.021294497767463325,0.13998455354515463
1746483106788976000,2.65997607421875,0.3558697859227657,-0.006579999444819987,0.26092085387967523
1746483106798955300,2.669955322265625,0.3130933049917221,-0.024466259671375154,0.20600977158397435
1746483106808934100,2.67993408203125,0.06018354280591011,-0.0033550460489466783,0.27403595418166365
1746483106818913300,2.689913330078125,0.060112231135368344,0.03289919350650161,0.24481387828532605
1746483106828892200,2.69989208984375,0.07798807956576347,-0.054609724728949365,0.34557898579388857
1746483106838871300,2.709871337890625,-0.07549334014058112,-0.11382760084047913,0.23839418396875262
1746483106848850200,2.71985009765625,-0.2161176163613796,-0.08672401493545621,0.25262393098175523
1746483106858829300,2.729829345703125,-0.16918635383844374,-0.08895791146736591,0.25630850124601273
1746483106868808200,2.73980810546875,-0.17444588180184364,-0.02348945052847266,0.2774894921690225
1746483106878787300,2.749787353515625,-0.09408756597340107,-0.0043246947987005116,0.14219711502809076
1746483106888766200,2.75976611328125,-0.06330138256549835,-0.055698250618018204,0.15709508015885948
1746483106898745300,2.769745361328125,-0.1308241822183132,-0.01827493075057864,0.07053319698255509
1746483106908724200,2.77972412109375,-0.14199030387699604,0.006518697711639106,0.004529131329618394
1746483106918703400,2.789703369140625,-0.1595844127565622,0.10504932416640221,0.03666066493187099
1746483106928682200,2.79968212890625,-0.11627952403724193,0.18280483708530662,0.002549209558777511
1746483106938661400,2.809661376953125,-0.10376666394472121,0.17454320469647644,-0.03610606325641274
1746483106948640300,2.81964013671875,-0.13853402594327927,0.10015256510078907,0.05195102691370994
1746483106958619400,2.829619384765625,-0.17997078270316122,0.2063340716348961,-0.03803188021983951
1746483106968598000,2.839597900390625,-0.10262918434739113,0.2099581073509529,-0.10536843658555299
1746483106978577200,2.8495771484375,-0.021686346629261968,0.17445435736924408,-0.07667250345516949
1746483106988556000,2.85955615234375,-0.0028898762226104734,0.11100253348238766,-0.0619164310131222
1746483106998535200,2.86953515625,-0.056141573938727374,0.09800587192829698,-0.024432759260572492
1746483107008514000,2.87951416015625,-0.002210077264904976,0.06384403807483613,0.03681103318799287
1746483107018493200,2.8894931640625,0.05187573318779468,0.06460296668335795,0.04057798450607806
1746483107028472000,2.89947216796875,-0.035275896042585374,0.02335490089599043,0.09568879062496125
1746483107038452200,2.9094521484375,-0.09596972645819186,0.011326719047874212,0.07324194448459893
1746483107048431000,2.91943115234375,-0.12649462858140467,-0.04381280170883983,0.06668134385999291
1746483107058410200,2.92941015625,-0.13042203115820883,-0.03825684808213264,0.07371168088819831
1746483107068389000,2.93938916015625,-0.08067395764887332,-0.059180832036770874,0.03357398749552667
1746483107078368300,2.9493681640625,-0.06932137350738048,-0.07477715469524264,-0.028907968445867297
1746483107088347100,2.95934716796875,-0.09605214404463767,-0.09689604752287267,-0.001367196699976921
1746483107098326300,2.969326171875,-0.13866612789034843,-0.1297891400821507,0.025639979625865814
1746483107108305200,2.97930517578125,-0.1101987428188324,-0.14135248089749367,0.059134654807485636
1746483107118284000,2.989283935546875,-0.10705284600853919,-0.15391535414420068,0.08265322183258832
1746483107128263000,2.999262939453125,-0.07415712310075759,-0.17943704115264117,0.1049175875455141
1746483107138242000,3.009241943359375,-0.05292611902356147,-0.14637056478783486,0.142251256368123
1746483107148221000,3.019220947265625,-0.013380875098705291,-0.12561536152884364,0.12864585179854185
1746483107158200000,3.029199951171875,0.041783378240466115,-0.044942426793277264,0.17334115369664505
1746483107168179000,3.039178955078125,0.042677112209796905,-0.0220504307013005,0.1899017730763182
1746483107178158000,3.049157958984375,-0.009937456646561623,-0.025032332588918505,0.23652806130331008
1746483107188137000,3.059136962890625,0.007077391040325165,-0.011380020137690006,0.246585527600348
1746483107198116000,3.0691162109375,0.02547346395254135,-0.03817505155019462,0.22644485777681692
1746483107208095000,3.079094970703125,0.02145312239527702,-0.05425926732346415,0.2683764488489367
1746483107218074000,3.08907421875,0.011788052949309348,-0.09151789814848452,0.25720976093467324
1746483107228053000,3.099052978515625,-0.038652094477415085,-0.14342683948613702,0.26832157685654234
1746483107238032100,3.1090322265625,-0.06400163978934288,-0.27915158016234637,0.38573987739905713
1746483107248011000,3.119010986328125,-0.07690437598228454,-0.557056302068755,0.4023326637489721
1746483107257990100,3.128990234375,-0.09378478363454341,-1.1284279836073516,0.4803722543062642
1746483107267969000,3.138968994140625,-0.002881692916154861,-1.8518242371074853,0.7682233102854341
1746483107277948200,3.1489482421875,0.1598170524686575,-2.682535786944628,1.240673575953394
1746483107287927000,3.158927001953125,0.26539398070573805,-3.3499060557097193,1.727597991849482
1746483107297906200,3.16890625,0.24464228457808493,-3.846211317282915,2.070306536773592
1746483107307885000,3.178885009765625,0.2551940737307071,-4.3378003639891745,1.8960156994029878
1746483107317864200,3.1888642578125,0.31550036613345145,-4.4454798174634576,1.3313465111777185
1746483107327843000,3.198843017578125,0.16065467233657835,-4.037515687166154,0.7014904919665307
1746483107337822200,3.208822265625,-0.039787820509076116,-2.81423850556314,-0.04203380020442418
1746483107347801000,3.218801025390625,0.16776128947138785,-1.4730398779347538,-0.04147174587487243
1746483107357780000,3.228780029296875,0.18869009573161602,-0.05469077690879348,0.2061878863635473
1746483107367759000,3.238759033203125,0.0519271711140871,1.4843354711920023,0.7090059821631759
1746483107377738000,3.248738037109375,0.0030021044254302976,2.7130104201853276,1.5536457387834786
1746483107387717000,3.258717041015625,0.4149088348686695,3.0124852419301864,2.1169832400135693
1746483107397696000,3.268696044921875,0.5623556505858898,2.6553093418449163,2.1220681420624254
1746483107407675100,3.278675048828125,0.3225742500424385,2.276080161514133,1.691548627216369
1746483107417654000,3.288654052734375,-0.33904607689380645,1.9951719469428062,0.861341812030971
1746483107427633200,3.298633056640625,-0.8099801658451556,1.6018198409743607,-0.31849772131852805
1746483107437612000,3.308612060546875,-0.8824474361628294,1.4933894230023026,-1.5216913883790373
1746483107447592000,3.318592041015625,-0.7539888140320777,1.1487007371116429,-1.8772335497826336
1746483107457571000,3.328571044921875,-0.010626607954502106,0.7247405077159405,-1.661694025570154
1746483107467550000,3.338550048828125,0.663155281418562,0.28170623308122156,-1.2770137402266264
1746483107477529000,3.348529052734375,0.8876672166377305,0.2573249848121777,-0.8791765247333795
1746483107487508000,3.358508056640625,0.7742986116111278,-0.012505626634135842,-0.4657457265280187
1746483107497487000,3.368487060546875,0.4996130709469318,-0.004594268987700343,-0.22113361789248884
1746483107507466000,3.378466064453125,0.3092354605197906,-0.018297361778095364,0.0729831839505583
1746483107517445000,3.388445068359375,0.05022212076187133,-0.1687945049766451,0.0225891406878829
1746483107527424000,3.398424072265625,0.3701344581186771,-0.5589993258953094,0.13421250948235391
1746483107537403100,3.408403076171875,0.3717208505272865,-1.1650601896297186,0.5722308556511998
1746483107547382000,3.418382080078125,0.28619477667212484,-1.5281854265734554,0.6263431157194077
1746483107557361200,3.428361083984375,0.2829910121947527,-1.8214656314618884,0.32237814294844863
1746483107567340000,3.438340087890625,0.2565916655689478,-1.9275857266649603,-0.18902166577354074
1746483107577319200,3.448319091796875,0.5475847824335098,-2.0606249545842408,-0.3553944234959781
1746483107587298000,3.458298095703125,0.4437327782928943,-1.6465052242666482,0.020571809516102074
1746483107597277200,3.468277099609375,-0.06614800416827202,-0.9990896560326218,-0.17431027272343635
1746483107607256000,3.478256103515625,-0.26984569941759107,-0.6763681064739823,-0.47812736145630474
1746483107617235200,3.488235107421875,-0.33485271685719487,-0.6855149972647429,-0.9107043933540582
1746483107627214000,3.498214111328125,-0.6442144341051578,-0.7331121763505041,-1.7762126774147151
1746483107637193200,3.508193115234375,-0.7537608504951,-0.3411054936416447,-2.545290631768107
1746483107647172000,3.518172119140625,-0.625879151469469,-0.22509777228310704,-3.047847062690556
1746483107657151000,3.52815087890625,-0.6834171482026576,-0.15211524591967462,-3.208026810991764
1746483107667130000,3.538130126953125,-0.998218426156044,0.2337508882075548,-3.337424467538297
1746483107677109000,3.54810888671875,-1.4124275883227586,0.7436658651992678,-3.050008332377672
1746483107687088000,3.558088134765625,-1.0355109227180481,0.73390785677284,-2.3591063813775777
1746483107697067000,3.56806689453125,-0.4018856871664524,0.6654296560913324,-1.88691966201663
1746483107707046100,3.578046142578125,0.46899698340892787,0.8826011654198169,-1.4081433351323007
1746483107717025000,3.58802490234375,1.0302893886774778,0.9562076689004898,-0.9410850647009908
1746483107727004200,3.598004150390625,1.136003095036745,0.5584504598408937,-1.0607337729103863
1746483107736983000,3.607983154296875,1.221843641668558,-0.116726975543797,-1.541139162301272
1746483107746962200,3.617962158203125,1.0616612630188464,-0.9373144601210951,-2.0422319504119453
1746483107756941000,3.627941162109375,0.7808803280889988,-1.1991507483452557,-2.1194810481786726
1746483107766920200,3.637920166015625,0.8353262040257453,-0.986664766484499,-1.803703326408565
1746483107776899000,3.647899169921875,1.6002759725332258,-0.4828308629721403,-1.0523273252233862
1746483107786878200,3.657878173828125,1.6324819596111773,-0.15504676932692527,-0.265974118681252
1746483107796857000,3.667857177734375,1.504547069093585,-0.22160218525230882,-0.24759441238194702
1746483107806836200,3.677836181640625,1.4833943909496068,-0.20831658722162247,-0.18904548504054544
1746483107816815000,3.687815185546875,1.2637193743675947,-0.14864800820052623,-0.12298778950423002
1746483107826794200,3.697794189453125,1.4978472791939974,-0.45692368377745146,-0.21073680010586976
1746483107836773000,3.707773193359375,2.45035726262033,-0.709985421654582,-0.251041045704484
1746483107846753000,3.7177529296875,3.467982400035858,-0.5844149221807718,-0.07039572474062443
1746483107856732200,3.727732177734375,4.258447718071937,-0.5625029501020908,0.13096154486238956
1746483107866711000,3.7377109375,4.725632099100947,-0.78882281152606,0.1501999138176441
1746483107876690200,3.747690185546875,4.876051793149113,-1.0031003529787064,-0.09422054470330476
1746483107886669000,3.7576689453125,4.939911394119262,-1.140923015782237,-0.36893151206970215
1746483107896648200,3.767648193359375,4.937380998858809,-0.6850918034166097,0.15696633921265601
1746483107906627000,3.777626953125,5.032480956745148,-0.47674949723184107,0.3316562589034438
1746483107916606200,3.787606201171875,4.891980014643073,-0.5825520509183406,0.5688470584318042
1746483107926585000,3.797585205078125,4.520050489801168,-0.6698305213987827,0.7254083239749074
1746483107936564200,3.807564208984375,4.103738217875361,-0.9668278471142053,0.679749857866764
1746483107946543000,3.817543212890625,3.3714877729207275,-1.141842468714714,0.967335796636343
1746483107956522000,3.82752197265625,2.6127625780165196,-1.2111848850101232,1.1993547464847565
1746483107966501400,3.83750146484375,1.7874965802341698,-1.2726824330240487,1.5371163365259766
1746483107976480500,3.84748046875,0.9220885416775941,-1.3027613449454307,1.7784020041525364
1746483107986459400,3.85745947265625,0.12633330053985117,-1.0808709904015064,1.6877905898571013
1746483107996438500,3.8674384765625,-0.5553863960951566,-0.8487842360138893,1.7938289981260895
1746483108006417200,3.877417236328125,-1.155061431249976,-0.8228910853445529,1.911340109784901
1746483108016396300,3.887396240234375,-1.6505372562617062,-0.8607423848330974,1.631659829573333
1746483108026375200,3.897375244140625,-2.0014082109838722,-1.1078291399538516,1.2986378352746366
1746483108036354300,3.907354248046875,-2.0869465597987173,-1.3018120813965797,0.9444362748250364
1746483108046333400,3.91733349609375,-2.0490397307306525,-1.1350298660904168,0.4504889745548367
1746483108056312300,3.927312255859375,-2.0202461824446916,-1.0044956067293882,0.3205921363145113
1746483108066291500,3.93729150390625,-1.9429975230693817,-0.956546691596508,0.148450732062757
1746483108076270300,3.947270263671875,-1.725449581643939,-0.9985668012022971,-0.23170564611554145
1746483108086249500,3.95724951171875,-1.3776672405868768,-1.1204869614750146,-0.5290644986197353
1746483108096228400,3.967228271484375,-0.8988497049093246,-1.080825397694111,-0.7930386756554245
1746483108106207500,3.97720751953125,-0.3948737625777721,-0.9982681105166673,-1.1517281951740383
1746483108116186400,3.987186279296875,0.07969137635231018,-0.8252829489171505,-1.5354440193995833
1746483108126165500,3.99716552734375,0.44871290479302406,-0.5996060615718365,-1.8981559263020753
1746483108136144400,4.007144287109375,0.695841160967946,-0.2563677936851978,-2.638084943060577
1746483108146123500,4.01712353515625,0.904800137746334,0.03969780413806438,-3.5619571532845495
1746483108156102400,4.027102294921875,1.0925684424579143,0.03516308331787586,-4.278912413951755
1746483108166081500,4.03708154296875,1.2962526937037706,0.16455635595023632,-4.900974345220625
1746483108176060400,4.047060302734375,1.495648892366886,0.6650380264252423,-5.038548293960094
1746483108186039600,4.05703955078125,2.098539382436871,1.3137690611720085,-3.6529639966383574
1746483108196018400,4.067018310546875,3.344091231951117,2.2230466365933417,-1.2068339963242412
1746483108205997600,4.07699755859375,4.678389286410808,3.424796753782034,1.2033736267372965
1746483108215976400,4.0869765625,5.310194905319809,4.330820880365372,3.2770173451095816
1746483108225955600,4.09695556640625,4.804319266846775,4.447812936586141,4.720103106546402
1746483108235935500,4.106935546875,3.558073297588527,4.027311396276951,5.472533000698685
1746483108245914400,4.116914306640625,2.503404669936001,3.3241192880243062,5.920105503284931
1746483108255893500,4.1268935546875,1.663064729401469,2.5385809049963948,5.803554761090874
1746483108265872400,4.136872314453125,0.6435211911439895,1.6443857478946446,5.227404978430271
1746483108275851500,4.1468515625,-0.39899990259706974,0.6588233896940946,4.469156168866157
1746483108285830400,4.156830322265625,-1.2004653380751609,-0.20263912610709667,3.6652404176265
1746483108295809500,4.1668095703125,-1.713145980387926,-0.7987380563408136,2.7324545408457515
1746483108305788200,4.1767880859375,-2.04210730111897,-1.1414905865371228,1.9407675720602273
1746483108315767300,4.186767333984375,-2.3163269778370856,-1.399675658777356,1.4242556810215115
1746483108325746200,4.19674609375,-2.5333611245214938,-1.6872756260722874,1.1914315522700547
1746483108335725300,4.206725341796875,-2.6942016748189923,-1.937230045583844,0.9840314953714608
1746483108345704200,4.2167041015625,-2.7663182320028543,-2.1619980013906956,0.7132531912788749
1746483108355683300,4.226683349609375,-2.7597604809224605,-2.477738021498918,0.5203823027312755
1746483108365662500,4.236662353515625,-2.6442040104627607,-2.8900901576220988,0.4897755675435066
1746483108375641300,4.246641357421875,-2.3574597832143307,-3.304266002041101,0.42264673564434047
1746483108385620500,4.256620361328125,-1.9559289008349179,-3.5848797637104988,0.2975578822076321
1746483108395599400,4.266599365234375,-1.5106091456115245,-3.6876340357422825,0.22798516428768634
1746483108405578500,4.27657861328125,-0.9918190805077552,-3.7340526725679632,0.23304010958969593
1746483108415557400,4.286557373046875,-0.4255605772644281,-3.841065186566114,0.30000118370652196
1746483108425536500,4.29653662109375,0.07693067946732043,-3.9756782396733756,0.3568932837516069
1746483108435515400,4.306515380859375,0.4764639582887292,-4.069961620479822,0.3601648527681827
1746483108445494500,4.31649462890625,0.677996876719594,-4.083877333107591,0.22144904051721095
1746483108455473400,4.326473388671875,0.5749900912314653,-3.9931688881784675,0.07451543501913548
1746483108465452500,4.33645263671875,0.30444764172136785,-3.8584032748579977,0.023929157119989393
1746483108475431400,4.346431396484375,-0.04365677089691162,-3.636270928251743,-0.04881868370473384
1746483108485410600,4.35641064453125,-0.35804186926484105,-3.2836136746346947,-0.23244039013087747
1746483108495389400,4.366389404296875,-0.7142676290184259,-2.869989034357667,-0.515894343662262
1746483108505368600,4.37636865234375,-1.0802321079760788,-2.4335014048874375,-0.7122545356303454
1746483108515347500,4.386347412109375,-1.4287252276509999,-2.019529558607936,-0.8344669568479061
1746483108525326600,4.39632666015625,-1.757353955426812,-1.5816922680944203,-1.1274077006489038
1746483108535305500,4.406305419921875,-1.9134031797945499,-1.1527058080345391,-1.5444588082432746
1746483108545284400,4.416284423828125,-1.6881676064759492,-0.8034680074721574,-1.9060984097391367
1746483108555263200,4.42626318359375,-1.1348600624814629,-0.5131295551240443,-2.072438726496696
1746483108565242400,4.436242431640625,-0.4141831509426236,-0.29168986695706844,-2.2387509862035513
1746483108575221200,4.44622119140625,0.4390957661420107,-0.228562087392807,-2.3835338434085247
1746483108585200400,4.456200439453125,1.3827347531095147,-0.2659580443292856,-2.666182910297811
1746483108595179300,4.46617919921875,2.3301614419221877,-0.2815016504198313,-3.0594907387331127
1746483108605158400,4.476158447265625,3.208060421000421,-0.3449596848517656,-3.26857217284739
1746483108615137300,4.48613720703125,3.9099469996124503,-0.43050446340739723,-3.1576988917678595
1746483108625116400,4.496116455078125,4.215423107598721,-0.377311217880249,-2.9885645603775974
1746483108635096300,4.506096435546875,4.066857809245586,-0.18222586815357208,-2.8844328625127673
1746483108645075200,4.5160751953125,3.2776042050868273,0.07733984479010104,-2.7766289058759805
1746483108655054300,4.526054443359375,2.084047623486817,0.3947533510684967,-2.779825363829732
1746483108665033200,4.536033203125,0.8772396383866667,0.6489110674887896,-2.7088553463324905
1746483108675012400,4.546012451171875,-0.11126666431128979,0.8624848445862531,-2.5102856616213916
1746483108684991200,4.5559912109375,-0.8705807650193571,1.2253677241414784,-2.2634373914316295
1746483108694970400,4.565970458984375,-1.4977470336899161,1.51378836016953,-2.0974331747606394
1746483108704949500,4.575949462890625,-1.942467069454491,1.7105243997126818,-2.132994025224447
1746483108714928400,4.585928466796875,-2.436747839462757,1.6995868261128664,-2.2070281064674258
1746483108724907500,4.595907470703125,-3.054208414416015,1.5923317355304956,-2.1306009926080702
1746483108734886400,4.605886474609375,-3.565677050590515,1.5330419266939161,-1.9033920733898877
1746483108744865500,4.615865478515625,-3.839685422645509,1.4857932687848805,-1.6121809298604726
1746483108754844400,4.625844482421875,-3.917555428789556,1.397413559064269,-1.4336872339725493
1746483108764823600,4.635823486328125,-3.807952313776314,1.3055261334836483,-1.3098100944131612
1746483108774802400,4.645802490234375,-3.6648715843141075,1.2318728682518005,-1.3530161989331244
1746483108784781600,4.655781494140625,-3.526590071827173,1.213639292424917,-1.5623627137243747
1746483108794760400,4.665760498046875,-3.3448537407562133,1.215340251123905,-1.5342168156921863
1746483108804739600,4.675739501953125,-2.904090625923872,1.4846411761403082,-1.137097904536128
1746483108814718500,4.685718505859375,-2.3843197330892085,2.052472627788782,-0.5873387006729841
1746483108824697600,4.695697509765625,-2.0174127125844357,2.722185075765848,0.043728667089343067
1746483108834676500,4.705676513671875,-2.0742190340422093,3.4195436555594205,0.8014233499020338
1746483108844655400,4.7156552734375,-2.4018144732475277,3.7923067086160183,1.516729089796543
1746483108854634200,4.72563427734375,-2.781985172212124,3.717193892225623,1.9435592486053703
1746483108864613400,4.73561328125,-3.2070296166479584,3.5260242546379565,2.142442237049341
1746483108874592300,4.74559228515625,-3.8278994155228134,3.3924709397166963,2.565796828702092
1746483108884571400,4.7555712890625,-4.270986881649494,3.511161032027006,3.1437650589615105
1746483108894550300,4.76555029296875,-4.335216484975814,3.677601302027702,3.5053058762580154
1746483108904529400,4.775529296875,-3.852018542256951,3.500026474550366,3.371404186290502
1746483108914508300,4.78550830078125,-2.8321991096675396,3.4641678101837634,2.8907138424783945
1746483108924487400,4.7954873046875,-1.5435352636575699,3.282714679968357,2.8178555270165204
1746483108934466300,4.80546630859375,-0.26782142704837025,2.9514404061198234,2.8088801934003826
1746483108944445400,4.815445556640625,0.9482278491277247,2.624822433644533,2.748148369061947
1746483108954424300,4.82542431640625,2.0662825419545174,2.4008523502171037,2.7233734087675807
1746483108964403500,4.835403564453125,3.083151308044791,2.155689841157198,2.8036884699761866
1746483108974382000,4.845382080078125,3.9374762270510195,1.9477870954334735,2.6616987506210803
1746483108984361200,4.855361328125,4.35876219573617,1.6937503750443457,2.267164595261216
1746483108994340000,4.865340087890625,4.317002782893181,1.3786463147521018,1.7690554991364478
1746483109004319200,4.8753193359375,4.101472026509047,1.3057891683340073,1.2295756972253322
1746483109014298000,4.885298095703125,3.815544960862398,1.4148381565958261,0.9462889169543981
1746483109024277200,4.89527734375,3.6356922515809535,1.5787392635077238,1.0922457863748074
1746483109034256000,4.905255859375,3.5237189003050324,1.7845172721624374,1.4737614702075719
1746483109044236300,4.915236328125,3.3863089099556207,1.9108306989580393,2.0023755947113036
1746483109054215200,4.925215087890625,3.0359602255418894,1.9788392363011835,2.473007485845685
1746483109064194300,4.9351943359375,2.38876472979933,1.856794572865963,2.808909419494867
1746483109074173200,4.945173095703125,1.9883862323254347,1.6997043150126934,3.1079841360062357
1746483109084152000,4.955152099609375,1.862313044026494,1.4518611885666846,3.225772311040759
1746483109094131000,4.965130859375,1.759545327991247,1.0142565377652644,3.0649919664978977
1746483109104110000,4.975110107421875,1.7345073328465221,0.5584206492245197,2.7579847034215925
1746483109114089000,4.9850888671875,1.825644816842675,0.3231330529689789,2.4568407794207334
1746483109124068000,4.995068115234375,1.9329279644757509,0.11860475211441517,2.3764666815012694
1746483109134047000,5.005046875,1.949268858423829,0.025913608935475348,2.4798487300425767
1746483109144026000,5.015026123046875,1.986440358954668,0.10668167460858821,2.6737252885013816
1746483109154005000,5.0250048828125,2.033119108021259,0.10428045868575572,3.035258507013321
1746483109163984100,5.034984130859375,2.004056387405097,-0.0928916341871023,3.3202918386906384
1746483109173963000,5.044962890625,2.0517551271691916,-0.3732160575211048,3.498566923391819
1746483109183942100,5.054942138671875,2.2068384291142222,-0.7132505609303712,3.7871564862459897
1746483109193921000,5.064921142578125,2.397364508101344,-0.8611918821662664,4.106081566131115
1746483109203900200,5.074900146484375,2.5357880594074724,-0.862244606089592,4.486149389243126
1746483109213879000,5.084879150390625,2.554325002095103,-0.8325923951476812,4.954919578158855
1746483109223858200,5.094858154296875,2.3291502190530298,-0.7471352948755026,5.313280011853576
1746483109233837000,5.104837158203125,1.9422826527982948,-0.5073866275578737,5.542469291234016
1746483109243816200,5.114816162109375,1.3771933394648135,-0.27003333094418047,5.667378696450591
1746483109253795000,5.124795166015625,0.7444698750585317,-0.14346329903900623,5.741527051723003
1746483109263774200,5.134774169921875,0.2347276242852211,-0.24678163469433784,5.782586791864037
1746483109273753000,5.144753173828125,-0.032332682197541,-0.3273573926657438,5.604339179691672
1746483109283732200,5.154732177734375,-0.23824118536412714,-0.14482406599819658,5.180457933816314
1746483109293711000,5.164711181640625,-0.39558337215185163,-0.023645079481601713,4.9171992115736005
1746483109303690200,5.174690185546875,-0.4116968870848417,-0.027206571355462072,4.6807548464983695
1746483109313669000,5.184669189453125,-0.37261151575669643,0.14608020353913306,4.318652303665876
1746483109323648300,5.194648193359375,-0.3697347912766039,0.2640495803594589,4.074461269986629
1746483109333627000,5.204626953125,-0.5747118588119745,0.27961422923803325,3.7737662587970493
1746483109343606000,5.21460595703125,-0.9029395315062254,0.19495792395472525,3.3225913478046656
1746483109353585000,5.2245849609375,-1.0782114158034324,-0.08972644815444945,2.880574725779891
1746483109363564000,5.23456396484375,-0.982419310934469,-0.30373160240650177,2.2586662315070627
1746483109373543000,5.24454296875,-0.6764110688328743,-0.3601525778084993,1.800827186450362
1746483109383522000,5.25452197265625,-0.28735914427638054,-0.4307236591160297,1.6489882732540369
1746483109393501000,5.2645009765625,-0.029889526829123495,-0.4867115037977695,1.5456190841943025
1746483109403480000,5.27447998046875,-0.14768120899498463,-0.5728659386843442,1.0922568922907114
1746483109413459000,5.284458984375,-0.382242244541645,-0.6810089180171489,0.5452051938205957
1746483109423438000,5.29443798828125,-0.4501040668904781,-0.6898626710802316,0.06304243936836719
1746483109433417000,5.3044169921875,-0.6376292104959488,-0.7020750869214535,-0.32827976820766924
1746483109443396000,5.31439599609375,-0.8456897771298885,-0.6045014323979616,-0.6965437562793493
1746483109453375000,5.324375,-0.87425886901021,-0.0936368995964527,-1.297083883830905
1746483109463354000,5.33435400390625,-0.9880383929252624,0.4620703990161419,-1.5638421386271715
1746483109473334000,5.344333984375,-1.4265420383930205,0.9531395135015248,-1.6972633516013622
1746483109483313200,5.354313232421875,-2.1300291840694845,1.5747575003951788,-2.1681465871483088
1746483109493292000,5.3642919921875,-2.751651993268728,1.940423288667202,-2.4510031593084336
1746483109503271200,5.374271240234375,-3.1070202594101426,2.0954045915424824,-2.8592513672441244
1746483109513250000,5.38425,-3.2870588466525077,2.5797721625626084,-3.9392648640334604
1746483109523229200,5.394229248046875,-3.2869232375741,2.7867338280439373,-4.559216963541507
1746483109533208000,5.4042080078125,-2.999421762217581,3.1193449034541842,-4.867594345927238
1746483109543187200,5.414187255859375,-2.442887657392025,3.435449665221572,-4.66145159561336
1746483109553166000,5.424166015625,-1.8263319223240018,3.1561078231841324,-4.02971787289679
1746483109563145200,5.434145263671875,-1.1474097474530338,2.7423002275556323,-3.491037696930766
1746483109573124000,5.4441240234375,-0.6170075704887509,2.8675153377205134,-3.1216403209149837
1746483109583103200,5.454103271484375,-0.25170330900549887,3.173696671366691,-2.5635417432516814
1746483109593082000,5.46408203125,-0.28385815041810275,3.789203481903672,-2.170952292218804
1746483109603061200,5.474061279296875,-0.9815084066346287,4.807084055384993,-1.898529435789585
1746483109613040000,5.4840400390625,-2.11285636934191,5.753515595680475,-1.2372446244180202
1746483109623019000,5.49401904296875,-3.0074612762883306,6.042734688609838,-0.5473258392363787
1746483109632998000,5.503997802734375,-3.869928292956948,6.095643856498599,-0.45351007594168186
1746483109642977000,5.51397705078125,-4.790535656166076,6.741233086088299,-0.5118003523468971
1746483109652956000,5.523955810546875,-5.533751731771231,7.6752610718846315,-0.08412380584180354
1746483109662935000,5.53393505859375,-6.152714820241928,8.091671543487905,0.4193775047153234
1746483109672914000,5.543913818359375,-6.935145300382375,8.372427343976497,0.7011760922551155
1746483109682893000,5.55389306640625,-7.9049372579991815,7.601822910708188,1.368288002344966
1746483109692872000,5.563871826171875,-8.920300295701622,7.025753792068362,1.5470061546385288
1746483109702851000,5.57385107421875,-9.802521521893143,6.4511313651055096,0.9947621482223272
1746483109712830000,5.583829833984375,-10.396392839205264,6.047901862114667,-0.01579553502500057
1746483109722809000,5.59380908203125,-10.496990225464105,5.840837905302643,-1.074416699695587
1746483109732788000,5.6037880859375,-10.202360797923802,5.433202276307344,-2.045162012514472
1746483109742767000,5.61376708984375,-9.63736135483086,4.876118428644538,-3.0356618271172047
1746483109752746000,5.62374609375,-9.032257280364632,4.513337840420007,-3.7369764510601757
1746483109762725000,5.63372509765625,-8.523117087137699,4.350939539286494,-4.518484555658698
1746483109772704000,5.6437041015625,-7.9210969501614565,4.1822687337547535,-5.412874943071603
1746483109782683100,5.65368310546875,-7.0199933288455005,3.946527548512816,-6.25414690375924
1746483109792662000,5.663662109375,-6.035380818715692,3.727068805029988,-6.921099823895096
1746483109802641200,5.67364111328125,-4.960370244780183,3.551014903509617,-7.516728214007616
1746483109812620300,5.683620361328125,-3.724870125941932,3.4655122105300427,-8.314721589460968
1746483109822599200,5.69359912109375,-2.36648713927865,3.3699025495558974,-9.256513779518007
1746483109832578300,5.703578369140625,-0.8081909443408251,3.3562352587312456,-9.993568409883975
1746483109842557200,5.71355712890625,0.838808785444498,3.3727386497646568,-10.337623839372396
1746483109852536300,5.723536376953125,2.3536066149175165,3.464990232482552,-10.307448481339216
1746483109862515200,5.73351513671875,3.8746424619972704,3.287164060592651,-9.693567226177453
1746483109872494000,5.743494140625,5.279357283985615,3.342150619277358,-8.933535624849796
1746483109882473000,5.753472900390625,7.026625898727774,3.956170406126976,-8.12566441398263
1746483109892452000,5.7634521484375,8.63654589791894,3.7965094210028645,-7.082410914313793
1746483109902432300,5.773432373046875,9.771935244971512,3.419663482546806,-6.646861442476511
1746483109912411100,5.7834111328125,10.408813929361104,3.133642308875918,-6.4341948433518406
1746483109922390000,5.79339013671875,10.574947909891605,2.618856218716502,-6.232146668875217
1746483109932369000,5.803368896484375,10.311646517550944,1.9514502941161394,-6.414157432973385
1746483109942348000,5.81334814453125,9.698412328121066,1.2989941013664006,-6.735315970999002
1746483109952327000,5.823326904296875,9.070221392577887,0.6839262667685747,-6.897543007218838
1746483109962306000,5.83330615234375,8.355195054146646,0.3154723090827465,-6.715805799365043
1746483109972285400,5.843285400390625,7.50942753560543,0.1682733306467533,-6.291752704054117
1746483109982264600,5.8532646484375,6.61036389568448,0.25655016451478,-5.852067739847302
1746483109992243500,5.863243408203125,5.777402082702517,0.4283113372772932,-5.286662638562917
1746483110002222600,5.87322265625,5.018921217948198,0.4805342764675617,-4.600311482734978
1746483110012201500,5.883201416015625,4.355087891137599,0.5140618675380945,-4.046072210848331
1746483110022180600,5.8931806640625,3.699037473288178,0.6336123760700225,-3.5960327336266635
1746483110032159500,5.903159423828125,3.1033558916836976,0.8477934714108705,-3.1697742372259494
1746483110042138600,5.913138671875,2.556220022061467,0.9159908093243837,-2.780486750347912
1746483110052117500,5.923117431640625,2.0106858885474503,0.9739251118987798,-2.5756875235974785
1746483110062096600,5.9330966796875,1.5509151447758078,1.0268243429154158,-2.4823180427655576
1746483110072075500,5.943075439453125,1.216209435173869,1.060807861059904,-2.460250880125165
1746483110082054700,5.9530546875,0.9533119474589824,1.1042238089382648,-2.438351767528057
1746483110092033500,5.963033447265625,0.7074725620508193,0.9875117387026547,-2.3822236375927925
1746483110102012700,5.9730126953125,0.44266967910602684,0.7636468692153692,-2.370107083341479
1746483110111991600,5.982991455078125,0.2667735984958708,0.5539660079032183,-2.403863514731824
1746483110121970700,5.992970703125,0.27164456553310157,0.3699176004976034,-2.2774767304390666
1746483110131949600,6.002949462890625,0.41616351110488176,0.16271043582260608,-2.0426316172540186
1746483110141928700,6.0129287109375,0.5725330534681677,0.13552841438651084,-1.9535335301309822
1746483110151907600,6.022907470703125,0.7106962002724408,0.23976912558376787,-1.916433341270685
1746483110161886700,6.03288671875,1.033808210453391,0.28060324027538297,-1.6564900271862744
1746483110171865600,6.042865478515625,1.303827512872219,0.31300211957693097,-1.3982909264206886
1746483110181844700,6.0528447265625,1.4573197462335228,0.4120990381449461,-1.1488193219900131
1746483110191823400,6.0628232421875,1.6342530609369277,0.38942484952211376,-0.8061240749388933
1746483110201802500,6.072802490234375,1.6852283381536601,0.16103461156487464,-0.43911388632059095
1746483110211781400,6.082781494140625,1.6080688183665275,-0.16353461168706415,-0.14230711474120616
1746483110221760500,6.092760498046875,1.5970178475201129,-0.42750645063519477,0.13459902458190917
1746483110231739600,6.10273974609375,1.61707220903337,-0.6646417205840349,0.36557109572589397
1746483110241718500,6.112718505859375,1.6129326250106095,-0.8009551478683948,0.574677372020483
1746483110251697700,6.12269775390625,1.5719132168799639,-0.7701327241033316,0.7223942368507384
1746483110261676500,6.132676513671875,1.4798273461177944,-0.7622977926939726,0.8569009069740772
1746483110271655700,6.14265576171875,1.4140323931708931,-0.7781172931164503,0.8709814547747373
1746483110281634600,6.152634521484375,1.3090879176184533,-0.8504828566253185,0.7968687553375959
1746483110291613700,6.16261376953125,1.1665469941213726,-0.9555945054382086,0.7593518023699521
1746483110301592600,6.172592529296875,0.9961173622235655,-0.9689490770518779,0.6961778455764055
1746483110311571700,6.18257177734375,0.7098577036216854,-0.8108265535414219,0.6086725806027651
1746483110321550600,6.192550537109375,0.3993739966064691,-0.5842097549974918,0.6165402452379465
1746483110331529700,6.20252978515625,0.1497252820432186,-0.3618552900731563,0.7209837855309248
1746483110341508600,6.212508544921875,-0.06223287655115127,-0.24378245287835595,0.8027905466020107
1746483110351487700,6.22248779296875,-0.2915782232761383,-0.08923720333278179,0.7749515225619077
1746483110361466600,6.232466552734375,-0.5597738173991441,0.23008593595921992,0.8750596639990806
1746483110371445800,6.24244580078125,-0.8011117997348308,0.6016308453977107,1.1347007802665232
1746483110381424600,6.252424560546875,-0.9013006051927804,0.5540998634159565,1.420273041126132
1746483110391404500,6.262404541015625,-0.9950830507397651,0.4309083680331707,1.3324904205158352
1746483110401383700,6.2723837890625,-0.9095236591368913,0.478137152197957,1.1219085187107325
1746483110411362600,6.282362548828125,-0.5586123724043369,0.5798878001451492,0.7142173601359129
1746483110421341700,6.292341796875,-0.09563011924028396,0.7645081622198223,0.13407032453268766
1746483110431320600,6.302320556640625,0.4184107055097818,0.7778656564429401,-0.15501608192771674
1746483110441299700,6.3122998046875,1.0286042120695114,0.7650634580150246,-0.013966858293116093
1746483110451278600,6.322278564453125,1.7156711149513721,0.7631877272710204,0.3404100587233901
1746483110461257700,6.3322578125,2.301483044448495,0.7464601720929145,0.7461880771532654
1746483110471236600,6.342236572265625,2.6353824061036106,0.6455111959174274,1.0141182983383537
1746483110481215700,6.3522158203125,3.3126486304610965,0.6522814207047224,0.7426365221515298
1746483110491194400,6.3621943359375,3.850392402359843,0.7480506561547517,1.0048416436880827
1746483110501173500,6.372173583984375,2.0888035858422516,0.5220680638611317,1.7765809262052177
1746483110511152400,6.38215234375,0.6713268974363803,0.5742337199062109,1.9353101834371684
1746483110521131500,6.392131591796875,0.27793782045841214,1.0601797922894358,1.7103297539234161
1746483110531110400,6.4021103515625,0.1838712972730398,1.2732944274425506,1.2943261095553635
1746483110541089500,6.412089599609375,0.39787586700320243,1.1860478134050965,1.1132698697030543
1746483110551068700,6.422068603515625,0.7400362765252589,1.11371191438213,1.0182494067937136
1746483110561047600,6.432047607421875,0.992860113993287,1.0550232863090931,0.9708794605925679
1746483110571026700,6.442026611328125,0.9939005629569292,1.0139609158195555,1.010372389808297
1746483110581005600,6.452005615234375,0.7023597490817308,1.1519159728311001,1.0789615035183726
1746483110590984700,6.461984619140625,0.4956529351443052,1.2197479845635593,1.0798264497846364
1746483110600963600,6.471963623046875,0.5336018497884273,1.3015586911574006,1.0106237342208624
1746483110610942700,6.481942626953125,0.831796276333928,1.2465817770838736,0.9317590179510414
1746483110620921600,6.491921630859375,1.304333124306798,1.0898614485215394,0.7698160593695939
1746483110630900700,6.501900634765625,1.7218974421203135,1.012745694810897,0.5452578007906675
1746483110640879600,6.511879638671875,1.8952718952983616,0.9903420667577534,0.3448514021717012
1746483110650858800,6.521858642578125,1.9554162751376627,1.0452172740224748,0.26245368947014214
1746483110660837600,6.531837646484375,1.9329846630990504,1.0636249643072486,0.26607085705399514
1746483110670816800,6.541816650390625,2.020388805785775,0.9499956625178456,0.28463337257429955
1746483110680795600,6.551795654296875,2.2345114489376545,0.8739626625426113,0.2882658838577568
1746483110690774800,6.56177490234375,2.619447754868865,0.8760708868682384,0.37598888323530555
1746483110700753700,6.571753662109375,3.0220494813501833,0.794931138338521,0.4429113789074123
1746483110710732800,6.58173291015625,3.064667556849122,0.7128301435612142,0.31058504849784074
1746483110720711700,6.591711669921875,2.8997926364690065,0.7598185430988669,0.2113338892161846
1746483110730690600,6.601690673828125,2.751407663118839,0.8410621173292397,0.28292415750361977
1746483110740669400,6.61166943359375,2.775029361724853,0.7906848060056567,0.2814085653088987
1746483110750648600,6.621648681640625,2.925983308780193,0.658227761888504,0.29167927249781783
1746483110760627500,6.63162744140625,3.0155390765428542,0.6035952042732388,0.3261504280287772
1746483110770606600,6.641606689453125,3.0390806956499814,0.6749990100778639,0.5057289234787226
1746483110780585500,6.65158544921875,3.1163714406013487,0.5774161858672275,0.7893301034610718
1746483110790564600,6.661564697265625,3.162027860882878,0.43330271582379937,0.9343210504587739
1746483110800543500,6.67154345703125,3.1067186461150644,0.30974589425995946,0.9543621140990406
1746483110810522600,6.681522705078125,2.849005283039808,0.24457769490927456,0.8853965682920067
1746483110820501500,6.69150146484375,2.4966356141924857,0.26588519828878343,0.7776439765162766
1746483110830480600,6.701480712890625,2.266599362593889,0.3073834759775549,0.7471009542144834
1746483110840459500,6.71145947265625,2.0517425599485635,0.19948840699121353,0.5968519405581056
1746483110850438700,6.721438720703125,1.813895342338085,0.03171330819018185,0.3564750948721543
1746483110860417500,6.73141748046875,1.5094740041017531,-0.01376863230727613,0.20379410482849925
1746483110870396700,6.741396728515625,1.219152502888441,0.11290098751485347,0.21465024722255766
1746483110880375600,6.75137548828125,1.004404421314597,0.2394303220834583,0.38532972569558765
1746483110890354700,6.761354736328125,0.8724977045565843,0.2740866979882121,0.5820610159983858
1746483110900333600,6.77133349609375,0.8248948263823985,0.2870160299271345,0.6944603741340338
1746483110910312700,6.781312744140625,0.8074328194499015,0.302879807882756,0.7372318866290152
1746483110920291600,6.79129150390625,0.7133434999108315,0.312704086478427,0.7155829494006931
1746483110930271700,6.801271728515625,0.5110270298868418,0.2867152203496545,0.5186151103956624
1746483110940250600,6.811250732421875,0.20385083998441694,0.3313580796744674,0.27044355571288614
1746483110950229800,6.821229736328125,-0.1920551882505417,0.3341541401337832,0.0950342722389847
1746483110960208600,6.831208740234375,-0.6626175212800502,0.41663880046643315,-0.09125142923202365
1746483110970187800,6.841187744140625,-1.1460007574379443,0.5705906872287392,-0.2755759136326611
1746483110980167000,6.8511669921875,-1.4627286195397375,0.6736422617066651,-0.3528156590491533
1746483110990146000,6.86114599609375,-1.557268605455756,0.72081785437949,-0.36513997429963196
1746483111000125000,6.871125,-1.4102005599230527,0.7421917740587145,-0.3533299652468413
1746483111010104000,6.88110400390625,-1.1004758545815945,0.7154860648974776,-0.36567382544800636
1746483111020083000,6.8910830078125,-0.746867583850026,0.6594579612705856,-0.4521858050679788
1746483111030062000,6.90106201171875,-0.4328595021009445,0.5578654995597898,-0.6137058985948562
1746483111040040700,6.911040771484375,-0.1966290720373392,0.5007114606428891,-0.7795591624878346
1746483111050019800,6.921019775390625,-0.02554477562308311,0.4704486435219645,-0.8681009309023618
1746483111059998700,6.930998779296875,0.00507248095870018,0.46143253950402136,-0.9741210728622972
1746483111069977900,6.940977783203125,-0.12979250108301638,0.49565147383958097,-1.1105010625768452
1746483111079956700,6.950956787109375,-0.12288695947825908,0.5199300289191305,-1.1463231212601066
1746483111089936000,6.960935791015625,-0.10821253743767738,0.554350623306632,-1.1355369388297198
1746483111099914800,6.970914794921875,-0.05315466708242893,0.5960198736481368,-1.1451609456129372
1746483111109894000,6.980893798828125,0.006233925953507423,0.6334916722998023,-1.1222717990651727
1746483111119872800,6.990872802734375,0.04212298545837402,0.5741179845720529,-1.140925792261213
1746483111129852000,7.000851806640625,0.08864274457097053,0.5699200944907963,-1.245085693307221
1746483111139830800,7.010830810546875,0.0740782126456499,0.5887270862914622,-1.3661374001823365
1746483111149810000,7.020809814453125,0.11873568501770496,0.5999423077888787,-1.3767683920510112
1746483111159788800,7.030788818359375,0.2612093884974718,0.5957293662689626,-1.35581766621992
1746483111169768000,7.040767822265625,0.49888651023805136,0.547860384504497,-1.3175421499699354
1746483111179746800,7.050746826171875,0.8859832090735434,0.48616541422232984,-1.2184582370139658
1746483111189726000,7.060725830078125,1.4077666107743978,0.44172377655804157,-1.0761458615757524
1746483111199704800,7.070704833984375,2.0363006606668232,0.4040238682389259,-0.816020322792232
1746483111209684000,7.08068408203125,2.714230317369103,0.37907282072529197,-0.446161101418361
1746483111219662800,7.090662841796875,3.335796281814575,0.35898309563770886,-0.041439752434566615
1746483111229642000,7.10064208984375,3.936061684077978,0.3790112997964024,0.2564979228708893
1746483111239620900,7.110620849609375,4.539185982903838,0.45959684850946064,0.4367750681094825
1746483111249600000,7.12060009765625,5.117234877184033,0.6304423677317798,0.5226750898435711
1746483111259579000,7.130578857421875,5.601251150548458,0.8947461420480162,0.5450744070477783
1746483111269558000,7.14055810546875,5.823163132402301,1.1468277828466147,0.5530360335767269
1746483111279537000,7.150536865234375,5.50062921437025,1.339625240831822,0.34985315598174926
1746483111289515800,7.160515869140625,4.6833805188268425,1.5274359233804047,-0.20031009863764046
1746483111299494700,7.17049462890625,3.4193834965616463,1.7668167802989483,-0.9001502661138773
1746483111309473800,7.180473876953125,1.8286977746725082,1.7542146344877778,-1.4430056819379329
1746483111319452700,7.19045263671875,0.49314650528132914,1.2362594127729534,-1.5806214239925145
1746483111329431800,7.200431884765625,-0.35813130111396313,0.49412360668517646,-1.334174720340967
1746483111339410700,7.21041064453125,-0.7157569907933473,-0.06406476815342903,-1.1395014585465193
1746483111349389800,7.220389892578125,-0.6701835726201534,-0.08854206067547202,-1.2924144307151435
1746483111359368700,7.23036865234375,-0.6046645140051842,0.038787119033932685,-1.3716308830320834
1746483111369347800,7.240347900390625,-0.6132184073388576,0.03962386211901903,-1.214544132310152
1746483111379326700,7.25032666015625,-0.6369657781511545,0.05771174586489796,-0.9725517777189612
1746483111389305900,7.260305908203125,-0.8323235150784254,0.07019274951443076,-0.9184832106620073
1746483111399284700,7.27028466796875,-1.266553721010685,0.039810909123718735,-0.984913246642053
1746483111409263900,7.280263916015625,-1.8481471560299396,-0.039244799673557276,-0.9973752533301711
1746483111419242800,7.29024267578125,-2.3476368928581475,-0.07355009711831807,-1.0144976530447603
1746483111429222000,7.300221923828125,-2.6825807951301335,-0.027425767064094542,-0.9569041267320513
1746483111439200800,7.31020068359375,-2.748798941925168,0.04356090930700302,-0.8112479938238859
1746483111449180000,7.320179931640625,-2.6202356903761626,0.020944880612194537,-0.611078472700715
1746483111459158800,7.33015869140625,-2.304301024478674,-0.13332564364522695,-0.45078678845763204
1746483111469138000,7.340137939453125,-1.7949737842470406,-0.17396102089434862,-0.47612785820215936
1746483111479116800,7.35011669921875,-1.1627929022848607,-0.06435206066220998,-0.5460623951718211
1746483111489096000,7.360095947265625,-0.5109563027381897,0.07587298710793257,-0.6193307527393103
1746483111499074800,7.37007470703125,-0.00002104278802871704,0.0836009510114789,-0.7422060217797756
1746483111509054000,7.380053955078125,0.35395021603703497,0.025248715285956857,-0.8990884821012616
1746483111519032800,7.39003271484375,0.57917760604918,-0.07883037560880184,-1.1276064380913973
1746483111529012000,7.400011962890625,0.6610662001848221,-0.17845804005265234,-1.3377452723041177
1746483111538990800,7.409990966796875,0.6403799705088138,-0.3510778754711151,-1.383377434927225
1746483111548969700,7.4199697265625,0.5571563283771276,-0.5467372256934643,-1.2974480409681797
1746483111558948900,7.429948974609375,0.40814708564877505,-0.6686679073601961,-1.1300617222890257
1746483111568927700,7.439927734375,0.22822364921867846,-0.7289622170642018,-0.977384312441945
1746483111578907000,7.449906982421875,0.0441238038867712,-0.7296709498554468,-0.8116907691553235
1746483111588886800,7.45988671875,-0.08253390630185603,-0.7431468097612262,-0.6329141646727919
1746483111598865700,7.46986572265625,-0.11399579701423644,-0.742522248122096,-0.48305531937777996
1746483111608844800,7.4798447265625,-0.04684942945837974,-0.6305038886606693,-0.35841508649140597
1746483111618823700,7.48982373046875,-0.024292729735374448,-0.47216333848536013,-0.29442133774757384
1746483111628802800,7.499802734375,-0.16402444103062153,-0.40663551204204557,-0.2637356921046972
1746483111638781700,7.50978173828125,-0.42132805426120756,-0.31410277429521083,-0.37508097461014983
1746483111648760800,7.5197607421875,-0.8873656033426522,-0.21980390365868804,-0.5526917501837015
1746483111658739700,7.52973974609375,-1.4202186805903911,-0.1487935541510582,-0.6814817962259053
1746483111668718800,7.53971875,-1.9197054948091505,-0.051829555958509445,-0.712545919792354
1746483111678697700,7.54969775390625,-2.2477216436445713,0.1558320744857192,-0.6784156866535545
1746483111688676900,7.5596767578125,-2.288207383289933,0.4706523494005203,-0.5852212701275944
1746483111698655700,7.56965576171875,-2.153198024341464,0.7099810377404093,-0.43966333689689635
1746483111708635000,7.579634765625,-1.9731144289135931,0.6731266403347254,-0.3180670017510652
1746483111718613800,7.58961376953125,-1.8189304138958453,0.5247676782086491,-0.33767683436721563
1746483111728593000,7.599593017578125,-1.6637515426218508,0.4588327322691679,-0.4462923996478319
1746483111738571800,7.60957177734375,-1.5258885478079318,0.381604531159997,-0.6730144121319055
1746483111748551000,7.619551025390625,-1.3568337113946676,0.3695803313672542,-0.8638181390166282
1746483111758529800,7.62952978515625,-1.0953057584673165,0.39868163042813537,-1.0011316832542418
1746483111768509000,7.639509033203125,-0.6056003335505724,0.6255541572988033,-1.066625022906065
1746483111778487800,7.64948779296875,-0.037359716579318046,0.7907059949241578,-1.0222846536591648
1746483111788467000,7.659467041015625,0.46752106563746926,0.7029888407655059,-0.9681605570226908
1746483111798445800,7.66944580078125,0.859517811474204,0.5272831681609154,-0.9147019385576247
1746483111808425000,7.679425048828125,1.113843285676837,0.3786317989595234,-0.8463950027897954
1746483111818403800,7.68940380859375,1.173799449467659,0.16894480016753077,-0.8638947113841772
1746483111828382700,7.6993828125,1.0906132167369127,0.04907397364005446,-0.8226127067945898
1746483111838361900,7.70936181640625,0.9059031305521726,-0.0026915771715343,-0.7459979614086448
1746483111848340700,7.7193408203125,0.7705991725713014,-0.0614614537872374,-0.6289819397903978
1746483111858320000,7.72931982421875,0.6969669501274823,-0.10674611814692615,-0.48123321851715445
1746483111868298800,7.739298828125,0.6597171236634254,-0.1298527068376541,-0.33631270640715955
1746483111878278000,7.74927783203125,0.7642343137145042,-0.15444938795566557,-0.2139046164870262
1746483111888256800,7.7592568359375,0.9484539860337972,-0.18241408420205116,-0.13366042855754495
1746483111898236000,7.76923583984375,1.0740239009857178,-0.20255473575927316,-0.10163812748342752
1746483111908214800,7.77921484375,1.072939612880349,-0.24306794793345032,-0.1942434920750558
1746483111918194000,7.78919384765625,0.9739829795658588,-0.2507092564668506,-0.2678657776467502
1746483111928172800,7.7991728515625,0.8743611603409052,-0.25005210773237047,-0.2555386493846774
1746483111938152000,7.80915185546875,0.8037181828409433,-0.21849691271334884,-0.17502543525546788
1746483111948130800,7.819130859375,0.707784696739912,-0.15539105271995066,-0.04264233315736055
1746483111958110000,7.82910986328125,0.5698918913096189,-0.14104392640497534,0.1180413460779935
1746483111968088800,7.8390888671875,0.5006862531363964,-0.13203881870508194,0.28010625053867694
1746483111978067500,7.8490673828125,0.390496862667799,-0.12887071006298065,0.30941015949957074
1746483111988046300,7.85904638671875,0.33555998834371564,-0.12644525474803522,0.2723820129621774
1746483111998025500,7.869025390625,0.2893517793983221,-0.21661621353328225,0.2375523263171315
1746483112008004400,7.87900439453125,0.03197100927829742,-0.3170875622596592,0.2685209536198526
1746483112017983500,7.8889833984375,-0.4960030637562275,-0.13129640283994376,0.2866808796886354
1746483112027962400,7.89896240234375,-0.8254097901672124,0.3110517526941374,0.2564953655876219
1746483112037941500,7.90894140625,-0.7347352475076914,0.6347388228166848,0.2993351940784603
1746483112047920400,7.91892041015625,-0.2784159593641758,0.6227702256686986,0.3819603588603437
1746483112057899500,7.9288994140625,0.24530922405421732,0.35118484297692776,0.4887685093928128
1746483112067878400,7.93887841796875,0.6846107419013977,0.12677001145668326,0.5839187361616641
1746483112077857500,7.948857421875,0.9335264660149812,-0.03097564156539738,0.48537240068111565
1746483112087836400,7.95883642578125,0.9086006990730762,-0.12070303956791757,0.34716333237588404
1746483112097815600,7.968815673828125,0.7682178303927183,-0.04912862643674016,0.24672581285387277
1746483112107794400,7.97879443359375,0.6986246542066336,0.04720335746258497,0.2177133245876059
1746483112117773600,7.988773681640625,0.7819365591436624,0.08170680782794952,0.2847726714471355
1746483112127752400,7.99875244140625,0.9635743982762097,-0.00383943203240633,0.352272492083162
1746483112137731600,8.008731689453125,1.0945055480003356,-0.08232727781385182,0.36500659371092914
1746483112147710500,8.01871044921875,1.1861375375151633,-0.13233078738898038,0.2501765743622556
1746483112157689600,8.028689697265625,1.1237532697945833,-0.12713847944289444,0.11077212225999683
1746483112167668500,8.03866845703125,0.9344429963380098,-0.0939034415781498,-0.027504841915983704
1746483112177647600,8.048647705078125,0.7582131537288427,-0.0048550388157367706,-0.13064970243424176
1746483112187626200,8.058626220703125,0.6726286276847123,0.03395487657189369,-0.10682013323120772
1746483112197605400,8.06860546875,0.7423088976323604,0.013255202892422675,0.0026288689325563606
1746483112207584300,8.078584228515625,0.9353349767416715,-0.06748641316518188,0.06854664454152808
1746483112217563400,8.0885634765625,1.1267390076071024,-0.140049837333709,-0.04248929802011698
1746483112227542500,8.09854248046875,1.262575465029478,-0.21638401221260428,-0.3393856841117143
1746483112237521400,8.108521484375,1.3914759857088326,-0.2706910642005503,-0.6143250534065068
1746483112247500500,8.11850048828125,1.5892910526603459,-0.25233430038541554,-0.6680206224326044
1746483112257479400,8.1284794921875,1.9837386987805365,-0.27701135326325893,-0.46177269471120086
1746483112267458600,8.13845849609375,2.527152333009243,-0.41261239449456333,-0.17463406131770462
1746483112277437400,8.1484375,3.0253368324577807,-0.5600523420795798,0.04782431607225444
1746483112287416600,8.15841650390625,3.250118232268095,-0.7190821896933018,0.21998654848290605
1746483112297395500,8.1683955078125,3.163046682536602,-0.7877063747167586,0.2873083274045959
1746483112307374600,8.17837451171875,2.622379716667533,-0.7446443548426032,0.12309152387334032
1746483112317353500,8.188353515625,1.7685732685774564,-0.5160289298273623,-0.12145138285034335
1746483112327332600,8.19833251953125,0.9221054928123951,-0.210448192422837,-0.17157427188828586
1746483112337311500,8.2083115234375,0.22124971855282782,-0.007212707857787609,0.0037014483338221904
1746483112347290600,8.21829052734375,-0.3319949893385172,0.14250950544551014,0.29054542789598925
1746483112357270500,8.2282705078125,-0.613297902315855,0.30683249103128907,0.7125624325357377
1746483112367248600,8.23824853515625,-0.5644260271191597,0.3612973639294505,1.1094931276433169
1746483112377227500,8.2482275390625,-0.21872926016449926,0.18327946885973215,1.3262871819615363
1746483112387206700,8.25820654296875,0.24092881701290605,0.00941606312096119,1.3759300415307283
1746483112397185500,8.268185546875,0.5092378083825111,-0.1368196232408285,1.3057742630258202
1746483112407165400,8.27816552734375,0.4780032966852188,-0.32336481589823957,1.0530059551373123
1746483112417144600,8.28814453125,0.25649288136959075,-0.3610538374971598,0.7964049372181295
1746483112427123500,8.29812353515625,0.01968728176653385,-0.25962204624079166,0.6072134678356349
1746483112437102600,8.3081025390625,-0.26392157006561756,-0.1882195556104183,0.5116590076474472
1746483112447081500,8.31808154296875,-0.5557657508015632,-0.09888415260016918,0.49959122444130477
1746483112457060600,8.328060546875,-0.8251783194988965,0.028475349182263014,0.4814594284884631
1746483112467039500,8.33803955078125,-0.9721014036029577,0.15653912677653134,0.5605820650421083
1746483112477018400,8.348018310546875,-0.9930722954392432,0.1910062637194991,0.6669088617984205
1746483112486997200,8.357997314453126,-0.9693003747075796,0.14827325660400092,0.6602117753125727
1746483112496976400,8.367976318359375,-0.9895891294986009,0.1115051492422819,0.49170726625844835
1746483112506955300,8.377955322265626,-1.0973200208991765,0.10605163307674229,0.3679373864658177
1746483112516934400,8.387934326171875,-1.2529361145466564,0.14573292447142303,0.4057210275456309
1746483112526913300,8.397913330078126,-1.4183078785330057,0.21537191256061194,0.3925537951976061
1746483112536892400,8.407892333984375,-1.732747337436676,0.2802565457295626,0.29324476824887097
1746483112546871300,8.417871337890626,-1.998008631673455,0.3104023854073137,0.2450717803028412
1746483112556850400,8.427850341796875,-2.067652076742053,0.2974264378476888,0.279462326611951
1746483112566829600,8.43782958984375,-2.0073060368508098,0.3068271207364276,0.33494689794667065
1746483112576808400,8.447808349609375,-1.9125930324554443,0.22592414010465145,0.4332376512309536
1746483112586787600,8.45778759765625,-1.7545815681040287,0.12379490463603288,0.5061754982024431
1746483112596766500,8.467766357421874,-1.5146610513508318,0.0565184809597209,0.5246741912389173
1746483112606745600,8.47774560546875,-1.3574012821495531,-0.056472413328289985,0.46050567045006896
1746483112616724500,8.487724365234374,-1.1464140144139527,-0.1654446465594694,0.4804746917674318
1746483112626703600,8.49770361328125,-0.9038783467262983,-0.2048281605839729,0.43114323623497036
1746483112636682500,8.5076826171875,-0.7486714184015989,-0.25825481300819664,0.2891902686936781
1746483112646661600,8.51766162109375,-0.6764087307453155,-0.3544485574806109,0.13751433663987553
1746483112656640500,8.527640625,-0.6305746158093214,-0.3836597831893712,0.09360074143768288
1746483112666619600,8.53761962890625,-0.6321738676995039,-0.45672564045470204,0.09395212129177526
1746483112676598500,8.5475986328125,-0.5270750783681869,-0.5436632981408387,0.04157503271941095
1746483112686577700,8.55757763671875,-0.24308161113262175,-0.4948873941319063,0.14987601562552152
1746483112696556500,8.567556640625,0.08745441156923771,-0.4575287004658952,0.3255185963986441
1746483112706535700,8.57753564453125,0.24879765069186685,-0.47481052852589634,0.436751687233895
1746483112716514600,8.5875146484375,0.48705111101567744,-0.3947777548573911,0.4639504406090825
1746483112726493400,8.597493408203125,0.6937322059899568,-0.4156163986161351,0.6020300738483667
1746483112736472300,8.607472412109376,0.6441197415590286,-0.43345249955803156,0.5211729416523129
1746483112746451500,8.617451416015625,0.5833768113046884,-0.35740532492697236,0.39371750521473586
1746483112756430300,8.627430419921875,0.47881695115566253,-0.2777248352948576,0.3487703291811049
1746483112766409500,8.637409423828124,0.1710831273704767,-0.24217224120274183,0.22317001909092068
1746483112776388400,8.647388427734375,-0.3216039437055588,-0.2715746421020478,-0.18528580371346323
1746483112786367500,8.657367431640624,-0.7379366738975047,-0.2538894208729267,-0.7063111170560121
1746483112796346400,8.667346435546875,-1.0674766712993382,-0.23969072658531365,-1.306718265877664
1746483112806325500,8.677325439453124,-1.5467489650070667,-0.10630882270820438,-1.8071030518494546
1746483112816304400,8.687304443359375,-1.6072738685965537,0.3492519021529704,-1.4945039601154624
1746483112826283500,8.697283447265624,-0.8743494699031114,0.5475047029346227,-0.15874131299592553
1746483112836262400,8.707262451171875,0.1600514457464218,-0.31856793701052666,1.2044157562013715
