time,seconds_elapsed,z,y,x
1746483116578300200,0.488300048828125,-0.05516249977350235,0.008418284255266188,0.3035428749013692
1746483116588298200,0.49829833984375,0.02880582324564457,-0.009344751450419426,0.31740035453587767
1746483116598295300,0.50829541015625,0.13743921644389628,-0.015329963339865207,0.3026708047745749
1746483116608292400,0.518292236328125,0.16537936277091503,-0.04830167409330606,0.23781377199860287
1746483116618289200,0.5282890625,0.13368541686832905,-0.09659341131448745,0.14570728770666755
1746483116628286500,0.538286376953125,0.10453940188288688,-0.18010171560645102,0.06815348963863216
1746483116638283300,0.548283203125,0.04502221403121948,-0.2108870222315192,-0.01362105879643932
1746483116648280000,0.558280029296875,-0.10468553235530853,-0.2041530378013849,-0.042282148942304774
1746483116658277400,0.56827734375,-0.3033458179593086,-0.1400087746709585,-0.06284512669797987
1746483116668274200,0.578274169921875,-0.43984746129214763,-0.05594692814946174,-0.09251621587029658
1746483116678271200,0.588271240234375,-0.4504407514989376,-0.00016775778234004974,-0.09817419596621767
1746483116688268300,0.598268310546875,-0.39723289292454717,0.037676819704473015,-0.0401495299609378
1746483116698265300,0.608265380859375,-0.35408173346221444,0.07248685180097818,0.00839872103827074
1746483116708262100,0.61826220703125,-0.2106014832884073,0.10511106429100037,0.07689712425759061
1746483116718259500,0.628259521484375,-0.07192951017916202,0.10327771138399838,0.09910860900580883
1746483116728256300,0.63825634765625,-0.002889291700720787,0.0638742140173912,0.08001037917360664
1746483116738253300,0.64825341796875,0.09778700501322746,0.08477993166297673,0.007841196753364055
1746483116748250400,0.65825048828125,0.20026596723496912,0.13610972140580416,-0.09696105731679126
1746483116758247400,0.668247314453125,0.26546061620116235,0.15381576622724533,-0.1467122543649748
1746483116768244200,0.678244140625,0.2640788064539432,0.1639379317909479,-0.17111593366153538
1746483116778241300,0.6882412109375,0.24464579170942305,0.18171061210781334,-0.21935418712981045
1746483116788238300,0.69823828125,0.28726678981781006,0.21162235076874494,-0.2417752229754813
1746483116798234000,0.708234130859375,0.3697077571392059,0.22469547509253024,-0.25718685498312116
1746483116808231400,0.7182314453125,0.4596592462211847,0.20210779570937157,-0.29530104319155215
1746483116818228200,0.728228271484375,0.5425123014748097,0.1561371949121356,-0.3125507956128567
1746483116828225300,0.738225341796875,0.5590536864310502,0.15108078830540178,-0.2856373619850725
1746483116838222300,0.748222412109375,0.4764695112466812,0.15727935068458318,-0.2242677877323702
1746483116848219100,0.75821923828125,0.31478958751559255,0.19391776725202797,-0.20057897870689628
1746483116858216200,0.76821630859375,0.13392331727743148,0.26562837398350236,-0.20281141393408178
1746483116868213200,0.778213134765625,0.026629063728451727,0.2727007965877652,-0.17196374612990767
1746483116878210300,0.788210205078125,-0.0009580313771963119,0.20178309379965065,-0.10405976513978094
1746483116888207000,0.79820703125,-0.004229015871882439,0.10063976409584283,-0.07826857700757682
1746483116898204400,0.808204345703125,0.06818681651949882,0.0460714308232069,-0.11610997615661471
1746483116908201200,0.818201171875,0.16621406002938746,-0.049904433114826674,-0.13897417092621325
1746483116918198300,0.8281982421875,0.1977531076312065,-0.16242957305461167,-0.11578677208423614
1746483116928195300,0.8381953125,0.21699147658646106,-0.2160129869431257,-0.04164280072599649
1746483116938192400,0.8481923828125,0.21555063012838363,-0.220594761775434,0.06346840969547629
1746483116948189200,0.858189208984375,0.22494155880808828,-0.24303514164239168,0.14973755700290203
1746483116958186200,0.868186279296875,0.2020838303118944,-0.24002923782467842,0.17052220555208622
1746483116968183300,0.878183349609375,0.16386311298906803,-0.20626170051842926,0.10313786452189087
1746483116978180000,0.88818017578125,0.15003624768853185,-0.19287088854759932,0.05205382970105856
1746483116988177400,0.898177490234375,0.20956629502177238,-0.2581470783174038,-0.016972871708683668
1746483116998174200,0.90817431640625,0.27170857068002224,-0.30452392182797194,-0.08900091035887599
1746483117008171300,0.918171142578125,0.2858323731005192,-0.3354693874508142,-0.13722827710695565
1746483117018168300,0.928168212890625,0.18026070556044577,-0.3251701117545366,-0.2163266925347969
1746483117028165400,0.938165283203125,0.058065235477685925,-0.2758677361860871,-0.19439228942859918
1746483117038162200,0.948162109375,-0.004252981269359589,-0.3005062106192112,-0.12292831440195441
1746483117048159500,0.958159423828125,-0.042401217877864834,-0.3524213990345597,-0.07307802262715996
1746483117058156300,0.96815625,-0.02688040814101696,-0.3686971187919378,-0.055025392857752736
1746483117068153000,0.978153076171875,0.001450198808312416,-0.3610349136009812,-0.06138429689779877
1746483117078150400,0.988150390625,0.02801321156322956,-0.3691343411654234,-0.048631673232652245
1746483117088147200,0.998147216796875,0.034007483541965484,-0.4037099799841642,-0.001613097752444446
1746483117098144300,1.008144287109375,0.048432314735651016,-0.38720775799453255,0.03724412737563252
1746483117108140300,1.018140380859375,-0.013287351596355437,-0.386623236104846,0.06631316813472658
1746483117118137300,1.028137451171875,-0.105853991612792,-0.39176644421219825,0.12643413056582212
1746483117128134100,1.038134033203125,-0.15741875915527342,-0.38306466684043405,0.19084552019983528
1746483117138131200,1.048131103515625,-0.15530512800216673,-0.36592063981592654,0.22281872143521902
1746483117148128300,1.058128173828125,-0.09365794238448143,-0.33459406592100854,0.2262593634083867
1746483117158125000,1.068125,-0.060817164534330365,-0.29757483334243295,0.21562698330022392
1746483117168122400,1.078122314453125,-0.029605449190735815,-0.21905308529138565,0.18826288329549132
1746483117178119200,1.088119140625,-0.03401742041409016,-0.11126461848467588,0.1330012339964509
1746483117188116200,1.0981162109375,-0.0625888503819704,-0.014759177714586257,0.07303195499572902
1746483117198113300,1.10811328125,-0.10507073228061199,0.027306816859543323,0.09004585283454507
1746483117208110300,1.1181103515625,-0.14674363588392733,0.012350070746243,0.0789888541061431
1746483117218107100,1.128107177734375,-0.1281844813644886,-0.0006938274830579757,0.06275255304370075
1746483117228104400,1.1381044921875,-0.09662088384330272,-0.024557810412347315,0.04232954088114202
1746483117238101200,1.148101318359375,-0.03383037340939045,-0.07571078228354454,-0.005905278521031141
1746483117248098300,1.158098388671875,0.009160042533278465,-0.1378349377632141,-0.0481601467307657
1746483117258095400,1.168095458984375,-0.026703298008441925,-0.21975334251523015,-0.06330361105520278
1746483117268092200,1.178092041015625,-0.0975064345061779,-0.24265081849992273,-0.1200166647389531
1746483117278089200,1.188089111328125,-0.18721183987259862,-0.19384104875400662,-0.14929419714957476
1746483117288086300,1.198086181640625,-0.22489187444746492,-0.1199079436674714,-0.1914861561909318
1746483117298083300,1.208083251953125,-0.19764204847216604,-0.0639059243299067,-0.19583488945234565
1746483117308080000,1.218080078125,-0.15724866328537462,-0.059479632320255035,-0.17297427487932143
1746483117318077400,1.228077392578125,-0.1114443589657545,-0.0903565627515316,-0.10802921676002442
1746483117328074200,1.23807421875,-0.05940905130207538,-0.12448942623883485,-0.014883644344471394
1746483117338071300,1.2480712890625,-0.009692541974782943,-0.14433423665463924,0.013822298723272978
1746483117348068400,1.258068359375,0.002923193970322609,-0.0987263316899538,0.00437741136662662
1746483117358065400,1.2680654296875,0.03348024479746818,-0.03315510449633002,-0.005145546194911003
1746483117368062200,1.278062255859375,0.08940203850567341,0.010144523525983095,-0.0120564215619117
1746483117378059300,1.288059326171875,0.14883973138034343,0.010567278982698916,-0.0333629020281136
1746483117388056300,1.298056396484375,0.22397417508065698,-0.006008738895505667,-0.06651420713216066
1746483117398053000,1.30805322265625,0.268102070620656,-0.03433919971436262,-0.11257248621284961
1746483117408050200,1.31805029296875,0.3058990095734596,-0.07863353786244988,-0.1326292588789016
1746483117418047200,1.328047119140625,0.29017127908766266,-0.10011369439512491,-0.15050934509299693
1746483117428044300,1.338044189453125,0.24912907460331915,-0.0780484314508736,-0.16164850567951797
1746483117438041000,1.348041015625,0.18080197283029556,-0.017995675417780875,-0.14564089880641548
1746483117448037000,1.358037109375,0.14980243893265724,0.03137698890790343,-0.15612291065845638
1746483117458034200,1.3680341796875,0.13903379215896128,0.06130100252851844,-0.15279303558338433
1746483117468031200,1.37803125,0.11963701777160167,0.05907061312794685,-0.1603267555564642
1746483117478028300,1.3880283203125,0.10231588061451911,0.05242796024307608,-0.14647508460823447
1746483117488025000,1.398025146484375,0.10294541068971157,0.013340689218789338,-0.1401274326145649
1746483117498022400,1.4080224609375,0.0577308889567852,-0.014118103332072496,-0.10985533620864152
1746483117508019200,1.418019287109375,-0.06787234374284744,-0.013676789305359125,-0.056952890321612354
1746483117518016300,1.428016357421875,-0.20093290671110153,0.0011192132882773876,-0.047314526219479736
1746483117528013300,1.438013427734375,-0.28187223729789257,0.030731092219799756,-0.032334874154627324
1746483117538010400,1.44801025390625,-0.2955126401156187,0.039448651682585475,-0.0626104046266526
1746483117548007200,1.458007080078125,-0.2359779166072607,0.05464052172601223,-0.08076821180358529
1746483117558004200,1.468004150390625,-0.14624679227769374,0.059681730763614174,-0.10482267580367624
1746483117568001300,1.478001220703125,-0.08307049739658832,0.0153488141708076,-0.13353512167744339
1746483117577998000,1.487998046875,-0.07988894475102425,-0.08562602709829807,-0.10959997320808469
1746483117587995400,1.497995361328125,-0.12654782007336615,-0.1882990505874157,-0.0917898834902793
1746483117597992400,1.507992431640625,-0.1432072784513235,-0.23521613845452666,-0.09162943223156035
1746483117607989200,1.5179892578125,-0.1813537614941597,-0.2330703585974872,-0.10761606938187032
1746483117617986600,1.527986572265625,-0.24419337176680564,-0.17665712811052797,-0.1396819538693875
1746483117627983400,1.5379833984375,-0.27551731531322,-0.08537161394581198,-0.15208178204149006
1746483117637980400,1.54798046875,-0.24306524451971054,-0.029255466709285975,-0.16501863969974218
1746483117647977500,1.5579775390625,-0.178604170525074,-0.015085633189976215,-0.13057477403450757
1746483117657974500,1.567974609375,-0.10073124177157879,-0.03900412278547883,-0.06998458665646612
1746483117667971300,1.577971435546875,-0.07018588138222694,-0.05334273700043559,-0.026890235415287313
1746483117677968400,1.587968505859375,-0.05645370862782001,-0.04915624509602785,-0.028196861034445464
1746483117687965400,1.59796533203125,-0.08386953881978988,-0.017783347841352222,-0.07035378529503941
1746483117697962200,1.607962158203125,-0.10727028815150261,-0.010111936430633068,-0.14671660174652934
1746483117707959300,1.617959228515625,-0.1596732600837946,-0.0009539397239685058,-0.19838256464116275
1746483117717956400,1.627956298828125,-0.21795359961688518,-0.0048373570285737515,-0.2316547927111387
1746483117727953400,1.637953369140625,-0.25777766048312184,-0.03132423580735922,-0.2785638434022665
1746483117737950200,1.6479501953125,-0.2847241195976734,-0.02475596333295107,-0.335837709306553
1746483117747947500,1.657947509765625,-0.29901392623484135,-0.008237520860880613,-0.42155302212350065
1746483117757944300,1.6679443359375,-0.3193704855650663,-0.012633271601796149,-0.4864123747207224
1746483117767940400,1.6779404296875,-0.33736733002662656,0.0035864801846444603,-0.5548938633378595
1746483117777937400,1.6879375,-0.36178047127127644,0.06274754807502031,-0.6266434869054704
1746483117787934200,1.697934326171875,-0.3857902924120426,0.11375351269096136,-0.6782752552695572
1746483117797931500,1.707931640625,-0.3765133455008268,0.14462474403381348,-0.7442796862486749
1746483117807928300,1.71792822265625,-0.40264498110115526,0.18428543103188275,-0.8645492297701537
1746483117817925400,1.72792529296875,-0.45019817491471764,0.1935169313661754,-0.9276580123730003
1746483117827922400,1.73792236328125,-0.540978516036272,0.14913155393376945,-0.9950183149404823
1746483117837919500,1.74791943359375,-0.6333481721758842,0.10922522161155938,-1.100871868161857
1746483117847916300,1.757916259765625,-0.7674813328117132,0.11129267553538083,-1.2555367985643446
1746483117857913600,1.76791357421875,-0.9143839586496353,0.13175196458771823,-1.399145789684355
1746483117867910400,1.777910400390625,-1.0487363149940967,0.15704948745146394,-1.5714428228892385
1746483117877907200,1.7879072265625,-1.2084984224051236,0.24126915488317607,-1.7129922511309383
1746483117887904500,1.797904541015625,-1.318814654123783,0.3093386286333203,-1.8151777833640574
1746483117897901300,1.8079013671875,-1.4078753318458794,0.35780952181369063,-1.8777100812532006
1746483117907898400,1.8178984375,-1.5217670839637516,0.38293241876289247,-1.8949077381610868
1746483117917895400,1.8278955078125,-1.5836311272025108,0.4198392770081758,-1.948795395693183
1746483117927892500,1.837892578125,-1.5782301449418068,0.46349531725272536,-2.010730750602484
1746483117937889300,1.84788916015625,-1.499354761147499,0.5180820629648863,-2.0771989266358313
1746483117947886600,1.857886474609375,-1.4272399575293064,0.5427453795783221,-2.0766021297864614
1746483117957883400,1.86788330078125,-1.3352742060154676,0.5959383328445256,-2.04432673073411
1746483117967880400,1.87788037109375,-1.222822715833783,0.6486421874195337,-2.043665928737819
1746483117977877500,1.88787744140625,-1.1588368581354618,0.6900937033571303,-2.0616846927702426
1746483117987874300,1.897874267578125,-1.1587988642126321,0.7313361065886914,-2.153510305161029
1746483117997871400,1.907871337890625,-1.220071955820918,0.7462004982434213,-2.2315299489088356
1746483118007868400,1.917868408203125,-1.2449217349171637,0.8280877772048115,-2.3072461380198597
1746483118017865500,1.927865478515625,-1.1782307099133729,0.9770144562162458,-2.324715451475978
1746483118027862300,1.9378623046875,-1.1878525247395038,1.0426080413721501,-2.2535192240074275
1746483118037859300,1.947859375,-1.22018009237051,1.1706218423448502,-2.312230356173217
1746483118047856400,1.9578564453125,-1.2010872693657875,1.3692315668053925,-2.484173022982478
1746483118057853400,1.967853515625,-1.2527163343161343,1.5878208339773117,-2.60536691480726
1746483118067850200,1.977850341796875,-1.274772683301568,1.8533976239040493,-2.752625806736946
1746483118077846300,1.98784619140625,-1.1275339573770762,2.104153276795894,-2.808770011024177
1746483118087843300,1.99784326171875,-0.9101426678180694,2.2872170570783315,-2.789260131651163
1746483118097840400,2.00784033203125,-0.6830892314225435,2.44191822783798,-2.7471616961121557
1746483118107837400,2.01783740234375,-0.5539344437211752,2.490588150721788,-2.7573089961171147
1746483118117834200,2.027834228515625,-0.4533697906881571,2.4761601046577093,-2.7518998305499554
1746483118127831600,2.03783154296875,-0.4355290135711431,2.4468368334092196,-2.7266286111712454
1746483118137828400,2.047828369140625,-0.41733693879842754,2.429010669339448,-2.670499604453146
1746483118147825400,2.057825439453125,-0.5983867489099503,2.491511403046548,-2.697104995045066
1746483118157822500,2.067822509765625,-0.8466571608573198,2.722548356120288,-2.7872674965292212
1746483118167819500,2.077819580078125,-1.0226789136737584,2.993774403980374,-2.8832474521204827
1746483118177816300,2.08781640625,-1.0421627818226813,3.238226718944311,-2.804381128415465
1746483118187813400,2.0978134765625,-0.8794710507005452,3.50913917081058,-2.562437581402063
1746483118197810400,2.107810546875,-0.5973766950845718,3.848820622998476,-2.389984334722161
1746483118207807200,2.11780712890625,-0.2640501648813486,4.1903994332402945,-2.3295722438573834
1746483118217804500,2.127804443359375,0.11552139914631843,4.487547565603256,-2.3301807311445475
1746483118227801300,2.13780126953125,0.5195891065269709,4.713632156966626,-2.3826956390187144
1746483118237798400,2.14779833984375,0.8885024984180927,4.843123921537399,-2.437271863336861
1746483118247795500,2.15779541015625,1.2041343819767236,4.901721071934699,-2.4677333448350427
1746483118257792500,2.16779248046875,1.5633289284080265,4.877822894474864,-2.5853636989593505
1746483118267789300,2.177789306640625,1.982682467725873,4.873610245215892,-2.719721316000819
1746483118277786400,2.187786376953125,2.572126616245508,4.823931437550485,-2.829851669758558
1746483118287783400,2.197783447265625,3.525241579827666,4.557003086884319,-2.867077238564193
1746483118297780200,2.2077802734375,4.981739196023344,4.236038902387023,-3.044534577141702
1746483118307777300,2.21777734375,7.046685520938039,4.060878734835982,-3.482608306759596
1746483118317774300,2.2277744140625,9.090017979937791,3.895318754801154,-4.324256699544191
1746483118327771400,2.237771484375,9.545355855828523,3.323679727563262,-3.5671307565301653
1746483118337768200,2.247768310546875,9.107744775286317,2.859675145614147,-2.456421677225828
1746483118347765500,2.257765625,9.168225255212187,2.938730854411423,-2.573286307674646
1746483118357762300,2.26776220703125,9.187173116788268,2.8924019416958093,-2.4753730459332464
1746483118367759400,2.27775927734375,9.197945855215192,2.859719861538708,-2.3975948097258803
1746483118377756400,2.28775634765625,9.223692290890217,2.8393758694291114,-2.311514901380241
1746483118387753500,2.29775341796875,9.220798323014378,2.7913103421792385,-2.2252181354135274
1746483118397750300,2.307750244140625,9.238294232216477,2.736838455018401,-2.1209755245201287
1746483118407746300,2.317746337890625,9.236139684531093,2.6933359979003666,-2.0079104324847457
1746483118417743400,2.327743408203125,9.258999166592956,2.6471567227885124,-1.892902828079462
1746483118427740400,2.337740478515625,9.250409032902121,2.596065710237622,-1.7751593689695
1746483118437737500,2.347737548828125,9.258488294461369,2.54433435395658,-1.648631714901328
1746483118447734300,2.357734375,9.256563463878631,2.483381872604787,-1.5184708188973366
1746483118457731600,2.367731689453125,9.274491334757208,2.4199025031238794,-1.3774483371391892
1746483118467728400,2.377728271484375,9.26866949673593,2.3681642787106334,-1.2302097573451698
1746483118477725200,2.38772509765625,9.282678732866048,2.3125541813001034,-1.0783715017359703
1746483118487722500,2.397722412109375,9.304021380624174,2.2585021269865333,-0.9293066563628614
1746483118497719300,2.40771923828125,9.2872438488245,2.187851989093423,-0.7690913252916186
1746483118507716400,2.41771630859375,9.282438494369387,2.1210038738317785,-0.6031929801478981
1746483118517713400,2.42771337890625,9.263582402729988,2.0538295953556895,-0.42607725808229296
1746483118527710500,2.43771044921875,9.255070010450481,1.9959861859351395,-0.254737251607608
1746483118537707300,2.447707275390625,9.233786983925103,1.9296772921167313,-0.07639251747000962
1746483118547704600,2.45770458984375,9.21766236307621,1.8606246525481343,0.11634115456398576
1746483118557701400,2.467701416015625,9.185034351193904,1.798671469721198,0.305419847754389
1746483118567698400,2.477698486328125,9.158462570610642,1.7207675613075493,0.4751349747072905
1746483118577695500,2.487695556640625,9.103819126275182,1.634893258536607,0.6637724634688347
1746483118587692000,2.497692138671875,9.082079003632067,1.5680810913711785,0.8555926739197224
1746483118597688800,2.507688720703125,9.009048254212736,1.5112876293949782,1.033447414316982
1746483118607686100,2.51768603515625,8.975178717836737,1.4403082595475016,1.20333884768486
1746483118617683000,2.527682861328125,8.928122952151298,1.3652775684826075,1.383285957251489
1746483118627680000,2.537679931640625,8.875700106474756,1.3168119359992443,1.550837257234007
1746483118637677000,2.547677001953125,8.83460880215168,1.2412488916233182,1.7173979387439786
1746483118647674000,2.557674072265625,8.775342374190688,1.1747290584679693,1.882236764897406
1746483118657671000,2.5676708984375,8.679815130802988,1.1268964631911367,2.0475323949076234
1746483118667668200,2.577668212890625,8.556730018404126,1.0588936980016528,2.1867827524267134
1746483118677665000,2.5876650390625,8.304336389046908,0.9715718998361378,2.2621508587524293
1746483118687662000,2.597662109375,1.3096043427079915,4.417001910997927,3.6290658191785212
1746483118697659100,2.6076591796875,-49.06582891204357,22.533604094099996,7.449818577817082
1746483118707656000,2.617656005859375,-116.96165173015594,42.17274463779926,5.907813592466711
1746483118717652000,2.62765185546875,-123.56432682490347,52.31063617842197,13.34876146608591
1746483118727649000,2.63764892578125,-90.76241734232902,40.82214368331432,12.6532809551239
1746483118737646000,2.64764599609375,-51.293582118892665,23.247473663711546,6.924073286747932
1746483118747643000,2.657642822265625,-23.942872341609,12.283833894747495,5.513270669278502
1746483118757640200,2.66764013671875,-5.901968373569845,5.195753702625632,3.9290053358256816
1746483118767637000,2.677636962890625,4.822931612858176,0.8601393774386494,2.5431886910527943
1746483118777633800,2.6876337890625,10.424218419241905,-1.6210647858008742,1.0156788256533444
1746483118787631000,2.697631103515625,12.113713474929332,-2.672415667207539,-0.6875473798751831
1746483118797628000,2.7076279296875,11.340613133192061,-2.5952400730684397,-1.417482825885713
1746483118807625000,2.717625,10.093982256269454,-1.8971777289196847,-1.1635630098745227
1746483118817622000,2.7276220703125,9.843997441619633,-1.1758278134901077,-1.2476039597384632
1746483118827619000,2.737619140625,9.76069605807662,-1.0323240363102406,-1.3806671530552208
1746483118837615900,2.747615966796875,9.720267601576447,-1.0700485676139593,-1.4200832176424563
1746483118847613200,2.75761328125,9.687737789371608,-1.123351191799715,-1.4454301326058805
1746483118857610000,2.76760986328125,9.626796121674776,-1.195751680491492,-1.4595103881455957
1746483118867607000,2.77760693359375,9.61110346250236,-1.314347299451381,-1.3971854493968188
1746483118877604000,2.78760400390625,9.503942479944229,-1.5932389135032892,-1.2488551288433372
1746483118887601000,2.797600830078125,8.338727903470396,-2.48258370796442,-1.0082165269486605
1746483118897598000,2.807597900390625,5.701784239399433,-4.003221495637297,-0.8659516439139843
1746483118907595000,2.817594970703125,1.446765326732397,-5.721999928954244,-1.182752132860571
1746483118917592000,2.827592041015625,-4.346282653391361,-6.8593228744179005,-0.822494268046692
1746483118927588900,2.8375888671875,-8.699181510052085,-6.969578900381922,-0.17125300404466687
1746483118937586200,2.847586181640625,-10.408066910386085,-5.575779440161585,0.2589770263355225
1746483118947583000,2.8575830078125,-9.248477772578596,-2.6435698042124507,0.6047535074628889
1746483118957580000,2.867580078125,-6.48865416329205,0.46732773502245545,0.6625114305570722
1746483118967577000,2.8775771484375,-3.8235710309296844,2.592491066621244,0.28226649731248615
1746483118977574100,2.88757421875,-1.8771645761996507,3.4956972131744024,-0.18870653540976345
1746483118987571000,2.897571044921875,-0.6487637679725885,3.392503672942519,-0.42146183670870957
1746483118997568000,2.907568115234375,0.14794658193290233,2.6649989612102507,-0.24086386201791463
1746483119007565000,2.91756494140625,0.6860621097534895,1.6171461510524152,0.18679405285194514
1746483119017561900,2.927561767578125,1.135536646568775,0.6334785205572843,0.3887031111188233
1746483119027559200,2.93755908203125,1.496198927465081,-0.11225567534863948,0.3654695350475609
1746483119037555000,2.947554931640625,1.6973048526555299,-0.5588425278984009,0.227216006546095
1746483119047552000,2.957552001953125,1.602453901094198,-0.6489788720279932,0.14635529415346682
1746483119057549000,2.967549072265625,0.9734422968178987,-0.5017557820640504,0.10355645526014268
1746483119067545900,2.9775458984375,0.10718436343371868,-0.2919764288134873,0.014461802203208207
1746483119077543000,2.98754296875,-0.5494651893526316,-0.1408437641903758,-0.14770846232809126
1746483119087540000,2.9975400390625,-0.7971276985347271,-0.01767564968317747,-0.24811112973242996
1746483119097537000,3.007537109375,-0.6503232723742723,0.08754472020119428,-0.24640637164115906
1746483119107533800,3.017533935546875,-0.2191068613052368,0.21442060318514702,-0.12724836955815552
1746483119117531100,3.02753125,0.12256430339515209,0.26065160848423835,0.0036368951976299283
1746483119127528000,3.03752783203125,0.2474281159043312,0.24752690010368822,0.11300386336743831
1746483119137525000,3.04752490234375,0.2299555875778198,0.1696424270428717,0.10596636594608426
1746483119147522000,3.05752197265625,0.07341478030085563,0.04906871294304728,0.0650339785117656
1746483119157519000,3.06751904296875,-0.09773556708693504,-0.04903393389061093,0.018512319703027604
1746483119167516000,3.077515869140625,-0.15821663153469562,-0.0974842226743698,-0.027541575463488698
1746483119177513200,3.08751318359375,0.06825871271193028,0.12745865130797027,-0.11860036820024251
1746483119187510000,3.097510009765625,0.05422375761866569,0.15769436122626065,-0.05636347306109964
1746483119197506800,3.1075068359375,-0.09171557614505291,-0.025804449472576377,0.04983633631467819
1746483119207504100,3.117504150390625,0.039625907945632935,0.0752656688645482,0.047794236027821894
1746483119217501000,3.1275009765625,0.0501888030141592,0.15559227438047527,-0.024177505857869982
1746483119227498000,3.137498046875,-0.03480594044327736,0.11531345548406242,0.0010061083026230335
1746483119237495000,3.1474951171875,-0.01073532902598381,0.036599838122725485,-0.03562887419871986
1746483119247492000,3.1574921875,0.014860300001502036,0.0344194253437221,-0.003864931799843907
1746483119257489000,3.167489013671875,-0.01385667591691017,0.08783829632028937,0.012282996859401464
1746483119267486200,3.177486328125,-0.003858428993821144,0.04308861562013626,-0.045363501749560234
1746483119277483000,3.18748291015625,0.0032160394370555874,0.06075140582174062,-0.002957096239924431
1746483119287480000,3.19747998046875,-0.0009966098219156266,0.10518427565768361,0.0025922815155237913
1746483119297477000,3.20747705078125,-0.01871522186398506,0.10663856611922383,-0.0012751345023512839
1746483119307474000,3.217473876953125,0.0031792145580053326,0.08512655314356088,-0.002739288770779967
1746483119317471000,3.227470947265625,-0.004945055186748504,0.04861147069483995,-0.01565861077234149
1746483119327468000,3.237468017578125,-0.0048299043744802475,0.06797770381346345,-0.027232363383844493
1746483119337465000,3.247465087890625,0.0014618892461061477,0.07054331651777028,-0.00789279907643795
1746483119347460900,3.2574609375,0.008954290828108787,0.06404577119201421,0.004264890902861952
1746483119357458200,3.267458251953125,0.013719313272833824,0.06253273628056048,0.007428688696026801
1746483119367455000,3.277455078125,0.01248597208559513,0.07023337378576397,-0.00470503588579595
1746483119377451800,3.28745166015625,-0.00490647674202919,0.07778992664515971,-0.007484072145074606
1746483119387449000,3.297448974609375,-0.005398059651255607,0.06091887134313583,-0.007897913642972708
1746483119397446000,3.30744580078125,-0.010260112729668617,0.0668088061645627,-0.013947422940284013
1746483119407443000,3.31744287109375,0.00772854842543602,0.08036065391600132,0.003840601076185703
1746483119417440000,3.32743994140625,-0.0019727613776922225,0.06832958599105476,0.012567878215387462
1746483119427437000,3.33743701171875,0.009174071058630943,0.06848273072615266,0.0027059710230678317
1746483119437433900,3.347433837890625,-0.00409691392481327,0.06008315117135644,-0.014405468906089663
1746483119447431200,3.35743115234375,-0.011990882045030593,0.057405456394702195,-0.01057823876813054
1746483119457428000,3.367427978515625,-0.007744330516457557,0.06838657687529921,-0.006320508258417248
1746483119467425000,3.377425048828125,-0.006563596299290657,0.06553644814118742,-0.0025579408545047043
1746483119477422000,3.387422119140625,-0.007042904248833656,0.05084828983619809,-0.007365414201468229
1746483119487419000,3.3974189453125,-0.006560673689842224,0.048823798271268606,-0.006036722880974412
1746483119497416000,3.407416015625,-0.011258476117253302,0.05283610265254974,-0.014315014143660664
1746483119507413000,3.4174130859375,-0.015067220750451088,0.05986731646358966,0.0003998129725456238
1746483119517410000,3.42741015625,-0.0014326631516218184,0.050524903100728984,-0.020329598258063197
1746483119527406800,3.43740673828125,-0.01563011533021927,0.042413931228965515,0.004388151956349611
1746483119537404200,3.447404052734375,-0.01641337466239929,0.05882277584671974,-0.004964782800525426
1746483119547401000,3.45740087890625,-0.0032557869255542752,0.03741363872364163,-0.004195698124170303
1746483119557398000,3.46739794921875,-0.006806757405400276,0.050058893024176356,-0.0050766456771641965
1746483119567395000,3.47739501953125,-0.021739538121223447,0.056650838635116815,0.0043787996061146256
1746483119577392000,3.48739208984375,-0.01614157198369503,0.05349851208403706,-0.009860153626650572
1746483119587389000,3.497388916015625,0.006909633257985114,0.04865618661940097,-0.0021942951738834378
1746483119597386500,3.507386474609375,-0.008263385954499243,0.03732069974318147,0.005323313914611935
1746483119607383600,3.517383544921875,-0.018538111731410026,0.03728241355940699,0.003519479363039136
1746483119617380600,3.527380615234375,-0.022994506618380546,0.05049786896333098,-0.003076265640184283
1746483119627377400,3.53737744140625,-0.006006546938419342,0.04114011190086603,-0.02003090757243335
1746483119637374500,3.54737451171875,-0.0013204349488019943,0.043045507130771876,0.0012584756284952164
1746483119647371500,3.55737158203125,-0.019109774139523503,0.03742547529190778,0.009002294688299297
1746483119657367600,3.567367431640625,-0.0018453356057405472,0.029370032999664543,0.015617986501008272
1746483119667364600,3.577364501953125,-0.006736614778637886,0.041271044804155825,0.006943170201405883
1746483119677361400,3.587361328125,0.0021656536012887953,0.047091275390237566,0.014237126601859926
1746483119687358700,3.597358642578125,-0.010329086312651633,0.03584580488502979,-0.0052304479993879795
1746483119697355500,3.60735546875,0.00170621939599514,0.0461814670689404,-0.015799188286811112
1746483119707352300,3.617352294921875,-0.007170330020785332,0.044951633013039824,-0.006195128313079476
1746483119717349600,3.627349609375,-0.037650223958492275,0.018352964422851798,-0.010763824468106031
1746483119727346400,3.637346435546875,-0.019962007054686544,0.025155922435969112,-0.012912819195538758
1746483119737343500,3.647343505859375,0.0070101710230112075,0.04784925415068864,0.010705883735790848
1746483119747340500,3.657340576171875,0.0012327566653490066,0.05405132366120815,-0.0024740619633346794
1746483119757337600,3.667337646484375,-0.0602665449142456,0.04742985969483852,-0.03546140867732465
1746483119767334400,3.67733447265625,-0.03477262269556522,0.10642740758657455,-0.22119638093039393
1746483119777331700,3.687331787109375,0.17186112600564957,0.11527034699469804,-0.5877909014198929
1746483119787328500,3.69732861328125,0.3434621397703886,0.13046470125615597,-0.812584430059418
1746483119797325600,3.70732568359375,0.4603010512560606,0.05923150277808308,-0.8052977071173488
1746483119807322600,3.717322509765625,0.4551987596809864,-0.0871567437969148,-0.5933502160474657
1746483119817319400,3.7273193359375,0.3803542388379574,-0.21293270271494982,-0.2697865165762603
1746483119827316500,3.73731640625,0.31477205185890195,-0.2406245733693242,0.08548866445422172
1746483119837313500,3.7473134765625,0.2516980483084917,-0.15355141620263457,0.4670185229428112
1746483119847310600,3.757310546875,0.15948387499153613,-0.0328619667686522,0.8434037120193243
1746483119857307400,3.767307373046875,0.027401801666617393,0.053365679484605785,1.0824247957147657
1746483119867304400,3.777304443359375,-0.13238251757621763,0.08722045668289065,1.0263450349658727
1746483119877301500,3.787301513671875,-0.26519816587269307,0.14996201340854168,0.7874252196878194
1746483119887298600,3.797298583984375,-0.28888299284279345,0.22233619861528275,0.540917871890217
1746483119897295400,3.80729541015625,-0.30212884338498114,0.20804946071803568,0.15140943573787807
1746483119907292700,3.817292724609375,-0.2635492296218872,0.17691081061065195,-0.299451879260689
1746483119917289500,3.82728955078125,-0.1844604953378439,0.08661533039659261,-0.6511600154593586
1746483119927286500,3.83728662109375,-0.16864157943725586,0.09286138517931103,-0.8235740991726517
1746483119937283600,3.84728369140625,-0.1883382135540247,0.19780162294805048,-0.5127613063335419
1746483119947280400,3.8572802734375,-0.3239297563046217,0.27988281704634427,0.1956103965140879
1746483119957276700,3.867276611328125,-0.3723743459999561,0.4089579636402428,0.5451598933741449
1746483119967273500,3.8772734375,-0.20689152285456655,0.659534022181481,0.1674618681333959
1746483119977270500,3.8872705078125,-0.06455342845320701,0.5390609919771552,-0.7239042030222713
1746483119987267600,3.897267578125,0.08173486487865447,0.05935892855003476,-1.2591289778374135
1746483119997264600,3.9072646484375,0.1508931567788124,-0.4115564557008445,-0.9830196879804134
1746483120007261400,3.917261474609375,0.12567571341395378,-0.625430677049607,-0.12562559066191314
1746483120017258500,3.927258544921875,-0.07858662998080253,-0.37238136026263235,0.7727178452257066
1746483120027255600,3.937255615234375,-0.47973406600058077,-0.10228840808570384,1.2107194594554602
1746483120037252400,3.94725244140625,-0.636658904159069,-0.22700360590443014,1.0011732573736458
1746483120047249700,3.957249755859375,-0.6073690967887639,-0.4018589452899992,0.5241819872751832
1746483120057246500,3.96724658203125,-0.4010428066015243,-0.4500323168285191,0.23160240493677556
1746483120067243500,3.977243408203125,-0.1600035149514675,-0.4532147462569177,0.1522453020401299
1746483120077240600,3.987240478515625,-0.28379882144629953,-0.49657268033772706,0.11415708852317183
1746483120087237600,3.997237548828125,-0.40135961746573445,-0.6745952515825628,0.02764899962702766
1746483120097234400,4.007234375,-0.3229261322200298,-0.7861091686531901,0.13531714625600724
1746483120107231700,4.017231689453125,-0.48177755452692506,-0.8265364561095834,0.40371721344254907
1746483120117228500,4.027228515625,-0.6968617361873388,-0.853943226212263,0.6810589677039534
1746483120127225300,4.037225341796875,-0.5820265657395124,-0.72116031114161,0.9322682826474309
1746483120137222700,4.04722265625,0.0336754751086235,-0.44681656965240835,2.0694506505966186
1746483120147219500,4.057219482421875,-0.0001578209102153778,-0.1510904329165816,2.471127078926563
1746483120157216500,4.067216552734375,-0.9442880985260009,0.1900530546478927,1.710557132938504
1746483120167213300,4.07721337890625,-1.8332184669673441,0.5435324383027851,1.036330860798806
1746483120177210600,4.087210693359375,-2.8114152648359534,0.765641696294397,0.5844176986597478
1746483120187207400,4.09720751953125,-3.9184903715521093,0.9297592224359512,0.40843130941763517
1746483120197204500,4.10720458984375,-4.517085794776678,0.7777822159431874,0.48805020505562424
1746483120207201500,4.117201416015625,-4.341912183222174,0.8279675118260085,1.2339489438734947
1746483120217198600,4.127198486328125,-3.6241087812930344,1.0234979749716817,2.1156699654579163
1746483120227195400,4.1371953125,-2.2146979104429483,1.174839167778939,1.5036245474211871
1746483120237192400,4.1471923828125,-0.939908860528469,1.1152335709914565,0.6753745653919875
1746483120247188500,4.1571884765625,-0.1588975995361805,0.7610966002106666,0.5040326409548521
1746483120257185500,4.167185546875,0.5863426753729581,0.6195104201551527,-0.17310338115170598
1746483120267182600,4.1771826171875,1.1087696356743573,0.5076384834270924,-0.8933261191822588
1746483120277179400,4.187179443359375,1.2992273256003857,0.5976520048946142,-0.9907482364058494
1746483120287176700,4.1971767578125,1.2057920860558748,0.6227561971433461,-0.7792948124632239
1746483120297173500,4.207173583984375,1.0873919166028498,0.5652875393193215,-0.5545809249311685
1746483120307170300,4.21717041015625,0.9885586174070835,0.5113068697415292,-0.4390796917900443
1746483120317167600,4.227167724609375,1.015603860720992,0.42969895571079103,-0.5934931316494941
1746483120327164400,4.237164306640625,1.3249351828306912,0.48575040368065237,-0.7703457823321223
1746483120337161500,4.247161376953125,1.6528829426050184,0.7219640287399292,-0.7820040714219212
1746483120347158500,4.257158447265625,1.9477222135037182,0.8243274748232216,-0.755118694844842
1746483120357155600,4.267155517578125,2.137844972386956,0.7705166819196194,-0.8224398344457149
1746483120367152400,4.27715234375,2.0050778394073245,0.5131006212905049,-1.0461448371961712
1746483120377149700,4.287149658203125,1.6909984459877012,0.1995210306191817,-1.258418345350027
1746483120387146500,4.297146484375,1.441638485237956,0.009793700794316828,-1.500960735039413
1746483120397143600,4.3071435546875,0.9929746802836656,-0.10908172148764132,-1.5380676459014415
1746483120407140600,4.317140625,0.09891513226032257,-0.19236754213534293,-1.5771271521359682
1746483120417137700,4.3271376953125,-1.251750704154372,-0.4931107033155858,-1.8731041948929428
1746483120427134500,4.337134521484375,-2.4934996542543173,-1.0776116232793778,-2.4313315135024487
1746483120437131500,4.347131591796875,-3.6984500287890434,-1.750861670798063,-3.339710824909806
1746483120447128600,4.357128662109375,-3.824321557036042,-1.7983967444330453,-4.088033576004207
1746483120457125400,4.36712548828125,-3.199796158263087,-0.9841505917064844,-3.4534137764573094
1746483120467122400,4.377122314453125,-2.8849036948949096,0.2669783272877335,-1.9421011587515473
1746483120477119500,4.387119384765625,-2.2799112641096113,1.65230192784667,0.014747706472501157
1746483120487116500,4.397116455078125,-0.9869687178671359,2.1408193120226264,0.8821621894806623
1746483120497113300,4.40711328125,1.1343640956580638,1.931859166200459,0.9609577860370278
1746483120507110700,4.417110595703125,3.1265111418217417,1.4187147057682274,0.7892046504504978
1746483120517107500,4.427107421875,4.405119457763433,1.0105819409057497,0.6372144922152161
1746483120527104500,4.4371044921875,5.063084184801578,1.0276286450356245,0.70726622582376
1746483120537101600,4.4471015625,5.311534044969082,1.3558692502766847,0.8175581268187612
1746483120547098400,4.457098388671875,5.401285043042898,1.5599951078101992,0.8248447036303579
1746483120557095400,4.467095458984375,5.198191158905625,1.4629744109943508,0.6738201755568385
1746483120567091500,4.477091552734375,4.623378762328625,1.2041808514669536,0.3917942090019583
1746483120577088500,4.487088623046875,3.6910710244536395,0.9528621578648686,0.061227206639945506
1746483120587085600,4.49708544921875,2.7140391787111757,0.6702759270787239,-0.04580065105780959
1746483120597082400,4.507082275390625,1.6351614079535006,0.3634166941709816,0.1608265217721462
1746483120607079200,4.5170791015625,0.2787988212019205,0.0800128633916378,0.5143152577772736
1746483120617076500,4.527076416015625,-1.061233392995596,-0.25531696945801374,0.5766486720934509
1746483120627073300,4.5370732421875,-2.241390102535486,-0.36758550428822634,0.3709782154664397
1746483120637070300,4.5470703125,-3.1764977002620696,-0.17923779225349426,-0.1678130196586251
1746483120647067400,4.5570673828125,-3.190663588258624,0.0169467508867383,-0.9809399590969086
1746483120657064400,4.567064453125,-2.310563592004776,-0.0965633084371686,-1.646158602786064
1746483120667061200,4.577061279296875,-1.045164301726222,-0.40609190668463707,-1.9957713741406797
1746483120677058600,4.58705859375,0.10947276663184165,-0.6447758673802018,-2.1406831184223294
1746483120687055400,4.597055419921875,0.9554659106224774,-0.5940324992232024,-2.1614719316899773
1746483120697052400,4.607052490234375,1.3371984520763158,-0.3374301661297679,-2.2112202974602577
1746483120707049500,4.617049560546875,1.2141326288998127,-0.2710031988896429,-2.1211913592278955
1746483120717046500,4.627046630859375,0.9130606010913849,-0.2489557638630271,-1.918048375251889
1746483120727043300,4.637043212890625,0.7573392935037613,0.17026786546483635,-2.183608067913353
1746483120737040400,4.647040283203125,0.8290285651862621,0.6503409541614353,-2.8566788864076136
1746483120747037400,4.657037353515625,1.5910674146831034,0.8787466819487512,-3.6371108862072226
1746483120757034200,4.6670341796875,2.7475135782897473,1.01376838892214,-4.09396793448925
1746483120767031600,4.677031494140625,3.554574641817808,1.0402840554039925,-3.9294454808086154
1746483120777028400,4.6870283203125,4.017665031531453,1.2530784456267952,-3.7967297857552764
1746483120787025400,4.697025390625,4.252889499422907,1.834880847221613,-3.926348683837056
1746483120797022500,4.7070224609375,4.32791346848607,2.630260825306177,-3.956445715937018
1746483120807019500,4.71701953125,4.514890330559015,3.345043418109417,-3.3700258836746215
1746483120817016300,4.727016357421875,4.769455458736419,3.6572792294889687,-2.26504979506433
1746483120827013400,4.737013427734375,5.0097594218492505,3.5983640991836783,-0.6180839675486087
1746483120837010400,4.747010498046875,4.97273989700973,3.251867121762037,1.8892741161882876
1746483120847007200,4.75700732421875,4.386043585893511,2.846055493323505,4.608955684700608
1746483120857004300,4.76700439453125,3.1193238606661557,2.7349352517455814,6.687886695826053
1746483120867000300,4.777000244140625,1.342770699250698,2.929115177065134,7.895961339861154
1746483120876997400,4.786997314453125,-0.3651642684906721,3.0465386104404923,7.605144748607278
1746483120886994400,4.796994384765625,-2.047153478592634,2.933807134273648,5.776376246786117
1746483120896991500,4.806991455078125,-4.531711116978526,1.7463089759297667,2.587871297866106
1746483120906988300,4.81698828125,-7.8678575274050235,-0.5822298332266509,-1.1681911080665885
1746483120916985300,4.8269853515625,-10.476888517677784,-2.8454028746336695,-4.359986769095063
1746483120926982400,4.836982421875,-11.21264024875164,-4.157127278235555,-6.17557605586946
1746483120936979200,4.846979248046875,-9.352917805740237,-4.303263595876097,-5.688316855061054
1746483120946976500,4.8569765625,-5.611356364977359,-3.4122771716877818,-3.4734684302315113
1746483120956973300,4.866973388671875,-1.8260089739799499,-1.8803757933311163,-0.8669390475161373
1746483120966970400,4.876970458984375,0.7479442731708288,-0.13577164855785667,0.8742178063474595
1746483120976967400,4.886967529296875,2.043026754051447,1.1775878088999538,1.8943112335726617
1746483120986964500,4.896964599609375,1.904465840101242,1.352254274649918,2.0479878835901615
1746483120996961300,4.906961181640625,0.32270226033627986,0.3454315401472151,1.50722301030457
1746483121006958600,4.91695849609375,-1.232479601973295,-0.504997832725197,1.0530867652885616
1746483121016955400,4.926955322265625,-1.889284637582302,-0.5376250408899039,0.5295518437452614
1746483121026952200,4.9369521484375,-1.445465350049734,-0.11905877949222922,-0.02756225292533636
1746483121036949500,4.946949462890625,-0.4359498693317175,0.44443544666953383,-0.3460270218223333
1746483121046946300,4.9569462890625,0.49875031663775443,1.0004301839213818,-0.3208487414240837
1746483121056943400,4.966943359375,1.0098813914209603,1.3234728551931678,-0.1627225646518171
1746483121066940400,4.9769404296875,1.0587877534091472,1.4118737538322805,-0.07448723183795809
1746483121076937500,4.9869375,0.6822644710361957,1.3469355638451874,-0.07707227989509702
1746483121086934300,4.996934326171875,0.1659720679670572,1.0621953698955475,-0.04449614433050155
1746483121096931600,5.006931640625,-0.14987141251564026,0.6715012310899794,-0.14014891379401087
1746483121106928400,5.016928466796875,-0.18452070109248161,0.26676304056923833,-0.26884660537764427
1746483121116925400,5.026925537109375,-0.16874737789928912,-0.07176500379983335,-0.19180998131781815
1746483121126922500,5.036922607421875,-0.1902759036183357,-0.5222382327962667,-0.00014276947155594826
1746483121136919600,5.04691943359375,-0.11331833614408969,-0.8569132549989968,-0.024737697023898362
1746483121146916400,5.056916259765625,-0.030433716708421706,-0.640624008397758,0.012305354821681975
1746483121156912400,5.066912353515625,-0.1810351970642805,-0.4212094693828374,0.04963511465415358
1746483121166909400,5.076909423828125,-0.40907998258471484,-0.5175750632908195,-0.0729183750860393
1746483121176906200,5.08690625,-0.5604623841851949,-0.6282135857664048,-0.08680866101160645
1746483121186903600,5.096903564453125,-0.4650789331823587,-0.4499454422626644,-0.2265896182760596
1746483121196900400,5.106900390625,-0.4264069649606943,-0.4811799539599567,-0.3684593645133078
1746483121206897400,5.1168974609375,-0.5804360816776752,-0.3178051359444857,-0.6492698177985846
1746483121216894500,5.12689453125,-1.4258277526438234,-0.2442228170569986,-0.9892762641571462
1746483121226891300,5.136891357421875,-2.3681033423036335,-0.1651962612889707,-1.2759284292079507
1746483121236888300,5.146888427734375,-2.3820950427770615,0.25598332441225646,-1.2033357789449393
1746483121246885400,5.156885498046875,-1.214575696492195,0.8656623055785894,-0.8203092521578073
1746483121256882400,5.16688232421875,0.6245072785943746,1.3940204094946385,-0.5440395110420883
1746483121266879200,5.176879150390625,2.1326573406159874,1.5229142081722615,-0.28242256465703247
1746483121276876500,5.18687646484375,2.555222243195772,1.0324886522874235,0.03382438206002116
1746483121286873300,5.196873291015625,2.211418158119917,0.42262627737820146,0.23997549834344534
1746483121296870400,5.206870361328125,1.7335989858299492,-0.053672699607163664,0.3468524763284251
1746483121306867500,5.216867431640625,1.3811609279215336,-0.3949900824338197,0.4593181776985526
1746483121316864500,5.226864501953125,0.8877496342241764,-0.5580365452777594,0.6625365649983287
1746483121326861300,5.236861328125,0.5133826531022787,-0.515358921611309,0.9327977133490145
1746483121336858400,5.2468583984375,0.09740472769737243,-0.48210357161089773,1.265028118878603
1746483121346855400,5.25685546875,-0.4058434848815202,-0.4849662675656378,1.492700271694362
1746483121356852200,5.266852294921875,-0.6412859794378281,-0.22373437497541307,1.1820624700959772
1746483121366849500,5.276849609375,-0.9035977762192487,-0.049423079338669774,0.7507233824953436
1746483121376846300,5.286846435546875,-1.3842583094149827,0.19224822660461066,0.27525902970321475
1746483121386843400,5.296843505859375,-1.5228379280656574,0.3106570177555084,-0.2641116858102381
1746483121396840400,5.30684033203125,-0.9836199919611215,0.26202603864260016,-0.5401911650508642
1746483121406837500,5.31683740234375,-0.5623579886734486,-0.03297762903757393,-0.5242790909741074
1746483121416834300,5.326834228515625,-0.709058369937539,-0.22870032681971786,-0.5409139994326979
1746483121426830300,5.336830322265625,-1.0215624768644571,-0.003682122578844428,-0.45738165667802094
1746483121436827400,5.346827392578125,-1.5659809042215347,-0.01666895685866475,-0.14838745756819843
1746483121446824200,5.35682421875,-2.396636778348684,-0.35966267539970576,0.33669016141742464
1746483121456821500,5.366821533203125,-3.4727585283964872,-0.7211932635631412,0.7962215434752404
1746483121466818300,5.376818359375,-4.341415339615941,-0.6591189385745674,1.0226412850771098
1746483121476815400,5.3868154296875,-4.884210549685359,-0.2583743842672557,1.2604179947346448
1746483121486812400,5.3968125,-5.173229736128449,0.07828220367413014,1.4231436281263827
1746483121496809500,5.4068095703125,-4.9329438931941985,0.32859087998345493,1.2949877883344887
1746483121506806300,5.41680615234375,-4.3446214421808715,0.5689932254368439,0.9434608539216219
1746483121516803300,5.42680322265625,-3.6124072375833984,0.8394906302288174,0.5236130282808095
1746483121526800400,5.43680029296875,-2.7169986130386587,1.2717524586975573,0.21879859907366334
1746483121536797200,5.446797119140625,-1.9093617954492568,1.8039017715901136,-0.09983904217220842
1746483121546794500,5.45679443359375,-0.6676566844910383,2.34346369882673,-0.03562259058840573
1746483121556791300,5.466791259765625,0.8256371691823006,2.5620868682682514,0.04724697740860283
1746483121566788400,5.476788330078125,2.2171610856860875,2.5320301681786774,-0.08693075302131474
1746483121576785400,5.486785400390625,3.489256658732891,2.2855697282627223,-0.35899098668321966
1746483121586782500,5.496782470703125,4.702888936895132,1.9407684488430619,-0.5945933479763567
1746483121596780300,5.5067802734375,5.488789138972759,1.8837965615600347,-0.6649095046747475
1746483121606777300,5.51677734375,5.924218199300766,1.8974279042884705,-0.5200813470233231
1746483121616774400,5.5267744140625,6.129553724884986,1.9303385325044393,-0.30946378938294944
1746483121626771500,5.536771484375,6.180328803354501,2.0644620485290885,-0.043348362534865736
1746483121636768300,5.546768310546875,6.011445231854915,2.315015602977574,0.3916991511296481
1746483121646765600,5.556765625,5.461130147674679,2.206434524488449,0.752978979402408
1746483121656762400,5.566762451171875,4.331556793424487,1.3813658028438687,0.5638301801178605
1746483121666759400,5.576759521484375,2.9557600228846073,0.4373781485691666,0.020759367977455256
1746483121676755500,5.58675537109375,1.2007500002354383,-0.3302750336781144,-0.2799030561167747
1746483121686752300,5.596752197265625,-0.8469587741523981,-0.6807698485642671,-0.3202930803027004
1746483121696749600,5.60674951171875,-2.647510650792718,-0.6735957191511989,-0.03853226749002933
1746483121706746400,5.616746337890625,-3.9465234568595884,-0.556631427720189,0.1750241200812161
1746483121716743400,5.626743408203125,-4.821514731797576,-0.5068877381250262,0.3130709470294416
1746483121726740500,5.636740478515625,-5.2514007710456845,-0.675960110194981,0.1273250880561769
1746483121736737500,5.646737548828125,-4.699939439439773,-0.8422466509386897,-0.09845116801038384
1746483121746734300,5.656734375,-3.4198522831171747,-0.828086900421977,-0.19598799765482544
1746483121756731400,5.6667314453125,-2.262092114302516,-0.6332707230255007,-0.09529241171851753
1746483121766728400,5.676728515625,-1.2462497686505316,-0.2757815192073583,0.036291648956388235
1746483121776725200,5.686725341796875,-0.25578736344873904,0.08047931185960769,0.02984378799125552
1746483121786722300,5.696722412109375,0.6727320880591869,0.28232991793751716,-0.010896364806592463
1746483121796719400,5.70671923828125,1.2472411177754401,0.1565323317095637,-0.19608736637607216
1746483121806716400,5.71671630859375,1.2477350387722252,-0.009548165068030356,-0.516994706119597
1746483121816713200,5.726713134765625,0.9946072499215602,0.09039631024003028,-0.6064411682888865
1746483121826710500,5.73671044921875,0.6232002876490355,0.1753597817763686,-0.6159795426152647
1746483121836707300,5.746707275390625,0.34404257000684735,0.45281332584917544,-0.5378890255883336
1746483121846704400,5.756704345703125,0.09127484664022922,0.8719821562498807,-0.47377428081333633
1746483121856701400,5.766701416015625,-0.11668752031624316,1.0418977011457085,-0.41827334286570544
1746483121866698200,5.7766982421875,-0.3497971880108118,1.0270841628953813,-0.2356815640091896
1746483121876695300,5.7866953125,-0.8682359554588794,1.0645204518422484,-0.11826821363642812
1746483121886692400,5.7966923828125,-1.1868927397966385,1.2444798363685607,-0.22779621758684515
1746483121896689400,5.806689453125,-1.1022457868635653,1.3305869249820708,-0.5434456368021666
1746483121906686200,5.816686279296875,-0.6598878040552139,1.3721090219378471,-1.0279454558998347
1746483121916682500,5.8266826171875,0.11002630886137485,1.3768056553214787,-1.431578571255505
1746483121926679300,5.83667919921875,1.0696183595031499,1.2330202847212552,-1.410855370569974
1746483121936676400,5.84667626953125,2.2560481579631566,1.189256546318531,-0.94075554048568
1746483121946673400,5.85667333984375,3.2253157994449135,1.3022317681133746,-0.25959216255918144
1746483121956670200,5.866670166015625,3.880795723930001,1.4914111086666584,0.4419692757517099
1746483121966667500,5.87666748046875,4.555955915918946,1.7091738618865608,1.1229051285326481
1746483121976664300,5.886664306640625,5.272701917749643,2.0211527758955956,1.5554441665075718
1746483121986661400,5.896661376953125,6.17303923086822,2.571914434799552,1.926616297110915
1746483121996658400,5.906658447265625,7.148887419784069,3.108496761703491,2.3505771840937433
1746483122006655500,5.916655517578125,7.919632138305902,3.3899683092460036,2.7592659754037854
1746483122016652300,5.92665234375,8.07340757252276,3.4200428372532126,2.796283454416692
1746483122026649600,5.936649658203125,7.821224955567717,3.3395071190312504,2.4192943080976606
1746483122036646400,5.946646484375,7.572877971252798,2.929825078900158,1.7645897518992424
1746483122046643500,5.9566435546875,7.445064661288261,2.274201362030208,1.1791648489583284
1746483122056640500,5.966640625,7.483868146935105,1.6482859702035784,1.1876823558043688
1746483122066637300,5.97663720703125,7.762440758165717,1.106144547867775,1.5612825172722338
1746483122076634400,5.98663427734375,6.252926422053575,0.2507220428831875,1.136085293427482
1746483122086631400,5.99663134765625,1.3876561351597307,-1.180643616273999,1.0265674455448985
1746483122096628500,6.00662841796875,-7.710931520202755,-2.815989440883696,1.2151854989536106
1746483122106625300,6.016625244140625,-17.931915770053863,-3.9227608884781597,-0.5043463100139052
1746483122116622300,6.026622314453125,-23.832846617269514,-2.9756778985366226,-3.9002547498986124
1746483122126619400,6.036619384765625,-23.300555265557765,-0.8646125042647123,-7.115349307319521
1746483122136616400,6.046616455078125,-19.104557866179942,0.46415071242153644,-8.117336146098374
1746483122146613200,6.05661328125,-11.777578317046165,0.4842600920576602,-5.8002837765961885
1746483122156609300,6.066609375,-4.881268651014566,-0.034084512567240745,-2.95791807770133
1746483122166606300,6.0766064453125,-0.279782571542263,-0.5264376572474837,-1.212655615149811
1746483122176603400,6.086603271484375,2.6050112332373856,-0.6856519945826381,-0.26436938689835365
1746483122186600400,6.096600341796875,4.278927026998996,-0.5023194803614169,0.10001622537001967
1746483122196597200,6.10659716796875,5.011933843278885,-0.09525224410491064,0.38094489820748567
1746483122206594600,6.116594482421875,4.9243864927291865,0.4283209088232368,0.778975663511455
1746483122216591400,6.12659130859375,4.062472141507268,0.9060127284064888,1.2875301658049225
1746483122226588400,6.13658837890625,2.61561504483819,1.229047143306583,1.6325301826670764
1746483122236585500,6.14658544921875,0.979876129257679,1.2621851505376398,1.5886438407979904
1746483122246582300,6.156582275390625,-0.3309446035027504,1.0413057266019283,1.2631257923886179
1746483122256579300,6.166579345703125,-1.161165593343973,0.6766574448093772,0.8062569806035608
1746483122266576400,6.176576416015625,-1.5402981814324854,0.33888409126512703,0.27429822184704244
1746483122276573400,6.186573486328125,-1.618179878014326,0.006399290849361568,-0.30850444283150136
1746483122286570200,6.1965703125,-1.4909277090638875,-0.2570341851720586,-0.691814316604659
1746483122296567600,6.206567626953125,-0.9453986901164054,-0.3275431975614279,-0.7560413626477122
1746483122306564400,6.216564453125,-0.176129304844141,-0.17742137221498414,-0.44571554960794746
1746483122316561400,6.2265615234375,0.3191699945569038,-0.043364309022668746,-0.05820055229514837
1746483122326558500,6.236558349609375,0.4246329410254955,0.04133599979914725,0.20575725812762974
1746483122336555500,6.246555419921875,0.22093466125428676,0.07590069709876551,0.37586474539898335
1746483122346552300,6.25655224609375,-0.07691372833251953,0.11203724682498722,0.3616136633370071
1746483122356549400,6.26654931640625,-0.25683599571883675,0.11619606527118012,0.41848457446359094
1746483122366546400,6.27654638671875,-0.3945955301582813,0.03971026176083833,0.5571387196552008
1746483122376543200,6.286543212890625,-0.44810675559341906,0.022703158988989888,0.508900246991217
1746483122386539500,6.29653955078125,-0.4763070141613483,0.03873235663939267,0.38438122933171687
1746483122396536300,6.306536376953125,-0.5555892251908778,0.13499900195123626,0.1959370711851865
1746483122406533400,6.316533447265625,-0.645316257867217,0.1592798768520355,-0.08260821364708244
1746483122416530400,6.326530517578125,-0.5896756191879511,0.09897773090144618,-0.27500589519236235
1746483122426527500,6.336527587890625,-0.30521921061575413,0.11390302243055775,-0.43097116760369386
1746483122436524300,6.346524169921875,-0.004611877709627152,0.06069702701969072,-0.33711967540848997
1746483122446521300,6.356521240234375,0.2543073540240526,-0.05809099097345024,-0.05188335023866966
1746483122456518400,6.366518310546875,0.23646599238514898,-0.15316424351595342,0.2346081991566345
1746483122466515200,6.37651513671875,0.2629156078934669,-0.03962072031386196,0.4297083811262622
1746483122476512500,6.386512451171875,0.008506547060608863,-0.03287822378370911,0.5535608977010473
1746483122486509300,6.39650927734375,-0.3981032460182905,-0.15232055923342705,0.5922427662622183
1746483122496506400,6.40650634765625,-0.5589800366729497,-0.243153434259817,0.5031678042864427
1746483122506503400,6.41650341796875,-0.3678536537051201,-0.29312070347778496,0.3849225696668029
1746483122516500500,6.42650048828125,-0.06397241369485855,-0.27496808393262323,0.379768072980456
1746483122526497300,6.436497314453125,0.16798106970191,-0.3030458851646632,0.5303424826662987
1746483122536494600,6.44649462890625,0.24499592032134532,-0.39848048183284696,0.6031659460105001
1746483122546491400,6.456491455078125,0.22306232093274592,-0.48980092118047175,0.6761262605421244
1746483122556488200,6.46648828125,0.28436697672307487,-0.43031551670655604,0.8851839484546333
1746483122566485500,6.476485595703125,0.4784644844561815,-0.3839729407917708,1.1027382465556264
1746483122576482300,6.486482421875,0.5512473965942859,-0.4344082659129053,1.0242086074590682
1746483122586479400,6.496479248046875,0.43379122999310493,-0.372208999370411,0.7556636153765023
1746483122596474600,6.506474609375,0.10085574493408203,-0.3187767574556172,0.43583369560614227
1746483122606471400,6.516471435546875,-0.35932840194404125,-0.2846259929854423,0.173431590192765
1746483122616468700,6.52646875,-0.7860176909774541,-0.18059286012426018,-0.026102555636316537
1746483122626464500,6.536464599609375,-1.0427204157054424,0.06897036811262369,-0.28148893706873057
1746483122636461800,6.5464619140625,-1.2609282823443413,0.33542708267904814,-0.4589423301234841
1746483122646458600,6.556458740234375,-0.7568541403353214,0.3785527423739433,-1.0298838766165077
1746483122656455400,6.566455322265625,-0.23790800788700578,0.5622692874766886,-1.3178687515757976
1746483122666452700,6.57645263671875,0.1331903268277645,0.5890966502562165,-1.2018074003338812
1746483122676449500,6.586449462890625,0.23276772238910196,0.433708081754297,-0.8906798424571752
1746483122686446600,6.596446533203125,0.05900105502307414,0.16026698819324373,-0.5863537812888622
1746483122696443600,6.606443603515625,-0.2819803738474846,-0.16747765022441743,-0.26997312518954275
1746483122706440700,6.616440673828125,-0.7457698517411947,-0.6076629651688039,0.09534487255811691
1746483122716437500,6.6264375,-1.174321427515149,-1.126148348237574,0.5611459825351834
1746483122726434800,6.636434814453125,-1.1205004054784775,-1.2881580884449184,0.8346557574182748
1746483122736431600,6.646431640625,-0.5842775595366955,-1.0234507748290895,0.6027282852455973
1746483122746428700,6.6564287109375,0.08675181625783443,-0.5445411769539118,0.2025982095748186
1746483122756425700,6.66642578125,0.6745230631291866,-0.12147592363655567,-0.009237491683661937
1746483122766422800,6.6764228515625,1.0715700780928135,0.20298253271728753,-0.08291530683487654
1746483122776419600,6.686419677734375,1.2439245405733586,0.3071183222353458,-0.10416501561254263
1746483122786416600,6.696416748046875,1.1436959876269102,0.24909195746332405,-0.06382336061298848
1746483122796413700,6.70641357421875,0.9312585210829972,0.07950783647894859,0.05672405000180006
1746483122806410500,6.716410400390625,0.7056155360072851,-0.11941226910501718,0.19190116673260926
1746483122816407800,6.72640771484375,0.6642617813557385,-0.2753746919721365,0.37187662561088797
1746483122826404600,6.736404541015625,0.7885586076319218,-0.3464510924533009,0.5421487288594246
1746483122836401700,6.746401611328125,1.0855810677886009,-0.3335033480748534,0.6377206881716847
1746483122846397700,6.756397705078125,1.4580997906953095,-0.22331746473759412,0.5574468357563018
1746483122856394500,6.76639453125,1.7449264355301857,-0.04683744675964117,0.3188952692687511
1746483122866391600,6.7763916015625,1.960906689247489,0.2386681786045432,0.02029080061763525
1746483122876388600,6.786388671875,2.1425702473431825,0.632091450113058,-0.33346944580525156
1746483122886385700,6.7963857421875,2.2356021667838095,1.082242278754711,-0.6549382188238203
1746483122896382500,6.806382568359375,2.1802111189514397,1.4829846411049366,-0.7720099161520599
1746483122906379800,6.8163798828125,1.8840321238815783,1.7659236308515072,-0.6571355827376246
1746483122916376600,6.82637646484375,1.489720086839795,1.8599188423663378,-0.4086832383520901
1746483122926373600,6.83637353515625,1.1147259137302636,1.9668636979557572,-0.13780205840691923
1746483122936370700,6.84637060546875,0.7741963202804326,1.8899884019374846,-0.381009487876296
1746483122946367700,6.85636767578125,0.4669909042835235,1.5681088561609386,-0.9217593097232282
1746483122956364500,6.866364501953125,0.9204641553461551,1.221581629731506,-1.8016697747543453
1746483122966361600,6.876361572265625,3.69543506488204,-0.007446991537697613,-2.534517308819294
1746483122976358700,6.886358642578125,2.171588836556673,-1.74275493671,-1.5146303639516234
1746483122986355500,6.89635546875,-1.9219389529496431,-3.5369442925810812,0.3425005281966179
1746483122996352800,6.906352783203125,-4.973741183006763,-3.455191892045736,1.7137573902845382
1746483123006349600,6.916349609375,-5.278718986082077,-2.127425577442348,1.8992709018066525
1746483123016346600,6.9263466796875,-4.6667993863821025,-1.1942826308522372,1.595858594482392
1746483123026343700,6.93634375,-3.537406649395823,-0.7906696084365248,1.2323716115541756
1746483123036340700,6.9463408203125,-1.9512386971920728,-0.3926768370553851,0.8297554912213235
1746483123046337500,6.956337646484375,-0.25929098765552044,0.01022767176479101,0.6974823523037135
1746483123056333600,6.96633349609375,0.9048825553327798,0.2060323487419635,0.913011428187415
1746483123066330600,6.97633056640625,1.4953373421996832,0.18577471974156795,1.1141864000260828
1746483123076327700,6.98632763671875,1.5660031160533427,0.058558937278762456,1.0083269285205751
1746483123086324700,6.99632470703125,1.1676789207607507,-0.09967289182506502,0.6300755071807652
1746483123096321500,7.006321533203125,0.5557277568787335,-0.14194646473526953,0.2087138429109007
1746483123106318600,7.016318603515625,-0.010720131456851958,-0.061645651247724885,-0.13925083244312553
1746483123116315600,7.026315673828125,-0.479632943713665,0.09327340004630386,-0.32398966979831456
1746483123126312700,7.036312744140625,-0.760403941771388,0.2574768509056419,-0.37792061848286534
1746483123136309500,7.0463095703125,-0.8409808687865734,0.38252792961522936,-0.33365707733184097
1746483123146306600,7.056306640625,-0.791795689857006,0.41934995912127193,-0.22866130998358128
1746483123156303600,7.0663037109375,-0.6619377223223447,0.29672895710282027,-0.1212295933258254
1746483123166300400,7.076300537109375,-0.4258668667346239,0.1292848438218236,-0.06201527457798365
1746483123176297700,7.086297607421875,-0.11552139914631843,0.05459660951904952,-0.01388513939299155
1746483123186294500,7.09629443359375,0.17616145354807375,0.06755940533615648,0.054052004081220364
1746483123196291600,7.10629150390625,0.3485276064664125,0.186744441556558,0.014249200632143764
1746483123206288600,7.11628857421875,0.41080666024684903,0.3262764655612409,-0.17976046442072838
1746483123216285700,7.12628564453125,0.28922610719203945,0.33258769453465936,-0.28169375719213857
1746483123226282500,7.136282470703125,0.03836626327335834,0.194960262042284,-0.23871064777309073
1746483123236279800,7.14627978515625,-0.12388941451907157,0.02471533906161785,-0.17595687088668346
1746483123246276600,7.156276611328125,-0.11820903079509734,-0.09700491472482681,-0.11733023866657168
1746483123256273700,7.166273681640625,-0.03461012561023235,-0.21040596071630716,0.054321409306861454
1746483123266269700,7.176269775390625,0.07629530417323112,-0.2772922890964895,0.3075677465032786
1746483123276266500,7.1862666015625,0.10750643499493598,-0.19639942799992857,0.45329007651545106
1746483123286263800,7.196263916015625,0.07871522479653358,-0.02479359192959964,0.34749066463410855
1746483123296260600,7.206260498046875,0.03388999464213848,0.0876028801292181,0.12750999790271744
1746483123306257700,7.216257568359375,-0.067761284583807,0.09120704210102558,-0.012091346744820475
1746483123316254700,7.226254638671875,-0.061381228157877915,0.049204687347635626,-0.049443062680773434
1746483123326251800,7.236251708984375,0.052481297865509986,0.004505640856176615,-0.007797485475800931
1746483123336248600,7.24624853515625,0.12995032199323175,-0.03772745391316712,0.08075812880098819
1746483123346245600,7.25624560546875,0.11339724659919738,-0.03675130235739052,0.15790588508509099
1746483123356242700,7.26624267578125,0.051630818516016,0.03558203938230872,0.14404270636215805
1746483123366239500,7.276239501953125,-0.020657003581523895,0.15152750915959476,0.056342722534015774
1746483123376236800,7.28623681640625,-0.12491700400114059,0.199341618931666,-0.05354344720430672
1746483123386233600,7.296233642578125,-0.18279869960546494,0.17462708358764648,-0.11537852007690816
1746483123396230700,7.306230712890625,-0.14625556010603905,0.11120777373090386,-0.13020436981953679
1746483123406227700,7.316227783203125,-0.013709376400709152,0.0679294807575643,-0.04682915385533124
1746483123416224800,7.326224853515625,0.11549918731451034,0.019424027720466256,0.042616833389922976
1746483123426221600,7.3362216796875,0.10662672955095767,-0.02630092775262892,0.10548621774632483
1746483123436218600,7.346218505859375,-0.005135024800896644,-0.0402798418097198,0.14308957035578787
1746483123446215700,7.356215576171875,-0.059788406008481974,-0.03341514367200434,0.11198211910426616
1746483123456212500,7.36621240234375,-0.06810264536738395,-0.007530176309123635,0.034057862022332845
1746483123466209500,7.37620947265625,-0.017864157992601392,0.0408266620375216,0.0017259104771539567
1746483123476206600,7.38620654296875,0.0028688334345817563,0.05463131550624966,-0.011023352187126875
1746483123486203600,7.39620361328125,0.012430442506074904,0.01799341039545834,-0.018625278558209536
1746483123496199700,7.40619970703125,0.051390580019354815,-0.0055181788995862,-0.0022733517594635483
1746483123506196700,7.41619677734375,0.10948211898207663,0.03171805743053555,0.009814012929983436
1746483123516193500,7.426193603515625,0.10179448708891868,0.05017426303215325,0.00029039778131991623
1746483123526190600,7.436190673828125,0.038487259304523465,0.03436937565691769,-0.008011457020044327
1746483123536187600,7.446187744140625,-0.00024725275933742524,0.03403152200467884,-0.04324201608356088
1746483123546184400,7.456184326171875,-0.0004933364748954773,0.03733341309428215,-0.07449325971994548
1746483123556181800,7.466181640625,-0.004026186776161194,0.03590520692206919,-0.06137713650465011
1746483123566178600,7.476178466796875,-0.024337737920880315,0.013696078527718782,-0.010924129596352576
1746483123576175600,7.486175537109375,-0.060250762823224065,-0.021257234496995805,0.04506634543389082
1746483123586172700,7.496172607421875,-0.012082651981711387,-0.012419628851115702,0.14262363334447145
1746483123596170200,7.506170166015625,0.043406011006236075,0.03707615039758384,0.15692074650526044
1746483123606167300,7.516167236328125,0.07148994971811772,0.11954656300917267,0.10349778387546539
1746483123616164000,7.5261640625,0.0004845686465501785,0.14994893473125992,0.03482533926349133
1746483123626161400,7.536161376953125,-0.07443009482324123,0.12290230317786335,-0.02432736265733838
1746483123636158200,7.546158203125,-0.15892624110877512,0.06516593432836235,-0.04980831579659134
1746483123646155300,7.5561552734375,-0.1419786134392023,-0.00462327588647604,-0.06175228995997458
1746483123656152300,7.56615234375,-0.08185410734415054,-0.02223316685706377,-0.05628675456307828
1746483123666149400,7.5761494140625,-0.019701894813776016,-0.022618805173784493,-0.002861234650015831
1746483123676146200,7.586146240234375,0.015770400583744047,-0.0014098667979240416,0.05356178657859564
1746483123686143500,7.5961435546875,0.041457799547910686,0.025940350811928508,0.1157163006639108
1746483123696140300,7.606140380859375,0.016587562185525893,0.06499233132712542,0.09705419722665101
1746483123706136300,7.61613623046875,-0.011977438041567801,0.06778356948085129,0.0375572119127959
1746483123716133400,7.62613330078125,-0.013104980766773223,0.06814597305245697,-0.0011636369518935679
1746483123726130200,7.636130126953125,0.002272036585211754,0.05158069576397538,-0.03714757166597992
1746483123736127500,7.64612744140625,-0.001938274586200714,0.024561902065575122,-0.08595332282390444
1746483123746124300,7.656124267578125,-0.017937807750701903,0.013361366680637001,-0.08758366397209465
1746483123756121300,7.666121337890625,-0.023280922344326972,-0.0371089566886425,-0.04859736910425126
1746483123766118400,7.676118408203125,0.009749825119972228,-0.017504896226152776,0.03319196590799838
1746483123776115500,7.686115478515625,0.04952303258180618,0.02181340707503259,0.13197799189593643
1746483123786112300,7.6961123046875,-0.018639234018325804,0.034575931079685686,0.15821535289306193
1746483123796109300,7.706109375,-0.06836041952073574,0.051888957995548844,0.07005268345661461
1746483123806106400,7.7161064453125,-0.043971828195452686,0.0568525717522949,-0.02684172009844333
1746483123816103200,7.726103271484375,0.0006271919876337051,0.04844488195627927,-0.07339760997034608
1746483123826100200,7.736100341796875,0.021592238605022428,0.007807458880543708,-0.07559829835239798
1746483123836097300,7.74609716796875,0.04344342040717602,0.010934943251311778,-0.033219073110632595
1746483123846094300,7.75609423828125,0.02723988910317421,0.020310820492357013,0.010656053244695067
1746483123856091100,7.766091064453125,-0.034763854867219925,0.013267916243523359,0.03642418929487467
1746483123866088400,7.77608837890625,-0.05056172797977924,0.028906068749725816,0.022999438521824775
1746483123876085200,7.786085205078125,-0.029447628280520437,0.04760265897847712,0.044460378897376356
1746483123886082300,7.796082275390625,-0.029971359893679616,0.04531900502070784,0.059798598608933384
1746483123896079400,7.806079345703125,-0.06911036110520362,0.04881313074678182,0.09506711506266147
1746483123906076200,7.816076171875,-0.11266659423708915,0.08079502674527465,0.10890778969284147
1746483123916072400,7.826072509765625,-0.13307166888415814,0.08884908079802989,0.04571078081727028
1746483123926069200,7.8360693359375,-0.07471358793973923,0.07195698270797729,-0.026081439783051608
1746483123936066300,7.84606640625,-0.05851297924518585,0.07514182328917085,-0.06044624886270612
1746483123946063400,7.8560634765625,-0.05829787518978118,0.12243417420946061,-0.05398826836235821
1746483123956060400,7.866060302734375,0.04255553165674209,0.25651640837565065,0.1185057852519676
1746483123966057200,7.87605712890625,0.13566694607436655,0.009765388015285134,0.44027043594457205
1746483123976054300,7.88605419921875,0.0793891785353422,-0.2967033842701465,0.38594179317932575
1746483123986051300,7.89605126953125,0.21725451143682,-0.32366715984567995,0.012115056413970886
1746483123996048100,7.906048095703125,0.20213935989141463,-0.14848602257184684,-0.15582023791745303
1746483124006045400,7.91604541015625,0.006788052704930305,0.14487280051074922,-0.2795180388545617
1746483124016042200,7.926042236328125,-0.17213994294703006,0.35553171307481823,-0.4243213177930563
