time,seconds_elapsed,z,y,x
1746481659065326000,0.491326171875,-0.13608371018171309,-0.060303077532351014,0.14010775979971513
1746481659075322000,0.501322021484375,-0.20959435207247734,-0.01651172047033906,0.1777086647237651
1746481659085319200,0.511319091796875,-0.2188753906369209,0.009035100979357957,0.13247210468896664
1746481659095315000,0.52131494140625,-0.2284533663213253,-0.00109013332426548,0.09828799507161602
1746481659105311200,0.531311279296875,-0.279047827526927,-0.051716158711910244,0.13146809701188467
1746481659115308000,0.54130810546875,-0.26655484117865563,-0.12358312504887581,0.2062250765687786
1746481659125304000,0.551303955078125,-0.23407938950955867,-0.12095336106717586,0.26721213604360816
1746481659135300000,0.561300048828125,-0.11749591408967971,-0.10396408621296285,0.2876242249533534
1746481659145297200,0.571297119140625,-0.049292730957269666,-0.1420866038583219,0.2693162504496984
1746481659155293000,0.58129296875,0.0483586649775505,-0.1745874822296202,0.2578392544772476
1746481659165289200,0.591289306640625,0.10963000302016734,-0.22223142306655644,0.28361148218065496
1746481659175285000,0.601284912109375,0.09960019191503525,-0.294043298215419,0.34529322765506804
1746481659185282000,0.611281982421875,-0.040135611033439635,-0.36603067606166,0.41755839952938256
1746481659195278000,0.621278076171875,-0.18542028028070925,-0.40774844172000885,0.4445633473655209
1746481659205274000,0.631274169921875,-0.3508469893246889,-0.4303792295925319,0.4082092641647905
1746481659215271000,0.64127099609375,-0.4797790741860866,-0.4266378511071205,0.35452998868636787
1746481659225267200,0.65126708984375,-0.5312216766536235,-0.404567327465862,0.2676275849767029
1746481659235263200,0.66126318359375,-0.4785352116048336,-0.34798473176136613,0.17827123050997032
1746481659245260000,0.671260009765625,-0.33342823701202867,-0.20869462675377726,0.1438190810735803
1746481659255256000,0.681256103515625,-0.15637772566974162,-0.12354206238612532,0.21796866932185366
1746481659265252000,0.691252197265625,0.018066987088322637,-0.07906812988743185,0.3048956777498126
1746481659275249000,0.701248779296875,0.12568448124229908,-0.04137129030823707,0.3530732505394146
1746481659285245200,0.7112451171875,0.1719026270598173,-0.010833820964396,0.3329530207157135
1746481659295241200,0.7212412109375,0.21384499525427816,0.051627457515150306,0.2504076614380814
1746481659305238000,0.731238037109375,0.2884147908091545,0.10128931404575706,0.13467415391104295
1746481659315234300,0.741234375,0.37673020312190053,0.12104586165621876,0.04174016015324741
1746481659325230000,0.75122998046875,0.44456396842002865,0.06779884011521935,-0.06332109191296621
1746481659335226000,0.76122607421875,0.518842672073841,0.020235417168587445,-0.11321387112261727
1746481659345223200,0.77122314453125,0.5374935965299606,-0.04443199305310845,-0.08325425646565854
1746481659355219200,0.78121923828125,0.4691226556152105,-0.13725684561431406,-0.0008554477855563164
1746481659365215000,0.791215087890625,0.38580373641550536,-0.19324995099306105,0.04056278693694621
1746481659375212000,0.8012119140625,0.3519277702987194,-0.21041823567599058,0.05846484752083197
1746481659385208000,0.8112080078125,0.3197410724431276,-0.18561967531032858,0.053082624759525056
1746481659395204000,0.8212041015625,0.2685392929941416,-0.17747523956038055,0.016036029249988495
1746481659405201000,0.831200927734375,0.12700608523488044,-0.1916151163328439,0.061378122885338955
1746481659415197200,0.841197265625,-0.05515490098893642,-0.22174283583201468,0.1466886542936787
1746481659425193000,0.85119287109375,-0.27444764025509355,-0.19458171105347571,0.305183134655375
1746481659435190000,0.86118994140625,-0.40682781974375243,-0.14081044644266366,0.4923840695414692
1746481659445186000,0.87118603515625,-0.5289508091121912,-0.16799838616289198,0.6340243178717792
1746481659455182000,0.88118212890625,-0.6784791072785854,-0.233455339327082,0.7355494134347885
1746481659465178000,0.89117822265625,-0.8551140235573053,-0.3191070853885263,0.7460333980482071
1746481659475175200,0.901175048828125,-1.073749175697565,-0.4395685712855309,0.7728272238843142
1746481659485171200,0.911171142578125,-1.3097943123221396,-0.5616543704487383,0.715029772497341
1746481659495167000,0.9211669921875,-1.5452631103634833,-0.6885174670163542,0.6320768370658159
1746481659505164000,0.9311640625,-1.7446709994643925,-0.8114065453864634,0.63658715409711
1746481659515160000,0.94116015625,-1.8539590571790932,-0.8672649184696376,0.7090232986241579
1746481659525156000,0.951156005859375,-1.8865122502595184,-0.8172565135236829,0.795123446040228
1746481659535153200,0.961153076171875,-1.7872218549460173,-0.735773431449011,0.7736866902578622
1746481659545149200,0.971149169921875,-1.7729682886660099,-0.7712542024139314,0.6879962926864623
1746481659555145000,0.98114501953125,-1.8527648789584636,-0.9430462087061255,0.6345987567588687
1746481659565142300,0.991142333984375,-1.9228426237910985,-1.168207913070917,0.7002804585896432
1746481659575138000,1.001137939453125,-1.9777987873375416,-1.3719360034584998,0.8882640134871006
1746481659585134000,1.011134033203125,-2.0537088915854693,-1.459035025718808,1.1664941679555922
1746481659595129900,1.0211298828125,-2.164026292347908,-1.4769120431929825,1.396082018199563
1746481659605127200,1.031127197265625,-2.26848152307868,-1.4732653572537004,1.5267784823849797
1746481659615123000,1.041123046875,-2.2968004395902155,-1.4563956171259282,1.5979126044027507
1746481659625119000,1.051118896484375,-2.2378496534496546,-1.4652712897598743,1.6592859415151178
1746481659635116000,1.061115966796875,-2.063338305196166,-1.608983302862942,1.7475141139358281
1746481659645112000,1.071112060546875,-1.8522879090964792,-1.8674457307398318,1.8295885860323904
1746481659655108000,1.081108154296875,-1.5586235271960496,-2.1878636795312163,1.8699378398165105
1746481659665105200,1.091105224609375,-1.2862170373797417,-2.477632807558775,1.8709052235439418
1746481659675101000,1.101100830078125,-1.0370891318202018,-2.6897707066342234,1.9230194416627286
1746481659685097000,1.111096923828125,-0.8438999711036682,-2.7453713055640456,2.118430662342906
1746481659695094000,1.121093994140625,-0.6738730747878551,-2.681529824772477,2.369299858611822
1746481659705090000,1.131090087890625,-0.4267857351452112,-2.5678379791408776,2.7171786457806824
1746481659715086000,1.141086181640625,-0.155576930680871,-2.400624678941071,3.1464281406909227
1746481659725082000,1.15108203125,0.23540157802402972,-2.1941820688977836,3.467846790957451
1746481659735079200,1.1610791015625,0.8473638478219508,-1.907061994074285,3.722508657507598
1746481659745075000,1.171074951171875,1.9549539183229208,-1.6455325798422098,3.522544595828652
1746481659755071200,1.1810712890625,3.9893981374680996,-1.1948662759590893,2.509060211479664
1746481659765068000,1.191068115234375,7.068067916184663,-0.7301933662943542,1.3044387766383587
1746481659775064000,1.20106396484375,9.818387199544906,-0.7972028095975517,0.7347288177669048
1746481659785060000,1.21106005859375,11.23557688770294,-1.0723263032875954,0.693164927496016
1746481659795057200,1.22105712890625,11.350842266261576,-1.4958480682007969,0.5795895478509366
1746481659805053700,1.2310537109375,10.619663834452629,-0.45504276540167626,-0.04584850878752768
1746481659815050000,1.241050048828125,10.19958431894779,0.14906732959114014,-0.18493399460110813
1746481659825046800,1.251046875,9.716043261879681,0.6060615213215351,-0.18930985333146527
1746481659835042800,1.261042724609375,9.518725623056293,1.0503609935864806,-0.02166881097257137
1746481659845038800,1.271038818359375,9.65534007911384,0.9239473943520337,0.4576594507060945
1746481659855035000,1.281034912109375,9.596391631060838,0.7236749243110417,0.8777951533775776
1746481659865031700,1.29103173828125,9.55132791597545,0.6215838654283434,1.2298890009582042
1746481659875028000,1.301028076171875,9.46693932171762,0.5101640929145738,1.5927442618541419
1746481659885023700,1.311023681640625,9.395256479775906,0.42147115252632644,1.9590107924982905
1746481659895020800,1.321020751953125,9.288528043416141,0.2989488981746137,2.3052701617717744
1746481659905016800,1.331016845703125,9.165193340170383,0.19038268846105783,2.655278069923818
1746481659915012900,1.341012939453125,9.043799249598383,0.0985906860789284,3.006135580642521
1746481659925009700,1.351009765625,8.90154415730536,0.0019152864362578838,3.3397187159553168
1746481659935006000,1.361005859375,8.754342256259918,-0.1022105205439031,3.6693010911941526
1746481659945001700,1.371001708984375,8.582651226124167,-0.20230101672653109,3.9900241604119535
1746481659954998800,1.380998779296875,8.427473523893951,-0.303767039046064,4.280793405392766
1746481659964994800,1.390994873046875,8.25175747602582,-0.4037949913864955,4.591361868081987
1746481659974990800,1.400990966796875,8.057625481501221,-0.4892568408990279,4.877193364399671
1746481659984987000,1.41098681640625,7.882229167106747,-0.5713178324595093,5.1577136025667185
1746481659994984000,1.42098388671875,7.699002012956142,-0.6729355016767978,5.4261260543107985
1746481660004980000,1.43097998046875,7.471650470396876,-0.7777744710281491,5.682697261613607
1746481660014975700,1.440975830078125,7.275752050721645,-0.8525044255807995,5.925882333120703
1746481660024972800,1.450972900390625,7.037108129775524,-0.9419466499663889,6.170482532122731
1746481660034968800,1.46096875,6.838772838342189,-1.020024015250802,6.389467812874913
1746481660044964900,1.47096484375,6.594318185290694,-1.1045196500796823,6.595615823885798
1746481660054962000,1.4809619140625,6.381653339731693,-1.1833185345716775,6.806517166903615
1746481660064958000,1.4909580078125,6.162302732798457,-1.2612025692410767,6.997239060723781
1746481660074953700,1.50095361328125,5.934919626057147,-1.338311381754279,7.18118634584248
1746481660084951000,1.510950927734375,5.704079656860232,-1.4229887298256159,7.3475985587924715
1746481660094946800,1.52094677734375,5.495722737628221,-1.4951219458833336,7.503449045717716
1746481660104942800,1.53094287109375,5.286167548522353,-1.574767291136831,7.66082922642827
1746481660114938600,1.540938720703125,5.061770764115453,-1.6502042249150572,7.800996991053223
1746481660124936000,1.55093603515625,4.842015668034553,-1.7320576016068459,7.9183117033571
1746481660134931700,1.560931640625,4.637145421874523,-1.7892291031152008,8.043809722116588
1746481660144927700,1.570927734375,4.424284469221532,-1.8687177965022623,8.150251742750406
1746481660154924800,1.5809248046875,4.209751199442148,-1.9514365578517316,8.240012677696347
1746481660164920800,1.5909208984375,4.013146092802286,-2.0121724738433957,8.334591826578974
1746481660174916900,1.600916748046875,3.796861010919511,-2.080042333368212,8.417257834827899
1746481660184914000,1.610913818359375,3.52327641723454,-2.0802466237686574,8.356592061462997
1746481660194909700,1.62090966796875,-1.244500002373755,0.2970790126495063,-3.0398405741065737
1746481660204905700,1.63090576171875,-23.480153123295306,16.583942825984956,-47.77407294523716
1746481660214902800,1.64090283203125,-45.65553648443222,38.244533082699775,-92.98676161751746
1746481660224898800,1.65089892578125,-66.0887897627592,46.62917693417072,-105.40982511925696
1746481660234894800,1.660894775390625,-61.96394036779403,29.993915424358843,-62.11763689155578
1746481660244891000,1.670890869140625,-44.072782140064234,8.728169119605422,-14.94951440848112
1746481660254888000,1.680887939453125,-31.018173131656646,-1.8338810225293039,2.384786473818123
1746481660264883700,1.6908837890625,-17.27709460173845,-4.322510732659698,6.005811609882116
1746481660274880000,1.7008798828125,-6.005204876160621,-4.3340380888462064,6.113959849911928
1746481660284876800,1.710876708984375,1.855056204766035,-3.6176571209356188,5.152113882863521
1746481660294872800,1.720872802734375,7.177392798778414,-2.4958663833856582,3.3994013235017655
1746481660304868900,1.730868896484375,10.41777464993,-0.9618617491394281,2.1702280695974827
1746481660314866000,1.740865966796875,11.315050821912289,0.8808465768374503,2.397892331367731
1746481660324861700,1.75086181640625,10.03427217619419,1.3872107294797897,3.0878894424825907
1746481660334857700,1.760857666015625,8.794289066722989,1.1769035529628395,3.9581399526342746
1746481660344854800,1.770854736328125,8.215886536699532,1.0004030767187475,4.41335800153762
1746481660354850800,1.780850830078125,7.932206957718729,0.8125742739915848,4.511678967297077
1746481660364846600,1.7908466796875,7.656030886235833,0.6832647341199218,4.538867710734904
1746481660374843000,1.8008427734375,7.146956743982434,0.5751689183970913,4.484265475192665
1746481660384839700,1.810839599609375,6.302901874577999,0.39286139984205365,4.22639341442436
1746481660394835700,1.820835693359375,5.127179932615161,0.08244706826861947,3.6042280227810144
1746481660404832000,1.83083203125,3.862565070712566,-0.3337484819423407,2.4592878803119063
1746481660414828800,1.840828857421875,2.8303619573682544,-0.8989979542735963,0.6973582875326275
1746481660424824800,1.850824951171875,2.1051070703893897,-1.8386708871543407,-1.108854391348362
1746481660434820900,1.86082080078125,1.5852449921399354,-2.8630568970069286,-1.7275385167472064
1746481660444817700,1.870817626953125,0.46376492797434327,-3.321788214728236,-1.648901325622946
1746481660454813700,1.880813720703125,-1.9045470886439084,-3.100928664536774,-0.9366051428079605
1746481660464810000,1.89081005859375,-4.94549299364388,-2.156803501487523,0.42336029074117537
1746481660474805800,1.9008056640625,-7.370679574650525,-0.7989081522107124,2.179769074272364
1746481660484802800,1.910802734375,-8.216363506561517,0.5599174636535346,3.5154385632157323
1746481660494798800,1.920798828125,-6.730906337863207,1.462557939147949,3.2644621071800586
1746481660504795000,1.930794921875,-3.4375352393239735,1.511039792113751,1.4917103838741779
1746481660514791700,1.940791748046875,-0.5120592955440283,1.0999813490629196,-0.031200024905800816
1746481660524788000,1.9507880859375,1.2922358592778445,0.6869412306755781,-0.8289508237749338
1746481660534783700,1.96078369140625,2.153203285038471,0.31926848649531603,-1.1437069474123418
1746481660544780800,1.97078076171875,2.3517396520018576,0.008749598568864167,-1.1244940051592887
1746481660554776800,1.98077685546875,2.1016724197655914,-0.2581195327233523,-0.8688434198327362
1746481660564772900,1.99077294921875,1.6057061808884143,-0.438359780017659,-0.5430233197368681
1746481660574769700,2.000769775390625,1.0483487769812345,-0.44314197279289363,-0.43562224481254813
1746481660584766000,2.010765869140625,0.4472118525803089,-0.2912164042264223,-0.32672830098196864
1746481660594761700,2.02076171875,-0.14554770409762857,-0.10762301057931035,-0.015201806915551423
1746481660604757800,2.0307578125,-0.5944423951983452,0.048204351198673244,0.33218598186597226
1746481660614754800,2.0407548828125,-0.7985176915884018,0.16565825277753174,0.5417797494165599
1746481660624750800,2.050750732421875,-0.7219540918678045,0.22699085602071134,0.5734414004847407
1746481660634747000,2.060746826171875,-0.4224076661914587,0.1709966181308031,0.41030908598825333
1746481660644744000,2.070743896484375,-0.05564999102950096,0.035386918669007714,0.10145078821778297
1746481660654740000,2.080739990234375,0.20035539908409117,-0.07558185867425053,-0.11220905972793697
1746481660664735700,2.09073583984375,0.27030571814477444,-0.130457431265153,-0.22829905254244803
1746481660674732800,2.10073291015625,0.20724165146648882,-0.12554784925058482,-0.2388052489876747
1746481660684728800,2.110728759765625,0.03974690397679805,-0.04353255999535322,-0.11629662130251527
1746481660694724900,2.120724853515625,-0.09728373166620731,0.05013243318442255,0.058356619639694685
1746481660704720600,2.130720703125,-0.16320494134128094,0.07959650114309043,0.1500121361605823
1746481660714718000,2.140718017578125,-0.1151221706956625,0.03550977786369622,0.16383213332891464
1746481660724713700,2.150713623046875,-0.013393734580278396,-0.009440393844619394,0.06082680914551019
1746481660734709800,2.160709716796875,0.025213936233520508,-0.057962140429392454,-0.022665859185904264
1746481660744706800,2.170706787109375,0.01705517969727516,-0.0530120072087273,-0.05431392012014985
1746481660754702800,2.180702880859375,-0.02674012288749218,-0.01991641434729099,-0.031811288671940566
1746481660764698600,2.19069873046875,-0.056333881640434263,0.007165142389014363,0.0045003801591694354
1746481660774696000,2.200696044921875,-0.06049976914823055,0.00885466637853533,0.026042057620733975
1746481660784691700,2.210691650390625,-0.04999766435623169,0.00840768979601562,0.05760390157625079
1746481660794687700,2.220687744140625,-0.01183247661292553,-0.0069979691285639994,0.044091509052366015
1746481660804683000,2.23068310546875,-0.014565700969099997,-0.020624453018791972,0.025320465347915887
1746481660814679800,2.2406796875,-0.010837035834789276,-0.01915759533662349,0.0028070202447474
1746481660824676000,2.250676025390625,-0.025319734695553778,0.0006235752584412694,-0.026371435705572367
1746481660834671900,2.260671875,-0.0387386037170887,0.001876570994220674,-0.01649769194498658
1746481660844669000,2.2706689453125,-0.03482873679697513,0.007166092237085104,0.036045565240830184
1746481660854665000,2.2806650390625,-0.018088614398241044,-0.008565547238849103,0.0496311691313982
1746481660864661000,2.290660888671875,-0.013761398848891257,-0.011314115294627844,0.027079583974927664
1746481660874657800,2.30065771484375,-0.022132336831092832,-0.01855758361686021,0.006197977857291698
1746481660884654000,2.310654052734375,-0.03212415401339531,-0.019072730064764617,0.0005846680201590061
1746481660894649900,2.32064990234375,-0.024941549032926558,-0.0002811184963211417,0.010880728846043347
1746481660904646000,2.33064599609375,-0.02822890014052391,-0.008083974266983568,-0.005148761065304279
1746481660914643000,2.340642822265625,-0.032279052314162254,-0.006448080160841346,0.019452303966879844
1746481660924639000,2.350638916015625,-0.010814824002981185,-0.006823306681402027,0.034655426056683064
1746481660934635000,2.360635009765625,-0.03048749272227287,-0.010296133891120553,0.016491700595617293
1746481660944632000,2.370632080078125,-0.026114684465527532,0.00028385844267904756,0.007285480833053588
1746481660954628000,2.380628173828125,-0.021741876208782193,-0.010686484915576874,0.006260667829960584
1746481660964624000,2.390623779296875,-0.03833820622265339,-0.007310432611219585,0.008649024271219968
1746481660974621200,2.40062109375,-0.02276245142817497,-0.009404445748403668,0.02144128582701087
1746481660984617000,2.410616943359375,-0.02666121243238449,-0.0022268457366153597,0.03999401060566306
1746481660994613000,2.420613037109375,-0.029096915146708487,-0.010026157843321561,0.012682225310057402
1746481661004608800,2.43060888671875,-0.035521395236253736,-0.008438596390932798,0.012169599612802267
1746481661014606000,2.440606201171875,-0.0266302327722311,-0.022445202172547578,0.02325666468590498
1746481661024601900,2.450601806640625,-0.04110299476087093,-0.003970693729259073,0.009564970072358845
1746481661034598000,2.460597900390625,-0.03285363733172417,0.013512721317447721,0.016098025102913378
1746481661044595000,2.470594970703125,-0.019186931028962136,0.001949015175923705,0.00829056622236967
1746481661054591000,2.480591064453125,-0.03211187905371189,-0.009833850141614675,0.004537789560109377
1746481661064586800,2.490586669921875,-0.04571370342671871,-0.020097433470003305,0.009833850141614675
1746481661074584000,2.500583984375,-0.024718261671066284,-0.003003784925863147,0.017134528543800116
1746481661084579800,2.510579833984375,-0.01865910776257515,-0.007294869715906679,0.0002256254494190216
1746481661094575900,2.520575927734375,-0.027726795837283134,-0.00085310969799757,0.020823300059139727
1746481661104572200,2.530572265625,-0.021690438282489774,-0.002549721015430987,0.006922346609085798
1746481661114569000,2.54056884765625,-0.030259529185295102,0.0068410980664193625,-0.0018447510838508604
1746481661124565000,2.55056494140625,-0.013296119424700737,-0.013015658515505492,0.012087035895884037
1746481661134561000,2.56056103515625,-0.01148293252289295,-0.018997436338849365,0.014175970999151468
1746481661144558000,2.57055810546875,-0.03734334996640682,-0.02030855547003448,0.013311316993832588
1746481661154553900,2.580553955078125,-0.029503157860040662,-0.010512918446958064,0.016235095486044883
1746481661164550000,2.5905498046875,-0.014391513445973395,0.0021567031098529694,0.006184387723356485
1746481661174547000,2.600546875,-0.01490939984023571,-0.006118957804329693,-0.0029535891085863113
1746481661184543000,2.61054296875,-0.03343114495873451,-0.006647475190460682,0.0002690261997282505
1746481661194538800,2.620538818359375,-0.023382629153132436,-0.0009511997776106,0.018437573966383933
1746481661204535000,2.63053515625,-0.020058453166484833,0.0034710736440494655,0.007547785031050443
1746481661214531800,2.64053173828125,-0.03680675887167453,-0.014381613106466828,0.005254997918754816
1746481661224528000,2.65052783203125,-0.028261633366346357,0.0010202464258298278,0.001276741937547922
1746481661234524000,2.66052392578125,-0.019537644162774086,-0.009254881209880113,0.0031888591691851616
1746481661244521000,2.67052099609375,-0.015007599517703056,-0.0053673357194289565,0.003100157972425222
1746481661254516700,2.680516845703125,-0.023483166918158528,-0.005069119957834482,0.0015384616136550901
1746481661264513000,2.690512939453125,-0.022131752309203147,-0.007360664961114525,0.014429653499275445
1746481661274509800,2.700509765625,0.040087680238485336,-0.08339180177282542,0.056540656258910894
1746481661284505900,2.710505859375,0.36156186008453367,-0.12494732607416807,0.13401479495316743
1746481661294502100,2.720502197265625,0.7298691027760505,-0.11618099556621163,0.039645781689882274
1746481661304498000,2.730497802734375,0.7754249852925539,-0.042357817127555604,-0.21081015760302543
1746481661314495000,2.740494873046875,0.5182657489687204,0.05763049732223153,-0.32034079190194603
1746481661324491000,2.750490966796875,0.16585633263289928,0.13693207063935697,-0.2479061086796224
1746481661334487000,2.760487060546875,-0.035160160708427424,0.40520230090115217,-0.25679800179600715
1746481661344483800,2.77048388671875,0.11692658976912498,0.441124349360168,-0.15083324328511952
1746481661354480000,2.780480224609375,0.2521995680898428,0.21768873813562095,-0.13388992646448314
1746481661364476000,2.790475830078125,0.10312778151929378,0.006551321339607239,-0.016751009118929506
1746481661374473000,2.800472900390625,-0.20754268023967742,-0.11863587790504097,0.13036818207912146
1746481661384469000,2.810468994140625,-0.3522153550684452,-0.1392335525147617,0.22515593221113084
1746481661394465000,2.820465087890625,-0.2733171749204397,-0.2565452691439539,0.09747600283529609
1746481661404460800,2.830460693359375,-0.03828501473069191,-0.34710268822982904,-0.0872964445285499
1746481661414458000,2.8404580078125,0.07824117754399776,-0.46064701514951883,-0.12889562530852852
1746481661424454000,2.850453857421875,-0.13830430884063244,-0.45932891828827555,-0.09293313524127006
1746481661434450000,2.860449951171875,-0.3936491892188787,-0.23845387826673686,0.04810658991262316
1746481661444447000,2.870447021484375,-0.28177053048908707,0.011313055848702788,0.27210999108776446
1746481661454443000,2.880443115234375,0.09759177470207214,0.23196093605086207,0.3363456588286906
1746481661464439000,2.89043896484375,0.5250163922727108,0.4154406767230481,0.36496976883187887
1746481661474436000,2.90043603515625,0.832443342065811,0.5869768085580319,0.05721300256252288
1746481661484432000,2.910431884765625,0.9772995567679404,0.7877332627236843,-0.2305440549902618
1746481661494428000,2.920427978515625,0.8924608806550502,0.881346927575022,-0.14918204201199115
1746481661504424000,2.930423828125,0.6084183135807514,0.7688071015227586,0.12675225660428405
1746481661514421000,2.9404208984375,0.21173370218873022,0.3748782185796648,0.34799704325366765
1746481661524417000,2.9504169921875,-0.25312895789444445,-0.16167809710018335,0.34643289920948445
1746481661534412800,2.960412841796875,-0.6318973888456821,-0.5511870447091758,0.23267584285456686
1746481661544410000,2.97041015625,-0.8270832763373851,-0.7142036969367415,0.03801945912968367
1746481661554406000,2.980406005859375,-0.8620458686470985,-0.718642117775604,-0.22815529669020324
1746481661564402000,2.99040185546875,-0.7819909196794033,-0.5619913473181426,-0.4070509244425222
1746481661574399000,3.00039892578125,-0.6775543936491012,-0.35379151834398503,-0.4520747093763202
1746481661584395000,3.01039501953125,-0.49210897892713545,-0.19443141586259005,-0.4805310250645503
1746481661594390800,3.020390869140625,-0.21337270156741142,0.00868212282322347,-0.3571645019084215
1746481661604387000,3.030386962890625,0.03164659962952137,0.126148518557474,-0.24916622827593235
1746481661614383900,3.0403837890625,0.21493980475366115,0.21861498613506555,-0.3686630338592455
1746481661624380000,3.0503798828125,0.42392508501708503,0.29938816637471316,-0.5799664548719301
1746481661634376000,3.0603759765625,0.7814724487632513,0.2140194019731134,-0.7469089387737214
1746481661644373000,3.070373046875,0.7400292622625827,-0.029376535805687307,0.13417842454966156
1746481661654368800,3.08036865234375,0.5509130500733852,-0.17517383075021206,0.682446841865778
1746481661664365000,3.090364990234375,0.17619944747090338,-0.17667312939725816,0.8893129380181432
1746481661674361900,3.10036181640625,-0.13852701168060302,-0.18606683455593884,0.9899066710151732
1746481661684358000,3.11035791015625,-0.31640052984356876,-0.0421282461553812,0.7755839021813123
1746481661694354200,3.120354248046875,-0.46884208510816094,0.15027502488046884,0.5598813694268465
1746481661704351000,3.13035107421875,-0.513411879196763,0.2626467278242111,0.1631452470432967
1746481661714347000,3.140346923828125,-0.3838999486207962,0.2571536833658814,-0.3086289459940046
1746481661724343000,3.150343017578125,-0.3203343621611595,0.16847952074334024,-0.6262151054255664
1746481661734339000,3.160339111328125,-0.3137263421982527,-0.013278072311356663,-0.6427967493269592
1746481661744336000,3.1703359375,-0.33999943209588523,-0.15903189344033597,-0.39862778134904797
1746481661754332000,3.180331787109375,-0.39041912125647066,-0.16909231887944043,-0.07857793521769345
1746481661764328000,3.190327880859375,-0.4565928443878889,-0.11967289280258119,0.1346262779150158
1746481661774325000,3.200324951171875,-0.48496787500083444,-0.039010844787210223,0.24269202729314565
1746481661784320800,3.21032080078125,-0.4882254154920578,0.020993761255219578,0.2080501183051616
1746481661794317000,3.220317138671875,-0.5392793109029531,-0.07335742409043014,0.121206751306355
1746481661804313900,3.23031396484375,-0.9016840515524148,-0.17208755517266688,-0.03434263378046453
1746481661814310000,3.240309814453125,-1.809419658228755,-0.17337379559092223,-0.19786285161599515
1746481661824305700,3.2503056640625,-3.001810410919785,-0.41305633886978027,-0.3957388549745083
1746481661834301700,3.2603017578125,-4.0210733786702155,-0.6236845640346408,-0.8751267378859221
1746481661844298800,3.270298828125,-3.806936122471094,-0.9677518300913274,-0.27446729480363424
1746481661854294800,3.280294677734375,-3.7790380617201325,-1.068855266176164,0.5253627214923501
1746481661864290800,3.290290771484375,-4.025826126155257,-0.5412774989828467,0.5223691656995565
1746481661874287900,3.300287841796875,-3.8266578910291194,0.21626900753080844,0.1408362384710461
1746481661884284000,3.310283935546875,-3.5397611035674807,0.4790782324403524,-0.6111906278382987
1746481661894279700,3.32027978515625,-3.067302581527829,0.4907822603680193,-1.355217800630629
1746481661904276000,3.33027587890625,-2.499202834331989,0.3459279453620314,-1.512299582916498
1746481661914272800,3.340272705078125,-1.9151538228541611,0.1272993690930307,-0.7634829838905483
1746481661924268800,3.350268798828125,-1.945301708358526,0.04733209840878844,0.20200594277009368
1746481661934264800,3.360264892578125,-2.7976977051287886,-0.1536468394011259,0.23939959815163164
1746481661944262000,3.370261962890625,-3.39488910677433,-0.2607639828175306,-0.10644205716643482
1746481661954257700,3.380257568359375,-2.7779437878668305,0.03870850083976984,-0.16037768202610314
1746481661964254000,3.39025390625,-1.5610083765059708,0.4184086596831679,0.1628301166795194
1746481661974250800,3.400250732421875,-0.4024707935780287,0.7385691265821457,0.21498514173272995
1746481661984246800,3.410246826171875,0.21475860296785831,0.7761307954743504,-0.11142470441721379
1746481661994242800,3.420242919921875,0.6122200439512729,0.7330006788000464,-0.31746077948622403
1746481662004238800,3.43023876953125,0.9633248074293136,0.7939692345038056,-0.3966689023662358
1746481662014235600,3.440235595703125,1.4575854114323854,0.8694684198632836,-0.20497626381777226
1746481662024232000,3.45023193359375,2.1237410437107087,0.9111626585155725,0.07198489362820983
1746481662034228000,3.46022802734375,2.7292525299340484,0.9218041717782616,0.02791574253812432
1746481662044224800,3.470224853515625,3.2785470388948914,1.0174772533774374,-0.20622487563937902
1746481662054220800,3.480220703125,3.5748534597367048,0.9913763051763176,-0.49953182240426536
1746481662064216800,3.490216796875,3.40014805021584,0.8456094053700566,-1.367768508515507
1746481662074213600,3.500213623046875,2.6400065587729213,0.7393669989615679,-1.9683122893288731
1746481662084210000,3.5102099609375,1.5430769984960555,0.6833072580873966,-1.9573855293840168
1746481662094206000,3.5202060546875,1.373718795222044,0.8813996806755662,-1.2847076557300985
1746481662104201700,3.53020166015625,1.8321300872087478,1.24570294842273,-0.38945042235478755
1746481662114199000,3.540198974609375,2.199093514075875,1.34441758967489,-0.18312369377613066
1746481662124194800,3.55019482421875,2.38327226986289,1.3193959611430763,-0.14322335280328988
1746481662134190800,3.56019091796875,2.6436247492700815,1.2436819639891386,-0.055303661809861654
1746481662144188000,3.57018798828125,3.0173972716301676,1.1057292450651526,0.033479221884161234
1746481662154184000,3.580183837890625,3.5135154861986635,1.0962176126152277,0.4987070620179176
1746481662164179700,3.5901796875,3.724593939349055,1.0167278963148594,0.5044310656879097
1746481662174177000,3.600177001953125,3.6207045258074997,0.7642872129455208,-0.14335764670744539
1746481662184172800,3.6101728515625,3.7820091864854097,0.6512231438234448,-0.5097059373509139
1746481662194168800,3.6201689453125,4.309322749784589,0.3962219623163342,-0.6764746355883777
1746481662204164900,3.630164794921875,5.226041873383521,0.044399698218703265,-0.40137371905632313
1746481662214162000,3.640161865234375,6.28546207947731,-0.37623540534228084,0.15824395793303847
1746481662224157700,3.65015771484375,6.265827404680848,-1.358078450758755,-0.3379301515411585
1746481662234153700,3.66015380859375,6.583758797353505,-1.6772703648865221,-0.20692133347094058
1746481662244150800,3.67015087890625,6.744054573249817,-0.8291945694029331,1.5965528603568673
1746481662254146800,3.680146728515625,5.726679026681184,-0.1872346362262964,2.7630262047201395
1746481662264142800,3.690142822265625,4.920099609190225,-0.305211904092133,2.513867904022336
1746481662274140000,3.700139892578125,3.7725662353575227,-0.8819812799558043,2.4150300747819244
1746481662284136000,3.710135986328125,2.930124646368623,-1.40608377225399,2.4567174453020093
1746481662294131700,3.720131591796875,0.6154997962743044,-1.7997198097303508,1.750302867871523
1746481662304128000,3.7301279296875,-1.1579548146039247,-2.374918867537379,0.7731583555348217
1746481662314124800,3.740124755859375,-3.3880689053654667,-2.176130279378593,-1.8567289602838455
1746481662324120800,3.750120849609375,-3.374591584154963,-1.6869292968526481,-3.036077422180772
1746481662334116900,3.760116943359375,-3.302036051031947,0.06855886470228434,-3.447301431056857
1746481662344114000,3.770114013671875,-4.323734136974811,1.4416899231642484,-3.287270443576574
1746481662354109700,3.780109619140625,-5.192040235060453,2.6624130363702774,-3.158135529619455
1746481662364106000,3.79010595703125,-5.589250916153192,3.5855735911935565,-3.2869378506213422
1746481662374102800,3.800102783203125,-6.103697399094701,2.143602513000369,-3.2440634622737763
1746481662384098800,3.810098876953125,-6.3042252321362495,0.47148090917915103,-2.854501542368531
1746481662394094600,3.820094482421875,-6.13385580599308,-0.5016958685703575,-1.447661544919759
1746481662404091000,3.8300908203125,-5.312276387768984,-0.19397242004871368,0.861239228439331
1746481662414087700,3.840087646484375,-4.043807773047686,0.25865137457773085,1.0107212032459676
1746481662424083700,3.850083740234375,-2.6222680729866026,0.06397431339100003,-0.12320187064632773
1746481662434080000,3.860080078125,-2.378820551151037,-0.2790444665260613,-0.790030579880625
1746481662444076800,3.870076904296875,-1.2086714408844708,-0.061419806602597236,-0.38313933951184154
1746481662454072800,3.88007275390625,0.05538929426670074,0.15961217754632234,-0.015489245554804802
1746481662464068900,3.89006884765625,0.796392954519391,0.06214505213722586,-0.10503332287967204
1746481662474065700,3.900065673828125,1.1676081936120986,0.019804770666360855,-0.10288535106554626
1746481662484061700,3.910061767578125,1.0870657533884047,0.10393997468501329,0.14654650587663054
1746481662494058000,3.92005810546875,0.81513798699975,0.22625571014657617,0.4393944568276405
1746481662504053800,3.9300537109375,0.6169336284697056,0.4033731492452323,0.640511049542576
1746481662514050800,3.94005078125,0.4729740703463554,0.5519394705116748,0.6039202715091407
1746481662524046800,3.950046875,0.3110059773236513,0.5730350116409361,0.3579354862809181
1746481662534043000,3.96004296875,0.18922317969501018,0.4779987666405737,0.031085166354477403
1746481662544039700,3.970039794921875,-0.011710311537981032,0.3161879100061953,-0.2735330096282065
1746481662554036000,3.980035888671875,-0.24279051923155784,0.06832359464168548,-0.42863983857929705
1746481662564031700,3.99003173828125,-0.3215115892469883,-0.22952172620519995,-0.39919396386444567
1746481662574028800,4.00002880859375,-0.3798375214874744,-0.4565548504650593,-0.23003566707670686
1746481662584024800,4.01002490234375,-0.4545096083730459,-0.5484413992628455,0.01443725228384137
1746481662594020900,4.020020751953125,-0.5596995831191539,-0.5533905461028218,0.3140319010160863
1746481662604017000,4.030016845703125,-0.6489876398563384,-0.4032881013102829,0.5676368058592081
1746481662614014000,4.040013916015625,-0.6799906808853149,-0.12459960861504077,0.586844779676199
1746481662624009700,4.050009765625,-0.6574181990712881,0.0814332515835762,0.39769729556590316
1746481662634005800,4.060005859375,-0.7296189274072646,0.004852846858650446,0.1512462080001831
1746481662644002800,4.0700029296875,-1.0376280610024928,-0.25099852173700926,-0.18480711681842804
1746481662653998800,4.079998779296875,-1.4419178867012261,-0.5729181072629987,-0.48323593664169306
1746481662663995000,4.089994873046875,-1.8103759360402822,-0.556265078625828,-0.6836687848761678
1746481662673992000,4.099991943359375,-1.9342121590673922,-0.334793826276809,-0.7457815421789884
1746481662683988000,4.109988037109375,-2.0918436841905117,-0.17547025641351938,-0.6488286499023437
1746481662693983700,4.119983642578125,-2.125433819103241,-0.18830431128442288,-0.23271628446280954
1746481662703979800,4.129979736328125,-1.6383973211348055,-0.09417027582079171,-0.0006932429611682891
1746481662713976800,4.139976806640625,-0.6423375343173742,0.14696780002862214,0.16636252858936787
1746481662723972900,4.149972900390625,0.9496849891334772,0.6117167706042528,0.48870998413860794
1746481662733968600,4.15996875,2.004201056572795,1.010904012466967,0.7596589686229824
1746481662743966000,4.169966064453125,2.166509925857186,0.9591475217446684,0.8831775040030478
1746481662753961700,4.179961669921875,0.6330868908911943,0.36683074039816854,0.6472682687178254
1746481662763957800,4.189957763671875,-0.5066016146600246,-0.4102689001083374,0.4606131859451532
1746481662773954800,4.199954833984375,-0.6106476800680161,-0.7183534370273351,0.1702519372433424
1746481662783950800,4.209950927734375,-1.3582804030716418,-0.7068006541386246,-0.10627221702486277
1746481662793946600,4.219946533203125,-1.7116215472996235,-0.5734931306719779,0.09055179306268692
1746481662803943200,4.229943115234375,-1.31992056953907,-0.09633476037830113,0.7269985157757997
1746481662813940000,4.23993994140625,-0.9960410821169614,0.40675738485604523,1.0329963095486163
1746481662823936300,4.249936279296875,-1.2308745048642158,0.43416298591494557,0.629390958982706
1746481662833932300,4.259932373046875,-1.2257014861404896,0.47145928186923264,0.09229308377206324
1746481662843929000,4.26992919921875,-1.2176730779856442,0.44276130291223526,-0.3192179253518581
1746481662853925000,4.279925048828125,-1.2489268789052963,0.34760903031677004,-0.43474809232652184
1746481662863921200,4.289921142578125,-1.0431745892137287,0.4133116288051009,-0.11966507482230662
1746481662873918000,4.29991796875,-0.573817540320754,0.6561325431749224,0.5562058957844972
1746481662883914000,4.3099140625,-0.06532149021625519,0.9425836326956748,1.4369710779488085
1746481662893910300,4.31991015625,0.37493396735489365,1.1950637712925671,2.4968986490428446
1746481662903906000,4.329906005859375,0.7467629544317722,1.3869044400095938,3.673526599934697
1746481662913903000,4.339903076171875,1.1624980109915137,1.5019190586775542,4.907839847075939
1746481662923899100,4.349899169921875,1.6632167050927877,1.8158073134392498,6.457459399083256
1746481662933895200,4.359895263671875,1.86097741150856,2.1847060922831294,7.671106874814629
1746481662943892000,4.36989208984375,1.9262258364886045,2.4903365140482783,8.246892500337959
1746481662953888300,4.37988818359375,1.7911814062267541,2.4136457808166742,8.639310686457156
1746481662963884000,4.389884033203125,1.3439876738250254,1.6200959407687185,8.382122808560728
1746481662973881000,4.399881103515625,0.8424271220721304,0.5048100550681353,7.836765054526925
1746481662983877000,4.409877197265625,0.09055069708414375,-1.0446307793714105,6.518424447655677
1746481662993873200,4.419873046875,-1.4008651608228682,-2.9816742163419723,3.648651101875305
1746481663003869200,4.429869140625,-2.672341140666604,-4.582545816680788,0.10305588532686233
1746481663013866200,4.4398662109375,-2.7365485321611165,-5.574833099222183,-4.185320522540808
1746481663023862000,4.449862060546875,-1.4500661218434572,-5.4179380716800685,-8.415722295823693
1746481663033858000,4.459858154296875,0.7787526684105396,-3.9795132877916095,-11.091480551457405
1746481663043855000,4.469855224609375,2.524025725421309,-1.7284757975973188,-11.83381633709669
1746481663053851100,4.47985107421875,2.8966368027865883,0.794362398539856,-10.810551147967576
1746481663063847200,4.48984716796875,1.8153800279378889,2.904293747280538,-8.481326694634557
1746481663073844200,4.49984423828125,0.3730453771293163,4.032489967958629,-5.652525410711765
1746481663083840300,4.50984033203125,-0.4806429975390434,4.0623865090504285,-3.0335581328362227
1746481663093836000,4.5198359375,-0.8023568313598632,3.2588585880845784,-0.8814140014618634
1746481663103832000,4.52983203125,-0.8132488122522831,2.2097014173299074,0.7560217811644077
1746481663113829000,4.5398291015625,-0.3394844683110714,1.4701282282717525,1.8942980818301438
1746481663123825200,4.5498251953125,0.41391978729870166,0.9860200388401746,2.676201323226094
1746481663133821000,4.559821044921875,0.7813958763957023,0.6498623037990182,3.1526264108091593
1746481663143818200,4.569818359375,0.49844165254738176,0.43021549039818346,3.2788866461127992
1746481663153814000,4.57981396484375,-0.05270513321664184,0.16860723877623676,2.8743706104427575
1746481663163810000,4.58981005859375,-0.2812695952296257,-0.25901180538795887,1.9467220965504646
1746481663173806000,4.59980615234375,-0.06991462669279426,-0.70946000954099,0.8581593826025724
1746481663183803100,4.60980322265625,0.13060911469552666,-0.9564393587645142,-0.08409574879109859
1746481663193799000,4.619798828125,0.19173605756508186,-1.0615295994631946,-0.7872370036393403
1746481663203795200,4.629795166015625,0.134554600918293,-1.107343402263522,-1.202512918254733
1746481663213792000,4.6397919921875,0.10920270838565192,-1.0828916095089167,-1.283475045195222
1746481663223788000,4.6497880859375,0.13469722425937652,-0.9714603292204439,-1.1174456940829753
1746481663233784300,4.659784423828125,0.18747838185429572,-0.8240716734312474,-0.7947825967133044
1746481663243781000,4.669781005859375,0.23214637562036514,-0.5802307683639228,-0.3515864095151424
1746481663253777200,4.679777099609375,0.3390934231668711,-0.22871618197597562,0.08558920221924782
1746481663263773200,4.689773193359375,0.4558253306141123,0.18679471043907106,0.3992880718886852
1746481663273770000,4.69977001953125,0.5141863707005977,0.5473905019704253,0.5145014279991388
1746481663283766000,4.70976611328125,0.5282786454716697,0.7444305659614503,0.4071393699109554
1746481663293762300,4.71976220703125,0.5946458088159561,0.7622819375377148,0.1537602366477251
1746481663303758000,4.729758056640625,0.7268161449462175,0.6540175237823277,-0.10194120208323001
1746481663313755100,4.739755126953125,0.8286497950017452,0.45550651045590634,-0.300873874887824
1746481663323751200,4.749751220703125,0.9354695629067719,0.25456227863319214,-0.3573340132564306
1746481663333747200,4.759747314453125,1.0294470926344395,0.11634864375069737,-0.012975801429152488
1746481663343744000,4.769743896484375,0.22531389925181863,-0.4988818340629339,1.5727724640578031
1746481663353740300,4.779740234375,-1.3870089232973755,-0.7495311039708554,2.01870070656836
1746481663363736000,4.789736083984375,-0.7291020639263093,-0.5149716027941554,1.0748562601566314
1746481663373733000,4.799733154296875,0.8536895437121391,-0.31488333021365106,0.4106833261281252
1746481663383729200,4.809729248046875,0.9843111890956759,-0.25732122195251284,-0.263094471591711
1746481663393725200,4.81972509765625,0.9749746209517121,-0.2347184180654585,-0.98642043633461
1746481663403721200,4.82972119140625,1.1097834888920188,0.03939472953826189,-1.8267296894699334
1746481663413718300,4.83971826171875,0.7945084559470414,0.37279797823950644,-2.895810288834572
1746481663423714000,4.849714111328125,0.2626251005142927,0.7245932081997394,-3.609788579517603
1746481663433710000,4.8597099609375,-0.2713055428370833,0.6184934251323342,-3.6965024018526074
1746481663443707100,4.86970703125,-1.2802560831487177,0.08589264214523136,-3.4264562114268537
1746481663453703200,4.879703125,-2.801605818483233,-0.7077528402969241,-3.4037498741000887
1746481663463699200,4.88969921875,-4.136114300823212,-1.2740047676689923,-4.159817247971892
1746481663473696300,4.8996962890625,-3.847804139432311,-0.6988677422475069,-4.665094336029887
1746481663483692300,4.9096923828125,-3.468254787236452,0.10152115004025399,-4.386423525121808
1746481663493688000,4.91968798828125,-2.7659546593874693,0.7890937374219298,-3.5895033318579195
1746481663503684000,4.92968408203125,-1.7781822239220142,1.2374936307430267,-2.968472204941511
1746481663513681200,4.93968115234375,-0.7000041258662939,1.467315947329998,-2.86188873001039
1746481663523677200,4.94967724609375,0.030737083569169044,1.205912059173733,-2.8277269326895476
1746481663533673000,4.9596728515625,0.3846533973366022,0.6252603619839996,-2.5150758185073734
1746481663543670300,4.969670166015625,0.708588414338231,0.0962793312634807,-1.972081578734517
1746481663553666000,4.979666015625,1.1680576909452676,-0.43816553608719255,-1.2792287859275937
1746481663563662000,4.989662109375,1.8725082748264072,-0.8827155125144869,-0.8698449980907141
1746481663573659100,4.9996591796875,2.642252876394987,-1.0422826818753033,-0.6008826573789119
1746481663583655200,5.0096552734375,3.415877534267306,-1.0908341660112142,-0.390274013697356
1746481663593651000,5.01965087890625,4.132269900354743,-1.1854406412921845,-0.302575856500119
1746481663603647000,5.02964697265625,4.795462006652355,-1.466677941687405,-0.2533439888846129
1746481663613644000,5.03964404296875,5.468444854602217,-1.6789562721468507,-0.1806571575321257
1746481663623640000,5.04964013671875,6.137070676386356,-1.6293800480730831,-0.14822430289573968
1746481663633636000,5.059635986328125,6.786278096473216,-1.3485207872100173,-0.04450469296313822
1746481663643633200,5.069633056640625,7.35258102338016,-1.0078487165495753,0.3695119057735428
1746481663653629200,5.079629150390625,7.598036377906799,-0.6325780645862221,0.9093362468060106
1746481663663625000,5.089625,7.789283756905793,-0.05617366784373298,1.4291507595866917
1746481663673622000,5.0996220703125,8.088435045784712,0.2070506772053428,1.4045388808995485
1746481663683618000,5.1096181640625,8.382711422103643,0.0000219424037495628,0.8678894070435315
1746481663693614000,5.119614013671875,8.559340493163466,-0.1612042873096652,0.4204530249923467
1746481663703610000,5.129610107421875,8.405295594355463,-0.4361902904914692,0.14931236299392767
1746481663713607200,5.139607177734375,7.984061063596606,-0.5483384503450245,0.38468686121478674
1746481663723603000,5.14960302734375,7.563066771334409,-0.6847657863326371,0.8169378029633313
1746481663733599200,5.15959912109375,6.91324151161015,-0.5911909921869635,0.5876292445847764
1746481663743596000,5.169595947265625,4.829328035897016,-0.49013760578893123,0.8543580175582319
1746481663753592000,5.179592041015625,1.5743629481196402,0.0931061902532354,1.3071229011557997
1746481663763588000,5.189588134765625,-3.7747336425244806,1.3095485208675264,2.4177798118814824
1746481663773585200,5.199585205078125,-11.97660100622177,2.6301085573539136,1.7192646093986927
1746481663783581000,5.209580810546875,-18.69489453074932,3.8577076938092705,0.2598806241117418
1746481663793577200,5.2195771484375,-19.239032972121237,4.127260255499184,-1.2106507781334221
1746481663803573200,5.2295732421875,-15.870596987986564,2.618746036340296,-2.6856404749616978
1746481663813570300,5.2395703125,-10.906509768509864,0.30450934531334783,-2.97414382083714
1746481663823566000,5.249566162109375,-6.045600014913082,-1.01520185579136,-2.176445044416189
1746481663833562000,5.25956201171875,-2.5150778643339873,-1.161239754558727,-1.1334640780784189
1746481663843559200,5.26955908203125,-0.14448095164895056,-0.8667511967938393,-0.4751763296309858
1746481663853555200,5.27955517578125,1.1924310847014188,-0.5782055461466312,-0.05878105559684336
1746481663863551200,5.28955126953125,1.7658377061337232,-0.381234747999534,0.1344541362185031
1746481663873548300,5.29954833984375,1.7448767511695622,-0.3098932303087786,0.03037285336665809
1746481663883544300,5.30954443359375,1.341851246318221,-0.2280653899170458,-0.12909808907806872
1746481663893540000,5.3195400390625,0.811331580454111,-0.09583035452011972,-0.1467892285913229
1746481663903536400,5.329536376953125,0.48477089112401006,0.16679259056970477,-0.049510246165469285
1746481663913533200,5.339533203125,0.4749339722424745,0.4765801685469225,0.0058219841517508026
1746481663923529200,5.349529296875,0.6703466542273759,0.5674829670043662,-0.015435615671426057
1746481663933525200,5.359525146484375,0.9502981525957583,0.41294053047038615,-0.016668372336775063
1746481663943522300,5.369522216796875,1.1731880395710468,0.06678337946236133,0.044049496541544796
1746481663953518000,5.37951806640625,0.9912164384394884,-0.31398418941684064,0.08832739501148462
1746481663963514400,5.389514404296875,0.48911213519871233,-0.4692228280540555,0.07969254539608955
1746481663973511200,5.39951123046875,-0.0480886158645153,-0.4029497362013906,0.053425958304479715
1746481663983507200,5.409507080078125,-0.45417584637403485,-0.2841806603707373,0.07338657711967825
1746481663993503200,5.419503173828125,-0.6435989325553179,-0.14720409300252793,0.08276552310064435
1746481664003499300,5.429499267578125,-0.5750555576831102,-0.033825185777619476,0.04748882334046065
1746481664013496000,5.43949609375,-0.26108956151008605,0.04990903622470796,0.024900632500648497
1746481664023492400,5.449492431640625,0.03972878379821777,0.12061857615485787,0.054259705714881416
1746481664033488400,5.45948828125,0.14919687425494194,0.15823380186520516,0.015307824573293327
1746481664043485200,5.469485107421875,0.12190028652846813,0.15790098971426486,-0.026776801636070012
1746481664053481200,5.479481201171875,0.055691492083668706,0.13097148173451423,-0.04846775137521326
1746481664063477200,5.489477294921875,0.00009819967746734619,0.053996451668813825,-0.049009383971244096
1746481664073473300,5.499473388671875,-0.021255553996562957,-0.03797244165018201,-0.03637223991192877
1746481664083470300,5.50947021484375,-0.11658347541987896,-0.13160583411529658,-0.032393691669777035
1746481664093466400,5.51946630859375,-0.15891922684609888,-0.16979016495048999,0.005125818581134081
1746481664103462100,5.529462158203125,-0.1438128431290388,-0.09832147721610963,0.051438364683836696
1746481664113459500,5.53945947265625,-0.06332651700675487,-0.00020129472576081752,0.05461209934912622
1746481664123455200,5.549455322265625,0.0373573784917593,0.0961481517650187,0.0932851635493338
1746481664133451300,5.559451171875,0.06139759477078914,0.1453938287101686,0.12733568251542746
1746481664143448300,5.5694482421875,0.07303191846311093,0.1649869659198448,0.12277429288402199
1746481664153444400,5.5794443359375,0.047236382949352264,0.0830818955734372,0.10200264994688331
1746481664163440000,5.589440185546875,-0.03076163348853588,-0.09020681554991751,0.05825622800514102
1746481664173436200,5.599436279296875,-0.0661661243468523,-0.15613650079239158,-0.02673230490721762
1746481664183433200,5.60943310546875,-0.07098141567409039,-0.11185071127694099,-0.04304631084837019
1746481664193429200,5.61942919921875,-0.0767448015064001,-0.06041863020341843,-0.03214190886579454
1746481664203425300,5.62942529296875,-0.08766074779629707,-0.03445665208157152,-0.08039316794611513
1746481664213422300,5.63942236328125,-0.029473931765556335,-0.013569675669074058,-0.044309243456274267
1746481664223418000,5.649418212890625,0.011145663392543793,0.003066767159476876,0.013740356060862541
1746481664233414100,5.6594140625,0.02777355758845806,0.015975092842988668,0.02624327928125858
1746481664243411200,5.6694111328125,-0.004924596920609474,-0.005419796559028327,0.013968904119729996
1746481664253407200,5.6794072265625,-0.020287001225352284,0.002755874579399824,0.03889481719210744
1746481664263403300,5.6894033203125,-0.0030716625303030013,0.03831446002088487,0.06871412832923234
1746481664273399300,5.6993994140625,0.017644962283968925,0.06978851609509439,0.11509440590590238
1746481664283396400,5.709396240234375,0.07050035415887833,0.12276161606553941,0.14022738585770128
1746481664293392100,5.71939208984375,0.03611819208562374,0.0749983596978709,0.12594006343856454
1746481664303388200,5.72938818359375,-0.05176233594119548,0.011103906610049306,0.04670914420485496
1746481664313385200,5.73938525390625,-0.059095747569203376,-0.029024617095477878,-0.06057246905826032
1746481664323381200,5.74938134765625,-0.061572951337695116,-0.01318637543991208,-0.10179653291553259
1746481664333377000,5.759376953125,0.09944061743915081,0.10824888739269226,-0.019583894457295536
1746481664343373300,5.769373291015625,0.2941045268833637,-0.21336039007510987,0.26639628961607814
1746481664353370000,5.7793701171875,-0.4656365670651197,-0.3513376589184627,-0.12021284489817917
1746481664363366100,5.7893662109375,-0.7132944000720978,0.1232590441936627,-0.4826831981297582
1746481664373362200,5.799362060546875,-0.4096282641172409,0.19389343652836977,-0.09583104863986372
