time,seconds_elapsed,z,y,x
1746483099673468700,0.86546875,0.6838514479666948,-0.28687282206416126,0.08786430754438042
1746483099683465700,0.8754658203125,0.7683511013835668,-0.17499679368287324,0.11192264400199055
1746483099693461800,0.885461669921875,0.772201931592822,-0.07727437833845614,0.12435074842050671
1746483099703458600,0.89545849609375,0.6844155115902424,0.059112990964949125,0.1269572776570916
1746483099713455600,0.90545556640625,0.5680424640506505,0.1747879732377827,0.0700634240463376
1746483099723452700,0.91545263671875,0.42869536815881726,0.15690423376187682,-0.02062558552995324
1746483099733449700,0.92544970703125,0.30700375594496726,0.07333075527921319,-0.1307733288139105
1746483099743446500,0.935446533203125,0.18352993648946284,-0.06969064521118998,-0.1934399206072092
1746483099753442800,0.94544287109375,0.11461655926108359,-0.1649363682437688,-0.22264175743311643
1746483099763439600,0.955439697265625,0.030899580654501914,-0.12932247241847217,-0.21207214036285876
1746483099773436700,0.965436767578125,-0.05340834958255291,-0.051429596855491394,-0.2069395997799933
1746483099783433700,0.975433837890625,-0.11863982342779636,0.024218568520620463,-0.22623627479374409
1746483099793430500,0.985430419921875,-0.19294892221987248,0.00022357962280511855,-0.23281024635657666
1746483099803427600,0.995427490234375,-0.3211865950763225,-0.026934987872466443,-0.22064152352660893
1746483099813423600,1.005423583984375,-0.5480196667194366,-0.016263079471513626,-0.21604425886422393
1746483099823420700,1.015420654296875,-0.81745094011724,0.02785276030451059,-0.12186521521508693
1746483099833417700,1.025417724609375,-1.1907564294874668,0.08848565431311727,0.10142214664518832
1746483099843414500,1.03541455078125,-1.4431243398815392,0.13236008654870093,0.2909869793847203
1746483099853411600,1.04541162109375,-1.3333546361297368,0.17594466899223624,0.32485593123883005
1746483099863407600,1.05540771484375,-0.9437158515959978,0.20206644078567623,0.23191548947393892
1746483099873404700,1.06540478515625,-0.39636312435269355,0.052362274595722555,0.08804872420057654
1746483099883401700,1.075401611328125,0.07225801148116588,-0.2325045414082706,-0.09169204913899302
1746483099893398800,1.085398681640625,0.2466524553567171,-0.5683887202050536,-0.15138152481764555
1746483099903395600,1.0953955078125,0.15308569838702676,-0.7423110895894467,-0.08847747100666165
1746483099913392600,1.105392578125,0.06852934634685516,-0.672856883482635,0.00994257121309638
1746483099923388700,1.115388671875,0.10094985295832157,-0.5063441327676177,0.024182401228696106
1746483099933385700,1.1253857421875,0.23764497303664683,-0.3230355839438736,0.03404723103046417
1746483099943382800,1.1353828125,0.4053267675310373,-0.16416721050217747,0.014006898042559623
1746483099953379600,1.145379638671875,0.49131928985416884,-0.030296207933872936,0.021548545593768356
1746483099963376600,1.155376708984375,0.4925280811220407,0.002743015097826719,0.07864420538693666
1746483099973372700,1.16537255859375,0.3576432253360748,-0.016206161652505397,0.11809943294078111
1746483099983369500,1.175369384765625,0.15054127460122108,-0.0481790706269443,0.12749576844796537
1746483099993366800,1.18536669921875,-0.03379997827112675,-0.13809724196121095,0.14632321851477026
1746483100003363600,1.195363525390625,-0.15811609376966954,-0.06573591623604297,0.1863907327480614
1746483100013360600,1.205360595703125,-0.20617314545214174,0.04217442338466644,0.21187311065942047
1746483100023357700,1.215357666015625,-0.1204892506867647,0.08666749897524714,0.22020137854367494
1746483100033353500,1.225353515625,0.020165420672297478,0.09726765731424093,0.23175416143238542
1746483100043350800,1.235350830078125,0.1466489433377981,0.05656564456969499,0.23753113739863035
1746483100053347600,1.24534765625,0.25911446204483507,0.02972396100386977,0.16273805448189377
1746483100063344600,1.2553447265625,0.31041970186829565,0.010500058965384959,0.14767141825333238
1746483100073341700,1.265341796875,0.23633564400374887,0.011062222892791032,0.10102145688980817
1746483100083337500,1.27533740234375,0.08464636841118335,0.02458206807076931,0.02215337961912155
1746483100093334800,1.285334716796875,-0.0827794054955244,0.03629530221819877,-0.06637552931383252
1746483100103331600,1.29533154296875,-0.19250585462749004,0.038073271676152945,-0.11697276699841022
1746483100113328600,1.30532861328125,-0.25268530578017234,0.060064300340414045,-0.16802783145308495
1746483100123325700,1.31532568359375,-0.24632044692337512,0.09930077057704328,-0.18744141084477303
1746483100133321700,1.32532177734375,-0.24642741442918775,0.14453750414177774,-0.17455577191710472
1746483100143318500,1.335318603515625,-0.2369967382609844,0.22429792714230715,-0.1772248449958861
1746483100153315600,1.345315673828125,-0.20496610774993895,0.24686690182499585,-0.1697369734585285
1746483100163312600,1.355312744140625,-0.17162673272788523,0.2547480835288763,-0.1575644512362778
1746483100173309400,1.365309326171875,-0.030057869133353232,0.2499346918977797,-0.14672683087959884
1746483100183305700,1.3753056640625,0.1861860039561987,0.216252567852661,-0.16128040301948784
1746483100193302500,1.385302490234375,0.4116150540202856,0.16461415055207906,-0.1773039015814662
1746483100203299800,1.3952998046875,0.5950058743000031,0.1145226704325527,-0.18512305089980363
1746483100213296600,1.405296630859375,0.6663029317945242,0.066365300180763,-0.1802940233081579
1746483100223293400,1.41529345703125,0.6343354296475648,0.060159431277960536,-0.20414777710437773
1746483100233290800,1.425290771484375,0.46859775495827194,0.09160824331305921,-0.1970787155009806
1746483100243286500,1.43528662109375,0.31245149995684623,0.1037483245704323,-0.19067513206899164
1746483100253283800,1.445283935546875,0.173301972463727,0.08220321304276586,-0.16326178609505296
1746483100263280600,1.45528076171875,0.018526421293616292,0.07455204070247709,-0.11175547074154019
1746483100273277700,1.465277587890625,-0.11725567559301853,0.08966434270367026,-0.06519289540052414
1746483100283274800,1.475274658203125,-0.16940321145951748,0.11640183524265885,-0.05642623609900474
1746483100293270500,1.4852705078125,-0.1307727442920208,0.08490165834650397,-0.06891819953396916
1746483100303267800,1.495267822265625,-0.1038455743998289,0.08580496386177837,-0.0939946269929409
1746483100313264600,1.5052646484375,-0.04984685770869255,0.07721000786535441,-0.08471768008172512
1746483100323261700,1.51526171875,-0.014737550404667853,0.026931407675892114,-0.0017674480639398096
1746483100333258800,1.5252587890625,0.029445874714851376,0.006308817820623517,0.03488748124688863
1746483100343254500,1.535254638671875,-0.03893792568147182,-0.013823358169198035,0.032150457498431206
1746483100353251600,1.54525146484375,-0.1803168196618557,-0.008420403147116303,0.023241028725355863
1746483100363248600,1.55524853515625,-0.3623667467266321,-0.007035013203322887,0.014914222145825624
1746483100373245700,1.56524560546875,-0.5048889655232429,0.04803213643692433,-0.04515475436970591
1746483100383242500,1.575242431640625,-0.5817050787001848,0.0450938910279423,-0.10511018750816584
1746483100393238500,1.585238525390625,-0.5979325754016638,0.03822736625932157,-0.15448241344243288
1746483100403235600,1.595235595703125,-0.6093512105166912,-0.016559066743403673,-0.2383084053814411
1746483100413232600,1.605232666015625,-0.540810758253932,-0.08344218025319278,-0.3770722945578396
1746483100423229700,1.615229736328125,-0.366012994274497,-0.16470694340206682,-0.3895193959377706
1746483100433226500,1.6252265625,-0.14914660537242888,-0.2055888427581638,-0.29996479721888897
1746483100443222800,1.635222900390625,0.003559738308191299,-0.16029994061477482,-0.18514803921058773
1746483100453219600,1.645219482421875,0.06649696373641491,-0.10833331427313386,-0.08458309391662477
1746483100463216600,1.655216552734375,0.1456564251691103,-0.04836714054495096,-0.023733196156471965
1746483100473213700,1.665213623046875,0.2145019978582859,0.027325667690485715,0.0068152329728007315
1746483100483210500,1.67521044921875,0.2508621820062399,0.06398074313178657,0.019349281983822582
1746483100493206800,1.685206787109375,0.2927636336684227,0.09536810730323195,0.026640169644355772
1746483100503203600,1.69520361328125,0.3369733622729778,0.12295447175651789,0.04059431458637118
1746483100513200600,1.70520068359375,0.3417378001958132,0.15013926967158914,0.055601767973601814
1746483100523197700,1.71519775390625,0.265880887439847,0.11275975241325795,0.10387217014580964
1746483100533194500,1.725194580078125,0.23343992256224155,0.03249707897901535,0.13442045314460993
1746483100543190800,1.735190673828125,0.2675561271756887,-0.04129340276643634,0.07023790383040905
1746483100553187600,1.7451875,0.3661830901443958,-0.12077142862901091,-0.06446472725644707
1746483100563184600,1.7551845703125,0.4389128107905388,-0.13988562321532516,-0.15777692494317888
1746483100573181000,1.765180908203125,0.4733545940965414,-0.112203872096166,-0.16592749817296862
1746483100583177700,1.775177734375,0.4684001865595579,-0.1830880379408598,-0.1539810397915542
1746483100593175000,1.785175048828125,0.29534780494272705,-0.1896411859113723,-0.05232698408663273
1746483100603170800,1.7951708984375,0.020627777487039565,-0.12899210795294494,0.05907938095629215
1746483100613168000,1.805168212890625,-0.216950560054183,-0.08901241813357919,0.07997253138124942
1746483100623165000,1.8151650390625,-0.3117331225544214,-0.06826645762696862,0.09322904944792389
1746483100633161700,1.82516162109375,-0.25379180571734905,-0.05096475582271814,0.05112622999474406
1746483100643158000,1.835157958984375,-0.13315467099249362,-0.06545490733757614,-0.025498452263325453
1746483100653154800,1.84515478515625,-0.04838263037502765,-0.10669405916612594,-0.03597250000461936
1746483100663151900,1.85515185546875,0.02730827816426754,-0.13341460057031362,-0.03143500270545482
1746483100673149000,1.86514892578125,0.025779168900847433,-0.12132164639029651,0.04734788049980998
1746483100683146000,1.87514599609375,-0.06634557256698607,-0.13850479984879494,0.15588424306437373
1746483100693142800,1.885142822265625,-0.21259587197601795,-0.17077055428996682,0.23673531084582208
1746483100703138800,1.895138916015625,-0.4313911831140518,-0.16454389832746236,0.23873817510083317
1746483100713135900,1.905135986328125,-0.590507393836975,-0.11374810586348175,0.1881714786849916
1746483100723133000,1.9151328125,-0.6651537617594003,-0.047207449115812775,0.05382409077659249
1746483100733130000,1.9251298828125,-0.7046937449872493,-0.013256353669892995,-0.08210428271293639
1746483100743126800,1.935126708984375,-0.7108446688324213,-0.026063538800179958,-0.18391747450232504
1746483100753122800,1.945122802734375,-0.7660393173098564,-0.0899718377502635,-0.26710882179960604
1746483100763119900,1.955119873046875,-0.7927087130486965,-0.11459991865353658,-0.3850080559931695
1746483100773117000,1.965116943359375,-0.7791659253865479,-0.06790544229485095,-0.5192594361811876
1746483100783114000,1.975114013671875,-0.7072025129377841,0.03375029391050339,-0.6302069515407085
1746483100793110800,1.98511083984375,-0.623148849722743,0.12760332047566772,-0.7262941668987274
1746483100803106800,1.99510693359375,-0.5403881489276886,0.23970205169692635,-0.8784792631842195
1746483100813103900,2.005103759765625,-0.5266168132066726,0.40760673169437794,-1.0530119464866816
1746483100823101000,2.015100830078125,-0.5196422980189324,0.5651100273279472,-1.1490766577519476
1746483100833098000,2.025097900390625,-0.5512871440827847,0.6731049399595708,-1.2585730975203215
1746483100843094800,2.0350947265625,-0.6196592540413141,0.7301281921036541,-1.3695961623340844
1746483100853091000,2.045091064453125,-0.6989391269832849,0.7967640528541058,-1.515603446767479
1746483100863087900,2.055087890625,-0.7792232085317373,0.911021788740158,-1.727067099843174
1746483100873084700,2.065084716796875,-0.8390671441197395,1.0498187034033237,-1.9838519498966634
1746483100883082000,2.07508203125,-0.8464829733341932,1.1783115200646221,-2.212317298916727
1746483100893078800,2.085078857421875,-0.7840238868117332,1.236839404617995,-2.419419980303943
1746483100903075000,2.095074951171875,-0.712747287583351,1.1710342225380241,-2.575723763954639
1746483100913071900,2.10507177734375,-0.646096010068059,1.0753697626367211,-2.678788417109847
1746483100923069000,2.11506884765625,-0.5524526807308197,1.0832120736349373,-2.7882056541621685
1746483100933066000,2.12506591796875,-0.42737551773190496,1.2733248225808143,-2.880105939224362
1746483100943062800,2.135062744140625,-0.3670125267058611,1.5535587911523878,-2.9521248812526464
1746483100953059000,2.14505908203125,-0.4475970525056123,1.916194564078748,-3.1121921090900897
1746483100963055900,2.155055908203125,-0.5684241568446159,2.235899396164715,-3.2500352301597593
1746483100973053000,2.165052978515625,-0.63305766479671,2.4746178436517714,-3.3201457082182166
1746483100983050000,2.175050048828125,-0.6596008038073777,2.6830375989869237,-3.3974542810872195
1746483100993047000,2.185047119140625,-0.71181672873497,2.8685458498120306,-3.3929540470585224
1746483101003042800,2.195042724609375,-0.6644850687175988,2.9889363162994385,-3.309805808250606
1746483101013039900,2.205039794921875,-0.6490484301328658,3.152384418746829,-3.2539696469992396
1746483101023037000,2.215036865234375,-0.6543383532345295,3.3706165430441497,-3.2682237978011366
1746483101033033700,2.22503369140625,-0.7490402517139911,3.661331427489221,-3.3978418191000817
1746483101043031000,2.235031005859375,-0.8556096981197595,3.8756174445092677,-3.5744916406869884
1746483101053026800,2.24502685546875,-0.9756710787832736,3.974506857806444,-3.872513048753142
1746483101063023900,2.25502392578125,-0.9932663567066192,4.088563445097208,-4.251602674482762
1746483101073021000,2.26502099609375,-0.9219780670404434,4.20100996684283,-4.550684989778698
1746483101083017700,2.275017822265625,-0.9012684564888477,4.323862439529598,-4.638748765417933
1746483101093015000,2.28501513671875,-0.8733078518956899,4.479038680455089,-4.510523952043056
1746483101103010800,2.2950107421875,-0.740662883991003,4.711822184935212,-4.355344203986228
1746483101113007900,2.3050078125,-0.49244858614504333,4.946156425988674,-4.214150311183929
1746483101123005000,2.3150048828125,-0.09022270723879337,5.119032281994819,-4.1495746708989145
1746483101133001700,2.325001708984375,0.3555307632267475,5.320324669668078,-4.133709285508096
1746483101142999000,2.3349990234375,0.7991355312258005,5.533749393683672,-4.0765354459121825
1746483101152994800,2.344994873046875,1.0589590183228255,5.733874491143227,-3.934862829682231
1746483101162992000,2.3549921875,1.1699059491604566,5.933093579673767,-3.614881518742442
1746483101172989000,2.364989013671875,1.452511761429906,6.2847863721728325,-3.41007878486067
1746483101182985700,2.37498583984375,2.3804794242739677,6.648176616728305,-3.991890538805723
1746483101192983000,2.384983154296875,4.187669131493569,6.77012015787661,-4.962418409481645
1746483101202979800,2.394979736328125,6.958125193953514,5.920093812847137,-4.559309902521967
1746483101212975900,2.404975830078125,9.256447144022584,4.37246981857121,-3.3259204922273753
1746483101222973000,2.414972900390625,9.519871870481968,2.8355089648678895,-2.049150351498276
1746483101232970000,2.424969970703125,9.262947027435898,2.7329262500107285,-1.992599612236768
1746483101242966800,2.434966796875,9.255441181850433,2.887303741773963,-2.1507821953713893
1746483101252963800,2.4449638671875,9.206296919453143,2.9434798025041817,-2.2312340347021817
1746483101262959900,2.4549599609375,9.162354317352175,3.009005875381827,-2.325304941801727
1746483101272957000,2.46495703125,9.099299018502235,3.0773472979411483,-2.4085936119936404
1746483101282954000,2.4749541015625,9.073426910620928,3.1333339735791084,-2.4814134951412674
1746483101292950800,2.48495068359375,9.013727936461567,3.1921266465485094,-2.569562610976398
1746483101302948000,2.494947998046875,8.965635228943825,3.2438094875127077,-2.6412080435171723
1746483101312943900,2.50494384765625,8.913547898831963,3.2977544281899926,-2.7005279552310704
1746483101322941000,2.51494091796875,8.874376748916506,3.3341672193080183,-2.763564257119596
1746483101332938000,2.52493798828125,8.817219275933503,3.372327730876207,-2.8358558786094186
1746483101342934800,2.534934814453125,8.7773139665246,3.419281497491896,-2.8850623925879595
1746483101352932000,2.54493212890625,8.751995985394716,3.449417400297522,-2.924066369242966
1746483101362927900,2.554927978515625,8.707140944623946,3.464121632954478,-2.959331743891537
1746483101372925000,2.564925048828125,8.674934373024106,3.5066368326008317,-2.9935610534906387
1746483101382922000,2.574921875,8.631693197190762,3.5183918600633737,-3.0239567762762305
1746483101392918800,2.584918701171875,8.601450034618377,3.5248791762560603,-3.0459453207224607
1746483101402915800,2.594915771484375,8.578553143155574,3.535769695843756,-3.0677102855458855
1746483101412913000,2.604912841796875,8.537227445554732,3.530583233116567,-3.07368760638982
1746483101422908700,2.61490869140625,8.52774065528512,3.539514435330033,-3.0712197549715636
1746483101432906000,2.624906005859375,8.515876029968261,3.5288813976347444,-3.0582211571887132
1746483101442902800,2.63490283203125,8.504206050440668,3.505402030108869,-3.0337574548006057
1746483101452899800,2.64489990234375,8.490672030606865,3.494602988196909,-3.0114649589717386
1746483101462897000,2.65489697265625,8.472377079981564,3.4810581547081467,-2.977254354073107
1746483101472893000,2.664892822265625,8.490150637081266,3.4553438677370547,-2.9494240978613493
1746483101482890000,2.674889892578125,8.481677992290258,3.4301126881077884,-2.909586885252595
1746483101492886800,2.68488671875,8.459614044520258,3.390775241714716,-2.8596111404672264
1746483101502883800,2.6948837890625,8.445558046638965,3.3545947980478403,-2.797186248475313
1746483101512881000,2.704880859375,8.466220895439386,3.310424524670839,-2.717849092388153
1746483101522877000,2.714876953125,8.478657767686247,3.266388106806576,-2.6231226439893245
1746483101532874000,2.7248740234375,8.464200787788629,3.215980984866619,-2.5256238082677123
1746483101542871000,2.73487109375,8.428229310697317,3.176735016149282,-2.44036018474102
1746483101552867800,2.744867919921875,8.362289396321772,3.052964844095707,-2.2717428629621863
1746483101562865000,2.754864990234375,0.503989970856905,4.591690661644935,1.8769025642625987
1746483101572862700,2.76486279296875,-59.04657758784294,10.220234308266638,33.40063057800531
1746483101582858500,2.7748583984375,-105.90376014456749,20.53856541814804,49.48831665773391
1746483101592855600,2.78485546875,-111.2774428949356,26.267162845671177,44.5189593888998
1746483101602852600,2.7948525390625,-79.56345490579605,19.503123469012973,27.971123649084568
1746483101612849400,2.804849365234375,-51.244276528453824,10.11301428899765,14.250849422264098
1746483101622846700,2.8148466796875,-28.894305831217764,4.313369979348779,7.404552033635974
1746483101632842500,2.824842529296875,-11.47163254572153,1.1241884463414549,3.222506879504025
1746483101642839600,2.834839599609375,0.02870236287117004,-0.5905556168928742,1.226140754340589
1746483101652836600,2.844836669921875,7.7230030662685625,-0.9842598972998559,-0.08054740865975618
1746483101662833400,2.85483349609375,11.72928511852026,-0.3306611103862524,-1.5642089261129497
1746483101672830500,2.86483056640625,11.827554938614368,0.7911554922573268,-2.4200106396734715
1746483101682827500,2.87482763671875,10.406457137101889,1.9438208221510052,-2.1939656496681272
1746483101692823300,2.8848232421875,9.48972924567461,2.7046511726409195,-1.5661758422717451
1746483101702820600,2.894820556640625,9.21930253149867,3.0168755858436227,-1.5701995448298751
1746483101712817400,2.9048173828125,9.262394069728254,3.1174852470621466,-1.4690733123913406
1746483101722814500,2.914814453125,9.415079955142735,3.082809947261214,-1.3264363811738789
1746483101732811500,2.9248115234375,9.666078330749272,2.7439482870236036,-1.1911376838900147
1746483101742808600,2.93480859375,9.978101960682869,2.049190829639137,-1.1082942732475698
1746483101752804600,2.9448046875,10.231462973767519,1.0573033600702881,-1.1079614610966295
1746483101762801400,2.954801513671875,10.312976889371871,-0.15238836377263068,-1.2310799643084407
1746483101772798500,2.964798583984375,10.0448473462224,-1.566465472868085,-1.6227107994422316
1746483101782795500,2.97479541015625,8.881178830146789,-3.0749265005350113,-2.6153549325972794
1746483101792792600,2.98479248046875,6.740226539394259,-4.364128983466327,-4.173355359458923
1746483101802788600,2.99478857421875,2.901459108376503,-5.035400643584132,-5.59802108258605
1746483101812785700,3.00478564453125,-2.8078128564298153,-4.696455688977241,-6.356985931465029
1746483101822782500,3.014782470703125,-8.266306810382009,-3.2297470598906277,-5.903039802193641
1746483101832779500,3.024779541015625,-11.90024608081579,-1.0440896582320331,-4.340687609863281
1746483101842776600,3.034776611328125,-12.826644302386045,1.3378854114271699,-2.237619059564173
1746483101852773400,3.0447734375,-11.101569399273394,3.3255621803089976,0.18353928883969783
1746483101862769700,3.054769775390625,-7.476980140987038,4.213526918588578,2.187575802500546
1746483101872766500,3.064766357421875,-3.6466122895240782,3.8146073877513405,2.885764695638418
1746483101882763500,3.074763427734375,-0.7622744118183851,2.7269787397831675,2.6568384511083365
1746483101892760600,3.084760498046875,1.1536755298495291,1.5757269299492238,2.271981201762706
1746483101902757400,3.09475732421875,2.3355331980884073,0.6472374351881444,1.8355114002101123
1746483101912754400,3.10475439453125,2.9616338833540676,-0.10829831602498888,1.286928692780435
1746483101922750500,3.11475048828125,3.105442050307989,-0.7102449493736028,0.5947282264024019
1746483101932747500,3.12474755859375,2.855428594085574,-1.1284010956004262,-0.066962097030133
1746483101942744600,3.13474462890625,2.2335516639947888,-1.2380705538481473,-0.5691751213423908
1746483101952741600,3.14474169921875,1.343359897315502,-0.9819305775694549,-0.7738409309715032
1746483101962738400,3.154738525390625,0.37092823884487147,-0.5462549951344728,-0.745103496786952
1746483101972735500,3.164735595703125,-0.48376375990808007,-0.153789316611737,-0.6579328705951571
1746483101982731500,3.1747314453125,-1.038250576815009,0.11080810688883065,-0.5326715832009912
1746483101992728600,3.184728515625,-1.1536001265257596,0.29309710340648887,-0.23911826045960186
1746483102002725600,3.1947255859375,-0.8592395790547132,0.4641951360851526,0.18914733797982333
1746483102012722400,3.204722412109375,-0.3259375889956951,0.45530952657908197,0.43741263536065816
1746483102022719700,3.2147197265625,0.0823965436577797,0.2629259831570089,0.3796877377532422
1746483102032715500,3.224715576171875,0.29049978038966656,0.08870441163033246,0.18151362823098896
1746483102042712600,3.234712646484375,0.2550818455278873,-0.0075534841194748875,-0.024126287127286195
1746483102052709600,3.244709716796875,0.048094461083412164,-0.08539689451754093,-0.14484408587291836
1746483102062706400,3.25470654296875,-0.07191431261003017,-0.0943868411809206,-0.16979337982088327
1746483102072703500,3.264703369140625,-0.08710019130408764,-0.04246873015612364,-0.1203885667912662
1746483102082700500,3.274700439453125,-0.04310205962359905,0.03569353693276644,-0.013534750486165285
1746483102092697600,3.284697509765625,-0.005084755918383598,0.10834186290577054,0.05873553595468402
1746483102102693600,3.294693603515625,-0.005936404311656951,0.1425586052842438,0.07535568523555994
1746483102112690400,3.3046904296875,-0.03131868284940719,0.11210340739637613,0.04347863785102963
1746483102122687500,3.3146875,-0.050880292409658426,0.052133361210674044,-0.016783230888098476
1746483102132684500,3.3246845703125,-0.022876433196663853,0.01805310469344258,-0.061090720778703686
1746483102142681600,3.334681640625,-0.010056699112057685,0.009039338763058185,-0.0667399787120521
1746483102152678400,3.344678466796875,-0.01758241844177246,0.012302139951288699,-0.02775850614979863
1746483102162674400,3.35467431640625,-0.0033919805258512494,0.06072875559851527,-0.011005670399963856
1746483102172671500,3.36467138671875,-0.025708441752195357,0.08183116485998033,0.012693477356433868
1746483102182668500,3.37466845703125,-0.03183540019989013,0.06639861792847514,0.014487959557771681
1746483102192665600,3.38466552734375,-0.032006080591678615,0.0216980370670557,-0.017006664380431174
1746483102202662400,3.394662353515625,-0.014475100076198576,-0.014174801955372095,-0.002472527593374252
1746483102212659700,3.40465966796875,0.02096212400794029,0.05621566208824515,-0.003746493051946163
1746483102222655500,3.414655517578125,-0.06104863520264625,0.09879092135876416,0.0007720072858035564
1746483102232652500,3.424652587890625,-0.10126432573497295,0.06308963951095939,-0.025806933690607547
1746483102242649600,3.434649658203125,-0.0010194061756134032,0.04852510758563876,-0.0661715311743319
1746483102252646400,3.444646484375,0.0711637865036726,0.0266498142555356,-0.03727583768814802
1746483102262643500,3.4546435546875,0.004965513452887535,0.007060439905524254,0.021266221521049736
1746483102272640500,3.464640625,-0.07126081713736057,0.08359437514021992,0.034773937869817015
1746483102282636300,3.47463623046875,-0.07835983548760414,0.1003391737140715,-0.014373685528337954
1746483102292633600,3.484633544921875,-0.0064233110457658765,0.02615954652056098,-0.023220716589689255
1746483102302630400,3.49463037109375,0.03135200059711933,-0.004640227021276951,-0.00264101602807641
1746483102312627500,3.50462744140625,-0.025155484044551847,0.061617813392728565,-0.040996027255058284
1746483102322624500,3.51462451171875,-0.07221826399266719,0.08693024156466125,-0.036725948720425367
1746483102332621600,3.52462158203125,-0.03650631462037563,0.04054755283519625,-0.0036021161451935766
1746483102342617600,3.53461767578125,0.023845570489764212,0.039137539906799794,0.021863456761837003
1746483102352614400,3.544614501953125,-0.006892682123184204,0.04551598889753222,-0.007861234894394874
1746483102362611500,3.554611572265625,-0.04566343454420566,0.06509279602691531,-0.03295169087871909
1746483102372608500,3.5646083984375,-0.021744214296340943,0.06320975875928998,-0.014735212317109107
1746483102382605600,3.57460546875,-0.015869769304990768,0.040158991909027095,-0.008563099553436041
1746483102392602400,3.584602294921875,-0.021076105776429176,0.036964725912362335,0.001258621758967638
1746483102402599700,3.594599609375,-0.023891163197159764,0.059484600756317375,-0.010650427221506834
1746483102412595500,3.604595458984375,-0.02355155597925186,0.04128624237328767,-0.005608049140125513
1746483102422592500,3.614592529296875,-0.015130349114537239,0.04518135011568665,-0.008989362141489982
1746483102432589600,3.624589599609375,-0.026340309914946555,0.0561599863782525,-0.015451690023392438
1746483102442586400,3.63458642578125,-0.033923312389850614,0.05237710683867335,-0.02797317181378603
1746483102452583400,3.64458349609375,-0.014269932892918585,0.05810702879279851,-0.011810995433479547
1746483102462580500,3.65458056640625,-0.017473112848401067,0.06317381066307425,-0.007803951749205589
1746483102472576500,3.664576416015625,-0.02759410936832428,0.045588031220436094,-0.01568915204107761
1746483102482573600,3.674573486328125,-0.021267828956246376,0.041204555439203976,-0.015684621996432543
1746483102492570600,3.684570556640625,-0.011914894199371338,0.036518881841003895,-0.01655278313308954
1746483102502567400,3.6945673828125,-0.023047113588452336,0.041810558508336544,-0.009615823476761579
1746483102512564500,3.704564453125,-0.018854922595620154,0.047089521824568506,-0.021992343838512896
1746483102522561500,3.7145615234375,-0.015514964517951011,0.03663096391335129,0.0006743921302258968
1746483102532557600,3.7245576171875,-0.009865560454130172,0.030130203717201945,-0.003167231859266758
1746483102542554600,3.7345546875,-0.004671498942375183,0.026245325107872485,-0.0032180852636694906
1746483102552551400,3.744551513671875,-0.02196165643930435,0.021456337265670297,-0.023840309792757034
1746483102562548700,3.754548828125,-0.008031915286183357,0.053757455281168216,-0.006441138963401317
1746483102572545000,3.764544921875,0.005513210463523864,0.07487900763452053,0.0102532445974648
1746483102582541800,3.774541748046875,-0.016750059270858764,0.03229308083951473,-0.03966813965216279
1746483102592539100,3.7845390625,-0.060736500513553615,0.016915332835167645,-0.021324381449073553
1746483102602535000,3.794534912109375,-0.06314531522095203,0.023813860177248715,0.007386018598079681
1746483102612532200,3.8045322265625,-0.002800444373488426,0.05658873318433761,0.02568725283369422
1746483102622529000,3.814529052734375,0.06120587159097194,0.030597821228951213,-0.02164484557509422
1746483102632525800,3.82452587890625,-0.0035281741261482236,0.009930880775302648,-0.023006050925701856
1746483102642523100,3.834523193359375,-0.08308803305327891,0.06290843772515654,-0.015077596013993024
1746483102652520000,3.84452001953125,-0.058630468145012854,0.0679665978975594,-0.019567016387730837
1746483102662517000,3.85451708984375,0.008605331259965897,0.026026860051602124,0.011121844125539064
1746483102672513000,3.864512939453125,0.03280044583976269,-0.00034486791491508483,0.02657265736609697
1746483102682510000,3.874510009765625,-0.023143559700250626,0.05673427913486957,-0.008422522038966417
1746483102692507100,3.884507080078125,-0.0519230794608593,0.056588294792920345,-0.03157572635039687
1746483102702504000,3.89450390625,-0.025896657800674436,0.02351867662295699,-0.007086451129615306
1746483102712501000,3.9045009765625,0.007948328655958176,0.020794512356072662,0.009346066624671221
1746483102722498000,3.914498046875,-0.02389700841605663,0.04165419890284538,-0.003188566908240318
1746483102732494000,3.924494140625,-0.02450140404999256,0.03764394034817815,-0.03178220870792865
1746483102742491000,3.934490966796875,-0.009551672199368475,0.018804215321689844,-0.010723492457717657
1746483102752488200,3.94448828125,-0.01131225213110447,0.036151655963808295,-0.004122779018431902
1746483102762485000,3.954485107421875,-0.02806289592385292,0.04561564987972379,-0.004945055186748504
1746483102772481800,3.964481689453125,-0.022524551019072532,0.04482113850116729,-0.015304682768136261
1746483102782479000,3.97447900390625,0.007860650372505187,0.028787703067064283,-0.019165011458098888
1746483102792476000,3.984475830078125,-0.04120820870101451,0.03208192230686545,0.002265752974897623
1746483102802472200,3.99447216796875,-0.1412982299596071,0.021318536230176686,-0.06416559817939996
1746483102812469000,4.004468994140625,-0.09627075523138046,0.04901055301502347,-0.32410978904664517
1746483102822466000,4.014466064453125,-0.16171791765391827,0.13668094542250037,-0.6366397610671818
1746483102832463000,4.024463134765625,-0.1686737281411886,0.2503897421889007,-1.0117938009135425
1746483102842460000,4.0344599609375,0.0683054744631052,0.5191331794530153,-1.2418316599473356
1746483102852457000,4.04445703125,0.4670885194391012,0.9324474386066198,-1.096435347019136
1746483102862454000,4.0544541015625,0.8936059590369463,1.157244474377483,-0.5126683673530816
1746483102872450000,4.064449951171875,1.1452911478638648,0.9531877365574241,0.5709837781995535
1746483102882447000,4.074447021484375,1.1085919410198926,0.29787396241948005,1.6650294536031782
1746483102892444200,4.084444091796875,0.6338011766403913,-0.5250749905921519,2.1512227787457405
1746483102902441000,4.09444091796875,0.03771802849769592,-1.1855373796649276,1.6512467197053133
1746483102912438000,4.10443798828125,-0.7668272528171539,-0.917678031758964,0.7466406432263553
1746483102922435000,4.11443505859375,-0.18426058885157107,-0.6233079858072101,1.6715987489908932
1746483102932432000,4.124431884765625,-0.05897065988481044,-0.34528131802156564,2.8732033202290532
1746483102942428200,4.13442822265625,-0.43058337386250495,0.410027200306952,3.1214480132132767
1746483102952425000,4.144425048828125,-1.4188491458028554,0.2133706557407975,2.9002397957146164
1746483102962422000,4.154422119140625,-2.259460596755147,-0.2866540647469461,0.9846062265194951
1746483102972419000,4.164419189453125,-1.73085582460165,-1.0846320965006946,-0.9184173788841813
1746483102982416000,4.174415771484375,-1.70304894926548,-1.3255023151941596,-2.0906435146205125
1746483102992413000,4.184412841796875,-2.369866844844818,-1.4382459201902151,-2.541594699859619
1746483103002410000,4.194409912109375,-2.9545792886674405,-1.4230030506119131,-2.529662270003557
1746483103012406000,4.204406005859375,-1.9939906282037496,-1.2202918091166763,-1.8529273760437965
1746483103022403000,4.214403076171875,0.21631576928198337,-0.720786655523628,-0.7188569295700639
1746483103032400100,4.224400146484375,1.2833575562953947,-0.26632432035841047,-0.05749956441894173
1746483103042397000,4.23439697265625,1.482871828380227,-0.23646657690703868,0.6849049025423825
1746483103052394000,4.24439404296875,1.209107494214177,-0.516899429051578,0.9973882589422166
1746483103062391000,4.25439111328125,0.36635903123319147,-0.49964646175988014,0.882188785226643
1746483103072387800,4.264387939453125,-0.6708920131504535,0.2387755845017731,0.5722717721834778
1746483103082385200,4.27438525390625,-1.704288720193505,0.945836277816072,0.5714297684013844
1746483103092381000,4.284380859375,-2.4306653046786786,1.1357151449408383,1.0082499908268452
1746483103102378200,4.294378173828125,-2.4660627812743185,0.8143390917070209,1.5465280157327652
1746483103112375000,4.304375,-1.9720225420236586,0.38336427084151653,1.7150006683439016
1746483103122371800,4.314371826171875,-1.4064765709638596,0.33967268435955045,1.5142337658494711
1746483103132369200,4.324369140625,-0.7052174766004086,0.5318452884446829,0.9579007365539669
1746483103142366000,4.334365966796875,0.17259528549909592,0.45744124137815084,0.14846271476149558
1746483103152363000,4.344363037109375,0.9705693717300892,0.3845548688655719,-0.2821352721482515
1746483103162359000,4.354359130859375,1.541440337204933,0.48139666545055804,-0.30778964562565087
1746483103172356000,4.364356201171875,2.009799607232213,0.7120327826384455,-0.20589666659831998
1746483103182353000,4.374352783203125,2.4162445651382205,0.8697676950708031,-0.14802549238801002
1746483103192350000,4.384349853515625,2.741952437031269,0.8147215151533485,-0.1979299255028367
1746483103202347000,4.394346923828125,2.9010943667173383,0.5162711410854012,-0.3045329819172621
1746483103212343800,4.40434375,2.9415742611438036,0.12425368125420062,-0.446197122579813
1746483103222341000,4.414341064453125,2.914640076988935,-0.2713754662681371,-0.5669558378577232
1746483103232337000,4.4243369140625,3.025683453938365,-0.39287341907341033,-0.6882941065892577
1746483103242334200,4.434334228515625,3.423377534633875,-0.30373492687474934,-0.9583347440570592
1746483103252331000,4.4443310546875,3.8411949504256246,-0.39802671018335967,-1.3873384475126862
1746483103262327800,4.454327880859375,3.6316678183704614,-0.495945707545802,-1.491838978689909
1746483103272325000,4.4643251953125,2.989755815988779,-0.4554818874713033,-1.0829559799820183
1746483103282322000,4.474322021484375,2.284199316692352,-0.21419724275805055,-0.4717530041188001
1746483103292319000,4.484319091796875,1.3987088595718145,0.24047888128831982,0.39155134015679355
1746483103302316000,4.49431591796875,0.1789998918443918,0.8839500958107411,1.525219708635658
1746483103312312000,4.50431201171875,-1.030393433573842,1.1500171534724533,2.483932199963927
1746483103322309000,4.51430908203125,-1.8241607157647608,0.7681908693205565,3.0579210051983594
1746483103332306000,4.524305908203125,-2.0192840594142676,0.15762418206688017,3.197867528288066
1746483103342303000,4.534302978515625,-1.5566951894819736,-0.27431729187369347,2.8914208217039703
1746483103352300000,4.544300048828125,-0.8426087622493506,-0.39475978080928326,2.1273339536361395
1746483103362297000,4.554297119140625,-0.16225860040187834,-0.32040209363512695,0.9714740654848515
1746483103372294000,4.5642939453125,0.14644260711073875,-0.15278700770139694,-0.034754940908402206
1746483103382291200,4.574291259765625,-0.09804302560091017,0.17854798335842786,-0.7230762277655303
1746483103392287000,4.584286865234375,-0.7747533696413039,0.4064008995685726,-0.7702125113412738
1746483103402284000,4.594283935546875,-1.4793214424222707,0.5370261251486838,-0.5714848595894872
1746483103412281000,4.604281005859375,-1.835882133218646,0.5129967225246131,-0.5351945258073508
1746483103422278000,4.61427783203125,-1.9551473950684068,0.3078609572961926,-0.7964487763598561
1746483103432275000,4.62427490234375,-1.7364970453590154,0.08981756050400436,-1.1168399832747875
1746483103442272000,4.63427197265625,-1.2510925325065851,0.017305793457478284,-1.1777227603912352
1746483103452269000,4.64426904296875,-0.7602057888507843,0.18682663994729518,-0.978262848842144
1746483103462265000,4.65426513671875,-0.34988545081615446,0.47574558088630436,-0.9110065911710262
1746483103472262000,4.664261962890625,0.04606792369186878,0.747565576051548,-0.9294506679434329
1746483103482259000,4.674259033203125,0.6379746629327535,0.6668655341133475,-0.8971767301958053
1746483103492256000,4.684256103515625,1.0661953993171454,0.40307029384113846,-0.7686515456348657
1746483103502253000,4.694253173828125,1.1731243266850708,0.3249236992454156,-0.37188904670104383
1746483103512249900,4.704249755859375,1.024306222614646,0.5075242824628949,0.03664024319835007
1746483103522247200,4.7142470703125,1.469611949312687,0.6792682118296622,0.5035368202619255
1746483103532244000,4.724243896484375,2.1078496470957995,0.7077521827097982,1.0334164346568286
1746483103542240000,4.734239990234375,1.6260978115320204,0.41676586091220374,1.196693345255777
1746483103552237000,4.744237060546875,0.4307037853717804,-0.22153671880066395,1.157369196735695
1746483103562233900,4.75423388671875,-0.454718282687664,-0.7020540441334248,0.9679711719304323
1746483103572230700,4.764230712890625,-0.9847346752047538,-0.9129508571065962,0.5513366092476993
1746483103582227700,4.774227783203125,-1.4202648578196764,-0.9567550736501812,0.0939751185748726
1746483103592224500,4.784224609375,-1.6425041719317435,-0.7921769442595541,-0.26751049793567505
1746483103602221800,4.794221923828125,-1.5437480296254158,-0.5763583108447492,-0.2932063724672422
1746483103612218600,4.804218505859375,-1.3334423144131897,-0.3693985450595617,0.12333444751743226
1746483103622214700,4.814214599609375,-1.0743109012335539,-0.15390768229439852,0.5526913848575205
1746483103632211700,4.824211669921875,-0.7504694077342748,0.056126522500067944,0.7056396475352347
1746483103642208500,4.83420849609375,-0.39267186861932274,0.1375689803034067,0.43953634951636195
1746483103652205800,4.844205810546875,-0.10871873339414596,0.08712780996337532,0.027121450355276463
1746483103662202600,4.85420263671875,0.03721124801933765,0.009107727824151516,-0.22250351800620555
1746483103672199700,4.86419970703125,0.09369184465408324,-0.07365911045074462,-0.32615693083479996
1746483103682196700,4.87419677734375,0.010735913547873496,-0.17228154337480664,-0.29848822186030444
1746483103692193800,4.88419384765625,-0.20481822371184824,-0.19354674198254943,-0.23509857648946345
1746483103702189600,4.894189453125,-0.4362824622869491,-0.2444321489587426,-0.19800949354507028
1746483103712186600,4.9041865234375,-0.6210761351019144,-0.3787558637306094,-0.0678187869247049
1746483103722183700,4.91418359375,-0.8424854281306267,-0.41684754784628747,0.2657435247957706
1746483103732180500,4.924180419921875,-1.008804117578268,-0.34139892363026736,0.4305720487508923
1746483103742177800,4.934177734375,-1.1990601474523543,-0.4055570691555738,0.360751347419247
1746483103752174600,4.944174560546875,-1.7077070042043923,-0.9535922987703234,0.22653375990297644
1746483103762171600,4.954171630859375,-2.336118304499984,-1.857564680455625,0.07797116496358067
1746483103772168700,4.964168701171875,-2.6936457945019003,-2.4491087238639593,-0.13921347784111276
1746483103782165500,4.97416552734375,-2.610302909904718,-1.948911569418758,-0.09782006703261285
1746483103792161800,4.984161865234375,-2.3935680384278295,-0.7985816967353224,0.25859496821537614
1746483103802158600,4.99415869140625,-2.227232982367277,0.40165673724878576,0.5100822963826358
1746483103812155600,5.00415576171875,-1.8420517617642878,1.1273023405782878,0.6937168622903526
1746483103822152700,5.014152587890625,-1.2210498609423637,1.114167329999432,0.9335041080527007
1746483103832149800,5.024149658203125,-0.8094757234543561,0.7419470055174082,0.8755205595090985
1746483103842146600,5.034146484375,-0.8763941274732351,0.18668520391630009,0.7757254295438527
1746483103852143900,5.044143798828125,-0.30380642120838164,0.4007220867471769,1.0900015145793556
1746483103862140700,5.054140625,0.49374388665258884,0.681011036908999,1.2142243988364934
1746483103872136700,5.06413671875,1.1920517299950122,0.3497574770549312,1.1546984431564806
1746483103882133800,5.0741337890625,1.9466823490619658,0.20734770565684885,1.0961784496486187
1746483103892130600,5.084130615234375,2.575765265008807,0.26627218831237404,0.9185603675514459
1746483103902127600,5.094127685546875,3.1094881108283996,0.440169569385983,0.9117726071074604
1746483103912124700,5.104124755859375,3.456958317196369,0.6297051394984126,1.1110033860757946
1746483103922121700,5.114121826171875,3.6916385952085253,0.7770876578077673,1.4365642507135867
1746483103932118500,5.124118408203125,4.04855409079194,0.8127732306297868,1.5871008491396903
1746483103942115600,5.134115478515625,4.50154569581747,0.788935405055061,1.60254333294332
1746483103952111600,5.144111572265625,4.776479073762894,0.7158654196038842,1.5712705350622533
1746483103962108700,5.154108642578125,4.872877254766226,0.594356397415325,1.3652204314678906
1746483103972105700,5.164105712890625,4.431039496439695,0.5635373711837456,0.8531535371392965
1746483103982102500,5.1741025390625,3.2808301813960075,0.9075281744707375,0.13630217523798346
1746483103992099800,5.184099853515625,2.17150115827322,1.5761901635468005,0.11029928058385849
1746483104002096600,5.1940966796875,0.16038403870165346,2.21236756779924,0.43506271123364565
1746483104012093400,5.204093505859375,-2.068780203989148,2.88076294182837,0.5738454512409865
1746483104022090800,5.2140908203125,-3.8159500345319506,3.3837639016479253,0.40256870099455117
1746483104032087600,5.224087646484375,-4.613920613631606,2.6202795295178887,-0.31085940845981236
1746483104042083800,5.234083740234375,-4.668301607638597,0.6019799510963261,-1.274246905861795
1746483104052080600,5.24408056640625,-4.445603443843126,-2.040533183670044,-2.382783317302167
1746483104062077700,5.25407763671875,-3.438845737400651,-4.308564624893665,-3.699022860240936
1746483104072074800,5.26407470703125,-2.044040899530053,-5.453114599001407,-4.431110223588347
1746483104082071600,5.274071533203125,-0.724220867756009,-4.9417725118160245,-3.5393995767787096
1746483104092068600,5.284068603515625,0.12412380779683589,-3.364905471920967,-1.7109185135968028
1746483104102065700,5.294065673828125,0.7458744811594485,-1.7682601109750569,-0.16757080840058625
1746483104112062700,5.304062744140625,1.3039660445600747,-0.41536885359585285,0.7459509073965251
1746483104122058800,5.314058837890625,1.7257482723295687,0.5168922686584293,1.2003428076740355
1746483104132055800,5.324055908203125,1.8696353497385978,1.1177763873420654,1.3552335827216506
1746483104142052600,5.334052490234375,1.6547276936888693,1.3776339228391647,1.3970515938840806
1746483104152049700,5.344049560546875,1.1386790362477301,1.372941088847816,1.4047156987711786
1746483104162046700,5.354046630859375,0.5159346756726503,1.2125425832293928,1.3296838386625052
1746483104172043500,5.36404345703125,-0.16657646360099315,0.9393939698088913,1.1992086160123347
1746483104182040600,5.37404052734375,-0.7333417473226785,0.6043224225692451,1.002057054470852
1746483104192037600,5.38403759765625,-1.1160247213691472,0.2731712636437267,0.6830973416637629
1746483104202034700,5.39403466796875,-1.2881477131813763,-0.03521379059180617,0.19599077413380145
1746483104212030700,5.40403076171875,-1.1775322062551974,-0.24504180528968572,-0.3479237953543663
1746483104222027500,5.414027587890625,-0.821660082244873,-0.2889990204378962,-0.8169776235170662
1746483104232024600,5.424024658203125,-0.36741876941919327,-0.2092437850691378,-1.0398995861310512
1746483104242021600,5.434021728515625,0.07103168455660343,-0.09743906835839151,-1.0331503310665489
1746483104252018700,5.444018798828125,0.4255751903116703,-0.08231661028936504,-0.9220578542783856
1746483104262015500,5.454015380859375,0.6597352438420057,-0.0686801529943943,-0.7751365237399935
1746483104272012800,5.4640126953125,0.7458435014992952,-0.02680865807905793,-0.5663054111249745
1746483104282009600,5.474009521484375,0.6042296297192573,-0.09927154448255895,-0.18527312689498066
1746483104292006700,5.484006591796875,0.2055962223470211,-0.2643926947087049,0.3171042941987514
1746483104302002700,5.494002685546875,-0.23614158273637292,-0.38271439209803937,0.6790038618050516
1746483104311999500,5.50399951171875,-0.4862918170809746,-0.4181960398457944,0.799056328509748
1746483104321996800,5.513996826171875,-0.49159343062043187,-0.3806413852162659,0.7114797518655658
1746483104331993600,5.52399365234375,-0.3783300395339727,-0.3044219227582216,0.5665664001487195
1746483104341990700,5.53399072265625,-0.2077870103895664,-0.13956526868715882,0.4378438663847744
1746483104351987700,5.54398779296875,-0.08327741814553737,0.024872283188998697,0.3736331138893962
1746483104361984800,5.55398486328125,-0.03264262492954731,0.16469444924667476,0.2813070046305656
1746483104371981600,5.563981689453125,-0.09878887553215027,0.25815774584189055,0.12581745997220278
1746483104381978600,5.573978515625,-0.22416239112913608,0.309975172971189,-0.05118409766182303
1746483104391974700,5.583974609375,-0.3370604560345411,0.3187855252839625,-0.18594927259087562
1746483104401971500,5.593971435546875,-0.36508769612312314,0.2986768032349646,-0.26788623591288924
1746483104411968800,5.60396875,-0.28207798900306225,0.2832112308166921,-0.27582696578428145
1746483104421965600,5.613965576171875,-0.15700491765737531,0.21926365930214523,-0.1944811002232134
1746483104431962600,5.623962646484375,-0.062406479552388185,0.13521657195836304,-0.08227598601803184
1746483104441959700,5.633959716796875,-0.04904898532927036,0.020177987892925738,0.03704524380266666
1746483104451956700,5.643956787109375,-0.060686816152930256,-0.0206928055472672,0.08898498213738203
1746483104461953500,5.65395361328125,-0.06936521264910697,-0.020744974125921724,0.07856558719277382
1746483104471950600,5.66395068359375,-0.0706798023790121,0.03875321676433086,0.03440685812309384
1746483104481946600,5.673946533203125,-0.05777823522984981,0.06662015172466636,0.02327624616920948
1746483104491943700,5.683943603515625,-0.04225333383977413,0.05355111905410886,0.03608385142460465
1746483104501940700,5.693940673828125,-0.01511807415485382,0.0583614419452846,0.022390987767279148
1746483104511937500,5.7039375,-0.021439093869924545,0.06645853142216801,-0.01894143183529377
1746483104521934800,5.713934814453125,-0.016705051085352897,0.07055953700020909,-0.0790003253482282
1746483104531931600,5.723931640625,-0.026104163071513174,0.06918693347275257,-0.09335895943790673
1746483104541928400,5.733928466796875,-0.039567455756664274,0.042259032928198575,-0.06991247126832605
1746483104551925800,5.74392578125,-0.03821779471337795,0.01990998460650444,-0.027445348547399044
1746483104561922600,5.753922607421875,-0.020366496202349663,0.02270283019542694,0.005771276877820491
1746483104571918800,5.7639189453125,-0.013037760749459266,0.013835048606991767,0.022926263687759636
1746483104581916200,5.773916259765625,0.0033288521617650985,0.021982845357805487,-0.00012874094620347022
1746483104591913200,5.783913330078125,0.029497897163033485,0.0430531059153378,-0.020507219847291706
1746483104601910000,5.793909912109375,0.018541034340858457,0.06358692150861024,-0.03881532221511006
1746483104611907300,5.8039072265625,-0.01001636710166931,0.072185969158262,-0.05444193041399121
1746483104621904100,5.813904052734375,-0.04090717992782592,0.049951633257418866,-0.05522840461656451
1746483104631901200,5.823901123046875,-0.03582768470644951,0.029748657053709028,-0.024757278507202864
1746483104641898200,5.833898193359375,-0.015216858354210853,0.03487184528633952,-0.025156945349276063
1746483104651895000,5.84389501953125,-0.01682429355084896,0.018610154054313897,-0.02284311544895172
1746483104661891300,5.853891357421875,0.003039513826370239,-0.006327887847274541,-0.012098287942260503
1746483104671888100,5.86388818359375,-0.011723171019554137,0.017149872243404387,-0.0034349428847432134
1746483104681885200,5.87388525390625,-0.030938159099221228,0.04075929588973522,-0.0294993584677577
1746483104691882200,5.88388232421875,-0.009721183547377586,0.04561272727027535,-0.014866145220398901
1746483104701879300,5.89387939453125,-0.004928104051947594,0.0676182228513062,-0.005999240414798259
1746483104711876000,5.9038759765625,-0.05211363359689712,0.0772537739418447,0.004779489361494779
1746483104721873200,5.913873046875,-0.056439095580577844,0.08986059592813253,0.0006283610314130782
1746483104731870200,5.9238701171875,-0.038383214408159255,0.08217398694828153,-0.01342602941468358
1746483104741867000,5.933866943359375,-0.02268237192928791,0.07297361240461468,-0.028142390900850293
1746483104751864300,5.9438642578125,0.016244447836279867,0.05662775002047419,-0.03786182088255882
1746483104761860000,5.953860107421875,-0.003073416095972061,0.0510907202899456,-0.022450170608609914
1746483104771857200,5.963857177734375,-0.018769582399725912,0.04122530596628785,-0.00949073579236865
1746483104781854200,5.973854248046875,-0.038871290186047555,0.028193244305253027,-0.007056640513241291
1746483104791851000,5.98385107421875,-0.042753684577345845,0.03134147920310497,-0.0040476679556071754
1746483104801848000,5.99384814453125,-0.03391863621473312,0.041415275580435985,0.004554010042548179
1746483104811845000,6.00384521484375,-0.0500274749726057,0.06500175674259662,-0.0068846449472010135
1746483104821842200,6.01384228515625,-0.02531388947665691,0.07075418278947472,-0.015767331843823194
1746483104831839000,6.0238388671875,0.01982055275738239,0.08066928147375584,-0.020361527766287326
1746483104841836300,6.033836181640625,0.06694938367903232,0.07672697358876467,-0.050549599150568246
1746483104851833000,6.0438330078125,0.049314358267188066,0.05001622292622924,-0.04986731597483158
1746483104861829000,6.0538291015625,-0.008712298765778542,0.03752396723031998,-0.03097206136882305
1746483104871826200,6.063826171875,-0.0554389786273241,0.03426087378114462,-0.008690086933970451
1746483104881823000,6.073822998046875,-0.06563537847101689,0.02149564636275172,-0.007811258272826671
1746483104891820300,6.0838203125,-0.030127427238225934,0.0061950552478432655,-0.02340951716005802
1746483104901817000,6.093817138671875,-0.008325929796695709,0.0415901937559247,-0.016196955432742834
1746483104911814100,6.103814208984375,-0.0045008185505867005,0.057106181187182664,-0.00491626748368144
1746483104921811200,6.113811279296875,-0.002358545824885368,0.04509600991979241,-0.0016910218268632888
1746483104931808300,6.123808349609375,-0.03094108170866966,0.04627659800648689,0.00020896657556295392
1746483104941805000,6.13380517578125,-0.05507423696815967,0.07500847923308611,-0.04117489095330238
1746483104951801000,6.143801025390625,-0.007545008552074432,0.06820537508949637,-0.042635903416574
1746483104961798100,6.153798095703125,0.031980361628532405,0.05712357071340084,-0.015947949107736347
1746483104971795200,6.163795166015625,0.004424246183037757,0.050403468678146594,0.020283786354959008
1746483104981792300,6.173792236328125,-0.057087914878129954,0.02111731456965208,-0.008310586097091436
1746483104991789000,6.1837890625,-0.06660860741734505,0.010611556515842675,-0.01777414162158966
1746483105001786000,6.1937861328125,-0.006871639335155486,0.009159019619971513,-0.022483488356322048
1746483105011783200,6.203783203125,0.005257189875841141,0.03356558499336242,-0.011628186212480067
1746483105021780200,6.2137802734375,-0.01602349856197834,0.05622706026509404,-0.00817336958348751
1746483105031777000,6.223777099609375,-0.025588614764809607,0.04873918872773647,0.005269464835524559
1746483105041774000,6.233774169921875,-0.032571313259005544,0.05152355874925851,0.0233668470621109
1746483105051770000,6.24377001953125,-0.05335048191547394,0.05985723346099257,0.0278643046118319
1746483105061767200,6.25376708984375,-0.047393034815788264,0.04416267459243536,-0.0025295184776186943
1746483105071764200,6.26376416015625,-0.02219254258573055,0.03482201479524374,0.029639059199392793
1746483105081761000,6.273760986328125,-0.013394903624057769,0.03873758080378174,0.06072919398993253
1746483105091758300,6.28375830078125,-0.006032850423455238,0.0474897731885314,0.06854439778551459
1746483105101755100,6.293755126953125,-0.04107143057882785,0.044769846705347296,0.08494739718437194
1746483105111752000,6.303751953125,-0.084909987783432,0.03196311823278666,0.09433145773187279
1746483105121749200,6.313749267578125,-0.07541326064169407,0.03281666632220149,0.07752703792527317
1746483105131746000,6.32374609375,-0.09362111750543117,0.0637330519810319,0.04015606929957866
1746483105141743000,6.3337431640625,-0.05500234077572822,0.10307152128741144,-0.02818915265202522
1746483105151739100,6.3437392578125,-0.0165828860104084,0.11243760778680444,-0.04714651270881295
1746483105161736200,6.353736083984375,0.010655834048986434,0.05749167337343097,0.0025261574767529963
1746483105171733200,6.363733154296875,0.006578793868422508,0.007334726802259683,0.05912044361904263
1746483105181730000,6.37372998046875,-0.014263503152132033,-0.028955606979876754,0.11662117708176374
1746483105191727000,6.38372705078125,-0.04975450325012207,-0.0422578638844192,0.13996084387600422
1746483105201724200,6.39372412109375,-0.0706581750690937,-0.05535568425804376,0.1105775130033493
1746483105211721200,6.40372119140625,-0.07283435006439685,-0.018420622831583022,0.07797507395371794
1746483105221718000,6.413718017578125,-0.04678922370374203,0.09304054113849997,-0.018844985723495484
1746483105231715300,6.42371533203125,0.0006499883413314818,0.14934563507586718,-0.03184650611579418
1746483105241712000,6.433712158203125,0.0016559505134820937,0.11099690745919942,0.05418810178339481
1746483105251708000,6.4437080078125,-0.0924438904196024,0.04424290022179484,0.17785393667966126
1746483105261705200,6.453705322265625,-0.16183832916319368,-0.01871522186398506,0.20861776212528346
1746483105271702000,6.463701904296875,-0.1728174038171768,-0.05241451623961329,0.1577177421018481
1746483105281699000,6.473698974609375,-0.11691431480944156,-0.05290273814797401,0.10790464053228496
1746483105291696000,6.483696044921875,0.012120061382651329,-0.016028466998040676,0.05690773600563406
1746483105301693200,6.493693115234375,0.10976210496723651,0.041983430857211346,-0.025155922435969112
1746483105311690000,6.50368994140625,0.1631412284553051,0.07563947061300277,-0.04852247723713517
1746483105321687300,6.513687255859375,0.12157879948914051,0.04048997742906212,0.04611322413831949
1746483105331684000,6.52368408203125,-0.004461071062088012,-0.07628244469165801,0.24329423096999525
1746483105341681200,6.53368115234375,-0.18361176955401895,-0.16626009112820028,0.412938411578536
1746483105351678200,6.54367822265625,-0.33632746558487414,-0.20731617800742386,0.49711745473891494
1746483105361674000,6.553674072265625,-0.3831371475547552,-0.15241262143105266,0.45104032482728357
1746483105371671300,6.56367138671875,-0.3120890963852405,0.009176116885244846,0.3038731297690421
1746483105381668000,6.573668212890625,-0.14704700274467467,0.19974113964326679,0.11721446679979562
1746483105391665200,6.5836650390625,-0.005704933643341064,0.21803440976813435,0.11639080239199101
1746483105401662200,6.593662109375,0.028510055169463155,0.11449819357842206,0.27408435990065333
1746483105411659300,6.6036591796875,-0.10948679515719413,-0.1536595527522266,0.6585418693389743
1746483105421656000,6.613656005859375,-0.44371816524565216,-0.3597404168110341,1.0633359182327986
1746483105431653400,6.6236533203125,-0.8115005072802305,-0.40595564001910384,1.2092954180017113
1746483105441650200,6.633650146484375,-1.06072193634212,-0.062391866505146026,0.9181123315230011
1746483105451647000,6.64364697265625,-1.0786439620018005,0.4125733776584267,0.3761028650037944
1746483105461643300,6.653643310546875,-0.8439385495483874,0.796313240346685,-0.18486542287692426
1746483105471640000,6.66364013671875,-0.4677724100500345,0.9919329161457717,-0.6346907458912581
1746483105481637000,6.67363720703125,0.014013327783346175,0.9353842957761138,-0.8487273912601172
1746483105491634200,6.68363427734375,0.49293724644482134,0.6495815140962601,-0.7206804186701774
1746483105501631200,6.69363134765625,0.881722629019618,0.2528768097642809,-0.4031907784156501
1746483105511628000,6.7036279296875,1.171902675935626,-0.12285576062239706,-0.14856120669990777
1746483105521625000,6.713625,1.4462141225904226,-0.367190294425562,0.0005588029265403748
1746483105531622100,6.7236220703125,1.672678945443034,-0.5031240747425705,0.044460488495230675
1746483105541619000,6.733618896484375,1.884111034336686,-0.47144605706147846,-0.09138196027651428
1746483105551616300,6.7436162109375,2.138824631074071,-0.30987551198899743,-0.43102702597677706
1746483105561613000,6.753613037109375,2.2552368415802717,-0.09857961669564247,-0.8063824336141348
1746483105571609300,6.763609375,2.1618243983894585,0.133053256444633,-1.119532291098684
1746483105581606000,6.77360595703125,1.919842857453227,0.28446108474731446,-1.4106053413316606
1746483105591603000,6.78360302734375,1.498207929199934,0.2770443787500262,-1.6274265759177504
1746483105601600000,6.79360009765625,0.803358701878786,0.10625490056388079,-1.4219576332122086
1746483105611597000,6.80359716796875,0.02606909175813198,0.07633833959735929,-0.7524623351171612
1746483105621593900,6.81359375,-0.44640170524120326,-0.11664916106723248,0.24897366484589872
1746483105631591200,6.823591064453125,-1.3054922312140465,-0.41325171531140803,1.3539800755292177
1746483105641588000,6.833587890625,-2.3479501965910194,-0.6639197629850357,2.1264903424188493
1746483105651585000,6.8435849609375,-2.8003414976358414,-0.3631747751738876,2.1204270968571306
1746483105661582000,6.85358203125,-2.409057868504524,0.33306846378892657,1.5381260980904101
1746483105671579100,6.8635791015625,-1.5099053812563419,0.7408524882789701,0.7208006840489805
1746483105681575200,6.8735751953125,-0.538796495822072,0.6905441505383699,0.05652662773355841
1746483105691572000,6.883572021484375,0.20620880128741262,0.37211737556420266,-0.39817937999442216
1746483105701569000,6.893569091796875,0.6358809055238962,-0.011835180026665329,-0.7422356862656772
1746483105711566000,6.903566162109375,0.7581313206642866,-0.3086336221691221,-0.8790968105606735
1746483105721563100,6.913563232421875,0.5518927087604999,-0.37103396424166857,-0.630868045797944
1746483105731560000,6.923559814453125,0.1753010373264551,-0.24417167139165102,-0.13842939652502537
1746483105741557200,6.93355712890625,-0.15124796156585216,-0.0673171210128814,0.17426701810359954
1746483105751554000,6.943553955078125,-0.34495851580798625,0.1390067580215633,0.2855615933351219
1746483105761550800,6.95355078125,-0.4037070573747158,0.2996596037272364,0.339302389742434
1746483105771548200,6.963548095703125,-0.3522802369982004,0.35878033960722383,0.2964648262739181
1746483105781545000,6.973544921875,-0.18622224431335924,0.28025355005487795,0.12092968793064356
1746483105791542000,6.9835419921875,0.00028057050704956055,0.14595263163670896,-0.08859627508074044
1746483105801538000,6.9935380859375,0.09450783721208572,0.07034808620661497,-0.19732816021740435
1746483105811535000,7.00353515625,0.055657005292177195,0.03812156779728829,-0.1905079588085413
1746483105821532000,7.013531982421875,-0.02673310862481594,0.011844386246427892,-0.12886223449558018
1746483105831529000,7.023529052734375,-0.08123919031620025,0.013788506051525472,-0.05136734527423978
1746483105841526000,7.033526123046875,-0.070148471981287,0.024744053699448702,0.03542494912445545
1746483105851522800,7.043522705078125,-0.03086392481923103,-0.0072333853196352715,0.09654723408520222
1746483105861520100,7.05352001953125,0.016891513568162916,-0.05388378507457673,0.11608721633553504
1746483105871517000,7.063516845703125,0.045263037049770354,-0.03643544134125113,0.07935717596188187
1746483105881514000,7.073513916015625,0.022258593559265134,0.043326004572585224,-0.027823826470971105
1746483105891511000,7.083510986328125,-0.0340764571249485,0.08504610831849277,-0.06774374892711639
1746483105901508000,7.093508056640625,-0.032492987325787544,0.07440138018541037,-0.07556523633301257
1746483105911504100,7.103504150390625,-0.007314706927537918,0.05990910977870226,-0.0522376983679831
1746483105921501000,7.1135009765625,0.009001052579283714,0.025639102843031284,-0.03644099429920315
1746483105931498000,7.123498046875,-0.002087327668070793,0.015167685450240968,-0.025647797606140374
1746483105941495000,7.1334951171875,-0.005008768072724342,0.020249664889648557,0.001080634843558073
1746483105951492000,7.1434921875,0.0062087915122509,0.026094299264624712,0.006585954261571168
1746483105961489000,7.153489013671875,0.02892915736436844,0.058495662784203886,-0.02391717442125082
1746483105971486200,7.163486328125,0.03150923698544502,0.08622713479660452,-0.042872488651424644
1746483105981483000,7.17348291015625,0.0008463876962661743,0.0957262730911374,-0.05586933286860585
1746483105991480000,7.18347998046875,-0.06641396162807942,0.09232033710516989,-0.06757204562202096
1746483106001477000,7.19347705078125,-0.09555822304785251,0.07782039484865963,-0.045681408592313524
1746483106011474200,7.20347412109375,-0.08608896843492984,0.04647540851421654,-0.00574804213270545
1746483106021470000,7.213469970703125,-0.0933802944868803,0.0074346069801598785,0.04031096760034561
1746483106031467000,7.223467041015625,-0.05901566807031631,0.01599324955418706,0.06051482058688998
1746483106041464000,7.233464111328125,-0.011337971094250679,0.06979761271700263,0.02394903086423874
1746483106051460900,7.2434609375,-0.015045008918642997,0.0991192034650594,-0.013799246641248463
1746483106061458200,7.253458251953125,-0.015360066217184066,0.08671908303201198,-0.034881489897519345
1746483106071455000,7.263455078125,-0.03715630296170711,0.05897993916980922,-0.03148117993474007
1746483106081452000,7.2734521484375,-0.04240764761865139,0.02984627220928669,-0.030886575042456385
1746483106091449000,7.283448974609375,-0.025369419056177137,0.01684650538265705,-0.002042611743509769
1746483106101446000,7.29344580078125,0.010212766456604003,0.02590864049941301,0.017956512451171875
1746483106111443000,7.30344287109375,0.0012818565040826797,0.04063603483624756,-0.001144639990478754
1746483106121440000,7.31343994140625,-0.0000415010541677475,0.029219957004487512,-0.004806815759837627
1746483106131437000,7.32343701171875,-0.006625555619597435,0.03640672670342028,-0.013218816404789686
1746483106141433000,7.33343310546875,-0.03137362790703773,0.060251566540822386,-0.013829787909984587
1746483106151430100,7.34343017578125,-0.06471008031964302,0.07506210911646485,-0.02778875515758991
1746483106161427000,7.353427001953125,-0.04414893832802772,0.0785803463704884,-0.05460881141349673
1746483106171424000,7.363424072265625,-0.0076245035290718076,0.046624242400377984,-0.04231982320472598
1746483106181421000,7.373421142578125,0.005193476989865302,0.019658347932994365,-0.0205652336448431
1746483106191417900,7.38341796875,0.019257073655724523,0.01893799776919186,-0.005652326673269271
1746483106201415200,7.393415283203125,0.01145429095029831,0.033835414910689,0.006339139893651008
1746483106211412000,7.403411865234375,-0.020447744745016098,0.05512998574338853,-0.010839812313765287
1746483106221409000,7.413408935546875,-0.035899580898880956,0.049400356050208205,-0.015581746143847703
1746483106231406000,7.423406005859375,-0.07220306642353534,0.06320128319188952,-0.011379326017946004
1746483106241403100,7.433403076171875,-0.07729074495136737,0.08438106853850186,-0.035525925280898804
1746483106251400000,7.44339990234375,-0.030848142728209495,0.08187624611072242,-0.04566913363263011
1746483106261397200,7.453397216796875,0.0017220014870166778,0.050526583601161836,-0.009945932213962078
1746483106271393000,7.46339306640625,0.005753448960185051,0.04285078827627003,0.004896393739432096
1746483106281389800,7.473389892578125,-0.02083411371409893,0.042567222094535825,0.0031558336824178694
1746483106291387100,7.48338720703125,-0.015859832432866094,0.04163834374658763,-0.006167728849500417
1746483106301384000,7.493384033203125,-0.012553192102909087,0.02977094195075333,-0.007411153039336204
1746483106311381000,7.503381103515625,-0.015562310791015624,0.015067659141868353,-0.009099690648168325
1746483106321378000,7.5133779296875,-0.002977554506063461,0.057778381360322234,-0.014932050063461065
1746483106331375000,7.523375,-0.01692833844721317,0.06399053387343884,-0.013663783693313598
1746483106341372000,7.533371826171875,-0.029319617986679074,0.039979324493184684,-0.033392274253070356
1746483106351369000,7.543368896484375,-0.05132803617715835,0.037432781815528865,-0.03009133301153779
1746483106361366000,7.553365966796875,-0.028674890342354774,0.04701368010938167,-0.011449760905653238
1746483106371362800,7.56336279296875,0.0007826748102903366,0.037778672643750906,-0.001647182685136795
1746483106381360000,7.573360107421875,0.008391396248340606,0.03452763495855033,0.005307604888826608
1746483106391356000,7.58335595703125,0.004513093510270119,0.05191898780763149,-0.0008953414045274257
1746483106401353200,7.593353271484375,-0.029461656805872916,0.0558615879535675,-0.005759148048609494
1746483106411350000,7.60335009765625,-0.06255319454669953,0.07684658138044179,-0.029614947671443223
1746483106421346800,7.613346923828125,-0.05375964723825454,0.06949008113779127,-0.04992752172946929
1746483106431344000,7.62334423828125,-0.022632687568664548,0.059639206796139474,-0.02761909767910838
1746483106441341000,7.6333408203125,-0.01115267765522003,0.05510850456394255,-0.015007599517703056
1746483106451338000,7.643337890625,-0.015057868400216102,0.052745282563939684,0.0029154490552842616
1746483106461335000,7.6533349609375,-0.03812193312346935,0.0465926051530987,-0.01194353577196598
1746483106471332000,7.66333203125,-0.014694880306720733,0.03816591839566827,-0.021867840676009654
1746483106481329000,7.673328857421875,0.01430500420629978,0.024176117618381975,-0.003461538630723953
1746483106491326200,7.683326171875,-0.003986439287662506,0.043279242821410296,-0.01182107843607664
1746483106501323000,7.693322998046875,-0.022318799313902852,0.06647745531834662,-0.011238017851114272
1746483106511320000,7.703320068359375,-0.0397100790977478,0.05431954614333808,-0.006213759948313236
1746483106521316000,7.713316162109375,-0.05824585274159908,0.04523220352008939,-0.009061988986283541
1746483106531313000,7.72331298828125,-0.04841887073218822,0.047999184015393256,-0.007004764195531607
1746483106541310000,7.73331005859375,-0.04622925173342227,0.054728126944229,0.03784676944389939
1746483106551307000,7.74330712890625,-0.06329845995604992,0.07947605310119688,0.027606238197535275
1746483106561304000,7.753303955078125,-0.052530982226133345,0.0936064313929528,0.014492635732889175
1746483106571300900,7.76330078125,-0.015563479834794997,0.09275105667263268,0.000779167678952217
1746483106581298400,7.77329833984375,0.03153787855803966,0.0815372234147042,-0.03146203684285283
1746483106591295500,7.78329541015625,0.006126958447694778,0.0731357441637665,-0.08276011627316475
1746483106601292300,7.793292236328125,0.06787701991796494,0.09811601777188479,-0.09302987361401319
1746483106611289600,7.80328955078125,0.1658984182089567,-0.11438012015670537,0.13643895336017012
1746483106621286400,7.813286376953125,0.038812837997078894,-0.20034414703771472,0.1533903804220259
1746483106631283200,7.823283203125,-0.046879824596643443,-0.11974369301646948,-0.06873246770352125
1746483106641280500,7.833280517578125,-0.07434650819301605,0.013991919669136405,-0.19887568192034957
1746483106651276300,7.8432763671875,-0.045101124486327165,0.12108831255845724,-0.1706133179016411
1746483106661273600,7.853273681640625,-0.06949848363995552,0.12638174279145895,0.07292612000107765
1746483106671270400,7.8632705078125,-0.10539981810450554,-0.025045886190235612,0.22466434930190443
