time,seconds_elapsed,z,y,x
1746481797139869400,0.600869384765625,-0.1682511188149452,-0.35591589008681473,-0.007318688982911408
1746481797149866200,0.6108662109375,-0.06635492491722106,-0.3433906819693744,0.01788264349736273
1746481797159862300,0.6208623046875,0.01636252125799656,-0.34224392308704554,0.09351562957065179
1746481797169858600,0.630858642578125,0.0018704700469970702,-0.3537180877815932,0.15827493759319186
1746481797179855400,0.64085546875,-0.14426935472488403,-0.391334190274775,0.22412092660758642
1746481797189851400,0.650851318359375,-0.34861879188120365,-0.4016358771238476,0.25854479066440833
1746481797199847400,0.660847412109375,-0.4851800564467907,-0.4019444316163659,0.16323993958942593
1746481797209844200,0.67084423828125,-0.5408510902643203,-0.3666807374682277,0.05630155027341097
1746481797219840300,0.68084033203125,-0.48816930139064785,-0.35283542319554834,-0.012875373261980712
1746481797229836500,0.69083642578125,-0.4181389028310776,-0.3088357936777174,-0.03897822115924209
1746481797239833300,0.700833251953125,-0.26734219216406346,-0.27835467589730395,0.017426679890789092
1746481797249829400,0.710829345703125,-0.11432955901324748,-0.2931169771507382,0.13360964821837842
1746481797259826400,0.720826416015625,-0.09982757093012333,-0.36242161871902645,0.2656211039924994
1746481797269822500,0.730822509765625,-0.1732353369683027,-0.43876087163183836,0.3578478810627013
1746481797279818200,0.740818359375,-0.24894553472995756,-0.5266650362625718,0.41124662256669253
1746481797289815600,0.750815673828125,-0.32535598971545693,-0.5144262438710778,0.45183016003072257
1746481797299811300,0.760811279296875,-0.3636830900222063,-0.46181313631944354,0.4607987716451287
1746481797309807400,0.770807373046875,-0.3458838139593601,-0.376732796937786,0.4304973030142486
1746481797319804400,0.780804443359375,-0.32590485576987266,-0.3058646871787496,0.3611503201415762
1746481797329800400,0.790800537109375,-0.3262339415937662,-0.3153932890297845,0.2815938587479293
1746481797339796200,0.800796142578125,-0.28638357724249364,-0.3112726654358208,0.22581213109754025
1746481797349793500,0.81079345703125,-0.21751520819962022,-0.31209939858354624,0.19348807059787212
1746481797359789300,0.820789306640625,-0.19873744249343872,-0.3450872567541897,0.12832436475921422
1746481797369785300,0.830785400390625,-0.21730010414421558,-0.3993966833623126,0.08654583622380159
1746481797379782400,0.840782470703125,-0.24671675276458263,-0.47367794429939236,0.09988281738185323
1746481797389778400,0.8507783203125,-0.30212884338498114,-0.5786592081982642,0.14241231954819522
1746481797399774200,0.860774169921875,-0.47014790700972076,-0.6973866368442774,0.2613246123749763
1746481797409771500,0.870771484375,-0.6040677171558141,-0.903373319813609,0.2939873850434087
1746481797419767300,0.880767333984375,-0.5847358246982097,-1.150818313787505,0.27182651623757553
1746481797429764400,0.890764404296875,-0.5946972467422486,-1.392167182843387,0.2661381866691634
1746481797439760400,0.900760498046875,-0.615233838814497,-1.5881564956724643,0.32325846944693476
1746481797449756400,0.91075634765625,-0.7004793421626091,-1.6911770174250005,0.4601164154041558
1746481797459753200,0.920753173828125,-0.7711135518342256,-1.8585582215376197,0.5248914507187903
1746481797469749500,0.93074951171875,-0.7287988431960344,-2.100292217453569,0.5554293219214305
1746481797479745300,0.940745361328125,-0.6085884094506502,-2.3668137408845125,0.5669178439348935
1746481797489742300,0.950742431640625,-0.5435884062737226,-2.5903201523229478,0.6645361413177102
1746481797499738400,0.96073828125,-0.4716016129493713,-2.8899250301882624,0.7846620385847985
1746481797509734400,0.970734375,-0.4362012137442827,-3.213096077080071,0.9012109541479497
1746481797519731200,0.980731201171875,-0.6170189686655998,-3.4195416097328066,0.8849398375004529
1746481797529727500,0.9907275390625,-0.6704115361571311,-3.5509137812227007,0.6128370433384552
1746481797539723500,1.0007236328125,-0.3197475021839142,-3.799996094074845,0.16211707303933798
1746481797549720300,1.01072021484375,0.6349041694462298,-4.089741548965871,-0.1894379549568519
1746481797559716400,1.02071630859375,2.2469173415243624,-4.229205549235641,-0.16229717884659767
1746481797569712400,1.03071240234375,3.8961663115411995,-4.530374607677757,0.26599143514223395
1746481797579709200,1.040709228515625,5.214346759414672,-4.440196616363525,1.4663212372042238
1746481797589705500,1.05070556640625,6.816248287323117,-3.925119434303045,2.813052218388021
1746481797599701500,1.060701416015625,9.191135006156562,-3.7314980196490883,3.4950320272639392
1746481797609698300,1.0706982421875,11.293706420588492,-2.625139244508743,3.790637898620963
1746481797619694600,1.080694580078125,11.026266613268852,-1.0729473577953874,2.9180861257895825
1746481797629691400,1.09069140625,10.485442411011457,0.4560018196921795,1.544695978000015
1746481797639687400,1.1006875,9.839996973806619,0.862690304030478,1.0765418751560152
1746481797649683500,1.110683349609375,9.495975446587801,0.3856207079987973,1.3628629085563122
1746481797659680300,1.12068017578125,9.512003036803007,0.4163490602722391,1.5639396076522767
1746481797669676300,1.13067626953125,9.453514022955298,0.39204533421881493,1.7536396110787986
1746481797679672600,1.140672607421875,9.377053883609175,0.3739430931540206,1.9465996392145752
1746481797689669400,1.15066943359375,9.32303353960812,0.3581946486737579,2.1461649108342824
1746481797699665400,1.16066552734375,9.2701220336318,0.34468254841081797,2.3200686485834416
1746481797709661400,1.170661376953125,9.193811531889438,0.323266871949099,2.4967352751746774
1746481797719658500,1.180658447265625,9.13097542874813,0.3115715387845412,2.689692965222895
1746481797729654300,1.190654296875,9.04607888496816,0.30172347745448347,2.863114472413063
1746481797739650600,1.200650634765625,8.987024053931236,0.2951043698419817,3.049467941890657
1746481797749647400,1.2106474609375,8.904206654512882,0.29586132568912576,3.221201642124355
1746481797759643400,1.220643310546875,8.845076420152187,0.27976753836991264,3.386718659800291
1746481797769639400,1.230639404296875,8.759146441671252,0.26597652983404696,3.541948676739633
1746481797779636500,1.240636474609375,8.663057472747564,0.26929730828721077,3.6945182422980665
1746481797789632300,1.25063232421875,8.591215056329965,0.2514852275417186,3.8519565829366442
1746481797799629600,1.260629638671875,8.5092370303452,0.24743531283009795,4.005604299120605
1746481797809625300,1.270625244140625,8.41755477194786,0.25621028330223633,4.145526272290945
1746481797819621400,1.280621337890625,8.35063812149465,0.24544075974570587,4.289679599420726
1746481797829618400,1.290618408203125,8.249813356220722,0.253586273207888,4.413662829703092
1746481797839614500,1.300614501953125,8.16658094626069,0.24943746469905598,4.553288450275361
1746481797849610200,1.3106103515625,8.081255947935581,0.2640174864544533,4.680557862621545
1746481797859607600,1.320607666015625,8.01146871048212,0.2598866337274201,4.793590659822524
1746481797869603300,1.330603271484375,7.937429660803079,0.25408428585790094,4.912520698368549
1746481797879599400,1.340599365234375,7.857059654536843,0.25633409234499555,5.013613174667954
1746481797889596400,1.350596435546875,7.766141366249323,0.26219217072343454,5.135222953817248
1746481797899592400,1.360592529296875,7.690527030077576,0.2804796504283324,5.243846410143375
1746481797909588200,1.370588134765625,7.605645683866739,0.2805536472463049,5.3250721564561125
1746481797919585500,1.38058544921875,7.543245634055137,0.3041583581849001,5.416050065976381
1746481797929581000,1.3905810546875,7.462472307685017,0.29284676364092155,5.505276163393258
1746481797939577000,1.4005771484375,7.382350138700008,0.30015485816458237,5.569377171903849
1746481797949574100,1.41057421875,7.2855012913197275,0.30082903109909964,5.631337076732516
1746481797959570200,1.420570068359375,7.2035092368096105,0.3079073537211865,5.688776289266348
1746481797969566200,1.430566162109375,7.021771444433927,0.316889957328327,5.745833809006214
1746481797979563300,1.440563232421875,2.753353536489606,0.7072144956365227,3.5668840882927175
1746481797989559300,1.450559326171875,-38.988776747787,5.995061083287,-21.19581118326187
1746481797999556000,1.46055615234375,-84.43681497564316,14.654551803463697,-49.86278476114273
1746481798009552100,1.47055224609375,-106.07013845524787,20.509400113940238,-44.43074802148342
1746481798019548200,1.480548095703125,-95.29310729956626,23.230057249486446,-17.7626510902822
1746481798029545000,1.490544921875,-65.16670881986617,18.01927607359886,-7.20116062785685
1746481798039541200,1.500541259765625,-37.222489544320105,10.298841981035471,-4.363466135643423
1746481798049537300,1.510537353515625,-15.358241339844465,4.486150558286905,-1.2099733172632754
1746481798059534000,1.5205341796875,-0.9983101960927248,0.8889093256533145,0.9230740455836057
1746481798069530400,1.5305302734375,6.937777986973524,-1.0061834136858583,2.5499782050624487
1746481798079526100,1.540526123046875,10.606934116739033,-1.8877056978277862,3.875515737700462
1746481798089523200,1.550523193359375,11.037708044737577,-1.7574840115472674,3.9008050772577523
1746481798099519200,1.560519287109375,9.6404593208462,-1.1354391775436699,3.8345053896591064
1746481798109515300,1.570515380859375,8.717963951933383,-0.47420185857564207,4.1749712702229616
1746481798119512000,1.580511962890625,8.328466621696949,-0.1813535605647601,4.620587085783481
1746481798129508000,1.590508056640625,8.091987769830226,-0.15657931265644728,5.014290051016212
1746481798139504000,1.600504150390625,7.800446955955028,-0.184453261879459,5.306432337915897
1746481798149501200,1.610501220703125,7.344795191809535,-0.3098881157422438,5.501342915597558
1746481798159497000,1.6204970703125,6.482219161808491,-0.6281604673396796,5.447969052806497
1746481798169493200,1.6304931640625,5.435600569620728,-1.1113401437494903,5.163890829896927
1746481798179490000,1.640489990234375,4.411183287847042,-1.5878519597679375,4.618165996116399
1746481798189486000,1.650486083984375,3.716816875606775,-2.0169158689782023,3.512466269406676
1746481798199482000,1.660482177734375,3.275146290540695,-2.4486235706955193,1.6899661803305148
1746481798209479200,1.670479248046875,2.438245384544134,-2.8998315071746705,-0.7491548180043697
1746481798219475000,1.680474853515625,0.7203945874661207,-3.2470939160108565,-3.3717078454121947
1746481798229472300,1.69047216796875,-1.0112725535184144,-3.182989108107984,-4.913598556733131
1746481798239468000,1.700468017578125,-2.6004087078779934,-2.568549634541571,-4.6252901489079
1746481798249464000,1.710464111328125,-4.4732869850605725,-1.5032276570580898,-2.395054623723775
1746481798259461000,1.720461181640625,-5.896354040819406,-0.21151273464811965,0.805950325807184
1746481798269457200,1.73045703125,-6.664015990895033,1.1463480365056544,3.7705893823266026
1746481798279453000,1.740452880859375,-6.526348226392269,2.166045815476775,5.471832158952951
1746481798289450200,1.7504501953125,-4.507520678573846,2.458262628917396,4.874119656042755
1746481798299446000,1.760446044921875,-1.710512709274888,1.8060504740566015,2.5211121760621666
1746481798309442000,1.770442138671875,0.20925474485456944,0.9000953210562467,0.5090992766946554
1746481798319439000,1.780439208984375,1.3316647833466528,0.14402166357412932,-0.7007166580498219
1746481798329435100,1.79043505859375,1.8980512968838215,-0.39108134802486744,-1.2948463340371847
1746481798339431200,1.80043115234375,2.0657371830314397,-0.6793323631070554,-1.5000032881841063
1746481798349428200,1.81042822265625,2.023193341812491,-0.7731342440068721,-1.5425433300107716
1746481798359424000,1.820424072265625,1.7068062559723853,-0.6620579877011478,-1.4664967399016022
1746481798369420000,1.830419921875,1.0794190380275248,-0.34701764029487964,-1.044108655193448
1746481798379417000,1.8404169921875,0.3577876022428274,-0.054693740617437286,-0.47297114773690696
1746481798389413000,1.8504130859375,-0.2339776827007532,0.12359400263591669,0.06391513054966926
1746481798399409200,1.8604091796875,-0.6198065535575151,0.19753493483588097,0.4775871170997619
1746481798409406200,1.87040625,-0.7790045973449945,0.22046726293824612,0.7392159000530839
1746481798419402200,1.88040234375,-0.677068071436882,0.14429472662815823,0.7805953736677765
1746481798429398000,1.89039794921875,-0.3357452817827463,0.004998139364144299,0.46242286571562286
1746481798439395000,1.90039501953125,-0.002712181568145752,-0.07535618299248162,0.036758535815775394
1746481798449391000,1.91039111328125,0.1972176855802536,-0.10825161820589564,-0.24534517215043306
1746481798459387100,1.92038720703125,0.24718670836389064,-0.09210216430984437,-0.3865498786076903
1746481798469384200,1.93038427734375,0.16959727272689343,-0.04631731817594263,-0.3530108893603086
1746481798479380200,1.940380126953125,0.01988718825280666,0.01720197688997723,-0.15445815578401087
1746481798489377000,1.950376953125,-0.09663432784676551,0.0403328323722817,0.037191082014143464
1746481798499373300,1.960373291015625,-0.1387076289445162,0.02792456973197404,0.13602964190691708
1746481798509369000,1.970369140625,-0.06125438690781593,-0.030525356497650497,0.08685118497908115
1746481798519366100,1.9803662109375,-0.00613864888548851,-0.06693790330379269,-0.009197159673273564
1746481798529362200,1.990362060546875,0.025711948883533477,-0.05612534432313405,-0.07527122182250022
1746481798539358200,2.000358154296875,-0.002952420064806938,-0.017659885858464987,-0.09866671045720576
1746481798549355000,2.01035498046875,-0.02144318552315235,0.010571795327612198,-0.08659457986950873
1746481798559351300,2.020351318359375,-0.032146365845203397,0.014668515172891784,-0.050149640047550195
1746481798569347000,2.03034716796875,-0.030118659409880635,-0.0027411884669214484,-0.007605506567656993
1746481798579344100,2.04034423828125,-0.02602992879152298,-0.030764962523360737,-0.0007186696633696556
1746481798589340200,2.050340087890625,-0.013484335473179817,-0.0515457705810666,-0.011270751076936722
1746481798599336200,2.060336181640625,-0.012315291693806648,-0.04580132691124454,-0.04350596424937248
1746481798609333000,2.0703330078125,-0.01845686318874359,-0.010989543532358948,-0.06488485236465931
1746481798619329300,2.080329345703125,-0.004630582410097122,0.005087865757499821,-0.05953150863796472
1746481798629325000,2.090324951171875,-0.025815409258008,-0.005047426432545762,-0.030397476351261138
1746481798639322000,2.100322021484375,-0.027435703936219212,-0.019591532057768198,-0.016558043830096722
1746481798649318100,2.110318115234375,-0.00993628760278225,-0.03236420756367733,-0.034789866091310975
1746481798659314200,2.120314208984375,-0.016972177588939666,-0.039542111252853646,-0.02759790876060724
1746481798669311000,2.13031103515625,-0.015924714362621308,-0.019865106568450572,-0.027595570673048495
1746481798679307300,2.140307373046875,-0.022076807251572607,-0.003860187126067467,-0.05642448253333568
1746481798689303000,2.150302978515625,-0.01758241844177246,0.004655614103365223,-0.04985504101514816
1746481798699300000,2.160300048828125,-0.012966449078917502,-0.014589214275428093,-0.04095452620089054
1746481798709296000,2.170296142578125,-0.013436989200115204,-0.017864189958642234,-0.03729571143239736
1746481798719292200,2.180292236328125,-0.028422961407899856,-0.020925486358557826,-0.03154050890654325
1746481798729289000,2.1902890625,-0.01991641434729099,-0.024204583377751988,-0.02757832727730274
1746481798739285200,2.20028515625,-0.014860300001502036,-0.01237117518306477,-0.03959989672154188
1746481798749281300,2.21028125,-0.019395605343580244,-0.0058961385166388935,-0.04963087687045335
1746481798759278000,2.220278076171875,-0.020582184779644012,-0.010385915083403233,-0.043516193382441996
1746481798769274000,2.230274169921875,-0.01962766053378582,-0.01733236865386134,-0.02931815668195486
1746481798779270100,2.240270263671875,-0.008343465453386305,-0.026532898461155127,-0.032786417314410204
1746481798789267000,2.250266845703125,-0.03432078727483749,-0.020038734685862435,-0.04523001156300306
1746481798799263200,2.26026318359375,-0.01070785649716854,-0.02400842148483498,-0.03795329855829477
1746481798809259300,2.27025927734375,-0.014055997881293296,-0.010349482929997612,-0.029998540161550045
1746481798819256000,2.280256103515625,-0.02431611061096191,-0.008990818879636936,-0.03647328913360834
1746481798829252400,2.29025244140625,-0.021267828956246376,-0.017536407892557327,-0.03319149098396301
1746481798839248100,2.300248046875,-0.016871639823913574,-0.020720807799044994,-0.025723347060382366
1746481798849245200,2.3102451171875,-0.021861703196167946,-0.01691039864843478,-0.03633826457709074
1746481798859241200,2.3202412109375,-0.02328618304133415,-0.015061950920289382,-0.030262159533798693
1746481798869238000,2.330238037109375,-0.015736498314142228,-0.01593060981386807,-0.030908933004736898
1746481798879234000,2.340234130859375,-0.02014437788426876,-0.0017377493287087417,-0.030997488071024416
1746481798889230300,2.350230224609375,-0.02033960819542408,-0.010305728269950486,-0.037441257382929326
1746481798899227100,2.36022705078125,-0.012461422166228293,-0.02001772386387456,-0.038326515784859655
1746481798909223200,2.37022314453125,-0.014015665870904921,-0.026893155741447114,-0.03006751374453306
1746481798919219000,2.380218994140625,-0.01223638123869896,-0.012305615116585976,-0.03226151665747166
1746481798929216300,2.39021630859375,-0.026349077743291854,-0.007865173567284363,-0.0436377739354968
1746481798939212800,2.400212890625,-0.025799627166986465,-0.02225976260304451,-0.039745150411129
1746481798949209000,2.410208984375,-0.010285831692814827,-0.013418533378106076,-0.031515958987176414
1746481798959206000,2.420205810546875,-0.02782441099286079,-0.022250503867643417,-0.04608545934855938
1746481798969202000,2.430201904296875,-0.03356324690580368,-0.008565871465834788,-0.03125993839949369
1746481798979198000,2.440197998046875,-0.020340192717313764,-0.016623617596307302,-0.03321457959860563
1746481798989194800,2.45019482421875,-0.022799860829114914,-0.012499498287448658,-0.03166471980810165
1746481798999190800,2.460190673828125,-0.031845921593904494,-0.023329147683514746,-0.03280278392732143
1746481799009187000,2.47018701171875,-0.025474632996320724,-0.015572893833823036,-0.02991553805321455
1746481799019183900,2.480183837890625,-0.024171733704209327,-0.020076230851770377,-0.02693564545959234
1746481799029180000,2.490179931640625,-0.03051145811975002,-0.008883223469450604,-0.032004911547899244
1746481799039176000,2.500176025390625,-0.022942484170198438,-0.015538219812663737,-0.032710721729695795
1746481799049173000,2.510173095703125,-0.010380524238944052,-0.005733225872775073,-0.02161445043683052
1746481799059168800,2.520168701171875,-0.01553892991542816,-0.013552062380569985,-0.023342297142744065
1746481799069165000,2.5301650390625,-0.034600773259997365,-0.011788559839385562,-0.03154401603788137
1746481799079161900,2.540161865234375,-0.023547464326024056,-0.01523373185719829,-0.03088409082442522
1746481799089158000,2.550157958984375,-0.011003624573349953,-0.003978080167982261,-0.03544277704209089
1746481799099154000,2.56015380859375,-0.020322657060623167,-0.0006827489666175097,-0.026038404358923434
1746481799109151000,2.57015087890625,-0.021994974187016486,-0.017691253677685745,-0.020121581530570982
1746481799119146800,2.580146728515625,-0.019517185896635054,-0.01870745868263766,-0.027251287280023097
1746481799129143000,2.59014306640625,-0.01535597456395626,-0.007412280983920209,-0.037788463385403155
1746481799139139800,2.600139892578125,-0.021807927182316778,-0.006513357099529821,-0.03309533713310957
1746481799149136000,2.610135986328125,-0.009573884031176566,-0.017714789816900157,-0.030291677889227864
1746481799159132000,2.6201318359375,-0.020243162083625792,-0.008323402196180541,-0.02701104878336191
1746481799169129000,2.63012890625,-0.014141338077187537,-0.006138210494071245,-0.031098025836050508
1746481799179124700,2.640124755859375,-0.02686170344054699,-0.0012570896722958423,-0.031242402742803096
1746481799189120800,2.650120849609375,-0.017767711880803106,-0.00951810785648413,-0.03547814061641693
1746481799199117800,2.660117919921875,-0.030989597025513647,-0.01202032048535766,-0.022743746727705
1746481799209113900,2.67011376953125,-0.0186263745367527,-0.01131327504441142,-0.02975157966315746
1746481799219110000,2.68010986328125,-0.021053309422731398,-0.010702730514190625,-0.03339344329684973
1746481799229107000,2.69010693359375,-0.03742752111852169,-0.001010795894183684,-0.027660160341858864
1746481799239102700,2.700102783203125,-0.03297580240666866,-0.012591158626275136,-0.03308393895626068
1746481799249098800,2.7100986328125,-0.01939852795302868,-0.005851086948649026,-0.021888298942148682
1746481799259095800,2.720095703125,-0.011489362263679503,-0.0031083960778079925,-0.026610066767036915
1746481799269091800,2.730091796875,-0.012258593070507048,-0.016874678881082218,-0.02879004115462303
1746481799279087900,2.740087890625,-0.022297756525874138,-0.022047446443059015,-0.02530658295303583
1746481799289085000,2.7500849609375,-0.02161620400249958,-0.01014564005412394,-0.023906068505346774
1746481799299081000,2.7600810546875,-0.018947861576080322,-0.009903629725484642,-0.03131020728200674
1746481799309076700,2.77007666015625,-0.024050737673044203,-0.022474503615556748,-0.025577508848905563
1746481799319073800,2.78007373046875,-0.016452537629008293,-0.020931358976918273,-0.029815877071022987
1746481799329069800,2.79006982421875,-0.023072832551598546,-0.011911766093946062,-0.019230185648798942
1746481799339067000,2.80006689453125,-0.030424948880076408,-0.0024160116331651805,-0.04026595941483974
1746481799349063000,2.81006298828125,-0.009060673812031746,-0.006332929348573088,-0.027891923271119595
1746481799359059000,2.820058837890625,-0.02135083106458187,-0.004118678232049569,-0.024090192900598047
1746481799369056000,2.830055908203125,-0.03200315798223018,-0.00340539484656183,-0.03537701832950115
1746481799379052000,2.840052001953125,-0.03455985672771931,0.0033468113684968553,-0.02755611544549465
1746481799389047800,2.8500478515625,-0.012581249153614044,-0.007626896415557712,-0.03004530191272497
1746481799399044900,2.860044921875,-0.019352935245633123,-0.013195657008199486,-0.024540859277546404
1746481799409041000,2.870041015625,-0.02728723537623882,-0.009743853178556309,-0.02093874313235283
1746481799419037000,2.880036865234375,-0.0293055894613266,-0.007867911230353637,-0.008145312532782554
1746481799429034000,2.890033935546875,-0.014239537754654884,-0.013031305892497767,-0.023414777857065198
1746481799439030000,2.900030029296875,-0.03429214570224285,-0.01630858769722981,-0.02296031208783388
1746481799449025800,2.91002587890625,-0.03461889343857765,-0.014750445277214749,-0.023028116627037524
1746481799459023000,2.920023193359375,-0.003677811729907989,-0.0012289492815558331,-0.0191840084195137
1746481799469019000,2.930018798828125,-0.026581717455387115,-0.011745003825449385,-0.03292085734903812
1746481799479015000,2.940014892578125,-0.03079085958302021,-0.006598554589884588,-0.01804828238785267
1746481799489012000,2.950011962890625,-0.011384148323535919,-0.003080076448910404,-0.015514379996061324
1746481799499008000,2.960008056640625,-0.016621464455127716,-0.0053541417360713234,-0.02404255436658859
1746481799509003800,2.970003662109375,-0.019378069686889647,-0.014987151526362867,-0.036567981679737564
1746481799519000800,2.980000732421875,-0.008631634745001792,-0.025372220651328097,-0.03588555237352848
1746481799528996900,2.989996826171875,-0.011822539740800856,-0.0013416535500553437,-0.01733282759487629
1746481799538993000,2.999992919921875,-0.03384147932529449,-0.004411283953476231,-0.03073065382838249
1746481799548989700,3.00998974609375,-0.026234511452913282,-0.014010505638597532,-0.021977146269381045
1746481799558986000,3.019986083984375,-0.034624738657474514,-0.01039267704268568,-0.038702947881817815
1746481799568981800,3.029981689453125,-0.027169746476411818,-0.005901908387010916,-0.02575315767675638
1746481799578978800,3.039978759765625,-0.011048048236966132,-0.015291730813373578,-0.029672669208049774
1746481799588974800,3.049974853515625,-0.016340893948078153,-0.01693439144537551,-0.027857436479628083
1746481799598971000,3.059970947265625,-0.031817864543199535,-0.017491058355401035,-0.02616495334804058
1746481799608967700,3.0699677734375,-0.039322541084885594,-0.009771975302987266,-0.011280687949061393
1746481799618964000,3.0799638671875,-0.02665419816970825,-0.015284429997974075,-0.031625849102437494
1746481799628960000,3.0899599609375,-0.029058336701989172,-0.01606148905987502,-0.026207915706932542
1746481799638956800,3.099956787109375,-0.01803074673116207,-0.00882133378944709,-0.02591916189342737
1746481799648953000,3.109953125,-0.02371580663025379,-0.012426041467237518,-0.017692016296088693
1746481799658948900,3.119948974609375,-0.018378537255525587,-0.0002005024246056564,-0.028612638761103152
1746481799668945700,3.129945556640625,-0.021861703196167946,-0.013931498143723001,-0.025045301668345926
1746481799678942000,3.13994189453125,-0.029961423021554946,-0.009046631586947478,-0.024237200155854222
1746481799688938000,3.14993798828125,-0.017259177836775778,-0.005302264276717324,-0.030021628776192664
1746481799698934800,3.159934814453125,-0.011752981635928153,-0.0076576237723173105,-0.030227672742307185
1746481799708931000,3.16993115234375,-0.031688100683689116,-0.0066543730054167095,-0.02413929273933172
1746481799718926800,3.1799267578125,-0.03877542859613895,-0.01433669511086191,-0.03085574151277542
1746481799728924000,3.189923828125,-0.02594400407373905,-0.005961535327980528,-0.014582067582011223
1746481799738920000,3.199919921875,-0.015346037691831588,-0.0010451548215118236,-0.0300637143522501
1746481799748916000,3.209916015625,-0.02539806062877178,-0.015169409333157817,-0.02085544876307249
1746481799758912800,3.219912841796875,-0.023475568133592604,-0.011690993774513481,-0.010910977853834629
1746481799768909000,3.229908935546875,-0.022336919492483138,-0.004635551987803774,-0.017165362073481082
1746481799778904800,3.23990478515625,-0.030313305199146268,0.0030599504012672695,-0.01986906807422638
1746481799788902000,3.24990185546875,-0.014321370819211005,-0.009787325852457434,-0.02983779664188623
1746481799798898000,3.25989794921875,-0.03139876234829426,-0.02275964526644675,-0.011075520765781402
1746481799808894000,3.26989404296875,-0.02692833893597126,-0.004434039207978639,-0.011764672073721885
1746481799818890800,3.279890869140625,-0.023370938715338706,-0.02122278195483377,-0.026626433379948137
1746481799828887000,3.289886962890625,-0.024441198295354842,-0.0037112014012120197,-0.028502164123952387
1746481799838882800,3.2998828125,-0.030143209329247474,-0.006090216908679576,-0.015284955154359339
1746481799848879900,3.3098798828125,-0.023591303467750548,-0.00014329348629689775,-0.008305471530556678
1746481799858876000,3.3198759765625,-0.009108020085096358,-0.0072447766466182655,-0.020030396115779874
1746481799868872000,3.329871826171875,-0.036219314372539516,0.0017999735104967838,-0.011867547926306723
1746481799878868700,3.33986865234375,-0.016338555860519407,-0.004197272451681783,-0.018085984049737453
1746481799888865000,3.349864990234375,-0.019949732095003128,-0.003664886032964568,-0.029998832422494886
1746481799898861000,3.359861083984375,-0.029849779340624806,-0.009144097187119768,-0.034113866525888444
1746481799908857900,3.36985791015625,-0.013734510841965674,-0.0065143343470641405,-0.019312018713355063
1746481799918854000,3.37985400390625,-0.02032733323574066,-0.014323622141801752,-0.009258242210745811
1746481799928850000,3.389849853515625,-0.033064649733901025,-0.015932197841111335,-0.02431698739379644
1746481799938846200,3.39984619140625,-0.030249592313170433,0.0032315589498844925,-0.019891572166979312
1746481799948842200,3.40984228515625,-0.02203063002228737,-0.010317668727849377,-0.03212853792756796
1746481799958838300,3.41983837890625,-0.01780161415040493,-0.009686891977064079,-0.029704817911982536
1746481799968835000,3.4298349609375,-0.021097148564457893,-0.01519337130570202,-0.03193944509625435
1746481799978831400,3.439831298828125,-0.023643325915932652,-0.0035366188691521526,-0.02235503967106342
1746481799988827100,3.4498271484375,-0.017244564789533613,-0.0081698270611756,-0.028679566517472267
1746481799998824200,3.45982421875,-0.03369651789665222,-0.012743293006153544,-0.024065642981231213
1746481800008820200,3.4698203125,-0.016347908210754394,-0.0007798869148711674,-0.0220902512550354
1746481800018816300,3.479816162109375,-0.021895605465769765,-0.013540604838216676,-0.009487082530558109
1746481800028813000,3.48981298828125,-0.024629414343833922,-0.007354610821307869,-0.018044190734624863
1746481800038809300,3.499809326171875,-0.028086276799440382,-0.01600950542759965,-0.02338467497974634
1746481800048805000,3.50980517578125,-0.020023381853103636,-0.016988259932416257,-0.020487784494459628
1746481800058802200,3.51980224609375,-0.02197919209599495,-0.013983627906470791,-0.012376374231278896
1746481800068798200,3.529798095703125,-0.020961539486050604,-0.01875939094091882,-0.01602642117142677
1746481800078794200,3.539794189453125,-0.01783084024488926,-0.01645724805345526,-0.028560324051976203
1746481800088791000,3.549791015625,-0.022615736433863637,-0.003640092943358468,-0.021685762107372282
1746481800098787300,3.559787353515625,-0.03218319072425365,-0.010111220619647065,-0.01946983962357044
1746481800108783400,3.569783447265625,-0.03146422879993915,-0.006094087082910119,-0.0276104759812355
1746481800118780200,3.5797802734375,-0.033711130943894385,-0.008116958654555492,-0.017577742266654966
1746481800128776200,3.589776123046875,-0.03148994776308536,-0.008074052236235002,-0.013016425700485706
1746481800138772200,3.599772216796875,-0.009378653720021248,0.0009265870678063947,-0.01754939295500517
1746481800148769000,3.60976904296875,-0.006698620855808257,0.004681873064272804,-0.006284194836020469
1746481800158765300,3.619765380859375,-0.03528291030526161,-0.0018584542405733371,-0.02303396184593439
1746481800168761300,3.62976123046875,-0.04666004436612129,-0.019359232555679045,-0.029303543634712693
1746481800178758100,3.639758056640625,-0.01646656615436077,-0.00794543687090627,-0.008402209903299807
1746481800188754400,3.64975439453125,-0.00021218144595623015,0.0056144651811802756,-0.02095131035298109
1746481800198750200,3.659750244140625,-0.031004210072755813,-0.007949974907061551,-0.038410686936974525
1746481800208747300,3.669747314453125,-0.043375031346082685,-0.023374607960169668,-0.030030104343593118
1746481800218743300,3.679743408203125,0.00011982698738574981,-0.019347601483389733,-0.015365034653246401
1746481800228739300,3.6897392578125,-0.0066606269329786295,0.012142492410168052,-0.003999591030180454
1746481800238736100,3.699736083984375,-0.03628478082418442,-0.004008804099808912,-0.0299003404840827
1746481800248732400,3.709732421875,-0.022064532291889188,-0.018330170352442655,-0.028117548720538614
1746481800258728200,3.719728271484375,-0.014912322449684143,0.010450050377775914,0.000555003534257412
1746481800268725200,3.729725341796875,-0.031159692895412445,0.00038252162773860614,-0.013697101441025733
1746481800278721300,3.73972119140625,-0.04387304399609566,-0.021210630292736458,-0.03855418706089258
1746481800288717300,3.74971728515625,-0.02053425398468971,-0.017285931129672097,-0.016842705990374088
1746481800298714000,3.759714111328125,-0.022076807251572607,0.014184688595146872,-0.00024228432327508926
1746481800308710400,3.76971044921875,-0.03453881393969059,-0.007692786417243769,-0.026598960851132867
1746481800318706200,3.7797060546875,-0.0068862523823976516,-0.02040830093390541,-0.030246085181832312
1746481800328703200,3.789703125,-0.014391513445973395,-0.0016564117377856746,0.0007993336841464042
1746481800338699000,3.799698974609375,-0.03535480649769306,0.002499824308964889,-0.020256898348033427
1746481800348695300,3.8096953125,-0.025024551141262053,-0.006513587711681612,-0.02476239307373762
1746481800358692000,3.819692138671875,-0.014119126245379447,-0.02302825362435542,-0.026353753918409346
1746481800368688000,3.829688232421875,-0.02581073308289051,0.006877244808746036,-0.017915011397004126
1746481800378684200,3.83968408203125,-0.03585223462581634,0.0037605090192111674,-0.013227438102662562
1746481800388681200,3.84968115234375,-0.03645487669408321,-0.015490986562386387,-0.023240005812048912
1746481800398677000,3.859677001953125,-0.038116087904572486,-0.0020375588257680647,-0.010324994659423827
1746481800408673300,3.86967333984375,-0.021365444111824033,0.007887924255209509,-0.007304185533523559
1746481800418670000,3.879670166015625,-0.02046411135792732,-0.011588002615852747,-0.026319267126917838
1746481800428666000,3.889666015625,-0.030779169145226475,-0.013543924739887006,-0.02814619029313326
1746481800438662400,3.899662353515625,-0.030227965003252026,0.0008708188846241682,-0.006752396869659423
1746481800448659200,3.9096591796875,-0.03205284234285354,0.003887077416281681,-0.010555004023015499
1746481800458655200,3.9196552734375,-0.02845803272128105,-0.0024802108596195466,-0.028372400264441964
1746481800468651300,3.9296513671875,-0.015147884771227835,-0.011105483220849418,-0.025804011081159112
1746481800478648000,3.93964794921875,-0.03085574151277542,-0.006991480022273026,-0.01175181259214878
1746481800488644000,3.94964404296875,-0.03699731300771236,-0.011021441074542235,-0.0015548282265663146
1746481800498640400,3.959640380859375,-0.027158640560507773,-0.003643611491139745,-0.013113456334173679
1746481800508637200,3.96963720703125,-0.014307926815748214,-0.004249073420866625,-0.017399170829355715
1746481800518633200,3.97963330078125,-0.025838790133595465,-0.007399939808866474,-0.016921908706426618
1746481800528629200,3.989629150390625,-0.01729658723771572,-0.012645145844324725,-0.015016659606993197
1746481800538626300,3.999626220703125,-0.02898527146577835,-0.004613114110421156,-0.01182370878458023
1746481800548622000,4.0096220703125,-0.03155892134606838,-0.009110865062731318,-0.0126288876876235
1746481800558618400,4.019618408203125,-0.018834464329481125,-0.010044684447278268,-0.02581453247517347
1746481800568615200,4.029615234375,-0.01790390548110008,0.00009555448758765123,-0.017683832989633084
1746481800578611200,4.039611083984375,-0.026846505871415138,-0.0013556900669180322,-0.015846388429403304
1746481800588608300,4.049608154296875,-0.021478256836533545,-0.01378294738535187,-0.013096212938427925
1746481800598604300,4.059604248046875,-0.011911387068033217,-0.005561640157044166,-0.03521218315660953
1746481800608600000,4.06960009765625,-0.029869068562984463,-0.015571402846346609,-0.02832505399137735
1746481800618597400,4.079597412109375,-0.02285480588674545,-0.003165245398157276,-0.016895312960445878
1746481800628593200,4.08959326171875,-0.01960311061441898,-0.005976954376109642,-0.018418284744024276
1746481800638589200,4.099589111328125,-0.028906945532560346,-0.006682128662022296,-0.015044716657698154
1746481800648586200,4.109586181640625,-0.03520341532826424,-0.00988707816619426,-0.02294160738736391
1746481800658582300,4.119582275390625,-0.01651975764632225,-0.005597689859603997,-0.015396598835289477
1746481800668578000,4.129578125,-0.011295885518193244,0.0043130945508077275,-0.017150456765294073
1746481800678575400,4.139575439453125,-0.031819618108868596,-0.014093883347912924,-0.02441167993992567
1746481800688571100,4.149571044921875,-0.019710662642121315,-0.026867461894475853,-0.010908347505331038
1746481800698567200,4.159567138671875,-0.023613515299558636,-0.012703058035532011,-0.013114040856063365
1746481800708564200,4.169564208984375,-0.02272504202723503,-0.01241252097360557,-0.024159751005470752
1746481800718560300,4.179560302734375,-0.009518938973546028,-0.009368456552992574,-0.025621932512521744
1746481800728556000,4.18955615234375,-0.026293548163771628,-0.011247873666492523,-0.03440349712222814
1746481800738552300,4.19955224609375,-0.02496025373339653,-0.013285846909147222,-0.01954875007867813
1746481800748549000,4.209549072265625,-0.030669863551855085,0.006771659834199817,-0.005858955161273479
1746481800758545200,4.219545166015625,-0.03858662802577018,-0.0027582389247778334,-0.009195406107604503
1746481800768542200,4.229542236328125,-0.03991173914968967,-0.013533168167143594,-0.020929975304007527
1746481800778538200,4.239538330078125,-0.02434182957410812,-0.014128605318133486,-0.006589607523381709
1746481800788534300,4.2495341796875,-0.027523382219672203,-0.006167664917418733,-0.0241270177796483
1746481800798531300,4.25953125,-0.02603811209797859,0.0027336867221223653,-0.034117081396281716
1746481800808527000,4.269527099609375,-0.017795184409618376,-0.01227727037151344,-0.017246902877092362
1746481800818523100,4.279523193359375,-0.018252280527353285,0.0022452216435223816,-0.010041209281980991
1746481800828520200,4.289520263671875,-0.025416765329241753,0.0025340359641762913,-0.01982230632305145
1746481800838516200,4.29951611328125,-0.02662321850955486,-0.007992738619842565,-0.018894670084118843
1746481800848512300,4.30951220703125,-0.016024083083868025,-0.01839955150244641,-0.011935936987400054
1746481800858509300,4.31950927734375,-0.022767712125182152,-0.017150638286740284,-0.01744213318824768
1746481800868505300,4.32950537109375,-0.029528876823186872,0.0016564105961413588,-0.023342589403688906
1746481800878501000,4.339501220703125,-0.01920855833888054,-0.005873525967675959,-0.01584609616845846
1746481800888498400,4.34949853515625,-0.01878945614397526,-0.017235517258330946,-0.013361878137290477
1746481800898494200,4.359494140625,-0.017305939587950705,-0.0015313331865472717,-0.011975976736843585
1746481800908490200,4.369490234375,-0.020461188748478888,-0.006565969777823193,-0.012684417267143725
1746481800918487300,4.3794873046875,-0.021081950995326042,-0.002432782388164196,-0.015757833363115786
1746481800928483300,4.3894833984375,-0.01944412066042423,-0.0017145956403401214,-0.01662994002252817
1746481800938480400,4.39948046875,-0.037111294776201245,-0.010247236123430774,-0.021837737798690793
1746481800948477200,4.409477294921875,-0.023968320086598396,-0.007093270171113545,-0.01607405970543623
1746481800958473200,4.41947314453125,-0.016489947029948233,-0.0060855578582268205,-0.012323767261207102
1746481800968469200,4.42946923828125,-0.03699614396393299,-0.0027503935450396964,-0.023079846814274788
1746481800978466300,4.43946630859375,-0.02535539053082466,0.0044562818641832565,-0.007423135738074779
1746481800988462300,4.44946240234375,-0.001418050104379654,-0.0018475252795382402,0.000372048182785511
1746481800998458000,4.4594580078125,-0.02325052720606327,-0.0036380642414093017,-0.011642799259722232
1746481801008455200,4.469455078125,-0.033283260920643806,-0.008435088117950363,-0.018354864118993282
1746481801018451200,4.479451171875,-0.026256723284721374,-0.005820621028437744,-0.01818535277098417
1746481801028447200,4.489447265625,-0.01760638383924961,-0.004735646794835338,0.0019514263287186621
1746481801038444300,4.4994443359375,-0.021025836893916128,-0.005850045769033022,-0.01681903285384178
1746481801048440300,4.5094404296875,-0.023845570489764212,-0.02039180874011945,-0.011953472644090652
1746481801058436000,4.51943603515625,-0.018920389047265052,-0.016333703872177283,-0.015205752438306807
1746481801068433400,4.529433349609375,-0.030604981622099875,-0.0015660471652576232,-0.009179916277527808
1746481801078429200,4.53942919921875,-0.03493278169333935,-0.006806271064921748,-0.014902970099449157
1746481801088425200,4.54942529296875,-0.024613047730922696,-0.01162091622147709,-0.013988193342089653
1746481801098422300,4.55942236328125,-0.023148235875368118,-0.004631485450750915,-0.010302490566670893
1746481801108418300,4.569418212890625,-0.01777589518725872,0.001254418224596884,-0.016243278792500496
1746481801118414000,4.5794140625,-0.04351765468716621,0.0012244911605026572,-0.01937222446799278
1746481801128411400,4.589411376953125,-0.01956570121347904,-0.010806816509750206,-0.02030073748975992
1746481801138407200,4.5994072265625,-0.023319500789046287,-0.002395599032798782,-0.019660978281497953
1746481801148403200,4.6094033203125,-0.036787469649314876,-0.007870300691906595,-0.017713351345062255
1746481801158400300,4.619400146484375,-0.02210720238983631,-0.006556577470037154,-0.014171733215451239
1746481801168396300,4.629396240234375,-0.02584989604949951,-0.0060851879654685035,-0.00937806919813156
1746481801178392000,4.63939208984375,-0.03620119419395924,-0.005797481039800914,-0.011243570809066294
1746481801188389400,4.649389404296875,-0.021371873852610586,-0.0020467399293556806,-0.012486556607484817
1746481801198385200,4.65938525390625,-0.02943009262382984,-0.0008666518828715197,-0.012404723542928695
1746481801208381200,4.669381103515625,-0.03526420560479164,-0.012211155465897171,-0.006723463036119938
1746481801218378200,4.679378173828125,-0.031105916881561276,-0.0013721948187914675,-0.019944179137051106
1746481801228374300,4.689374267578125,-0.02826981667280197,0.004353622924018418,-0.019025602987408637
1746481801238370300,4.699370361328125,-0.03020166151821613,-0.005384355352888815,-0.019964637403190134
1746481801248367400,4.709367431640625,-0.021953473132848737,-0.00982347716136137,-0.013137713992595671
1746481801258363100,4.719363037109375,-0.032145781323313714,-0.00496507506147027,-0.02700228095501661
1746481801268359200,4.729359130859375,-0.020310966622829437,-0.0006706897777097765,-0.014174948085844515
1746481801278356200,4.739356201171875,-0.03539104685485363,-0.008009456859203056,-0.018315408891439438
1746481801288352300,4.749352294921875,-0.030461773759126662,-0.009189035732322373,-0.011854103922843933
1746481801298348300,4.759348388671875,-0.02671440392434597,-0.0019427783730265218,-0.017858897295594214
1746481801308345300,4.769345458984375,-0.018794716840982436,0.006211206089978804,-0.011989420740306376
1746481801318341400,4.77934130859375,-0.015218611919879912,0.0027290516462002415,-0.01074701946377754
1746481801328337200,4.789337158203125,-0.027066286101937294,-0.01054004734083428,-0.021140987706184385
1746481801338334200,4.799334228515625,-0.030823592808842656,-0.010549527555232634,-0.015853402692079542
1746481801348330200,4.809330322265625,-0.023036007672548292,-0.014161617105168988,-0.01826777035742998
1746481801358326300,4.819326171875,-0.031138650107383727,-0.016619137784012125,-0.00967003788203001
1746481801368323300,4.8293232421875,-0.025621932512521744,-0.011653160823532379,-0.017989537937939167
1746481801378319400,4.8393193359375,-0.020112229180336,-0.0166879492535023,-0.01057546228915453
1746481801388315100,4.849315185546875,-0.03346387818455696,-0.005856894493283471,-0.014364040917158125
1746481801398312400,4.8593125,-0.03242167565524578,-0.0027076983309176285,-0.013000643609464168
1746481801408308200,4.86930810546875,-0.01956102503836155,-0.0070576634265482425,-0.014321955341100692
1746481801418304300,4.87930419921875,-0.03361410031020641,0.000053575084451586005,-0.012116846512258053
1746481801428301300,4.88930126953125,-0.025398645150661467,-0.002792681192141026,-0.009826982009410857
1746481801438297300,4.89929736328125,-0.03425415177941322,0.009182769246672978,-0.014534429048001766
1746481801448293000,4.909293212890625,-0.03709668172895908,-0.014412072176812216,-0.014236322884261608
1746481801458290400,4.91929052734375,-0.026321020692586898,-0.01714442089179647,-0.00840425572991371
1746481801468286200,4.9292861328125,-0.021815525966882705,-0.015446795794210629,-0.014290975680947303
1746481801478282200,4.9392822265625,-0.03485562480390072,-0.020742051516473292,-0.02080751796811819
1746481801488279300,4.949279296875,-0.03429623735547065,-0.009986305323545821,-0.017099018839001653
1746481801498275300,4.959275390625,-0.025609657552838325,0.0011406430937291588,-0.0032049335211515426
1746481801508271000,4.96927099609375,-0.03131576023995876,-0.007749155105336103,-0.015714286482334135
1746481801518268400,4.979268310546875,-0.030883798563480374,-0.008316972455393989,-0.008331482754647731
1746481801528264200,4.98926416015625,-0.014280454286932944,0.00014042910070857033,-0.01938362264484167
1746481801538260200,4.99926025390625,-0.03104571112692356,-0.002184030649840133,-0.01906681178063154
1746481801548257300,5.00925732421875,-0.017862404426932335,-0.007382458951103035,-0.012380465884506702
1746481801558253300,5.01925341796875,-0.022931378254294393,-0.002898971702874405,-0.015128887809813021
1746481801568249300,5.029249267578125,-0.024240707287192343,-0.006349694395350524,-0.01883592563420534
1746481801578246400,5.039246337890625,-0.03472352285683155,0.0017966284926515072,-0.012374328404664993
1746481801588242200,5.0492421875,-0.021417466560006142,-0.0052333649006148335,-0.019670915153622626
1746481801598238200,5.05923828125,-0.032031799554824825,-0.014988724712230032,-0.013418284499645232
1746481801608235300,5.0692353515625,-0.01857376756668091,0.0013835199304041452,-0.00770195267945528
1746481801618231300,5.079231201171875,-0.02996025397777557,-0.005930064760771347,-0.03175093678683042
1746481801628227300,5.089227294921875,-0.03532207327187061,-0.012571730123308951,-0.028235037620365618
1746481801638224400,5.099224365234375,-0.03367372154295444,0.0007931277056457475,-0.012530103488266468
1746481801648220400,5.109220458984375,-0.036516836014389986,-0.004858802817045944,-0.004450257407128811
1746481801658216200,5.11921630859375,-0.026321605214476584,-0.007099577755958307,-0.026358137832581997
1746481801668213200,5.129213134765625,-0.017478373545408248,-0.01091092876312905,-0.014581190799176693
1746481801678209300,5.139209228515625,-0.02763151876926422,-0.008936212890368188,-0.011954933948814868
1746481801688205300,5.149205322265625,-0.03181318836808204,-0.012124912229349137,-0.025746727935969826
1746481801698202400,5.159202392578125,-0.02002455089688301,-0.010677624614041996,-0.017267653404176235
1746481801708198400,5.169198486328125,-0.027048750445246694,-0.014574024697806453,-0.011458090342581271
1746481801718194200,5.179194091796875,-0.02474573419988155,-0.014017809878929983,-0.011634031431376934
1746481801728191500,5.18919140625,0.011570026284456253,-0.009949224716168827,-0.016586977663636208
1746481801738187300,5.199187255859375,-0.02080664118528366,-0.009918521333939861,-0.01193476794362068
1746481801748183300,5.209183349609375,-0.0334708924472332,-0.0037124560683150774,-0.0007283142745494843
1746481801758180000,5.21918017578125,-0.021772271347045898,-0.0003903578743222169,-0.004101590099930763
1746481801768176400,5.22917626953125,-0.03058686144351959,0.0013798369858413933,-0.014467501291632651
1746481801778172200,5.239172119140625,-0.037004911792278286,-0.0013521327032300177,-0.023944354689121244
1746481801788169200,5.249169189453125,-0.023925065466761587,-0.005780152020731475,-0.025775954030454157
1746481801798165200,5.259165283203125,-0.016049802047014235,-0.006363470617309212,-0.014988602556288241
1746481801808161300,5.269161376953125,-0.02798690807819366,-0.002656763869768474,-0.0026698037311434744
1746481801818158000,5.279157958984375,-0.029122634109854696,0.002023500617663376,0.0019303835406899452
1746481801828154400,5.289154296875,-0.027249825975298878,0.0020826846006384583,-0.021796529005467892
1746481801838150100,5.299150146484375,-0.029913492226600644,0.0013428203105460852,-0.01649959164112806
1746481801848147200,5.309147216796875,-0.01981061588525772,-0.005948379018885316,-0.02361556112617254
1746481801858143200,5.319143310546875,-0.026174305698275564,-0.008358891351381317,-0.02203618298023939
1746481801868139300,5.32913916015625,-0.026689269483089445,-0.007217632911365944,-0.015407704751193522
1746481801878136000,5.339135986328125,-0.004720598781108856,0.0013178479827824047,-0.0231076116040349
1746481801888132400,5.34913232421875,-0.028842063602805137,-0.008171278661923133,-0.016289456021785734
1746481801898128400,5.35912841796875,-0.03665945935547352,-0.010768598824634682,-0.018879472514986992
1746481801908125200,5.369125244140625,-0.014099252501130104,-0.00940600295125041,-0.014588789583742618
1746481801918121200,5.379121337890625,-0.011676993790268897,-0.0012493361949251266,-0.019318156193196774
1746481801928117200,5.3891171875,-0.03152677264213562,-0.0015588336856482783,-0.019633505752682686
1746481801938113300,5.39911328125,-0.025925883895158767,-0.01893819869859144,-0.010258943685889244
1746481801948109000,5.409109130859375,-0.01617196712195873,-0.016280085405241698,-0.003465338023006916
1746481801958105300,5.419105224609375,-0.026628479206562042,-0.023776786419737617,0.005008475811779499
1746481801968102100,5.42910205078125,-0.035375849285721774,-0.01866530460792128,0.007162438975274563
1746481801978098200,5.43909814453125,-0.03066752546429634,-0.012499932112288661,-0.009950900650024413
1746481801988094200,5.44909423828125,-0.028465046983957288,0.0025089922836428738,-0.018202596166729926
1746481801998090200,5.45909033203125,-0.008415946167707442,0.010831144950119777,-0.019091361699998376
1746481802008087000,5.469087158203125,-0.022007249146699905,-0.000032909039047081025,-0.023060265330970286
1746481802018083300,5.479083251953125,-0.010739420679211615,-0.006320814789916039,-0.030230303090810776
1746481802028079400,5.489079345703125,-0.024282792863249778,0.0004794911834556842,-0.006662088237702846
1746481802038076200,5.499076171875,-0.03049275341928005,-0.006400032918166834,-0.00823649794757366
1746481802048072400,5.509072509765625,-0.02369710192978382,-0.015822749542200473,-0.013959259508550165
1746481802058068200,5.519068115234375,-0.023475568133592604,-0.008340657008369452,-0.008640987095236778
1746481802068065300,5.529065185546875,-0.02007248169183731,0.0008125493587460369,-0.01975479404479265
1746481802078061300,5.539061279296875,-0.035624855610728264,0.011020621373923494,-0.03041559652984142
1746481802088057300,5.549057373046875,-0.016380056914687156,0.02124752367044566,-0.03788227914869785
1746481802098054100,5.55905419921875,-0.03493102812767029,0.007722310480894521,-0.028782734631001946
1746481802108050400,5.569050537109375,-0.02464870356619358,0.0004795165850417106,-0.0005354220509529113
1746481802118046200,5.579046142578125,-0.014451719200611113,-0.02300013264156878,-0.0028545126482844353
1746481802128043300,5.589043212890625,-0.026309914776682854,-0.025499132683337665,0.003986147026717663
1746481802138039300,5.599039306640625,-0.03788111010491848,-0.0356752249579411,0.006820493669807911
1746481802148035300,5.609035400390625,-0.023783026647567748,-0.028574701920489314,0.0017845453292131422
1746481802158032100,5.6190322265625,-0.020257775130867958,-0.01043274989981437,0.0019859131202101706
1746481802168028400,5.6290283203125,-0.03410626774132251,0.00817421382945904,-0.013477321210503577
1746481802178024200,5.639024169921875,-0.0289046074450016,0.01891804639312904,-0.041350247520208355
1746481802188021200,5.649021240234375,-0.0333662630289793,0.021147138885757883,-0.03335311128646135
1746481802198017300,5.659017333984375,-0.02056874077618122,0.004717407599835133,-0.006657412062585353
1746481802208013300,5.669013427734375,-0.021518004325032234,-0.02571344900416443,-0.01084814175069332
1746481802218010000,5.679010009765625,-0.009041384589672088,-0.014721240873972419,-0.013115502160787582
1746481802228006400,5.68900634765625,-0.01900456019937992,-0.006438234620261937,-0.010016074840724467
1746481802238002200,5.699002197265625,-0.03224456552267074,-0.020520743765856605,-0.007111293309926986
1746481802247999200,5.708999267578125,-0.021392916640639303,-0.009589953816565685,-0.014531506438553332
1746481802257995300,5.718995361328125,-0.02553308518528938,0.0011372445613065793,-0.016029928302764892
1746481802267991300,5.7289912109375,-0.03664659987390041,-0.010361216750275343,-0.012473112604022025
1746481802277988000,5.738988037109375,-0.03128945675492287,-0.006698743011750048,-0.029151275682449337
1746481802287984400,5.748984375,-0.021965748092532156,-0.008074651599500793,-0.029450843150913713
1746481802297980400,5.75898046875,-0.014282207852602005,-0.023971210730005986,-0.01929506757855415
1746481802307977200,5.768977294921875,-0.03316401845514774,-0.020069486017152666,0.021332710886001586
1746481802317973200,5.77897314453125,-0.034683775368332864,-0.009707390200754161,0.024097791685163975
1746481802327969300,5.78896923828125,-0.021018238109350204,0.011181590939161833,0.013930617935955524
1746481802337966000,5.798966064453125,-0.02112637465894222,-0.0014680741041869622,0.0009396189376711844
1746481802347962000,5.808962158203125,-0.01964285810291767,-0.00036889610282960346,-0.021916063731908797
1746481802357958400,5.81895849609375,-0.01615676955282688,0.011094198066787794,-0.037168870182335376
1746481802367955200,5.828955078125,-0.024559856238961217,0.013145699794584652,-0.059254737523198125
1746481802377951200,5.838951171875,-0.04196925620138645,0.010322336911456658,-0.04460457314103842
1746481802387947300,5.848947265625,-0.04795534487366676,0.0006503422510693781,-0.015445406413078308
1746481802397944300,5.8589443359375,-0.015782675543427466,0.0071047174386680125,0.002635316939651966
1746481802407940000,5.868940185546875,-0.02051905641555786,0.005132620497967582,0.01922200234234333
1746481802417936400,5.878936279296875,-0.03209492791891098,-0.007438472587813157,0.016679332122206687
1746481802427933200,5.88893310546875,-0.04076747919619083,-0.020933813512197228,-0.011029343536496162
1746481802437929200,5.89892919921875,-0.014440613284707068,-0.010888113001477904,-0.016693652908504008
1746481802447925200,5.90892529296875,-0.033254619348049165,-0.018445868012338176,-0.033280630572140216
1746481802457922300,5.91892236328125,-0.034684944412112236,-0.02464718289596494,-0.02525689859241247
1746481802467918000,5.92891796875,-0.0215326173722744,-0.020570807152392807,-0.002763619494438171
1746481802477914400,5.938914306640625,-0.025129180559515952,-0.0024807611321797595,0.015666355687379837
1746481802487911200,5.9489111328125,-0.03159516170322895,0.011361340553394984,0.004697802427411079
1746481802497907200,5.9589072265625,-0.028409517404437062,0.01151168369334191,-0.01981879919171333
1746481802507903200,5.9689033203125,-0.012394202148914336,-0.004942614351201337,-0.026719372360408306
1746481802517900300,5.978900390625,-0.028313071292638776,0.006849959509598556,-0.036434126166999335
1746481802527896000,5.98889599609375,-0.022816811963915825,-0.0027558083640295077,-0.01971475429534912
1746481802537892400,5.998892333984375,-0.041266076368093485,0.00687753935297951,-0.009270809431374073
1746481802547889200,6.00888916015625,-0.030603228056430815,0.0210170667822822,-0.03200081989467144
1746481802557885200,6.01888525390625,-0.04470423412322998,0.015921022284904027,-0.025635668776929375
1746481802567881500,6.028881591796875,-0.02745674672424793,0.008043735871429088,-0.012170330265164375
1746481802577878300,6.038878173828125,-0.022431612038612363,0.029197955235233528,-0.016962532977759837
1746481802587874000,6.0488740234375,-0.026306407645344733,0.008728074006934185,-0.013770166677236555
1746481802597870300,6.058870361328125,-0.17883622571527957,0.05687272405775729,-0.07849836717545985
1746481802607867100,6.0688671875,-0.23841069671213624,-0.08377206066153012,-0.2439765141457319
1746481802617863200,6.07886328125,1.0886270113557577,0.08428207427659072,-0.12493687774538993
1746481802627859500,6.088859375,0.40147418375611305,-0.15073979284800587,0.2893184616506099
1746481802637856300,6.098856201171875,-0.7194546762675047,-0.4919175480082631,0.31900048320889474
1746481802647852300,6.108852294921875,-0.9527794480174779,-0.20384758858140556,0.11953969487696885
