time,seconds_elapsed,z,y,x
1746483128189804300,0.48680419921875,-0.44869420009255406,-0.092337361305207,-0.14789813968129456
1746483128199801300,0.49680126953125,-0.4149351383537054,-0.06299363179057836,-0.1523141660252586
1746483128209798400,0.50679833984375,-0.38643677362203593,-0.062138768526911733,-0.11336067744847386
1746483128219795500,0.51679541015625,-0.36259938643872736,-0.044769846705347296,-0.05277892910521477
1746483128229792300,0.526792236328125,-0.3329360695809126,0.016961363933980463,-0.03582417757511139
1746483128239788500,0.53678857421875,-0.25889818894565103,0.06406812915429473,-0.017887063944153486
1746483128249785300,0.546785400390625,-0.15544833586513995,0.07985445795953273,-0.013840090108290314
1746483128259782400,0.556782470703125,-0.030469372543692586,0.08081979586035012,-0.029948600072599946
1746483128269779500,0.566779541015625,0.10532032312750816,0.06923427974581718,-0.06481087381299584
1746483128279776300,0.5767763671875,0.17043255450725556,0.0026309330254793164,-0.030541122605651616
1746483128289773600,0.586773681640625,0.12971417514979838,-0.08034311825931072,0.02746854675989598
1746483128299770400,0.596770263671875,0.030295185020565985,-0.05503375882729888,0.004575198961049318
1746483128309767400,0.606767333984375,-0.04683949258625507,0.010013882883638144,-0.06297843422144651
1746483128319764500,0.616764404296875,-0.07414426361918448,0.07000336442217231,-0.1470950796701014
1746483128329761500,0.626761474609375,-0.10127835426032543,0.11222221147045493,-0.16938030550796537
1746483128339758300,0.63675830078125,-0.1376777013748884,0.11703048853501677,-0.13932601657118648
1746483128349755600,0.646755615234375,-0.17093699689805505,0.09681479898020624,-0.16617431254088877
1746483128359752400,0.65675244140625,-0.1376268479704857,0.08743702204301952,-0.20375717035159469
1746483128369748500,0.66674853515625,-0.06615911008417606,0.04139657087996602,-0.22262586574424056
1746483128379745500,0.67674560546875,0.0007879355072975159,-0.0017154256157577037,-0.18691647365521638
1746483128389742300,0.686742431640625,0.03588613689541816,-0.010527823755145072,-0.16898294022083282
1746483128399739400,0.696739501953125,0.05259352606832981,0.008579612296819687,-0.12734309863690285
1746483128409736400,0.706736328125,0.091092475810647,0.022100480388104915,-0.10550415526181459
1746483128419733500,0.7167333984375,0.12382511711120604,0.026634324425458905,-0.07509228505901992
1746483128429730300,0.726730224609375,0.14608897136747837,0.01704275860711932,-0.03275116333793848
1746483128439727600,0.7367275390625,0.09348960008025169,0.026503683783113956,-0.012682992495037614
1746483128449724400,0.746724365234375,-0.008790040177106856,-0.005498012894392014,-0.017045096694678068
1746483128459721200,0.75672119140625,-0.1411725577533245,-0.055882046219706535,-0.022251104372553527
1746483128469718500,0.766718505859375,-0.21763971136212348,-0.09716229724362492,0.002959178599156439
1746483128479715300,0.77671533203125,-0.22682021216154097,-0.08859101438373326,0.013874796095490454
1746483128489712400,0.78671240234375,-0.194764447209239,-0.0667075377471745,0.05182688907738775
1746483128499709400,0.79670947265625,-0.15028993018865586,-0.0030384909130632878,0.12172723151650279
1746483128509705500,0.80670556640625,-0.10204407793581485,0.034274025523662564,0.16399963538292794
1746483128519702500,0.81670263671875,-0.09512275424003601,0.0598790069013834,0.16938001324702054
1746483128529699300,0.82669921875,-0.06248188287615776,0.05014364869818091,0.13759305529873816
1746483128539696400,0.8366962890625,-0.014148352339863775,0.00928659152239561,0.15671126847304404
1746483128549693400,0.846693359375,0.044317865154147144,-0.006315174496173858,0.18425072504468262
1746483128559690500,0.8566904296875,0.0309480959713459,0.04940305946394801,0.19323840668573974
1746483128569687300,0.866687255859375,-0.0766881028831005,0.09924261064901947,0.21702559805177152
1746483128579684600,0.8766845703125,-0.22149580226838586,0.1437501531563699,0.1544387204311788
1746483128589681400,0.886681396484375,-0.27381635661423204,0.13958280434384943,0.06840305308606476
1746483128599677700,0.896677734375,-0.19785656800568102,0.11361045095846056,0.02057765473499894
1746483128609674800,0.9066748046875,-0.029992402681708333,0.09800430102571844,0.012499379556439816
1746483128619671800,0.916671875,0.22136486936509608,0.05836553359851241,0.0312788622956723
1746483128629667800,0.926667724609375,0.40930268542468545,-0.008656038533896208,0.08612809486892074
1746483128639665000,0.936664794921875,0.47797407059073443,-0.06455883528068661,0.13906692724358288
1746483128649661700,0.94666162109375,0.39607086340785025,-0.06370557945221662,0.11622688053455203
1746483128659659000,0.956658935546875,0.2409317396223545,-0.06765022542476654,0.04396225664950907
1746483128669655800,0.96665576171875,0.10804244156777858,-0.05367036151960492,-0.041089989148825404
1746483128679652600,0.976652587890625,0.0628629911482334,-0.050693245404958724,-0.12789229348488151
1746483128689650000,0.98664990234375,0.06098842944800854,-0.04391381439790129,-0.1489514846591279
1746483128699646700,0.996646728515625,0.06233984405696392,-0.040936259891837835,-0.12239709360208362
1746483128709643800,1.006643798828125,0.04022913453578949,-0.04514832462891936,-0.11147192282611504
1746483128719640800,1.016640869140625,0.03229308083951473,-0.05847133206054568,-0.11460720691084861
1746483128729638000,1.026637939453125,-0.0182125330388546,-0.06499050469622016,-0.12502106716381386
1746483128739634700,1.036634765625,-0.04314297615587711,-0.03416223571226001,-0.18495520178591832
1746483128749632000,1.046632080078125,-0.002230535531044006,0.004393851044774055,-0.25048867251873014
1746483128759627800,1.056627685546875,0.0766185447782278,0.0543945841409266,-0.24977106230128554
1746483128769624800,1.066624755859375,0.12910685690641402,0.08044248698055743,-0.1948555230261758
1746483128779622000,1.076621826171875,0.14927520018815993,0.11151260189637541,-0.1702621298437938
1746483128789618700,1.08661865234375,0.1467407132744789,0.12407953026369213,-0.1421103135274723
1746483128799615700,1.09661572265625,0.13517828577458857,0.13486688173785805,-0.11345511426627636
1746483128809612800,1.10661279296875,0.07631050174236297,0.1368595168597996,-0.09155598340285942
1746483128819609900,1.11660986328125,-0.00737082102894783,0.14650266673490403,-0.055477100414317096
1746483128829606700,1.126606689453125,-0.0603144757091999,0.19715879499986766,-0.060383266629092394
1746483128839604000,1.13660400390625,-0.1287029522806406,0.24352000254988668,-0.1266140719763003
1746483128849600800,1.146600830078125,-0.1471335119843483,0.2210064113162458,-0.20001506121382115
1746483128859597800,1.156597900390625,-0.12727613434791565,0.16215280193984508,-0.3009907244668342
1746483128869595000,1.166594970703125,-0.06505144110321998,0.0849038503035903,-0.425133218697831
1746483128879591700,1.176591796875,-0.003963058412075043,-0.009831658184528351,-0.49839733848161993
1746483128889588000,1.186587890625,0.04936053549647331,-0.10816636020839214,-0.5431044586816802
1746483128899584800,1.196584716796875,0.07711772647202014,-0.1843815848827362,-0.5385780307658017
1746483128909581800,1.206581787109375,0.14844225649535656,-0.19679609916731713,-0.5543036423597485
1746483128919579000,1.216578857421875,0.21029402477443218,-0.14723974883779883,-0.5442727352760732
1746483128929576000,1.226575927734375,0.26338614801466464,-0.11298311284035444,-0.5033878402452916
1746483128939572700,1.23657275390625,0.2778326065182686,-0.08703209450393914,-0.40867008660957216
1746483128949569800,1.24656982421875,0.3017763766855001,-0.06329597573801875,-0.3411858654014766
1746483128959566800,1.25656689453125,0.27921967696249483,-0.062448126737028355,-0.2936951788974926
1746483128969563600,1.266563720703125,0.25334172386229037,-0.0697920597590506,-0.2963003016282804
1746483128979561000,1.27656103515625,0.19934943691194057,-0.11272943034023046,-0.33496253390721975
1746483128989557800,1.286557861328125,0.11440905399024486,-0.179149675578624,-0.3953190951924771
1746483128999554800,1.296554931640625,-0.005831190371513366,-0.2590174314111471,-0.4167383883833885
1746483129009552000,1.3065517578125,-0.12384791346490383,-0.31056188681796193,-0.40271179925967004
1746483129019547600,1.316547607421875,-0.21535656886100768,-0.31882439598962664,-0.3606572393950075
1746483129029544700,1.326544677734375,-0.2906657846063375,-0.24576588178053496,-0.3194767954837531
1746483129039541800,1.336541748046875,-0.32576515503823755,-0.1762367107413709,-0.2728959173010662
1746483129049538800,1.346538818359375,-0.3092529961764812,-0.13442074540555476,-0.2082200132456608
1746483129059535600,1.35653564453125,-0.2627805833369493,-0.15194602683261035,-0.16770745865860953
1746483129069533000,1.366532958984375,-0.20740999377071856,-0.19945275115594266,-0.12244261324424296
1746483129079529700,1.37652978515625,-0.15509470012187956,-0.27212387348264455,-0.08953193022934719
1746483129089526800,1.38652685546875,-0.12348083371818065,-0.304374576485157,-0.06667098686276003
1746483129099523800,1.39652392578125,-0.12651157971620558,-0.29367022711932655,-0.04558635072000324
1746483129109521000,1.40652099609375,-0.11076163739860057,-0.2475854984231293,-0.04985425556385889
1746483129119517700,1.416517578125,-0.10913199037015438,-0.20342443126589058,-0.08320891948658972
1746483129129514800,1.4265146484375,-0.13501345060169695,-0.17255816835910082,-0.06584357786159963
1746483129139510800,1.4365107421875,-0.1679471674323082,-0.16190642596334218,-0.04931695208307355
1746483129149507800,1.4465078125,-0.22333646169900892,-0.1472948400259018,-0.03261767315138131
1746483129159505000,1.4565048828125,-0.2909206361502409,-0.16269143886119125,-0.041102282374817875
1746483129169501700,1.466501708984375,-0.35386487584114074,-0.15502981819212436,-0.03722319418545812
1746483129179499000,1.4764990234375,-0.363107335960865,-0.14730696885511277,-0.07113353749588132
1746483129189495800,1.486495849609375,-0.3331669557273388,-0.1418780756741762,-0.05887383018052205
1746483129199492600,1.49649267578125,-0.2931096706271171,-0.11008052326664328,-0.07637978585259989
1746483129209490000,1.506489990234375,-0.20812135691046713,-0.06291925138011574,-0.08005182542884721
1746483129219486700,1.51648681640625,-0.1032183824121952,-0.03204100577458739,-0.10549027286693453
1746483129229483800,1.52648388671875,0.007338087803125381,0.004076601789146661,-0.11587088843742385
1746483129239480800,1.536480712890625,0.0645148500084877,0.007215192075818777,-0.09003940482744946
1746483129249478000,1.546477783203125,0.10590426049530506,-0.05335618100389838,-0.05344362182533368
1746483129259474000,1.556473876953125,0.0745621967703104,-0.09532733690142631,0.024270810164511204
1746483129269470700,1.566470703125,0.01865384706556797,-0.07338248546645045,0.026737620403151956
1746483129279467800,1.5764677734375,-0.057417000702023505,-0.018532558773458004,-0.014112696504592894
1746483129289464800,1.58646484375,-0.06638999623060227,0.010243307725340127,-0.07109441106189042
1746483129299462000,1.5964619140625,-0.019878420424461363,0.03958221493437886,-0.1484622763700783
1746483129309458700,1.606458740234375,0.030378771650791166,0.048113896436244245,-0.2607140609948896
1746483129319455700,1.616455810546875,0.1254261225670576,-0.016927900055795905,-0.35107034975178536
1746483129329452800,1.626452880859375,0.1816846008837223,-0.11066212254688143,-0.39090778155624867
1746483129339449900,1.636449951171875,0.10330898330509662,-0.08727394043579698,-0.447741794738546
1746483129349446700,1.64644677734375,-0.0007376666247844696,0.006151216106116772,-0.48250725704096253
1746483129359444000,1.65644384765625,-0.0733814625531435,0.1568440280072391,-0.5026540460780262
1746483129369440800,1.666440673828125,-0.1470715526640415,0.35168767793253064,-0.4650710056042298
1746483129379436800,1.676436767578125,-0.2699363003104925,0.5237221146784723,-0.4430335439823568
1746483129389433900,1.686433837890625,-0.42484336890578267,0.6060064301334321,-0.4504483137508854
1746483129399430700,1.6964306640625,-0.5614344440877437,0.5914835453927516,-0.4769709944954142
1746483129409428000,1.706427978515625,-0.626406974735856,0.4845942193828523,-0.6025272097155452
1746483129419424800,1.7164248046875,-0.7172557049185038,0.37164442429021,-0.76293185281381
1746483129429421800,1.726421875,-0.7833096010625362,0.28413024535775183,-0.9677661508776247
1746483129439419000,1.7364189453125,-0.8414064007222652,0.22595643493905662,-1.2080163379766047
1746483129449416000,1.746416015625,-0.9199959533125162,0.22752748364806175,-1.453129454936832
1746483129459412700,1.756412841796875,-1.0116858104944229,0.30817586846426126,-1.6881928870476781
1746483129469409800,1.766409912109375,-1.0967734929323196,0.4680538573399186,-1.9101994153171777
1746483129479406800,1.77640673828125,-1.091992688396573,0.6325659357570111,-2.1469325342059133
1746483129489403000,1.78640283203125,-1.0541811363965272,0.703238723873347,-2.345659893696755
1746483129499400000,1.79639990234375,-1.1029933903604745,0.6934032662965357,-2.4851924291580914
1746483129509396700,1.806396728515625,-1.1878794127464294,0.6968425930954516,-2.5848785457909105
1746483129519394000,1.81639404296875,-1.297693540161848,0.7843323682390153,-2.60781927639544
1746483129529390800,1.826390869140625,-1.3638456359833477,1.0288305681712926,-2.5970798557162285
1746483129539387600,1.8363876953125,-1.3058891215771435,1.2719359985709189,-2.523739017434418
1746483129549385000,1.846385009765625,-1.1576029324263333,1.4849449813924729,-2.4949334864497184
1746483129559381800,1.8563818359375,-1.0257038144528865,1.755810963768512,-2.497496614935994
1746483129569378800,1.86637890625,-1.0895692606419325,1.9710915447838604,-2.4959979008108375
1746483129579375600,1.876375732421875,-1.2482236990720033,2.1379699139408768,-2.4270412689626215
1746483129589373000,1.886373046875,-1.3784364713937043,2.216736138272285,-2.352223636126518
1746483129599369700,1.89636962890625,-1.4036971693783997,2.261703407245874,-2.2880356799848376
1746483129609365800,1.90636572265625,-1.2926497007757425,2.3241434968069195,-2.2880752813428638
1746483129619362600,1.916362548828125,-1.1610732388854026,2.4512346299767493,-2.360893849316239
1746483129629359600,1.926359619140625,-0.9693728554219007,2.5620056197255847,-2.4768548089236018
1746483129639356700,1.936356689453125,-0.7261229019850493,2.5908713564649224,-2.622735398237407
1746483129649353700,1.946353759765625,-0.5343874472081661,2.523362293076515,-2.7897274569019674
1746483129659350500,1.9563505859375,-0.4860632690221071,2.4341613301008937,-2.9400077424794433
1746483129669347800,1.966347900390625,-0.5832908865869045,2.5020909569889307,-3.004659370610118
1746483129679344600,1.9763447265625,-0.660997226601839,2.7182845611959694,-3.0350422339141367
1746483129689341700,1.986341796875,-0.6625345191717148,2.882733949640393,-2.9712758641853925
1746483129699338800,1.9963388671875,-0.6833510972291231,3.0003529055878517,-2.924444847166538
1746483129709335600,2.00633544921875,-0.7426198632776737,3.117743897998333,-2.9339912586688994
1746483129719332600,2.01633251953125,-0.7810767274439334,3.2002988470882174,-2.9576299084097144
1746483129729328600,2.02632861328125,-0.7893535574018955,3.3240514834851025,-2.9553952812254427
1746483129739325700,2.03632568359375,-0.8137094155013561,3.5480274121314284,-2.9762855090409515
1746483129749322800,2.04632275390625,-0.8267629583418369,3.7356264977559444,-2.921303918792307
1746483129759319800,2.05631982421875,-0.7313263158470392,3.8485774618923663,-2.823817065769434
1746483129769316600,2.066316650390625,-0.5901724627941847,3.961565835429728,-2.700812617391348
1746483129779313700,2.076313720703125,-0.34353578952848907,4.167676144778728,-2.6369240825876594
1746483129789310700,2.086310791015625,-0.12479659249186516,4.3888335088729855,-2.589725401300192
1746483129799307500,2.0963076171875,0.17618775703310965,4.515166224890947,-2.5796876991495488
1746483129809304800,2.106304931640625,0.5741296750098467,4.605892205476761,-2.563490305325389
1746483129819301600,2.116301513671875,0.8990431816548109,4.6482907930061215,-2.5775100628495213
1746483129829298700,2.126298583984375,1.1591641903936862,4.755456451739371,-2.543104812161624
1746483129839294700,2.136294677734375,1.5494196455210447,5.010214764401316,-2.5628216122835874
1746483129849291800,2.146291748046875,2.226110700339079,5.35122425032258,-2.7713395672962067
1746483129859288600,2.15628857421875,3.4896769299715755,5.573814862090349,-3.219005885645747
1746483129869285600,2.16628564453125,5.508261316683888,5.6396986623644825,-3.9015214088335632
1746483129879282700,2.17628271484375,7.690383822214603,5.602679722046852,-4.735843988774716
1746483129889279500,2.186279541015625,8.79326323080659,5.033227975720167,-4.758611408638954
1746483129899276800,2.19627685546875,8.897146799129247,3.6766634366557,-2.9177079401269554
1746483129909273600,2.206273681640625,9.120839819180965,3.203597596372664,-2.084072319536656
1746483129919270700,2.216270751953125,9.14063874462843,3.275239229521155,-2.137773514585942
1746483129929267700,2.226267822265625,9.167447841098904,3.22049290933311,-1.9835756171733139
1746483129939264800,2.2362646484375,9.187268393856286,3.176537740011513,-1.8596162061579524
1746483129949261600,2.246261474609375,9.212603910642862,3.16503610278815,-1.6962996211357413
1746483129959257600,2.256257568359375,9.230240105098485,3.1009479537591336,-1.5556505027346312
1746483129969254700,2.266254638671875,9.230710060697794,3.046695554567873,-1.3989219178006052
1746483129979251700,2.276251708984375,9.252119928473233,2.984822451239824,-1.2411616517312825
1746483129989248800,2.286248779296875,9.2465506039083,2.9202053099006413,-1.0766264846995472
1746483129999245600,2.29624560546875,9.226064865240454,2.867956067225337,-0.913578779746592
1746483130009243000,2.306242919921875,9.232192992731928,2.802046547988057,-0.7395050922580063
1746483130019239700,2.31623974609375,9.220798907536267,2.7228669205501674,-0.5587471412325278
1746483130029236700,2.32623681640625,9.219158739113807,2.6820991490930317,-0.36491146277338266
1746483130039233800,2.33623388671875,9.214755535718798,2.610672327739,-0.1842101373059675
1746483130049230600,2.346230712890625,9.201216839709877,2.534973820415139,0.010599866078048943
1746483130059227600,2.3562275390625,9.198148684310912,2.4659236650645733,0.21969014108590781
1746483130069223700,2.3662236328125,9.186003488487005,2.403732435698062,0.4144199553731829
1746483130079220700,2.376220703125,9.139127755543589,2.316394051723927,0.6459361433312296
1746483130089217500,2.386217529296875,9.079806967046856,2.2296612324275076,0.8711387642282992
1746483130099214800,2.39621484375,9.021588002312184,2.1491855738297105,1.1042352071151136
1746483130109211600,2.406211669921875,8.959113133698702,2.0709125398427246,1.330954004728794
1746483130119208400,2.41620849609375,8.910575605022906,1.995629043060541,1.5596375265441833
1746483130129205800,2.426205810546875,8.859185025003551,1.9115669042780994,1.7969516601912676
1746483130139202600,2.43620263671875,8.81248815575838,1.8108090667605399,2.017565565058589
1746483130149199600,2.44619970703125,8.750007441926002,1.7339434153534472,2.2469413069218396
1746483130159196700,2.45619677734375,8.67112387482524,1.6424577024415135,2.467227148878574
1746483130169193700,2.46619384765625,8.596303319379686,1.5627721713081002,2.695490545585751
1746483130179189800,2.476189697265625,8.498170277407764,1.4744446301661431,2.880804150621593
1746483130189186600,2.4861865234375,8.411500878736376,1.3810942924261091,3.09387728472054
1746483130199183600,2.49618359375,8.295298511588573,1.298163203500211,3.3012744190096854
1746483130209180700,2.5061806640625,8.136525999736785,1.203753273704648,3.4878748489856717
1746483130219177700,2.516177734375,7.68912183945477,1.1278640661142765,3.6590047381073236
1746483130229174500,2.526174560546875,-15.437389110839366,4.679547808796167,5.825922660243511
1746483130239171800,2.536171875,-82.85753035321235,19.207715458315608,4.24729094876349
1746483130249168600,2.546168701171875,-111.23134516062736,27.689208741688727,5.766342344027757
1746483130259165700,2.556165771484375,-97.43416889591217,26.636625103616712,25.4972820505023
1746483130269162800,2.566162841796875,-70.72272499041557,18.49462914803624,31.216274614334104
1746483130279159800,2.576159912109375,-46.40230762217045,11.186432625305653,24.108212541413305
1746483130289155800,2.58615576171875,-26.923997107374667,6.828278916856646,16.313554690253735
1746483130299152600,2.596152587890625,-11.148216584157943,3.3771202258497475,9.51264659540355
1746483130309149700,2.606149658203125,0.2249544182896614,1.0350732619531453,4.653447152855992
1746483130319146800,2.616146728515625,7.14344026029408,-0.12894655177816747,1.6043068354845047
1746483130329143800,2.626143798828125,10.387177267092465,-0.5708571561452,-0.2847469159513712
1746483130339140600,2.636140625,10.783524024832248,-0.35822628592103717,-1.2369820279590784
1746483130349137700,2.6461376953125,9.890129078197479,0.13332695881947873,-1.0248230860956014
1746483130359134700,2.656134765625,9.669286186879873,0.9030006871089339,-0.3977920611772686
1746483130369131500,2.666131591796875,9.638935472279787,1.3456426014252005,-0.32265151652973145
1746483130379128600,2.676128662109375,9.597422143152356,1.4976589170150458,-0.28053697010613976
1746483130389125600,2.686125732421875,9.619194414499402,1.4911851909562945,-0.1387268085690215
1746483130399121700,2.69612158203125,9.673094346991181,1.3502581323966383,0.024487466856185344
1746483130409118700,2.70611865234375,9.814248784565924,1.0536614964365958,0.13651965391356496
1746483130419115800,2.71611572265625,10.046216296488046,0.5373712853245437,0.1874073989773169
1746483130429112600,2.726112548828125,10.27030796046853,-0.29172771474942566,0.10095476659545674
1746483130439109600,2.736109619140625,10.346897863674164,-1.5978658426515757,-0.5257277554124593
1746483130449106700,2.746106689453125,10.080779075825214,-3.152499861820042,-1.721615118047595
1746483130459103500,2.756103515625,7.824116585355997,-4.700894548207521,-3.5133158719733357
1746483130469100800,2.766100830078125,3.2947184214949607,-5.804935986316203,-5.2897512522280214
1746483130479097600,2.77609765625,-2.300217554557323,-5.725373204779625,-6.351690163144469
1746483130489094700,2.7860947265625,-8.095984730511903,-4.239398441947996,-6.468249088644981
1746483130499090700,2.796090576171875,-12.788071702885627,-1.6092214955329893,-5.587234315633774
1746483130509087700,2.806087646484375,-14.287505959010124,1.5202515648342667,-3.7518876044660803
1746483130519084800,2.816084716796875,-12.17102818430066,4.158686782637238,-1.3671663048386573
1746483130529081600,2.82608154296875,-7.629150478094815,5.240196070942282,0.736465213105455
1746483130539078700,2.83607861328125,-3.195313459891081,4.624354037101567,1.9346914670169353
1746483130549075700,2.84607568359375,-0.2557271576941013,3.2095226025074717,2.3686200596541167
1746483130559072800,2.85607275390625,1.481060979565978,1.7614844793602824,2.4984610760539767
1746483130569069600,2.866069580078125,2.50682909142673,0.5822078405905514,2.355028464414179
1746483130579067000,2.87606689453125,2.988170592623949,-0.38850320463255045,1.8441876047492025
1746483130589063700,2.886063720703125,3.0405536908119917,-1.1932905510749667,1.0188482494696973
1746483130599060700,2.896060791015625,2.7767952023535964,-1.6866250532090663,0.15321305109374225
1746483130609056800,2.906056884765625,2.275415706256032,-1.7422162997886537,-0.3930758463103324
1746483130619053800,2.9160537109375,1.4358300912201403,-1.2657564331531523,-0.5454951166778803
1746483130629050600,2.926050537109375,0.45262569432258604,-0.6031403001125901,-0.46936523219943044
1746483130639048000,2.9360478515625,-0.40257951464951036,-0.10684760576002299,-0.47953174836151297
1746483130649044700,2.946044677734375,-0.9957301164716481,0.1991032070659101,-0.5042950912833214
1746483130659041800,2.956041748046875,-1.2513099746495484,0.4103251968728378,-0.42635136231593784
1746483130669038800,2.966038818359375,-1.096688737258315,0.5483073245543987,-0.1295487554550171
1746483130679035600,2.97603564453125,-0.5759469535648822,0.4959606859192252,0.1960776486996561
1746483130689032700,2.98603271484375,-0.009358779975771904,0.23817761860862374,0.2965524314921349
1746483130699029800,2.99602978515625,0.34169045392274855,0.009903700507432223,0.2606433521125465
1746483130709026800,3.00602685546875,0.4148503826797008,-0.13978848298378288,0.13965207018777728
1746483130719022800,3.01602294921875,0.26210429151058195,-0.18879720936790106,-0.030200127148255703
1746483130729020000,3.02602001953125,0.009766191732883452,-0.14173326037600636,-0.12575842326134443
1746483130739016700,3.0360166015625,-0.1609972021639347,-0.07587094128131866,-0.1221431553736329
1746483130749013800,3.046013671875,-0.16528233213722704,-0.0195870362624526,-0.06552125057205557
1746483130759010800,3.0560107421875,-0.034570378121733664,0.0228881966996938,0.038500557177513835
1746483130769007600,3.066007568359375,0.06955927391648292,0.06926387116648257,0.09127879216298461
1746483130779005000,3.0760048828125,0.04101765456497669,0.07674348633214831,0.06599836656451225
1746483130789001700,3.086001708984375,-0.03180383601784706,0.028048209811374545,0.01742868918478489
1746483130798998800,3.095998779296875,-0.0334054259955883,-0.04552724094390869,-0.02526573948599398
1746483130808995800,3.105995849609375,-0.02202127767205238,-0.07789652882479131,-0.03555405539683997
1746483130818993000,3.115992919921875,0.0019014497071504592,-0.05470459993816912,-0.023090441273525355
1746483130828988700,3.12598876953125,-0.005158405676484108,0.004211041823774576,0.00602503244318068
1746483130838985700,3.13598583984375,-0.025225042149424552,0.038418724112957714,0.037104280513525004
1746483130848982800,3.145982666015625,-0.021188918501138687,0.019911372845992446,0.03045965486727655
1746483130858979600,3.1559794921875,-0.005765139397978783,0.0014783289242535828,0.016890709850564598
1746483130868977000,3.165976806640625,-0.019222586864233015,-0.02267272731810808,-0.001750423863902688
1746483130878973700,3.1759736328125,-0.01815875702500343,-0.022266630735248327,-0.0097881113037467
1746483130888970800,3.185970703125,-0.02384264788031578,-0.015723273506388066,-0.00874232857786119
1746483130898967800,3.1959677734375,-0.013814005818963051,-0.025632161645591258,0.009969897611439228
1746483130908964900,3.20596484375,-0.014859130957722663,0.007623188354820012,0.013809402709081767
1746483130918961700,3.215961669921875,-0.0034837504625320433,0.0009225216723978518,0.02618270820043981
1746483130928957700,3.225957763671875,-0.00034019173979759216,0.002928819993510842,0.008129530441761016
1746483130938954800,3.235954833984375,0.005490998631715774,0.007999035929888487,0.010160305617004633
1746483130948951800,3.245951904296875,0.0044470425367355345,0.002162146469950676,0.012892068668454885
1746483130958948900,3.255948974609375,-0.0024275194078683853,-0.01416829914934933,0.0036976124089211225
1746483130968945700,3.265945556640625,-0.014102175110578536,-0.01616999436058104,-0.004955138189345598
1746483130978943000,3.27594287109375,-0.01280453651547432,0.0034026480503380296,0.012468363363668323
1746483130988939800,3.285939697265625,0.0021498715102672575,-0.00008197919502854347,0.0020636545315384862
1746483130998936600,3.2959365234375,-0.010766893208026885,-0.01538980376832187,0.012696911422535777
1746483131008934000,3.305933837890625,-0.03435352050065994,-0.02359239944629371,-0.022955416717007755
1746483131018930700,3.3159306640625,-0.029775545060634612,-0.023653262788057326,-0.0796760326527059
1746483131028927700,3.325927734375,-0.032704584249854084,-0.030031127256900072,-0.12346271353960037
1746483131038923800,3.335923828125,-0.010391045632958411,-0.030256862304173408,-0.13713190406039355
1746483131048920800,3.3459208984375,0.012873510098457336,-0.04374521636534482,-0.1029855235043913
1746483131058918000,3.35591796875,0.017758944052457808,-0.06407832175474613,-0.023675693815574047
1746483131068914700,3.365914794921875,0.014329554125666617,-0.04108644548486918,0.1390514008808881
1746483131078911700,3.375911865234375,0.013690087178349495,0.06151088241953402,0.3210373227987438
1746483131088908800,3.38590869140625,-0.00493044213950634,0.18253782017957418,0.3885816036310047
1746483131098905900,3.39590576171875,-0.04532382732629776,0.1803364376777783,0.19453611834608017
1746483131108902700,3.405902587890625,-0.06282499722540379,0.07977419579755514,-0.033527956396713854
1746483131118899700,3.415899658203125,-0.034521862804889676,-0.014961166560091077,-0.1807381138138473
1746483131128896800,3.425896728515625,0.011273673686385153,-0.11464337420277297,-0.20852131601348517
1746483131138892500,3.435892578125,0.004584989702701568,-0.1635476172991097,-0.11897884612381457
1746483131148889900,3.445889892578125,0.02287175702154636,-0.1353572956033051,-0.0014710224006325005
1746483131158886700,3.45588671875,0.021930092257261277,-0.02926759553849697,0.05368402471877634
1746483131168883700,3.4658837890625,-0.013524667483568191,0.04155483018159866,0.056603053970634934
1746483131178880800,3.475880859375,-0.05767652842104434,0.045152270151674744,0.030275603537261483
1746483131188877800,3.4858779296875,-0.013685411003232001,0.016659750638902186,0.018541691927984355
1746483131198874600,3.49587451171875,0.010745850419998168,-0.0007832593321800232,0.006291062968224286
1746483131208872000,3.505871826171875,-0.030987843459844587,0.019606763876229522,-0.027292276877537366
1746483131218868700,3.51586865234375,-0.053605333459377284,0.02432721652686596,-0.02372910450324416
1746483131228865800,3.52586572265625,-0.0037958851516246795,-0.009285349413380026,0.0059212067425251005
1746483131238861800,3.53586181640625,0.044544075125455856,-0.07978899150788783,0.026679478741437196
1746483131248858600,3.545858642578125,0.024363456884026528,-0.0828435567729175,0.008350698911771178
1746483131258856000,3.55585595703125,-0.03534311605989933,0.005210281994193792,-0.0035881606850773095
1746483131268852700,3.565852783203125,-0.0639484482973814,0.07073335919715464,0.0012255962722003458
1746483131278849800,3.575849853515625,-0.04134790943264961,0.04284596597068011,0.010522051601484417
1746483131288846800,3.585846923828125,0.008214870637655258,-0.03238455851525068,0.007995382668077946
1746483131298844000,3.595843994140625,0.004173486292362213,-0.05003931154087186,-0.006028393444046378
1746483131308840700,3.6058408203125,-0.001527355697751045,-0.020406535951793193,0.006438947006314992
1746483131318837800,3.615837646484375,-0.016199439650774,-0.0008358663022518157,0.020957082506641744
1746483131328834800,3.625834716796875,-0.01544657545685768,0.004741860764846205,0.0149930595356971
1746483131338830600,3.63583056640625,-0.008403086686134337,0.0029345190819352863,-0.012737974085286258
1746483131348828000,3.645827880859375,-0.019176409634947777,0.008165770798921584,-0.0047530397459864615
1746483131358824700,3.65582470703125,-0.00540624295771122,0.004189487579092383,0.01752564675323665
1746483131368821800,3.66582177734375,-0.003899345526099205,-0.0049868485018610955,0.012610694443807005
1746483131378818800,3.67581884765625,-0.014522446349263191,-0.01941109517365694,0.0005647212106734514
1746483131388816000,3.68581591796875,-0.0025508535265922547,-0.01105856963098049,-0.002586582427099347
1746483131398812700,3.695812744140625,-0.00808452225625515,0.0018849369637668131,-0.004404737764969468
1746483131408809700,3.705809814453125,-0.008234159860014915,0.006797258924692869,0.016228008158132433
1746483131418806800,3.715806884765625,-0.0152671272367239,-0.0014185615610331297,0.01818593729287386
1746483131428803600,3.725803466796875,-0.013019640570878982,-0.005490925566479564,0.0035303660832345482
1746483131438801000,3.73580078125,-0.012891045755147934,-0.004333499159663915,0.00791851803958416
1746483131448796700,3.745796630859375,-0.00005962123274803161,-0.0026124475207179782,0.011018383751064538
1746483131458794000,3.7557939453125,-0.0014274024546146393,-0.01223112054169178,0.00628163755275309
1746483131468790800,3.765790771484375,-0.007120645660161971,-0.006694821463525295,-0.005868526707217097
1746483131478787600,3.77578759765625,-0.0032288989186286922,-0.0042375645045191045,0.00930083924345672
1746483131488785000,3.785784912109375,-0.003543371695280075,-0.003913008725270629,0.013746858866885304
1746483131498781700,3.79578173828125,-0.017044658303260803,-0.001807780074328184,-0.002908142531663179
1746483131508778800,3.80577880859375,-0.011364859101176262,-0.00353847632445395,-0.01416106569096446
1746483131518775800,3.81577587890625,-0.011077858853340148,0.0005604103617370129,0.004602963750809431
1746483131528772900,3.82577294921875,-0.009595511341094971,-0.006842486305907368,0.010497355551645158
1746483131538769700,3.835769775390625,0.0010036240845918655,-0.0023179946187883616,0.009155293292924761
1746483131548765700,3.845765625,-0.01903729342520237,-0.0003350041080266237,0.0003161532770842314
1746483131558762800,3.8557626953125,-0.013815174862742424,0.00934767405986786,-0.006356748615577817
1746483131568759600,3.865759521484375,-0.0017149872243404387,-0.0006673778675496578,-0.0019739304214715955
1746483131578756900,3.8757568359375,-0.01741466065943241,-0.008521306238323449,0.00004720014259219169
1746483131588753700,3.885753662109375,-0.02861877624094486,-0.0210020176269114,-0.0017927286356687546
1746483131598750700,3.895750732421875,0.014455226331949234,0.008260536410287022,0.030161402573063968
1746483131608748000,3.905748046875,0.005161912807822227,0.04641344919390976,0.04555149860233068
1746483131618744800,3.915744873046875,-0.06495850212275982,-0.016450272606685756,-0.03388919092454016
1746483131628742000,3.925741943359375,-0.033095044872164726,-0.03053345075584948,-0.060886284247785805
1746483131638739000,3.935739013671875,0.036136312264204024,0.008231821772456169,-0.00265073370449245
1746483131648734700,3.945734619140625,-0.012397124758362769,-0.014982830402627587,0.05281447534263134
1746483131658732000,3.95573193359375,-0.013851415219902992,0.013685264872759579,0.0587009760979563
1746483131668728800,3.965728759765625,-0.008852584019303321,0.008482654728367924,0.004644976261630654
1746483131678726000,3.975725830078125,-0.024704233145713805,-0.03151544753052294,-0.043065380875021216
1746483131688723000,3.985722900390625,-0.01830781010687351,-0.019503303501755,-0.03825308522246778
1746483131698720000,3.995719970703125,0.005889642560482025,0.014247940256819127,0.023395780895650385
1746483131708716800,4.005716796875,-0.0020230302602052687,0.0019288491707295178,0.03173435097821057
1746483131718714000,4.015714111328125,-0.0064876084536314,-0.011396131022274493,0.02444989305846393
1746483131728711000,4.0257109375,-0.0120341366648674,0.003136179133877158,0.0019665508326143027
1746483131738707700,4.035707763671875,-0.012788169902563094,0.007887611444666981,-0.02086260915622115
1746483131748704000,4.0457041015625,-0.01621522174179554,-0.002081993905827403,-0.014093480347469448
1746483131758700800,4.05570068359375,-0.013827449822425841,-0.017631299084797502,-0.0021764672562479973
1746483131768697900,4.06569775390625,-0.012338088047504425,-0.020713994465768337,0.02103402020037174
1746483131778695000,4.07569482421875,-0.026399346625804898,-0.01042282901071012,0.0345247123491019
1746483131788692000,4.08569189453125,-0.09525544070899486,0.019675591328740118,0.008909647968783975
1746483131798688800,4.095688720703125,-0.14659867445528507,0.12216288298740982,-0.10873977618217467
1746483131808685800,4.105685791015625,-0.12464461680054664,0.23594613322950897,-0.18965930608995257
1746483131818683000,4.115682861328125,-0.032150457498431206,0.2705046747829765,-0.23597075621411204
1746483131828679700,4.1256796875,0.16291735657155512,0.1727341825131327,-0.3150578830629587
1746483131838677000,4.135677001953125,0.3386556162714958,0.015224895530194044,-0.39427776944600046
1746483131848672800,4.1456728515625,0.552873536491394,-0.12335669588185846,-0.5081052972212433
1746483131858670000,4.155670166015625,0.7390987034142017,-0.13627799064479768,-0.5441105304516851
1746483131868667000,4.1656669921875,0.6469505810707807,0.036378815783187746,-0.23958880058079957
1746483131878663700,4.17566357421875,0.2161667162001133,0.16072386511527,0.5048403040759265
1746483131888661000,4.185660888671875,-0.46817923728525634,0.0812077722646296,1.2278680165246127
1746483131898657800,4.19565771484375,-1.0668857196688653,-0.04275799542628229,1.262851651622355
1746483131908654800,4.20565478515625,-1.2033084525465965,-0.08871829402521252,0.4001666082888841
1746483131918652000,4.21565185546875,-0.7537281172692776,0.05505092915780842,-0.41401276281177996
1746483131928649000,4.22564892578125,-0.08805413102805613,0.1852753919173032,-0.5821555989466607
1746483131938645800,4.235645751953125,0.3179021665781736,0.13341697519049048,-0.38552185073420403
1746483131948643000,4.24564306640625,0.44763972260355944,-0.20185593984015285,-0.11505056676417588
1746483131958638800,4.255638916015625,0.5113017551749944,-0.5325464955165982,0.12370543625429271
1746483131968636000,4.265635986328125,0.42696635240912434,-0.5610292242877185,0.27267814636453985
1746483131978633000,4.275633056640625,0.05913841766715049,-0.3023626521408558,0.30296500194817777
1746483131988629800,4.285629638671875,-0.12463175731897354,0.04465235780552029,0.3324209596656263
1746483131998627000,4.295626953125,-0.1961585319161415,0.08112951939664781,0.05886076976954937
1746483132008623900,4.305623779296875,0.037456747213006014,0.11005889595672487,-0.10256035689488052
1746483132018621000,4.315620849609375,0.20906068358719349,-0.017883666410669682,-0.15286401846036313
1746483132028618000,4.325617919921875,0.1785989098280668,-0.05862586503513157,-0.2543495857305825
1746483132038615000,4.335614990234375,0.07772446019351482,0.0031078298222273586,-0.25805720807686444
1746483132048610800,4.34561083984375,-0.1127864212244749,0.22576193528026342,0.08783055140525102
1746483132058607900,4.35560791015625,-0.29487025055885313,0.45098136118166143,0.9546732989400625
1746483132068605000,4.36560498046875,-0.5212631772190333,0.4204342472266406,1.3610172806896268
1746483132078601700,4.375601806640625,-0.500841735959053,0.4506779212556779,1.3597574898868798
1746483132088599000,4.38559912109375,-0.47216100039780134,0.40142164985127743,1.2358885336339474
1746483132098595800,4.395595947265625,-0.5746177507877349,0.39594000356979664,0.4909423463005572
1746483132108593000,4.405593017578125,-1.077557335808873,0.11648607946000993,-0.16003968224339185
1746483132118590000,4.41558984375,-2.072951936715841,-0.0006335486631840467,-0.3062831865854561
1746483132128587000,4.4255869140625,-2.7112831580013035,-0.7425382494088262,-0.23865889931954443
1746483132138583800,4.435583740234375,-2.5034020395874976,-1.7076196181818841,0.0705994306191802
1746483132148579800,4.445579833984375,-1.781386572921276,-2.0291326687335967,0.753159523601085
1746483132158577000,4.455576904296875,-0.9877987389504909,-1.7918046526916325,1.3097880287118255
1746483132168574000,4.465573974609375,-0.652444502311945,-1.4921730329498648,1.382988289479166
1746483132178571000,4.475571044921875,-0.0547550880163908,-1.2719263539597392,1.126526826161146
1746483132188567800,4.48556787109375,1.506186068472266,-0.8129262292344123,0.9737301738485693
1746483132198565000,4.495565185546875,3.037362201294303,-0.16592972666267305,0.37809623077809806
1746483132208562000,4.50556201171875,3.246200182041526,0.6982365316718816,0.0822042359560728
1746483132218558700,4.515558837890625,2.6052655002593994,1.4486772978335618,0.17796031966358422
1746483132228556000,4.52555615234375,1.5632511869966983,1.5088637632489204,-0.04298953915983438
1746483132238552800,4.535552734375,0.5226245287001132,1.193619856094569,-0.4366609402105212
1746483132248548900,4.545548828125,-0.27721418235898015,0.9152584033966064,-1.0100716532960534
1746483132258546000,4.5555458984375,-0.514848049479723,0.631567426238954,-1.6032064730271696
1746483132268543000,4.56554296875,-0.3148661598831415,0.2833344918701798,-1.9304519297510385
1746483132278539800,4.575539794921875,-0.11014730489253997,0.08407266017645597,-1.7111743880540131
1746483132288536800,4.585536865234375,-0.013740940582752227,0.0060960518527776,-1.2082052846774458
1746483132298534000,4.595533935546875,-0.04512508988380432,-0.005535422295331955,-0.8003045750051736
1746483132308530700,4.60553076171875,-0.22065642883479594,0.11133951035179197,-0.5524152713298798
1746483132318528000,4.615528076171875,-0.6034592298686504,0.36911658631302413,-0.29695377883464097
1746483132328524800,4.62552490234375,-1.1606611509531735,0.3779641288310289,0.0156701550796628
1746483132338521900,4.63552197265625,-1.5689444302022457,-0.06677614600397647,0.4393912419572472
1746483132348518000,4.645517822265625,-1.6404747119307517,-0.6257805134005844,0.6708601567074656
1746483132358514700,4.6555146484375,-1.5501976441562175,-1.0031953377857803,0.5461830989420413
1746483132368512000,4.665511962890625,-1.84391287946105,-0.8614980255059898,0.3455322240427136
1746483132378508800,4.6755087890625,-2.3877064529180525,-0.46253144065663215,-0.06767477534413337
1746483132388505900,4.685505859375,-2.7616081546157596,-0.35972470778524873,-0.44427492234557864
1746483132398503000,4.6955029296875,-3.1428526202917095,-0.5281101935695857,-0.8505753572143614
1746483132408500000,4.7055,-3.400357309052348,-0.8181791813265532,-1.2541058889783918
1746483132418496800,4.715496826171875,-3.0237323198705908,-0.5971294423252343,-1.1961150339111686
1746483132428494000,4.725494140625,-2.5382453894317147,-0.1969944712836295,-0.8943865880206227
1746483132438491000,4.735490966796875,-2.0981384004205466,-0.051812166432291265,-0.5325383122101426
1746483132448487000,4.74548681640625,-1.7530705790191887,0.013089271740987896,-0.40540874672606586
1746483132458484000,4.75548388671875,-1.481786371231079,0.05628785054162144,-0.5741757791738957
1746483132468480800,4.765480712890625,-1.1842986316502093,0.1095925570866093,-0.7689917373746633
1746483132478478000,4.77547802734375,-0.9032979164898395,0.17699867155719548,-0.8562708654422313
1746483132488475000,4.785474853515625,-0.5431704731225967,0.40690008126236493,-0.8286184500154107
1746483132498472000,4.795471923828125,0.0017296002715826034,0.5901308156095445,-0.6591857202004641
1746483132508469000,4.805468994140625,0.7427589794874191,0.7255345076378434,-0.5659899885002523
1746483132518466000,4.815466064453125,1.5890437999010085,0.8074950710311531,-0.4969734066257253
1746483132528462800,4.825462890625,2.4531460165560244,0.7210688334658741,-0.5087301876539364
1746483132538459000,4.835458984375,3.073821169641614,0.8360077565491199,-0.43585524985082447
1746483132548456000,4.8454560546875,3.29041166421175,1.3701545268692075,-0.17509515775712206
1746483132558452700,4.85545263671875,3.667913436228037,1.5104194682583212,-0.08385366539722308
1746483132568450000,4.865449951171875,4.1064311102211475,1.1284043104708195,-0.3472406719284132
1746483132578446800,4.87544677734375,4.442561591929197,0.8527500709049404,-0.6121128572497516
1746483132588444000,4.88544384765625,4.455200124228,0.9055022216010838,-0.6423942329406738
1746483132598441000,4.89544091796875,4.261949588713049,1.011588122273609,-0.6186294726021587
1746483132608437500,4.9054375,4.082660943055153,1.0805677696712315,-0.6080893738873303
1746483132618434600,4.9154345703125,3.79717109978199,1.0718619737114756,-0.393375486844033
1746483132628431600,4.925431640625,3.331675987014174,0.8140958575356751,-0.17433175390288233
1746483132638427400,4.935427490234375,2.7064754654586314,0.5188670027974993,0.045893516973033545
1746483132648424700,4.9454248046875,2.03563547475636,0.46068084435388446,0.18542342208586632
1746483132658421500,4.95542138671875,1.3798966070741414,0.43620998157262797,0.3474770745001733
1746483132668418600,4.96541845703125,0.8821382240831851,0.26228392239380627,0.474405272193253
1746483132678415600,4.97541552734375,0.39300329253077504,0.16862250941060483,0.6743064977690577
1746483132688412700,4.98541259765625,-0.09302782778739929,0.10920282711666077,0.8585610222060233
1746483132698409500,4.995409423828125,-0.5807973162055016,0.06423137515829876,0.8972631663702427
1746483132708406500,5.005406494140625,-0.9461334341317414,-0.09201707070912234,0.7706316866014152
1746483132718403600,5.015403564453125,-1.0430015707343816,-0.16573080655708908,0.617803323976323
1746483132728400400,5.025400390625,-1.0037585246264933,-0.043060120178014034,0.6555464869152754
1746483132738396700,5.035396728515625,-0.8737947586297988,-0.021554244682192802,0.6706222562983631
1746483132748393500,5.0453935546875,-0.6345499491810799,0.013561510628927497,0.5434694560691714
1746483132758390800,5.055390869140625,-0.37122576048672196,0.0354975394366309,0.41300475481301546
1746483132768387600,5.0653876953125,0.004697217905521392,-0.12175755358953028,0.2961326717101037
1746483132778384400,5.07538427734375,0.16424012960791587,-0.2728094445940107,0.2679737680658698
1746483132788381700,5.085381591796875,0.19961656341552733,-0.2525608756829053,0.2619363875977695
1746483132798378500,5.09537841796875,0.30971476846933366,-0.03858264597039669,0.30053295249566436
1746483132808375600,5.10537548828125,0.366725526458025,0.002403809738717973,0.34813130062520503
1746483132818372600,5.11537255859375,0.21778233470320701,-0.05738653249852359,0.35384923988059164
1746483132828368600,5.12536865234375,-0.02428571547269821,0.015405293598398566,0.27075945326164363
1746483132838365400,5.135365478515625,-0.26898119154274464,0.06840791192427277,0.12862009630277751
1746483132848362500,5.145362548828125,-0.4512409619659185,0.19808372782506048,0.07938552527353167
1746483132858359600,5.155359619140625,-0.5961462765067815,0.20912256984226404,0.004018587991595268
1746483132868356400,5.1653564453125,-0.5797749874204396,0.09313421077132225,-0.25566315254718064
1746483132878353700,5.175353759765625,-0.4270516926050186,-0.007408303495123982,-0.5318184735029936
1746483132888350500,5.1853505859375,-0.12481062101721763,-0.04194390256442129,-0.7007884081117809
1746483132898347500,5.195347412109375,0.2554541859716177,-0.0021883038245141505,-0.7763149198696017
1746483132908344600,5.205344482421875,0.5608434924572706,0.023902780569717286,-0.7682330279618501
1746483132918341600,5.215341552734375,0.6615215427368879,-0.11567600518614053,-0.81241528403759
1746483132928337700,5.225337646484375,0.5220458520293235,-0.08087094152569771,-0.7464993350595235
1746483132938334500,5.23533447265625,-0.10350888979136944,0.2828509461369365,-0.3755513686008751
1746483132948331500,5.24533154296875,-0.5813333227783442,0.19538864352218804,-0.1828228111334145
1746483132958328600,5.25532861328125,-0.7958809133440256,-0.1860799862984568,-0.3135457249343395
1746483132968325600,5.26532568359375,-1.0825772097975015,-0.5257800701215863,-0.4636893785201013
1746483132978322400,5.275322509765625,-1.1929507246613502,-0.6137108670309186,-0.603854512796551
1746483132988319700,5.28531982421875,-1.2937141151368616,-0.34529198554605245,-0.6244172622233629
1746483132998316500,5.295316650390625,-1.5976719275146722,-0.16966346983090042,-0.5725356838166713
1746483133008313600,5.305313720703125,-1.8165677764177321,-0.20942834785580633,-0.569068153836578
1746483133018309600,5.3153095703125,-2.010125770446658,-0.37011589954867957,-0.608813596508652
1746483133028306400,5.325306396484375,-2.205522670340538,-0.4266493954144418,-0.5642227596320212
1746483133038303500,5.335303466796875,-2.29330499868989,-0.3977547248415649,-0.48727995133548974
1746483133048300500,5.345300537109375,-2.220547220993042,-0.30779680601879955,-0.42503743017315865
1746483133058297600,5.355297607421875,-2.0115520038574934,-0.22462270211726426,-0.3337519890736788
1746483133068294400,5.36529443359375,-1.7513509156197309,-0.07561214421465992,-0.292949146303162
1746483133078291700,5.375291748046875,-1.3493980084359645,0.12551679652519523,-0.20475955232717097
1746483133088288500,5.38528857421875,-0.7963263190239668,0.3813905961483717,-0.03924173093363643
1746483133098285600,5.39528564453125,-0.49525019956231114,0.8910081976287066,0.2412700316660106
1746483133108282600,5.40528271484375,-0.08150397873222827,0.9769432906761765,0.5081485518410802
1746483133118278400,5.4152783203125,0.4123287552475929,0.6897013430386781,0.5758534300625324
1746483133128275700,5.425275634765625,0.6693202337890863,0.5014251618701965,0.5684484145030378
1746483133138272500,5.4352724609375,0.9718705174565314,0.42748065860681234,0.5297352374881505
1746483133148269600,5.44526953125,1.2999293363898992,0.49312290521003305,0.49488238916322586
1746483133158266600,5.4552666015625,1.6344441995948553,0.6228250245958566,0.5267028840549289
1746483133168263700,5.465263671875,1.8743267224252222,0.7713443649154156,0.6500910710535943
1746483133178260500,5.475260498046875,2.074951586100459,0.9019868338912725,0.8509716630555689
1746483133188257500,5.485257568359375,2.341848957106471,0.807596193318069,1.0515830827273427
1746483133198254600,5.495254638671875,2.5954221516370772,0.678006959722191,1.3643161761045455
1746483133208250600,5.505250732421875,2.699562325069308,0.6969855086974799,1.6390258282966912
1746483133218247700,5.51524755859375,2.754447761467099,0.7079765660502016,1.723066193638742
1746483133228244500,5.525244384765625,2.7256343394368887,0.7334506145246327,1.663143055334687
1746483133238241800,5.53524169921875,2.593881351935863,0.7044580365352332,1.4944802869789302
1746483133248238600,5.545238525390625,2.394469371181726,0.5708250439738854,1.2284006620965897
1746483133258235400,5.5552353515625,2.1560522447288033,0.44195809677056963,0.9809412012059241
1746483133268232700,5.565232666015625,1.9213754738479851,0.46131548899561164,0.8111093890707939
1746483133278229500,5.5752294921875,1.7626023774743078,0.5597715889094397,0.7472570215590297
1746483133288226600,5.5852265625,1.8286100963890553,0.6811459884002804,0.7575954602219164
1746483133298222600,5.59522265625,2.2388591227531434,0.8130538742020725,0.7938494075164199
1746483133308219600,5.6052197265625,2.9759646065235135,1.0013080627344548,0.8665728445522487
1746483133318216400,5.615216552734375,3.79375807646811,1.261429363734275,1.0099248652365058
1746483133328213500,5.625213623046875,4.309587538200617,1.4517594817578792,1.1099144217953085
1746483133338210600,5.63521044921875,4.195540887781977,1.2840730110883711,1.0449968362048268
1746483133348207400,5.645207275390625,3.083164752048254,0.7265114629112184,0.494566016690433
1746483133358204700,5.65520458984375,0.653522360676527,-0.48445218056365846,-0.8744684201076627
1746483133368201500,5.665201416015625,-1.4843331331044434,-1.7021674902558326,-2.322046232266724
1746483133378198500,5.675198486328125,-2.72011119210124,-2.2818774496160446,-2.866734416475892
1746483133388194600,5.685194580078125,-3.5896073767542838,-2.118153160575777,-1.6763691782630978
1746483133398191400,5.69519140625,-5.262098106148839,-1.8652403296500444,-1.8168650057986377
1746483133408188700,5.705188720703125,-5.457991849648952,-0.4460360137339681,-2.2008799591012296
1746483133418185500,5.715185546875,-5.206731023713946,1.5035196257419883,-1.4567647426992654
1746483133428182500,5.7251826171875,-4.368120975711942,2.3743911904014645,-0.8091600816339254
1746483133438179600,5.7351796875,-3.4853245799809693,1.126597845570743,-0.8179924996480346
1746483133448176600,5.7451767578125,-2.4800690947949886,-0.7667112252220512,-1.7952318506613372
1746483133458173400,5.75517333984375,-1.03289635630548,-1.7143742070086299,-2.9626848537117243
1746483133468170800,5.765170654296875,-0.06653086600601672,-2.0176969363532957,-3.3102725489795204
1746483133478167600,5.77516748046875,-0.3503291029304266,-1.8361849155575036,-2.608363758535683
1746483133488163600,5.78516357421875,-0.9321078313887119,-0.8779453024379908,-1.50565649164021
1746483133498160600,5.79516064453125,-1.1276374177515507,-0.21483104714956133,-0.3406448903925717
1746483133508157400,5.805157470703125,-1.0835253043025732,0.17719481518380342,0.44893370793685317
1746483133518154500,5.815154541015625,-0.767905111181736,0.3258392066551372,0.9870958513781428
1746483133528151600,5.825151611328125,-0.24839900676310062,0.28254451053626833,1.225346389092505
1746483133538148600,5.835148681640625,0.2390314589589834,0.26289255581144244,1.1367550824478267
1746483133548145400,5.8451455078125,0.4800438626021146,0.32672461118754,0.9028612786382436
1746483133558142700,5.855142822265625,0.4841904608875513,0.32390706954877824,0.6445967114210128
1746483133568139500,5.865139404296875,0.12681377753317355,0.23868417989127336,0.32113544941097494
1746483133578135600,5.875135498046875,-0.6618874534398317,0.2667363352254033,0.08395312545001506
1746483133588132600,5.885132568359375,-1.4239584516406059,0.2790313147835433,0.035136779832839964
1746483133598129400,5.89512939453125,-1.4602467395961283,0.2727718525299802,-0.01180062016993761
1746483133608127200,5.905127197265625,-0.8536883746683597,0.34513595473412423,-0.25601620376855133
1746483133618124300,5.915124267578125,-0.25973931594491,0.22286603117566556,-0.7097013440161943
1746483133628121300,5.925121337890625,0.07763444382250309,-0.13967008076850324,-0.8435024962186813
1746483133638118100,5.9351181640625,0.16257365770041943,-0.6027536754151805,-0.5330182046815752
1746483133648115500,5.945115478515625,0.1615846466630697,-0.9863993935465812,-0.06342880833745003
1746483133658112300,5.9551123046875,0.12712591222226619,-1.025555345892906,0.509810639834404
1746483133668108300,5.9651083984375,0.17061434081494808,-0.7907306179087609,1.0864826928034423
1746483133678105300,5.975105224609375,0.480309820061922,-0.5302394241506233,1.511258841691911
1746483133688102100,5.98510205078125,0.9424795877993106,-0.3513009436372667,1.7427774408027528
1746483133698099500,5.995099365234375,1.2310463542997836,-0.1378530579417944,1.6773241409003734
1746483133708096300,6.00509619140625,1.2199597276180982,0.14861648055110127,1.241508711603284
1746483133718093300,6.01509326171875,0.8267500988602637,0.5549415749371052,0.6116098030984402
1746483133728090400,6.02509033203125,0.24172727391421794,0.8264335802569985,0.0022708675414323805
1746483133738087400,6.03508740234375,-0.7334048756867647,0.4121897851683199,-0.7331848031952977
1746483133748083500,6.04508349609375,-1.7158569929122924,0.023667583574354646,-1.4050032835409045
1746483133758080300,6.055080322265625,-1.7523814277112484,-0.04535751040019095,-1.781679710648954
1746483133768077300,6.065077392578125,-1.256430386403203,0.00936016821525991,-1.627383759689331
1746483133778074400,6.075074462890625,-0.8752788597077131,0.09861821340667083,-1.1379629969328642
1746483133788071400,6.085071533203125,-0.9609580782979726,0.2506317890501581,-0.7904135878488421
1746483133798068200,6.095068115234375,-1.145018760663271,0.5681981660690159,-0.8005237707138061
1746483133808065500,6.1050654296875,-1.0554343513280153,0.812387226986885,-1.1626926567807794
1746483133818062300,6.115062255859375,-0.8630904092639684,0.6326394393846392,-1.4321595860138534
1746483133828059100,6.12505908203125,-0.6454957060873509,-0.023148491603694855,-1.117489533224702
1746483133838055400,6.135055419921875,-0.4256961863428354,-0.8050286809176206,-0.5335457356870175
1746483133848052200,6.14505224609375,-0.23111001830995082,-1.3020394604116678,-0.004797463409602642
1746483133858049300,6.15504931640625,-0.09735621238052844,-1.357942257158458,0.21306202818304298
1746483133868046300,6.16504638671875,0.057301849889755244,-1.1078048822954296,0.09656593878567218
1746483133878043400,6.17504345703125,0.21235095730423925,-0.7691861639682203,-0.09707827222198247
1746483133888040200,6.185040283203125,0.3208919960439205,-0.38626127092465756,-0.2738970206350088
1746483133898037200,6.195037353515625,0.40122225482165813,0.022209055329114196,-0.5241852021455764
1746483133908034300,6.205034423828125,0.40888066062033174,0.26593027953952547,-0.46865445358157154
1746483133918031000,6.215031005859375,0.48368660301864147,0.1715223955705762,-0.07028232749402523
1746483133928027400,6.22502734375,0.5930956567645073,-0.09861483413949608,0.3849631939381361
1746483133938024200,6.235024169921875,0.8180068204343318,-0.2195747710779309,0.6059659519925713
1746483133948021500,6.245021484375,1.1047352655917406,-0.06842939310371875,0.520706858510524
1746483133958018300,6.255018310546875,1.3749340162307022,0.17817630050182343,0.3687828973792493
1746483133968015000,6.26501513671875,1.6087702446341514,0.44350247666835785,0.2320690726004541
1746483133978012400,6.275012451171875,1.7059762348890304,0.756204882646352,0.09058145754858851
1746483133988009200,6.28500927734375,1.8274246859967707,0.9004207536183297,0.001893704792112112
1746483133998006300,6.29500634765625,2.0633131707549093,0.7918965198829769,-0.04305252139344811
1746483134008003300,6.30500341796875,2.4354168831199408,0.6352442150555551,-0.10475516352541744
1746483134017999400,6.314999267578125,2.778082904076576,0.43108460138291116,-0.25291502288281914
1746483134027996400,6.324996337890625,2.9906892974466084,0.22351883252859114,-0.397264018715173
1746483134037993200,6.3349931640625,2.8897382754445076,-0.04025076184570789,-0.5222267250215634
1746483134047990300,6.344990234375,2.463682023617625,-0.3190326319128275,-0.5564996180340648
1746483134057987300,6.3549873046875,1.7235224129736422,-0.6298866335451603,-0.5605086710123345
1746483134067984400,6.364984375,0.7636381013870239,-1.0338161014989018,-0.286865442475304
1746483134077981200,6.374981201171875,-0.4710661908984184,-1.226590251673758,0.20290844456776974
1746483134087978200,6.384978271484375,-1.6451210764318704,-1.2217808055654167,0.5523975895427167
1746483134097975300,6.394975341796875,-2.5864661072432993,-1.067990173779428,0.712461675575003
1746483134107971000,6.40497119140625,-3.215020030879974,-0.7627417370691895,0.7938469232983887
1746483134117968400,6.414968505859375,-3.2557980314701793,-0.34800065998286006,0.8504103028457611
1746483134127965200,6.424965087890625,-2.529315648522973,0.20648966405540703,0.8734525941286235
1746483134137962200,6.434962158203125,-1.4281746080309152,0.6801642838865518,0.7498796982128173
1746483134147959300,6.444959228515625,-0.575589226168394,0.9264058203548192,0.5922207005608826
1746483134157956400,6.454956298828125,-0.1801028846502304,1.0489461583524942,0.5213107792204246
1746483134167953200,6.464953125,-0.10195172347724438,1.1067293620184062,0.4854092255601659
1746483134177950500,6.474950439453125,-0.13251169691383838,1.0578343982070684,0.35505569306090473
1746483134187947300,6.484947265625,-0.18518237987160682,0.7930152947798371,0.16019067155402153
1746483134197943300,6.494943359375,-0.2232856082946062,0.39314971526414155,-0.03248560773693025
1746483134207940400,6.5049404296875,-0.3055336833924055,0.08530366327613592,-0.20467486971840262
1746483134217937200,6.514937255859375,-0.3756418233633041,-0.0568202038526535,-0.2583195488074794
1746483134227934500,6.5249345703125,-0.4297434159070253,0.04363748167455196,-0.21393077384158968
1746483134237931300,6.53493115234375,-0.4823936405986547,0.21089491327702997,-0.24888408686630425
1746483134247928300,6.54492822265625,-0.4994342072486877,0.16690876429527998,-0.33605361707955594
1746483134257925400,6.55492529296875,-0.4306079237818718,-0.05439911418557167,-0.33404359243139625
1746483134267922400,6.56492236328125,-0.42154257379472254,-0.38359219784587617,-0.23468626936152576
1746483134277918500,6.57491845703125,-0.4343441877007484,-0.6579466068595647,-0.03603577449917793
1746483134287915300,6.584915283203125,-0.4967383922934532,-0.46390112157464025,0.15457082237824796
1746483134297912300,6.594912353515625,-0.5774392379492521,0.0456353774935007,0.2534745564617216
1746483134307909400,6.604909423828125,-0.5016466226011514,0.3261664293155074,0.14732187416329978
1746483134317906400,6.614906494140625,-0.3250917858213186,0.31788346187770367,0.06253770471662283
1746483134327903200,6.6249033203125,-0.07996727068424224,0.04811111995726824,0.05141995224431157
1746483134337900300,6.634900390625,0.16458967369794844,-0.3151619279593229,-0.005349105942994356
1746483134347897300,6.6448974609375,0.4449731337428093,-0.5541591923877597,-0.16203925856277346
1746483134357894400,6.654894287109375,0.7979559660524129,-0.6645148793339729,-0.33233415816500783
1746483134367890400,6.664890380859375,1.1375462328255175,-0.7180579612120985,-0.5071849675059318
1746483134377887200,6.67488720703125,1.4268781384795903,-0.6847565801128744,-0.7147704639740288
1746483134387884300,6.68488427734375,1.6188088235676288,-0.5966109714090824,-0.7651102197661995
1746483134397881300,6.69488134765625,1.781561929488182,-0.5581131907105445,-0.668331368882209
1746483134407878400,6.70487841796875,1.8498510373383759,-0.5197089335143565,-0.614884148593992
1746483134417875200,6.714875244140625,1.8515473198622463,-0.5280494763582945,-0.41452231976911424
1746483134427872500,6.72487255859375,1.7844447914481163,-0.5492483317315578,-0.1588949691876769
1746483134437869300,6.734869384765625,1.565269541081786,-0.620882950617373,0.08835735175833105
1746483134447866000,6.7448662109375,1.3081944759100674,-0.5504512777805328,0.3979869992274791
1746483134457862400,6.7548623046875,1.080470592907071,-0.13982201992720364,0.8406781595129519
1746483134467859200,6.764859130859375,0.8295698324561118,0.4143444789841771,0.969528557440266
1746483134477856500,6.7748564453125,0.7215618776798248,1.0290110393047331,1.0085331916823983
1746483134487853300,6.784853271484375,0.703881259560585,1.5123954445064067,1.0346037447452545
1746483134497850400,6.794850341796875,0.837165694412589,1.5644206691674887,1.1930457094684241
1746483134507847400,6.804847412109375,-0.5773328549653292,0.9653023911125957,1.5718329912506044
1746483134517844200,6.81484423828125,-4.501832696065306,1.0670507009722292,1.0836179510220885
1746483134527841300,6.82484130859375,-1.7829226964473723,2.1492209374040363,0.06852730052024125
1746483134537837300,6.83483740234375,-0.2781938410460949,1.7683173941202461,-0.46669455168545243
1746483134547834400,6.84483447265625,-2.108909969803691,0.4908289125213399,-1.193814648014307
1746483134557831200,6.8548310546875,-2.4586919602453707,-1.0746282235544173,-1.232136487624049
1746483134567828500,6.864828369140625,-1.7332628857433794,-1.9411955882139502,-1.0042948234602809
1746483134577825300,6.8748251953125,-0.4339771079540252,-2.0114399217851457,-1.520992592459917
1746483134587822000,6.884822021484375,0.3530950605124235,-1.7589377174869179,-1.8065870651513336
1746483134597819400,6.8948193359375,0.400338457724452,-1.2892533363357186,-0.9439031908616423
1746483134607815400,6.9048154296875,0.34733693537712096,-0.7593064288582653,-0.4491320069879293
1746483134617812700,6.914812744140625,0.3675134619653225,-0.13477869199775158,-0.2370122280910611
1746483134627808500,6.92480859375,0.2341080310821533,0.35737419913634655,0.18396014460027216
1746483134637805600,6.9348056640625,-0.25705109977424145,0.47098647672571237,0.46210810067802666
1746483134647802600,6.944802734375,-0.5716127237528562,0.34714572365395724,0.43356735810935493
1746483134657799400,6.95479931640625,-0.491166145119071,0.28647381280921397,0.30005642102509733
1746483134667796700,6.964796630859375,-0.30040801094174385,0.3325624139629304,0.26484774499982594
1746483134677793500,6.97479345703125,-0.09364449838101864,0.33527397447656837,0.16631985849142072
1746483134687790600,6.98479052734375,0.08793255047500133,0.18773668573061003,-0.131835405087471
1746483134697787600,6.99478759765625,0.162826171156764,0.01692631088690832,-0.38495354932695625
1746483134707783400,7.004783447265625,0.16201777738332748,-0.09226882611364126,-0.39669747087359425
1746483134717780500,7.014780517578125,0.14042963043153286,-0.16645879203807562,-0.2377846737682819
1746483134727777500,7.024777587890625,0.03747720547914505,-0.19339480282384902,-0.055177112820744514
1746483134737774600,7.034774658203125,-0.13139935175776482,-0.1772240595445968,0.14589315653443335
1746483134747771400,7.044771484375,-0.2008206785082817,-0.09057553926445543,0.22780045537054538
1746483134757768700,7.054768798828125,-0.15763152512311934,0.008093819807562977,0.20398381871432064
1746483134767765500,7.064765625,-0.14536533326804638,0.05347314018076285,0.1129044946461916
1746483134777762300,7.07476220703125,-0.1342003806531429,0.03935828825170174,0.03974485815018415
1746483134787759600,7.084759521484375,-0.11757365550100803,0.014774886740371584,0.05658960996717214
1746483134797755400,7.09475537109375,-0.0937678324997425,-0.02814708534227684,0.08881897792071103
1746483134807752700,7.104752685546875,-0.12001286534667015,-0.09372978377798571,0.15973288131654262
1746483134817749500,7.11474951171875,-0.13167173895835876,-0.08550409948537126,0.2109323226779699
1746483134827746600,7.12474658203125,-0.15130933636426924,-0.0378697849933058,0.1586655443459749
1746483134837743600,7.13474365234375,-0.16810907999575136,0.004896923462394624,0.07110124266147613
1746483134847740400,7.144740478515625,-0.12410861022770404,0.03483653651094064,0.03828676829636097
1746483134857737500,7.154737548828125,-0.07461188113093375,0.01941401778310537,0.05408171879947185
1746483134867734500,7.164734619140625,-0.19332535431683062,-0.018509780686069278,0.06593553046137095
1746483134877730600,7.17473046875,-0.5148170698195695,-0.0307934899315238,0.024932196682691574
1746483134887727600,7.1847275390625,-0.8555857327222823,0.1848867761922069,-0.08617021697759628
1746483134897724700,7.194724609375,-1.0048112485498188,0.3152401808273047,-0.19919424635022878
1746483134907721500,7.204721435546875,-1.0476455971479415,0.29082857395261524,-0.3199348414495587
1746483134917718500,7.214718505859375,-0.9399129521816968,0.33133813286498187,-0.4276669018939137
1746483134927715600,7.224715576171875,-0.8410960195988416,0.27571137658059597,-0.5367927547842264
1746483134937712400,7.23471240234375,-0.9365689024507999,0.15384568644147364,-0.7175283843800425
1746483134947709400,7.24470947265625,-1.05801793808043,0.10042483357037417,-0.8489712830185889
1746483134957705500,7.25470556640625,-1.2588485534608362,-0.03702308220320847,-0.7607181222870946
1746483134967702500,7.26470263671875,-1.4523983641833067,-0.27697615408571435,-0.6551955545857548
1746483134977699600,7.274699462890625,-1.414620129930973,-0.45624647863563145,-0.4551511211469769
1746483134987696400,7.2846962890625,-1.2572300123482942,-0.6614007659014314,-0.12310761649161577
1746483134997693400,7.294693359375,-1.1342232258826495,-0.7531945218492299,0.17254618566036223
1746483135007690500,7.3046904296875,-0.996319899058342,-0.5263574681507424,0.2831146385744214
1746483135017687600,7.3146875,-0.925048560526967,-0.2536234634131193,0.3125073217973113
1746483135027684400,7.324684326171875,-0.9842378315985202,-0.04398233132315799,0.16309651253074406
1746483135037681700,7.334681640625,-0.9747375973254442,0.028393461318779734,0.1472802269786596
1746483135047677400,7.344677490234375,-0.8035784821093082,0.07480723930625245,0.15372487307339905
1746483135057674500,7.354674560546875,-0.7249024202793836,-0.1752567780596204,0.25310060858279465
1746483135067671600,7.364671630859375,-0.7118027002096176,-0.4580881975121796,0.3440466616600752
1746483135077668400,7.37466845703125,-0.6106038409262895,-0.5062141131797805,0.294040521736443
1746483135087665700,7.384665771484375,-0.36143501883447166,-0.32608021233677864,0.17100713952481747
1746483135097662500,7.394662353515625,-0.00976502268910408,-0.03561590511929243,0.04931918057277798
1746483135107659500,7.404659423828125,0.3750590550392866,0.2682479453647509,-0.05546922763511538
1746483135117656600,7.414656494140625,0.7618722607582807,0.5264593941552564,-0.1162415301144123
1746483135127652400,7.42465234375,1.0798580139666796,0.6696697778791189,-0.06815145294517279
1746483135137649700,7.434649658203125,1.4234902496069668,0.7121717527177185,0.05535787621513009
1746483135147646500,7.444646484375,1.838349400115013,0.6209934983197599,0.3164592742934823
1746483135157643500,7.4546435546875,2.2188521075129506,0.4917636726208031,0.5615019563660025
1746483135167640300,7.464640380859375,2.542568513327837,0.4222163814030587,0.726084031279385
1746483135177637600,7.4746376953125,2.7867390887409447,0.37935565625466405,0.8129648807443678
1746483135187634400,7.484634521484375,3.0059967566937207,0.41445699944794173,0.7849602908790111
1746483135197631500,7.494631591796875,3.2573271407335995,0.494328262411803,0.6984107191950082
1746483135207627500,7.50462744140625,3.56452963412106,0.592620075142011,0.5781931250564754
1746483135217624300,7.514624267578125,3.8900732553631063,0.674172788386792,0.38494945767372846
1746483135227621600,7.52462158203125,4.262162939202785,0.7286576811596751,0.2919691222898662
1746483135237618400,7.534618408203125,4.635476611879468,0.7158888004794717,0.25714783814698455
1746483135247615500,7.544615478515625,5.013757551574707,0.6874807443797588,0.32545857330709693
1746483135257612500,7.554612548828125,5.229164389318227,0.5804295788716525,0.46453883495628834
1746483135267609600,7.564609619140625,5.144212315958738,0.4113957121811807,0.6693455143608152
1746483135277606400,7.5746064453125,4.75585772601664,0.2788249420238659,0.707548696026951
1746483135287602400,7.5846025390625,3.760867029735446,0.08402465631626546,0.47557869988679885
1746483135297599500,7.594599609375,1.4563660987704992,-0.06878587839119137,-0.00725011725872755
1746483135307596500,7.604596435546875,-1.6190847178995609,-0.03795432147160172,-0.14558978967368602
1746483135317593600,7.614593505859375,-4.199070815473795,0.21923289883770047,-0.6438543686211109
1746483135327590400,7.62459033203125,-5.761423007804155,0.8485163057927042,-1.3407912158712745
1746483135337587700,7.634587646484375,-5.782057215031982,1.0548847546212374,-1.1422492959499357
1746483135347584500,7.64458447265625,-7.535417132386565,0.23615396729391067,-0.7508730200991034
1746483135357581600,7.65458154296875,-7.098185991072654,-0.7065639227733016,-1.0980436589986085
1746483135367577600,7.66457763671875,-5.9557321124613285,-1.3387559106513858,-1.1373843202620744
1746483135377574400,7.674574462890625,-3.708500882682204,-1.511742971947044,-1.0010273460969328
1746483135387571500,7.684571533203125,-1.371792211073637,-1.1676150617443024,-0.5669371331572532
1746483135397568500,7.694568603515625,0.021560089901089666,-0.7759077273081988,-0.12795856365412472
1746483135407565600,7.704565673828125,0.9861614931374788,-0.4394654397046193,-0.1852329410150647
1746483135417562400,7.714562255859375,1.3200526714861391,0.07101546407416462,-0.371571651314944
1746483135427559700,7.7245595703125,1.0522487070292235,0.4448709154773503,-0.4461538679599762
1746483135437556500,7.734556396484375,0.6176818164885044,0.775664200875908,-0.44900721156448126
1746483135447553500,7.744553466796875,0.18085457980036734,1.0265963793784378,-0.4456482565253973
1746483135457549600,7.754549560546875,-0.19612462964653968,1.0599545321661978,-0.4796865735970437
1746483135467546400,7.76454638671875,-0.3498883734256029,0.8249979944959283,-0.5048226222887635
1746483135477543700,7.774543701171875,-0.23512509917020796,0.4875402097068727,-0.36732436913400884
1746483135487540500,7.78454052734375,-0.14021686446368695,0.21559043241580947,-0.05778028105646372
1746483135497537500,7.79453759765625,-0.19225275664925573,-0.04718589487113058,0.14045461874231696
1746483135507534600,7.80453466796875,-0.24756957020163534,-0.20185625036740673,0.23144421870037912
1746483135517531600,7.81453173828125,-0.24423311925530433,-0.2088641563680954,0.24932605848014353
1746483135527527700,7.824527587890625,-0.24760522603690624,-0.16970917213615028,0.16983371183127163
1746483135537524500,7.8345244140625,-0.20528058052659034,-0.18553502923417836,0.09577771101742982
1746483135547521500,7.844521484375,-0.1519821210592985,-0.15995770304836332,0.06897942820191383
1746483135557518600,7.8545185546875,-0.08816752827465534,-0.14056392433568834,0.08306655187383294
1746483135567515600,7.864515625,-0.0489250666886568,-0.1195381513738539,0.11559563342630863
1746483135577512400,7.874512451171875,-0.04471300195157528,-0.09274870031876489,0.14228212643042207
1746483135587509800,7.884509765625,-0.057198974037170405,-0.05808974886443466,0.1533957872495055
1746483135597506600,7.894506591796875,-0.028859014737606048,-0.010671899267798289,0.12263210793435572
1746483135607503600,7.904503662109375,-0.01998012723326683,0.050151932469336316,0.06862433115392923
1746483135617500000,7.9145,-0.02543897716104984,0.09096269368482753,0.030721009217202663
1746483135627496700,7.92449658203125,-0.01818798311948776,0.09978137543452903,0.03396247535645962
1746483135637493800,7.93449365234375,-0.02198036113977432,0.09717191445534117,0.046472266709059476
1746483135647490800,7.94449072265625,0.003231821528077125,0.07305837721177376,0.03247296745106577
1746483135657488000,7.95448779296875,0.025568156498670575,0.03296729943980463,0.05749927215799689
1746483135667484700,7.964484619140625,0.031153847676515578,-0.010629265702469274,0.07301949737295509
1746483135677481700,7.974481689453125,0.018103227445483205,-0.03612190927951597,0.031246640526503323
1746483135687478800,7.984478759765625,-0.04541442821919918,-0.0927300960829947,-0.031109424012899397
1746483135697474800,7.994474853515625,-0.10986030464470385,-0.09924257411640137,-0.04239887979030609
1746483135707472000,8.004471923828126,-0.06673603318929672,-0.033162411019951106,0.00042509354427456853
1746483135717468700,8.01446875,-0.011958733341097831,0.016773020021338014,0.05033522574752569
1746483135727466000,8.024466064453126,0.008854337584972382,0.0594138736076653,0.08460983579307794
1746483135737462800,8.034462890625,-0.02210369525849819,0.10684617185476235,0.04670373737737536
1746483135747459600,8.04445947265625,-0.010295184043049811,0.09398826118423603,-0.04550283715501428
1746483135757457000,8.054456787109375,0.012620412120223044,0.04389595908080227,-0.09915697819218039
1746483135767453700,8.06445361328125,-0.08424012569785118,-0.037750853055063635,-0.04146612898483872
1746483135777449700,8.07444970703125,-0.18019816171824932,-0.06628818895709701,-0.018738895000517366
1746483135787446800,8.08444677734375,-0.19426994169056414,-0.030077523681893942,0.0065343702048063276
1746483135797443800,8.09444384765625,-0.1808171703994274,0.05767091153101064,0.0013806407034397125
1746483135807440600,8.104440673828124,-0.02435761166512966,0.13744148146621882,-0.027295710943639275
1746483135817437700,8.114437744140625,0.14342179798483848,0.1620284631741233,-0.007103548394888639
1746483135827434800,8.124434814453124,0.13366788121163845,0.08455640683909878,0.07902443687617779
1746483135837431600,8.134431640625,0.10184943214654922,-0.0365258504379075,0.09814297884404659
1746483135847428900,8.144428955078125,0.08916355357468128,-0.09392487709182314,0.07299991588965057
1746483135857424600,8.154424560546875,0.10586685109436511,-0.07815467743747867,0.07647928243800997
1746483135867422000,8.164421875,0.04603402142226696,-0.0926084150652401,0.05782791959047317
1746483135877418800,8.174418701171875,-0.10352817901372909,-0.11439662376693449,0.05677358823195099
1746483135887415600,8.18441552734375,-0.19680910477936267,0.012639920538291334,0.031030367427319287
1746483135897412900,8.194412841796876,-0.11254618272781372,0.09083571543744764,-0.06911606019362806
