time,seconds_elapsed,z,y,x
1746483004574698000,0.647697998046875,-0.29825404777824877,-0.1726484769910574,0.008209536875411868
1746483004584695000,0.657695068359375,-0.3357306687355041,-0.12958382676839827,-0.0069430971361696715
1746483004594692000,0.667692138671875,-0.31803660661280153,-0.08555646899342537,-0.003421060489863157
1746483004604689200,0.677689208984375,-0.30071313136816025,-0.062165072011947625,0.018334990374743936
1746483004614686000,0.68768603515625,-0.24351766446232795,-0.02323211476653814,0.061180883280187844
1746483004624683300,0.697683349609375,-0.15913023924827574,0.038490474174916744,0.0518819437328726
1746483004634680000,0.70768017578125,-0.09808335761129855,0.029596681362390517,-0.05301569700315594
1746483004644676900,0.7176767578125,-0.10536065513789653,-0.023943477906286714,-0.10398045282587408
1746483004654674200,0.727674072265625,-0.09905366394817829,-0.02448094578385353,-0.09465484446734189
1746483004664671000,0.7376708984375,-0.06189093124568462,0.011429156509041785,-0.09621259530335664
1746483004674668000,0.74766796875,-0.014312602990865706,0.016246785923838613,-0.052104062050953505
1746483004684665000,0.7576650390625,0.05729658919274807,0.04765782323181629,-0.10105302107185125
1746483004694662100,0.767662109375,0.15298340705633162,0.03661854282319545,-0.14748101024776697
1746483004704659000,0.777658935546875,0.17019991479516028,0.018972411495447157,-0.14953184183035045
1746483004714656000,0.787656005859375,0.13264029172956943,0.03349836497604847,-0.1202097030930221
1746483004724653000,0.797653076171875,0.09174947841465472,0.0752609926894307,-0.10691687160395086
1746483004734650000,0.807650146484375,0.06712298668026924,0.12451193033158778,-0.07053308738470077
1746483004744647000,0.81764697265625,0.05389934796988964,0.14395079029500485,0.021775997674092648
1746483004754644000,0.82764404296875,0.08009352741241454,0.18893530266433953,0.08714804903380573
1746483004764641000,0.83764111328125,0.10619242978692055,0.22142536738067864,0.08807407783754169
1746483004774637800,0.847637939453125,0.1425789174199104,0.23969459904283283,0.08813837524540721
1746483004784635100,0.85763525390625,0.1652455072581768,0.23684739291816947,0.091261256506294
1746483004794632000,0.8676318359375,0.1321528004735708,0.22725831131786106,0.054650312467664476
1746483004804629000,0.87762890625,0.08014671890437602,0.18829320536851882,0.042345030711218715
1746483004814626000,0.8876259765625,0.05815875898003578,0.15905805079489946,0.04137925441898405
1746483004824623000,0.897623046875,0.09184826261401176,0.11090572204440831,0.003201791715994477
1746483004834620000,0.907619873046875,0.15052023181319235,0.05421089813709259,-0.050905353785678745
1746483004844617200,0.9176171875,0.17676701822578905,-0.007631225530803203,-0.1181830926362425
1746483004854614000,0.927614013671875,0.16336510033905505,-0.049693420712649816,-0.18446283342540262
1746483004864611000,0.937611083984375,0.10645897176861763,-0.0856546686708927,-0.23747611927576362
1746483004874608000,0.947608154296875,0.0010737667113542555,-0.14568097508847713,-0.2370249414421618
1746483004884605000,0.95760498046875,-0.09624386722445487,-0.19760025515705346,-0.19234204236790536
1746483004894602000,0.96760205078125,-0.18285364466309548,-0.2063645763710141,-0.183248927590996
1746483004904599000,0.97759912109375,-0.1806552578359842,-0.17730740871280432,-0.1854590779211372
1746483004914596000,0.98759619140625,-0.11626841812133788,-0.1328264619514346,-0.1408889915715903
1746483004924593000,0.997593017578125,-0.024147768306732178,-0.1155251985386014,-0.11053250481784344
1746483004934590200,1.007590087890625,0.038492520001530646,-0.11531155578792095,-0.06789470170512794
1746483004944587000,1.0175869140625,0.032066870868206025,-0.12726736651957035,0.00638546325340867
1746483004954584000,1.027583984375,-0.004399696263670921,-0.13012655534297227,0.044662294677644966
1746483004964581000,1.0375810546875,-0.07249182023704051,-0.12308511239886283,0.05495864776447415
1746483004974578200,1.047578125,-0.15123860921561716,-0.15029606766849754,0.09201412070021033
1746483004984575000,1.057574951171875,-0.1687526385962963,-0.1327022510498762,0.13067863626778126
1746483004994572000,1.067572021484375,-0.14105156172215938,-0.07605448115468025,0.12618753539361058
1746483005004569000,1.077569091796875,-0.07777531359791755,-0.047054596641659736,0.13579225295446812
1746483005014566000,1.08756591796875,-0.028628128591179847,-0.023578736247122287,0.138470166926831
1746483005024563200,1.097563232421875,-0.040000586476922034,0.01911181996613741,0.06335055546946823
1746483005034560000,1.10756005859375,-0.03653437167108059,0.004647825805842876,0.01157696748189628
1746483005044557000,1.11755712890625,-0.026968086424469948,-0.045078328132629394,-0.012781082574650644
1746483005054554000,1.12755419921875,0.06834580647349357,-0.058521454812586304,-0.0772922062560916
1746483005064551200,1.13755126953125,0.13860416857004165,-0.058664370414614676,-0.0935761093199253
1746483005074548000,1.1475478515625,0.19728782820701599,-0.05269464835524559,-0.054940162259712814
1746483005084545000,1.157544921875,0.22396657629609107,-0.035355098758637904,-0.008795227808877825
1746483005094542000,1.1675419921875,0.17216507738828657,0.0021259061127901074,0.04691474977955222
1746483005104539000,1.177538818359375,0.107301267811656,0.0780173056602478,0.0528263849761337
1746483005114536000,1.187535888671875,-0.0241162041246891,0.16530191362053154,0.09247779268920421
1746483005124533000,1.197532958984375,-0.1695107634872198,0.255233528958261,0.10707023553475736
1746483005134530000,1.207530029296875,-0.28871172792911526,0.28497487948834893,0.14762516795881092
1746483005144526800,1.21752685546875,-0.36180268310308455,0.27194150265306233,0.15324439608007667
1746483005154524200,1.227524169921875,-0.35259938594996926,0.21345950306802985,0.13557459161579608
1746483005164521000,1.23752099609375,-0.27002222502827644,0.13413316063582897,0.07233421852253377
1746483005174518000,1.24751806640625,-0.198999892821908,0.018145897543430326,0.041984965227171774
1746483005184515000,1.25751513671875,-0.1453553963959217,-0.10595628294348716,0.050332157007604836
1746483005194512100,1.26751220703125,-0.06776888336837292,-0.24125819509774446,0.03274097073748707
1746483005204509000,1.277509033203125,-0.00647241088449955,-0.3331137642353773,-0.025211086689308285
1746483005214506200,1.28750634765625,0.08060498406589031,-0.3841331728547811,-0.06417977283522486
1746483005224503000,1.2975029296875,0.1680161410152912,-0.33539135377854107,-0.06312098449729382
1746483005234499800,1.307499755859375,0.2437806993126869,-0.22489070540368555,-0.03042524114102125
1746483005244497200,1.3174970703125,0.2705114698499441,-0.13326543789058923,0.01661912636756897
1746483005254494000,1.327493896484375,0.2411398294150829,-0.0522998038187623,0.012004399113729596
1746483005264491000,1.337490966796875,0.11275427252054214,0.06418839453309774,-0.01536846871934831
1746483005274488000,1.347488037109375,0.02979132715165615,0.1168187454804778,-0.06102116267383098
1746483005284485000,1.357485107421875,0.041600422888994217,0.04398673350363969,-0.15185571820065377
1746483005294482000,1.36748193359375,0.006993219888210296,-0.041890638007223605,-0.21629626086391507
1746483005304479200,1.377479248046875,-0.1081546697705984,-0.2799278252318501,-0.15028167381696403
1746483005314476000,1.38747607421875,-0.16906009711027145,-0.38837417142540215,-0.16607399397157133
1746483005324473000,1.39747314453125,-0.14808862075209617,-0.3798232007011771,-0.3187431474469602
1746483005334470100,1.40747021484375,-0.10683891099691391,-0.3114145581245422,-0.37777993137054144
1746483005344467000,1.417467041015625,-0.15124328539073467,-0.1945747698560357,-0.3372320862744003
1746483005354464000,1.427464111328125,-0.13497019598186016,-0.07267272976189851,-0.3047331075992435
1746483005364461000,1.4374609375,-0.021978023052215575,0.023800562304258345,-0.27053331635557115
1746483005374458000,1.4474580078125,-0.02215864031612873,0.08874825077205896,-0.15840674727931617
1746483005384455000,1.457454833984375,-0.11402736119627951,0.10750088203698396,-0.06262947465330362
1746483005394452000,1.467451904296875,-0.3042582566291094,0.12122516374588012,0.04044131598174572
1746483005404449000,1.477448974609375,-0.45625323716998095,0.19646248329877852,0.09750621531046927
1746483005414446000,1.487446044921875,-0.4773457095593214,0.2512701782852411,0.1880979750573635
1746483005424443000,1.49744287109375,-0.4260720339179039,0.26445553081184625,0.2799227106653154
1746483005434440200,1.507440185546875,-0.37102643852233885,0.2605830732926726,0.4423594441130757
1746483005444437000,1.51743701171875,-0.2750923678994179,0.24340368269383905,0.4633627769142389
1746483005454433800,1.527433837890625,-0.03457622334063053,0.21651246089786289,0.3259570243485272
1746483005464431000,1.53743115234375,0.25493162340223785,0.16908201668113468,-0.0259625626437366
1746483005474428400,1.547428466796875,0.406110611385107,0.11989625322967767,-0.5081469444058835
1746483005484425500,1.557425537109375,0.6115554425626993,-0.005042962603271008,-0.6085773035347462
1746483005494422500,1.567422607421875,0.8565513628840445,-0.17265286090523005,-0.4238578649997711
1746483005504419600,1.577419677734375,1.0425357067883014,-0.23341245003342628,-0.345590237840265
1746483005514416400,1.58741650390625,1.175938799583912,-0.2153095148488879,-0.31160525839105246
1746483005524413400,1.597413330078125,1.2958441129028797,-0.14003741624355315,-0.30815745602473615
1746483005534410500,1.607410400390625,1.4394313305824995,-0.03394435517787933,-0.34493498880192636
1746483005544407300,1.6174072265625,1.566209452280402,0.09739128369390963,-0.4414877758450806
1746483005554404600,1.627404541015625,1.270828329589963,0.4229024639710784,-0.4915817401826381
1746483005564401400,1.6374013671875,1.2128852591872215,0.3642895314827561,-0.4605015422642231
1746483005574398500,1.6473984375,1.0784317805558443,0.29081059990450736,-0.24826544351130722
1746483005584395500,1.6573955078125,0.883456905466318,0.13366320503652096,-0.02277472638785839
1746483005594392600,1.667392578125,0.6573024637371301,0.04991933842301369,0.08702522637173533
1746483005604389400,1.677389404296875,0.4170084374964237,0.0705455084748566,0.02755333896651864
1746483005614386400,1.687386474609375,0.26496552616059776,0.13520108212828635,-0.22900194011479616
1746483005624383500,1.697383544921875,0.17804010690152644,0.20595161165595052,-0.5922266188450157
1746483005634380300,1.70738037109375,0.24021920743882655,0.23036913681477306,-0.8979102321021258
1746483005644377300,1.71737744140625,0.3248252438396215,0.14395415129587052,-0.956068114299327
1746483005654374400,1.72737451171875,0.25813421883583065,-0.11263488392457366,-0.6119435650974512
1746483005664371500,1.737371337890625,0.08421089960336685,-0.3133890730679035,-0.07434095523506402
1746483005674368300,1.7473681640625,-0.11773089188933372,-0.31213571200594303,0.25929303348213434
1746483005684365600,1.757365478515625,-0.2575847682595253,-0.149692841078341,0.3201278798036277
1746483005694362400,1.7673623046875,-0.25826222912967206,0.06530439295098185,0.2029277337901294
1746483005704359400,1.777359375,-0.1452151111423969,0.23265198705494403,0.08510141870230435
1746483005714356500,1.7873564453125,-0.011578794112801551,0.3371199311368167,-0.09989785968735813
1746483005724353500,1.797353515625,0.09285422478616237,0.31933950590491295,-0.22611133323982358
1746483005734350300,1.807350341796875,0.08899345770478248,0.2042433464333415,-0.13174582710787652
1746483005744347400,1.817347412109375,0.015095277801156043,0.0557873536735773,-0.003804726045206189
1746483005754344400,1.827344482421875,-0.09057108228504657,-0.04374284174516797,0.006904372560977936
1746483005764341200,1.83734130859375,-0.22494155880808828,-0.035676585797965524,-0.03319448665864765
1746483005774338600,1.847338623046875,-0.3214022836536169,-0.0004953823015093803,-0.11652538855709135
1746483005784335400,1.85733544921875,-0.3466425233721733,0.0031074644960463046,-0.27280703344121576
1746483005794332400,1.86733251953125,-0.2480167294472456,0.01802636281698942,-0.46486908982396125
1746483005804329500,1.87732958984375,-0.10013152231276035,0.00876008343026042,-0.6465859855420887
1746483005814326500,1.887326416015625,-0.11298048249185084,-0.020287001225352284,-0.8441399173393845
1746483005824323300,1.8973232421875,-0.22720073591172693,0.04534004780873656,-1.0061941542755812
1746483005834320600,1.907320556640625,-0.3258703689783811,0.14184943410158157,-1.0462633490093052
1746483005844317400,1.9173173828125,-0.3931149362117052,0.19493483534008263,-1.0127145690202712
1746483005854314500,1.927314453125,-0.33470775542855263,0.21800927532687783,-1.120911981954053
1746483005864311600,1.9373115234375,-0.15937340035438535,0.15399214570745826,-1.3610343779549001
1746483005874308400,1.947308349609375,-0.030296938586235046,0.05052621827498078,-1.569100497546792
1746483005884305400,1.957305419921875,-0.01934007576406002,-0.006210398947447538,-1.7377578590750693
1746483005894302500,1.967302490234375,-0.161162621858716,0.034665801320224995,-1.8640870679616928
1746483005904299500,1.977299560546875,-0.35429040777683257,0.185579270234704,-2.0515131351068616
1746483005914296300,1.98729638671875,-0.5766285060882568,0.38678646384254095,-2.172744728593528
1746483005924293600,1.997293701171875,-0.7647767500281334,0.46637861760407684,-2.2497318144232032
1746483005934290400,2.00729052734375,-1.0283820937514305,0.5611624952785671,-2.2795959145501254
1746483005944287500,2.01728759765625,-1.2517711624205112,0.7280665833987295,-2.30536163944751
1746483005954284500,2.027284423828125,-1.448354641750455,0.8345331539519131,-2.312065228739381
1746483005964281600,2.037281494140625,-1.6285124714583157,0.8739467343211174,-2.326635459753126
1746483005974278400,2.0472783203125,-1.8069623282045124,0.8289161908529699,-2.357206392975151
1746483005984275500,2.057275390625,-1.9679343959271907,0.7259292791090906,-2.4251463951267302
1746483005994272500,2.0672724609375,-2.1555635844290255,0.6211471545115113,-2.460169047060609
1746483006004269300,2.077269287109375,-2.3177193089783192,0.5216613827563822,-2.33146317217052
1746483006014266400,2.087266357421875,-2.3830033897936342,0.44870983605310316,-2.2425416106581686
1746483006024263400,2.097263427734375,-2.206128819540143,0.4672689905725419,-2.282300497333705
1746483006034260500,2.107260498046875,-1.9187550622165201,0.5988875380389392,-2.409173603838682
1746483006044257300,2.11725732421875,-1.5963047308146954,0.7082664889074861,-2.5378695418566464
1746483006054254600,2.127254638671875,-1.372453889852762,0.8574133865408599,-2.5528356403201817
1746483006064251400,2.13725146484375,-1.29395961433053,1.04455712961331,-2.478561028319597
1746483006074248400,2.14724853515625,-1.3005746485561132,1.307487642814964,-2.467169281211495
1746483006084245500,2.15724560546875,-1.3058593109607697,1.6211799366131423,-2.5139783786594867
1746483006094242300,2.1672421875,-1.2994611343562603,1.9733263180986045,-2.562958390405774
1746483006104239400,2.1772392578125,-1.3839438366383314,2.218042983087152,-2.6005712049633263
1746483006114236400,2.187236328125,-1.4844132126033305,2.4149456113688648,-2.629315068888664
1746483006124233500,2.1972333984375,-1.5752444071292877,2.6934906039401887,-2.661516672052443
1746483006134230300,2.207230224609375,-1.5952110903590917,2.876365583652258,-2.5663199757933617
1746483006144227600,2.2172275390625,-1.4382880057662724,3.010624416494369,-2.4533365706920622
1746483006154224400,2.227224365234375,-1.0898340490579606,3.1439643809258935,-2.5150121056213974
1746483006164221400,2.237221435546875,-0.6757073044776916,3.2769472024828192,-2.750440279391408
1746483006174218500,2.247218505859375,-0.3352957844495773,3.4204870738893747,-3.089033936342597
1746483006184215600,2.257215576171875,-0.29581016175746916,3.527294420704245,-3.508828205165267
1746483006194212400,2.26721240234375,-0.39330549034774304,3.6158240602895617,-3.789045076471567
1746483006204209700,2.277209716796875,-0.21690905900001525,3.7511823788061736,-3.902882760314643
1746483006214206500,2.28720654296875,0.2826549121081829,3.9766374400943514,-3.8808617749035355
1746483006224203300,2.297203369140625,0.9015729923933744,4.246895519705117,-3.7381384805768727
1746483006234200600,2.30720068359375,1.4439064301699398,4.396546859729289,-3.5966467738717793
1746483006244197400,2.317197265625,1.748258210301399,4.5321460012644526,-3.5520845785677433
1746483006254194400,2.3271943359375,1.9713065027087926,4.737032029515505,-3.541818036097288
1746483006264191500,2.33719140625,2.2318460291206836,4.958816001075506,-3.442579078710079
1746483006274188500,2.3471884765625,2.7933845181047916,5.19350037074089,-3.229954857422411
1746483006284185300,2.357185302734375,3.8455823717296123,5.441497810965776,-3.5626115255400537
1746483006294182700,2.3671826171875,5.3479982740134,5.433154345512389,-4.608984910795092
1746483006304179500,2.377179443359375,7.568970442420244,4.89319874278307,-4.640665412694215
1746483006314175500,2.387175537109375,8.963474836039543,4.200247458037734,-3.1931501443773507
1746483006324173600,2.397173583984375,9.452673480477928,3.560442072546482,-2.935869912022352
1746483006334170400,2.40717041015625,9.159327078485488,2.916195489737391,-1.958441906569153
1746483006344167400,2.41716748046875,9.20083748500347,2.9755715155526996,-1.9501944488361476
1746483006354163500,2.42716357421875,9.229061124446988,2.9380174454450607,-1.857195262621343
1746483006364160500,2.437160400390625,9.244994022116064,2.9115099622696636,-1.7600167448952793
1746483006374157300,2.4471572265625,9.244826848855615,2.864566424787044,-1.6611761391758917
1746483006384154600,2.457154541015625,9.244347540906071,2.8430834917753933,-1.5654831838324665
1746483006394151400,2.4671513671875,9.260870221161841,2.8092089869633314,-1.4552853177964686
1746483006404148200,2.477148193359375,9.260252381524444,2.7718209210723637,-1.3479586232826113
1746483006414145500,2.4871455078125,9.258134074196219,2.728484468171,-1.2390201096579432
1746483006424142300,2.497142333984375,9.264835033139587,2.6857231848090883,-1.1246729419227688
1746483006434139400,2.507139404296875,9.266889043059944,2.6519968562960625,-0.9896482392746955
1746483006444136400,2.517136474609375,9.272072583177685,2.596730311626196,-0.8703803470764309
1746483006454133500,2.527133544921875,9.25733269468546,2.533392688703537,-0.751824183344096
1746483006464130300,2.53713037109375,9.249828018143772,2.487425010515749,-0.626647140167281
1746483006474126800,2.547126953125,9.252651843392849,2.4411959049127994,-0.4840110126674175
1746483006484123600,2.55712353515625,9.26095030066073,2.379493335846066,-0.34527591119408607
1746483006494121000,2.567120849609375,9.250528275367618,2.335502656819671,-0.20321411298345773
1746483006504117800,2.57711767578125,9.239280320644378,2.254039594619721,-0.05446464456929825
1746483006514114800,2.58711474609375,9.226431944987178,2.205718777434528,0.09967044413965195
1746483006524112000,2.59711181640625,9.21018515906334,2.1362422133654353,0.25077096005883065
1746483006534109000,2.60710888671875,9.183536221590638,2.073440304754674,0.40158085900098084
1746483006544105700,2.617105712890625,9.13405176745355,2.0067787981063128,0.5560028474930674
1746483006554102800,2.627102783203125,9.08388283818364,1.935937959946692,0.7254113927148282
1746483006564099800,2.637099853515625,9.032070817881822,1.8662438076041639,0.8791487599436193
1746483006574096600,2.6470966796875,9.014535161191224,1.8115050862006843,1.0418464093498885
1746483006584093700,2.65709375,8.982656506371498,1.7371607699647544,1.2015569327041506
1746483006594090800,2.6670908203125,8.945469223749637,1.6537056571647524,1.354460844783485
1746483006604087800,2.677087890625,8.905635226011276,1.597293741852045,1.5054818657256661
1746483006614084600,2.687084716796875,8.837297018322348,1.530183322392404,1.6560533893346785
1746483006624082000,2.69708203125,8.761283453699946,1.4697402518674731,1.811241612958908
1746483006634078700,2.70707861328125,8.688845409476757,1.3964790546931325,1.972282654264569
1746483006644075800,2.71707568359375,8.526503806966543,1.331183137309551,2.1121566966399548
1746483006654072800,2.72707275390625,7.9807760505765675,1.2989790499277412,2.2472712695285675
1746483006664070000,2.73706982421875,-9.870549932980536,7.590863125276565,5.155342197260261
1746483006674066700,2.747066650390625,-81.11625367236137,24.302037661945818,5.116869551002979
1746483006684063700,2.757063720703125,-127.58530434198379,41.23433449139595,12.228870132416485
1746483006694060800,2.767060791015625,-115.70678143267631,46.55408223795891,17.13069524924755
1746483006704057600,2.7770576171875,-73.60367907090186,32.72644069235324,14.067111980503796
1746483006714055000,2.787054931640625,-38.88562733895778,18.087383395141362,9.223419319167732
1746483006724051700,2.7970517578125,-16.507919909012315,8.789872419324517,5.561034875494242
1746483006734048800,2.807048828125,-2.3614824628591538,2.9416581400349733,3.373808909344673
1746483006744045800,2.8170458984375,6.158430275279283,-0.4304084191543981,2.007773508232087
1746483006754043000,2.82704296875,10.157807370448111,-2.36727039861083,0.826241784011945
1746483006764039700,2.837039794921875,10.852801559197902,-2.8582676169037815,0.007819423312973231
1746483006774037000,2.847037109375,10.06032782394886,-2.5303131351277233,-0.13756954655898734
1746483006784033800,2.85703369140625,9.69665291723311,-1.728701130785793,0.4343345430895686
1746483006794030600,2.867030517578125,9.782622058680653,-0.8763545261152088,0.4848022361103445
1746483006804028000,2.87702783203125,9.780056007584928,-0.6773992761526256,0.4809623656865209
1746483006814024700,2.887024658203125,9.751182379800081,-0.6446425963893533,0.560057968102768
1746483006824021800,2.897021728515625,9.671768066823482,-0.6522315171483903,0.6487228514403104
1746483006834018800,2.907018798828125,9.617838323715329,-0.693307039380446,0.7458419671293348
1746483006844015900,2.917015869140625,9.377675814899801,-1.0078228514559566,0.6498056051757186
1746483006854012700,2.9270126953125,8.721489203450083,-1.7434921649433672,0.2459112816005945
1746483006864010000,2.937010009765625,7.575918069601059,-2.832843837311864,-0.41871144202202554
1746483006874006800,2.9470068359375,5.7619613524645565,-4.23155883436352,-1.4681589740253984
1746483006884003800,2.95700390625,3.2036154242902994,-5.6525844474226234,-2.686864171537757
1746483006894001000,2.9670009765625,-0.6855845553696155,-6.537262419116496,-4.70432744526565
1746483006903998000,2.976998046875,-5.301006221213936,-6.376244758686423,-6.509008969056606
1746483006913994800,2.986994873046875,-8.862032815650105,-4.676448673737049,-5.518977356487512
1746483006923991800,2.99699169921875,-10.08915878163576,-2.04923145391047,-2.6350489363655445
1746483006933988900,3.00698876953125,-8.942001255378127,0.5593151138462126,0.33405484447777267
1746483006943985700,3.016985595703125,-6.393552451840042,2.5728084610298274,2.465899115145206
1746483006953982700,3.026982666015625,-3.5310470512360332,3.6661587015151977,3.3406314468860625
1746483006963979800,3.036979736328125,-0.9805372235149145,3.8271249240189786,3.2598540288627147
1746483006973976800,3.046976806640625,0.8144652023047209,3.20827698636055,2.6393761519148944
1746483006983973600,3.0569736328125,1.7718571125537157,2.096795315248519,1.7415037676051257
1746483006993971000,3.066970947265625,1.897188542574644,0.8551252756036818,0.767015468865633
1746483007003967700,3.0769677734375,1.6414491099208592,-0.15308949777930975,0.005797361167147756
1746483007013964800,3.08696484375,1.3224971420288085,-0.7841070350505411,-0.4856840604461729
1746483007023961900,3.0969619140625,1.0450234319508076,-0.9940274042069911,-0.7511324016876518
1746483007033958700,3.106958740234375,0.7115940258949994,-0.8320992048032582,-0.8666641760975122
1746483007043955700,3.116955810546875,0.2280178975135088,-0.47407414054274555,-0.783261012680456
1746483007053952800,3.126952880859375,-0.2102139452755451,-0.16135799830034375,-0.49959034765847027
1746483007063949800,3.13694970703125,-0.48936815578639503,-0.006480301930010319,-0.1823717794302851
1746483007073946600,3.146946533203125,-0.5280155740886926,0.029488544812798497,0.07538622650429606
1746483007083944000,3.15694384765625,-0.3073983082205057,0.05640080939680338,0.2712279840888455
1746483007093940700,3.166940673828125,0.01485796191394329,0.15791019593402741,0.3339360404036939
1746483007103937800,3.176937744140625,0.18271511297523974,0.26147490756586195,0.26147147349976
1746483007113934800,3.186934814453125,0.1625923624008894,0.2478320205301046,0.1055325411060825
1746483007123932000,3.196931884765625,0.04226502427756786,0.14936302460208534,-0.038841954493708905
1746483007133928700,3.2069287109375,-0.01804652882218361,-0.0034686990238726135,-0.12634908263087272
1746483007143925800,3.21692578125,-0.057873512297868725,-0.08799757853522897,-0.14914985677544026
1746483007153922800,3.2269228515625,-0.05095043503642082,-0.09472045704945921,-0.07123381953258066
1746483007163919600,3.236919677734375,-0.02316343344449997,-0.008671528363972902,0.03557075080331415
1746483007173917000,3.2469169921875,0.025353052443265914,0.0950599181368947,0.08857735118456184
1746483007183913700,3.256913818359375,0.03657879533469677,0.14659268310591578,0.0911221402965486
1746483007193910800,3.266910888671875,-0.005815408280491829,0.12028510641679167,0.03416033601611852
1746483007203907800,3.276907958984375,-0.025626024165749547,0.07857450115159154,-0.040111170711927116
1746483007213905000,3.28690478515625,-0.02978080575764179,0.02677417128756642,-0.06919135391954333
1746483007223901700,3.296901611328125,-0.01633680229485035,-0.003723842828720808,-0.02017630739249289
1746483007233898800,3.306898681640625,0.01220189444720745,0.0067155719906091685,0.026646964711323377
1746483007243895800,3.316895751953125,0.006496960803866386,0.04293576314598321,0.037132849020883436
1746483007253892900,3.326892822265625,-0.012796937730908392,0.08268120581805706,0.03401654363125563
1746483007263889700,3.3368896484375,-0.019055998125672338,0.09205372205823659,-0.014071926102787255
1746483007273886700,3.34688671875,-0.014071779972314834,0.06346548708602785,-0.025784064271673558
1746483007283883800,3.3568837890625,-0.0047667760103940965,0.037769904815405604,-0.02247128646187484
1746483007293880600,3.366880615234375,0.010941080731153487,0.011433394292742012,0.007679083260521293
1746483007303878000,3.3768779296875,0.0040413843452930445,0.03339081294834614,0.01405778797958046
1746483007313874700,3.386874755859375,-0.005697334858775139,0.06036693654879927,0.023525544755160808
1746483007323871700,3.396871826171875,-0.003146481332182884,0.08790288598909973,0.012440708171762526
1746483007333868800,3.406868896484375,-0.009863222366571426,0.07164221767038106,-0.00921509718876332
1746483007343865900,3.416865966796875,-0.0001356090784072876,0.04233370559960604,-0.013435089503973721
1746483007353862700,3.426862548828125,0.0000017535656690597534,0.04152385052144527,-0.0034797684071585532
1746483007363858700,3.436858642578125,-0.010334347009658813,0.04023761010318994,0.00865139889139682
1746483007373855700,3.446855712890625,0.001177227085828781,0.04975143451020121,0.02867730149514973
1746483007383852800,3.456852783203125,-0.014690788653492926,0.059265697308629746,0.024968802366033195
1746483007393849900,3.466849853515625,-0.009163549664616584,0.06637757514044643,-0.0004592515422031283
1746483007403846700,3.4768466796875,-0.013826865300536156,0.05971899403408169,-0.006329020358435809
1746483007413844000,3.486843994140625,-0.02088029094338417,0.04532689606621861,-0.0014606106044724582
1746483007423840800,3.4968408203125,-0.0056564183264970775,0.03532163488045335,0.007502776845544576
1746483007433837800,3.506837890625,-0.0017886369824409484,0.04084273638948798,0.01872238225713372
1746483007443835000,3.5168349609375,0.0010217442631721496,0.0476531470566988,0.016284304922632872
1746483007453831700,3.526831787109375,-0.011199439406394958,0.05752382207736373,0.0003982786025851965
1746483007463828700,3.536828857421875,-0.009067103552818298,0.061896484203636644,-0.007637947532534599
1746483007473826000,3.546825927734375,-0.0184521870136261,0.053608256068825716,-0.003683912677131593
1746483007483823400,3.5568232421875,-0.0023977087914943693,0.043254473706334826,-0.0005215031234547496
1746483007493820200,3.566820068359375,-0.02609773333072662,0.0320471432544291,0.019576624466292557
1746483007503817200,3.576817138671875,-0.014617723417282104,0.03864303438812494,0.022231376758776605
1746483007513814300,3.586814208984375,-0.006153261932730674,0.04599792719557881,0.013731697830371557
1746483007523811300,3.596811279296875,0.01262450377345085,0.04401552120670676,0.008764759605377911
1746483007533808000,3.60680810546875,0.0005769231051206588,0.05257847462967038,-0.010809015316702425
1746483007543805400,3.616805419921875,-0.018223638954758644,0.047404432992637156,-0.019057021038979292
1746483007553802200,3.62680224609375,-0.03175648974478244,0.03271744373142719,-0.005593107299320399
1746483007563799300,3.63679931640625,-0.001585223364830017,0.048636020614206785,0.013087627773173153
1746483007573796400,3.64679638671875,-0.00776946495771408,0.04159706188812852,0.015648637367598712
1746483007583793400,3.65679345703125,-0.000346036958694458,0.040777708329260344,0.006534772063605487
1746483007593790200,3.666790283203125,-0.011048048236966132,0.03325271965190768,0.0008161021558567881
1746483007603787300,3.676787353515625,-0.003782441148161888,0.030718378868699072,-0.012157105457410215
1746483007613784300,3.686784423828125,-0.00789104551076889,0.04203384587019682,-0.0010439560949802398
1746483007623781000,3.696781005859375,-0.012579495587944984,0.02891585949137807,0.014322393732517957
1746483007633778400,3.7067783203125,-0.003913374051451683,0.04684796815365553,-0.016142558364383875
1746483007643775200,3.716775146484375,-0.01714110441505909,0.04902472767084837,0.007030921550095081
1746483007653772300,3.726772216796875,-0.0043324762463569635,0.027718028008937835,0.00413552890215069
1746483007663769300,3.736769287109375,-0.008283259698748588,0.027269845850020645,-0.0013574790235608815
1746483007673766400,3.746766357421875,-0.013556816187500953,0.04629457205459475,0.011703333807922899
1746483007683763200,3.75676318359375,-0.008498948276042938,0.04200958821177482,-0.009765095754340291
1746483007693760500,3.766760498046875,0.00865092396736145,0.04921761989444494,0.003266527515277266
1746483007703757300,3.77675732421875,-0.019514847809076308,0.04724266655966639,0.011626359581574796
1746483007713754000,3.786754150390625,-0.01595510950088501,0.03406345151290297,-0.005362696076929569
1746483007723751400,3.79675146484375,0.013470891469717024,0.038169279396533966,-0.0035523952519521114
1746483007733748200,3.806748291015625,-0.007944821524620055,0.05540127696543932,0.010205167672038077
1746483007743745300,3.816745361328125,-0.022178514060378074,0.03356602338477969,-0.0045843686481937766
1746483007753742300,3.826742431640625,-0.013286182552576064,0.032397564127296205,0.015491693240217864
1746483007763739400,3.836739501953125,-0.031960487884283066,0.03547404896318912,0.0015101488346233962
1746483007773736200,3.846736083984375,-0.0668628744393587,-0.00036079613640904425,-0.10752473783660679
1746483007783733200,3.856733154296875,-0.09364683646857738,-0.022853198451548814,-0.12897380511127413
1746483007793730300,3.866730224609375,-0.12216624398827552,-0.0236544318318367,-0.15965024453438817
1746483007803727400,3.876727294921875,-0.08176292192935943,-0.05727832288369536,-0.22268629069458692
1746483007813724200,3.88672412109375,-0.015005845952033995,-0.023201865758746863,-0.18802662685420363
1746483007823721200,3.89672119140625,0.04054711444377899,0.08038315800875424,-0.002065225434117019
1746483007833718300,3.90671826171875,0.16141338174939154,0.2371032673753798,0.3050875470601022
1746483007843715000,3.916715087890625,0.2626671860903501,0.35751784539073705,0.6199376325912773
1746483007853712400,3.92671240234375,0.26570027017593384,0.2852497509069741,0.6671244773104786
1746483007863709200,3.936709228515625,0.10068097288906573,0.08016717717051505,0.40264107211101796
1746483007873706200,3.946706298828125,-0.07971534174978732,-0.06927943406179547,0.033735023276135326
1746483007883703300,3.956703369140625,-0.2354541849941015,-0.23641353154554962,-0.3446768858550116
1746483007893700400,3.966700439453125,-0.3266998055398464,-0.3468579196885228,-0.6487281121373176
1746483007903697200,3.976697265625,-0.15787176361978053,-0.15362828083112834,-0.6456835568096488
1746483007913694500,3.986694580078125,0.0673819298774004,0.15189955734238028,-0.28518559962958095
1746483007923691300,3.996691162109375,0.12151567112505435,0.23734525943771004,0.12071425508167594
1746483007933688300,4.006688232421875,0.06960194401443004,0.1969267398096621,0.36966676754169164
1746483007943685400,4.016685302734375,0.01152268001139164,0.12240370600596069,0.4085456565123051
1746483007953682200,4.02668212890625,-0.03917231895923614,0.043514147555828095,0.2099209902109578
1746483007963679200,4.03667919921875,-0.04175122953653335,-0.011710603798925875,-0.04633486753236502
1746483007973676300,4.04667626953125,-0.04130757742226124,-0.026400515669584273,-0.20497100312076508
1746483007983673300,4.05667333984375,-0.022712182545661926,-0.03592559212297201,-0.21044231067132205
1746483007993670100,4.066670166015625,0.0248527017056942,0.0037746962331235406,-0.07208342209924012
1746483008003667500,4.07666748046875,0.011730769804120062,0.032672581676393746,0.0718402609931305
1746483008013664300,4.086664306640625,-0.0063923313856124875,0.0650124242670834,0.12469156121481209
1746483008023661300,4.096661376953125,-0.029237784922122954,0.07860445789843797,0.07905991004835813
1746483008033658400,4.106658447265625,-0.032464930275082585,0.05522109809294343,-0.0006102773854508996
1746483008043655400,4.116655517578125,0.02102057619690895,0.0221631703607738,-0.03685637016706168
1746483008053652200,4.12665234375,0.0058820437759161,-0.005725976431369781,-0.017833251397684217
1746483008063649300,4.136649169921875,-0.0351700975805521,-0.04355374891385436,0.03643036330733448
1746483008073646300,4.146646240234375,0.06698796212375163,-0.045011838767677545,0.08221950659044086
1746483008083643100,4.15664306640625,0.2295072592884302,-0.02956321748420596,0.10605152347888797
1746483008093640400,4.166640380859375,0.40602702475488184,-0.0333271000623703,0.04928677614051848
1746483008103637200,4.17663720703125,0.4847089318037033,-0.05633928846791386,-0.010232128744199872
1746483008113634300,4.18663427734375,0.42166883052289483,-0.03959712024256587,-0.15468684997335075
1746483008123631400,4.19663134765625,0.26799042693972586,0.08735387380421161,-0.2991161445003003
1746483008133628400,4.20662841796875,0.08704699981212616,0.2771748732618987,-0.23506131321899593
1746483008143625200,4.216625244140625,-0.15812661516368387,0.3835197171315551,-0.1072439116012305
1746483008153622300,4.226622314453125,-0.44872576427459715,0.2843184614062309,0.018120982297882438
1746483008163618300,4.236618408203125,-0.6616448768556118,0.0867408564724028,0.16121552108973264
1746483008173615000,4.246614990234375,-0.5116220731705426,0.48408451629504556,1.400141084332019
1746483008183612400,4.2566123046875,-0.10597966381907463,0.48193216056674715,2.47154325851202
1746483008193609200,4.266609130859375,-0.38428105689287184,0.4662568909205496,3.1831630033701654
1746483008203606300,4.276606201171875,0.29540158095657826,0.22548151090368626,2.7399785066097975
1746483008213603300,4.286603271484375,0.5760451532423496,0.033070348822325464,1.6628049094215034
1746483008223600400,4.296600341796875,0.8798626803666353,-0.282458805014193,-0.4990456097899005
1746483008233597200,4.30659716796875,-0.48413610035181043,-1.032130486499518,-2.657142694751918
1746483008243594200,4.31659423828125,-2.169552362293005,-1.5040304978735743,-3.4786116383388634
1746483008253591300,4.32659130859375,-3.3980361726284025,-1.5649712887875735,-3.0285370898038146
1746483008263588000,4.336588134765625,-3.7856010734975336,-1.111699113254994,-2.186767262596637
1746483008273585400,4.34658544921875,-3.304354264846444,-0.24029680271968243,-1.2150060507334768
1746483008283582200,4.356582275390625,-1.9796680883407591,0.18749913238137958,-0.2254951010376215
1746483008293579300,4.366579345703125,-0.6411544620126486,0.2819759899333119,0.4293152536228299
1746483008303576300,4.376576416015625,-0.926976898241043,0.8847847930692135,0.05137041401416063
1746483008313573400,4.386573486328125,-3.154306911242008,1.9613076712638138,-0.6342839917212725
1746483008323570200,4.396570068359375,-2.4903315456122157,3.6175916544839737,1.1859241870254278
1746483008333567500,4.4065673828125,-3.205415167188644,4.251065206605196,0.8230027290254831
1746483008343564300,4.416564208984375,-4.4758682337254285,3.3091905989617105,0.10044394926279783
1746483008353561300,4.426561279296875,-5.185283746537566,2.495897947567701,-0.5608788560315966
1746483008363558400,4.436558349609375,-6.1693468060910694,2.455081076271832,-0.15041370269879697
1746483008373555200,4.44655517578125,-7.491619491714238,2.517711135447025,0.4816751170657575
1746483008383552300,4.45655224609375,-8.790876627930999,2.5507231782108546,0.7042293423458933
1746483008393549300,4.46654931640625,-9.622350248181819,2.461673898665607,0.5815906585402787
1746483008403546400,4.47654638671875,-9.618849546584487,2.335240644882619,0.23746771677359937
1746483008413543200,4.486543212890625,-8.89874546649754,2.3888754966974255,0.2658589678689837
1746483008423540500,4.49654052734375,-7.718105357354879,2.706677710032463,0.5712031200386584
1746483008433537300,4.506537353515625,-6.375377328202128,2.972944381919503,0.7948604842551052
1746483008443534300,4.516534423828125,-5.038374690958857,2.809582496450841,0.9209896405249833
1746483008453531400,4.526531494140625,-3.9663825880616903,2.5640835950434204,1.1008799053378402
1746483008463528400,4.536528564453125,-3.323215032660961,2.3921333294495937,1.2898726372778415
1746483008473525000,4.54652490234375,-2.9012229615330694,2.0155488184086976,1.291789722945541
1746483008483522000,4.55652197265625,-2.4301918419480324,1.5274981749616563,0.9208959708921611
1746483008493519000,4.56651904296875,-2.036795750707388,1.2880343159347771,0.23875614914894103
1746483008503516000,4.576515869140625,-1.9192904842674732,1.5045043989956377,-0.502415853407979
1746483008513513200,4.58651318359375,-2.076081466913223,1.9480000075317918,-0.6898275997668505
1746483008523510000,4.596510009765625,-2.2092998507916928,1.9574599097944796,-0.3852579391010105
1746483008533507000,4.606507080078125,-2.2545593807101247,1.788859393019974,-0.09439590127021073
1746483008543504000,4.61650390625,-2.3634955562472344,1.8483681053042411,0.24458660886809228
1746483008553501200,4.626501220703125,-2.627479670155048,1.9623698936678469,0.6602827947221696
1746483008563498000,4.636498046875,-2.8204601565569636,1.7810029804311691,0.9363320249550044
1746483008573495000,4.6464951171875,-2.8889468328058716,1.4679842019803822,1.031538511955738
1746483008583492000,4.6564921875,-2.986238747778535,1.265981912472099,1.0182665040589869
1746483008593489000,4.666489013671875,-2.9606033712625504,1.1203826243177055,0.9183036163114011
1746483008603486000,4.67648583984375,-2.859074841633439,1.091189701450616,0.8317292755123228
1746483008613483000,4.68648291015625,-2.805618561255932,1.1906230123661459,0.883182399373874
1746483008623480000,4.69647998046875,-2.782993472471833,1.4581664261907339,0.8833495726343243
1746483008633476900,4.706476806640625,-2.7099364195674656,1.583455916766077,0.7643496837224811
1746483008643474200,4.71647412109375,-2.524720137426257,1.4101763022646308,0.5827881246965378
1746483008653471000,4.726470947265625,-2.4269664501607418,1.004333036578819,0.35346345543339847
1746483008663468000,4.736468017578125,-2.3979075289368628,0.4073918103020638,0.09800225519910453
1746483008673465000,4.746465087890625,-2.1806278830587864,0.026844679240509865,-0.07267678488250821
1746483008683462100,4.756462158203125,-1.7196914565086363,0.13794161300808191,-0.120611342696473
1746483008693459000,4.766458984375,-0.9026526043236255,0.44507900527007876,0.0424262609875761
1746483008703456000,4.7764560546875,-0.017448562929034232,0.6895445450417697,0.4445381763916462
1746483008713453000,4.786453125,0.25060206976532934,1.0508365752089768,0.5538324811840429
1746483008723449900,4.796449951171875,-0.11158698230683803,1.4346908580571411,0.5648841461502015
1746483008733447200,4.806447265625,-0.5132826998591423,1.2708416274629533,0.6239665958464146
1746483008743444000,4.81644384765625,-0.7475158186256885,0.9105825936052948,0.6084316114537418
1746483008753441000,4.82644091796875,-0.6868249108195305,0.6689726624604314,0.43905784528441727
1746483008763438000,4.83643798828125,-0.19146832827329635,0.5814658631168306,0.14820238332487642
1746483008773435100,4.84643505859375,0.6244920810252428,0.6721931588768959,-0.057058031196519726
1746483008783432000,4.856431884765625,1.6374609170675276,0.9441281587239354,-0.05444507221914827
1746483008793429200,4.86642919921875,2.619693838584423,1.2913934171043335,0.09214972977861761
1746483008803426000,4.876426025390625,3.3340316102296113,1.5469474101886151,-0.041841318972781295
1746483008813422800,4.8864228515625,3.761200207212567,1.6860282563596962,-0.558972145627439
1746483008823420200,4.896420166015625,4.041413571387529,1.7871598956257104,-1.0444940743144602
1746483008833417000,4.9064169921875,4.174937075692415,1.7392124417975543,-1.1333183129321782
1746483008843414000,4.9164140625,4.1554555456310505,1.6070219396620988,-0.9792718797542154
1746483008853411000,4.9264111328125,3.871012581062317,1.4784737395517527,-0.6144396196968853
1746483008863408000,4.936408203125,3.4719086335688827,1.1893854333952067,-0.042127880829200146
1746483008873404000,4.94640380859375,3.2971465254247185,0.8706110140271485,0.21383608129546045
1746483008883401000,4.95640087890625,3.1656606644272802,0.9647466569259762,0.13708864944055676
1746483008893398000,4.96639794921875,2.7841800519078967,1.592134021001309,-0.22730317337289452
1746483008903394800,4.976394775390625,2.4458576131135223,2.1721533385716376,-0.8029970289595425
1746483008913392000,4.98639208984375,2.4270897842794654,2.590038120511174,-1.3527115168981254
1746483008923389000,4.996388916015625,2.777621131783724,2.793581501981616,-1.614551604514569
1746483008933386000,5.006385986328125,3.3204888225674627,2.633061854201555,-1.590967753700912
1746483008943383000,5.016383056640625,3.7999043241381645,2.3831164947792884,-1.3580293509200214
1746483008953380000,5.026380126953125,4.104759962138534,2.2501693290576337,-1.0305312346093356
1746483008963377000,5.036376953125,4.160261484608054,2.0989754357665777,-0.7193268851693719
1746483008973374200,5.046374267578125,3.990613358476758,1.938906454363465,-0.42392223547287283
1746483008983371000,5.05637109375,3.5192239269733427,2.129862741461396,-0.35479287740625437
1746483008993368000,5.0663681640625,2.9488047969192266,2.7095968123495577,-0.4719601440634578
1746483009003365000,5.076365234375,2.794908951193094,3.267194454753399,-0.8337854773897677
1746483009013362000,5.08636181640625,3.073593206104636,3.3757378315806386,-1.084912886203453
1746483009023359000,5.09635888671875,3.523533606866002,2.966929359413683,-1.0163841243784875
1746483009033356000,5.10635595703125,3.975644337403774,2.313631162881851,-0.854803423238173
1746483009043353000,5.11635302734375,4.126898728710413,1.6114865178555249,-0.6355906173404305
1746483009053350000,5.126349853515625,3.902586115455627,1.2384583841219543,-0.49059287527576084
1746483009063347200,5.13634716796875,3.2622897315770385,1.3614502652794123,-0.7168189940016716
1746483009073344000,5.146343994140625,2.5201480072051283,1.614645858669281,-0.7945053141418844
1746483009083341000,5.156341064453125,1.349247786310315,1.662346936520934,-1.2330575479917227
1746483009093338000,5.166338134765625,1.6117238337427378,1.4178414300650357,-0.5208081269279122
1746483009103335200,5.176335205078125,1.8411153576970098,1.1483265700370073,-0.19859971452318131
1746483009113332000,5.18633203125,1.4012018454313278,0.6492872073248028,-0.6962559523139149
1746483009123329000,5.1963291015625,1.9288380648136139,0.38144261859655376,-0.7142485589917749
1746483009133326000,5.206326171875,2.1975988916039464,0.8391568682298064,-0.5322374295674264
1746483009143323000,5.216322998046875,2.335851177996397,1.671131131479144,-2.292139900433272
1746483009153320200,5.2263203125,2.2917279586315153,1.5320406406968832,-3.4180718294411894
1746483009163317000,5.23631689453125,3.274107010620832,0.7463637259811162,-2.5763819356024262
1746483009173314000,5.24631396484375,3.3904876569449898,1.0344342333972454,-1.8576967824026942
1746483009183311000,5.25631103515625,1.7066852599412201,1.706534453293681,-1.6227932170286774
1746483009193308200,5.26630810546875,2.0704723948597907,1.8478192392498254,-1.2429717698931693
1746483009203305000,5.276304931640625,3.6244770300835367,1.6275000795453787,-1.129087908820808
1746483009213302000,5.286302001953125,2.9655577787995338,1.3982821585923433,-1.811536942643672
1746483009223299000,5.296299072265625,1.9694822098910807,1.0765163023233413,-2.3626225728049874
1746483009233296000,5.3062958984375,1.192467909580469,0.8357394610017538,-2.145248672772199
1746483009243293000,5.31629296875,0.7012602634072304,0.5987129121243954,-1.8154641990900038
1746483009253290000,5.3262900390625,0.7961959706425666,0.4759147999733686,-1.586301515455544
1746483009263287000,5.336287109375,1.3644453554421663,0.49549979040920733,-1.5800105986177921
1746483009273283800,5.346283935546875,1.9437229147344826,0.4530582405209541,-1.75312435503304
1746483009283281200,5.35628125,2.3459990625232456,0.3971837930858135,-1.7797358831048011
1746483009293278000,5.36627783203125,2.523533557990193,0.6109773504137993,-1.330584148503095
1746483009303275000,5.37627490234375,2.2712428044855595,0.5816068790227175,-0.6326288449253886
1746483009313272000,5.38627197265625,1.9570184496372938,0.17268121021687982,-1.0053164946582167
1746483009323269000,5.39626904296875,1.9380495452731847,-0.004300912064313888,-1.5598656362116337
1746483009333266000,5.406265869140625,1.624951564106345,0.3197802354097366,-1.2530705545812844
1746483009343263200,5.41626318359375,1.0693822126597166,0.46902211785018444,-0.7469490515884012
1746483009353260000,5.426260009765625,0.4558779741168022,0.3437935636818409,-0.4074340420085937
1746483009363256800,5.4362568359375,0.06781622964143752,0.08879881191551685,-0.18754004891365766
1746483009373254100,5.446254150390625,-0.29055180283784865,0.022757190731167793,0.0324994535991922
1746483009383251000,5.4562509765625,-0.5793944636702537,-0.001305237379670143,0.2122201339988038
1746483009393248000,5.466248046875,-0.6344383055001497,-0.14074030381590127,0.16825619684886187
1746483009403245000,5.4762451171875,-0.27240473625063893,-0.17049597513228654,-0.41258831949923186
1746483009413242000,5.4862421875,0.04109598049819469,-0.12312573667019605,-0.8925375991530716
1746483009423238100,5.496238037109375,0.26558102771043773,-0.15212942057549952,-1.0101818356722592
1746483009433235000,5.50623486328125,0.5039221663177013,-0.2631105459436774,-1.0259148999202996
1746483009443232000,5.51623193359375,0.45333647294044493,-0.32546003461182116,-1.0060143407292663
1746483009453229000,5.52622900390625,0.07865735712945461,-0.3542851470798254,-0.8855717056632041
1746483009463226000,5.53622607421875,-0.11855740584135055,-0.3412558618977666,-0.8916762330833822
1746483009473223000,5.546222900390625,-0.39187458076179027,-0.06964578315615653,-0.9683937081914394
1746483009483220000,5.556219970703125,-0.35751579956412316,0.23400106357634065,-1.1049971313983202
1746483009493217000,5.566217041015625,-0.24471418077051638,0.26772096234858034,-0.6387400212820619
1746483009503213800,5.5762138671875,-0.17721768460273743,0.0255932909399271,0.10176158033316023
1746483009513211100,5.586211181640625,-0.44621874988973137,-0.09588613982796669,0.2992383278415538
1746483009523208000,5.5962080078125,-0.5969663607180118,-0.07077303362041712,0.028484811130352318
1746483009533205000,5.606205078125,-0.6845610575407743,0.11903817509561776,-0.08696857341420836
1746483009543202000,5.6162021484375,-0.7195487842917442,0.14583441208451986,-0.04020418275762349
1746483009553199000,5.62619921875,-0.6647288143455982,0.001720247921347618,-0.003899765651207417
1746483009563196000,5.63619580078125,-0.4483487476557493,-0.010936404556035995,-0.25837140685888005
1746483009573193000,5.64619287109375,-0.21598609893620013,0.10160802460610865,-0.41062969624474643
1746483009583190000,5.65618994140625,0.030690321817994116,0.16869710901677606,-0.461547471120581
1746483009593186800,5.666186767578125,0.12975392263829708,0.18914894541501998,-0.5454667308336123
1746483009603183900,5.676183837890625,0.253564426702261,0.16694120526015757,-0.20886190961208193
1746483009613181000,5.686180908203125,0.35652971113622184,0.09030337125957012,-0.07739756632670759
1746483009623178000,5.696177978515625,0.3640145139336586,0.04469283594638109,-0.01299384854249656
1746483009633174800,5.7061748046875,0.17067746917903423,-0.0011982698738574982,0.4129583949206397
1746483009643172000,5.716172119140625,0.11596738934814929,-0.14631021290272472,0.6405600032508373
1746483009653169000,5.7261689453125,0.18714169724583624,-0.19348609783649443,0.47726325544025744
1746483009663166000,5.736166015625,0.18654548491835593,-0.08058218771219253,0.3604184987356886
1746483009673163000,5.7461630859375,0.2477110244989395,0.017166238856315612,0.15953019835129378
1746483009683160000,5.75616015625,0.29550504133105276,0.04845686465501785,-0.017434351740591228
1746483009693156900,5.766156982421875,0.37106150983572006,-0.009658347444236277,-0.04956482589691877
1746483009703154000,5.77615380859375,0.469617745655775,-0.024570085372030735,-0.1266379095096141
1746483009713151000,5.78615087890625,0.548953148177266,0.038997839175164695,-0.27572675681281833
1746483009723147800,5.796147705078125,0.5918734214931726,-0.022983985224366187,-0.4005077133441344
1746483009733145000,5.80614501953125,0.4670359124690294,-0.11888736844807862,-0.3688657533571124
1746483009743142000,5.816141845703125,0.3472662082284689,-0.15643413203209638,-0.2539010017128661
1746483009753139000,5.826138916015625,0.28467034358382226,-0.1175552430614829,-0.3417426590340212
1746483009763136000,5.836135986328125,0.31438977454304695,-0.08906184676587581,-0.3544210118865594
1746483009773133000,5.846133056640625,0.34220074153244495,-0.12776157977730035,-0.3579016205439344
1746483009783129900,5.8561298828125,0.31707974427938457,-0.12737228819876908,-0.3103229269629344
1746483009793127200,5.866127197265625,0.35254853254556656,-0.12603548663705585,-0.24685221571251748
1746483009803124000,5.8761240234375,0.4032406089067459,-0.12184154207855462,-0.19779048049952833
1746483009813120800,5.886120849609375,0.40954701557457446,-0.14060440247654915,-0.1958074534561485
1746483009823118000,5.8961181640625,0.4304518564373255,-0.14994506227374077,-0.25095165038798
1746483009833115000,5.906114990234375,0.39755437996387477,-0.17518121033906936,-0.3231759787952527
1746483009843112000,5.91611181640625,0.3871767783343792,-0.17082973713129757,-0.37104013825412835
1746483009853109000,5.92610888671875,0.3556476676046848,-0.1530474122032523,-0.3489945298584178
1746483009863106000,5.93610595703125,0.26621231135129925,-0.12809767986387013,-0.3336844037301838
1746483009873102800,5.946102783203125,0.1672194376796484,-0.10245762717276811,-0.2868229550404474
1746483009883100200,5.95610009765625,0.026478257080912587,-0.06780015528947114,-0.3141787621408701
1746483009893097000,5.966096923828125,-0.1138975973367691,-0.06148059687912464,-0.38398488695789124
1746483009903094000,5.976093994140625,-0.2133253552943468,-0.021667349667847155,-0.39778442586008456
1746483009913091000,5.986091064453125,-0.2454360653042793,-0.014222002097964285,-0.3727945076407864
1746483009923088000,5.996087890625,-0.20446049631536006,-0.01692804618626833,-0.3435756466148421
1746483009933084000,6.006083984375,-0.18097382226586342,-0.06907499753087759,-0.29690877064913507
1746483009943081000,6.0160810546875,-0.16147943272292614,-0.08544745566099882,-0.20493048844728617
1746483009953078000,6.026078125,-0.15465572418272494,-0.03779255503863096,-0.14717994494196027
1746483009963074800,6.03607470703125,-0.11240706651806831,-0.029123510892689226,-0.15929032518081365
1746483009973072100,6.046072021484375,-0.04697685523033142,-0.043372400997579094,-0.20894151418693363
1746483009983069000,6.05606884765625,-0.03138414930105209,-0.07099632098227739,-0.21301990607436744
1746483009993065700,6.066065673828125,-0.03559036881923675,-0.0967334043070674,-0.1740709475422278
1746483010003063000,6.07606298828125,-0.014079963278770445,-0.130569038413465,-0.13500205242484808
1746483010013059800,6.086059814453125,0.04027531176507473,-0.147546184438467,-0.05038304694462567
1746483010023057000,6.096056884765625,0.03624152620434761,-0.14737024334967136,0.011818630750663578
1746483010033054000,6.106053955078125,-0.008312485793232917,-0.1384843415826559,-0.0015165785754099488
1746483010043051000,6.116051025390625,-0.07392389886677264,-0.1372895788401365,-0.050293158437777305
1746483010053047800,6.1260478515625,-0.12042553780078888,-0.12948445804715156,-0.05503211485948413
1746483010063045000,6.136045166015625,-0.10094517678320407,-0.07571721202433108,-0.012668160252086818
1746483010073042000,6.1460419921875,-0.028678981995582577,-0.06251169349253177,-0.011020045985188335
1746483010083039000,6.1560390625,0.053498950475454325,-0.08394903379678725,-0.06128131144735962
1746483010093036000,6.1660361328125,0.13517594768702984,-0.100576051209867,-0.10108224716633557
1746483010103033000,6.176033203125,0.13635609738230706,-0.08906272354871034,-0.12743744412316008
1746483010113030000,6.18602978515625,0.11196166083812713,-0.1068064700320363,-0.15301398485768586
1746483010123027000,6.19602685546875,0.04170972848236561,-0.12487433390319347,-0.15263103168839587
1746483010133024000,6.20602392578125,-0.04641220708489418,-0.10943272688239812,-0.11925938009824603
1746483010143020800,6.216020751953125,-0.07747194673717021,-0.07842588646113872,-0.11237570326542481
1746483010153018000,6.22601806640625,-0.09231763369143009,-0.06834142255932092,-0.09370622023930772
1746483010163015000,6.236014892578125,-0.100033322635293,-0.07163140401542187,-0.07677574463393538
1746483010173012000,6.246011962890625,-0.11314707123041153,-0.0819888396397233,-0.08690428513949737
1746483010183009000,6.256009033203125,-0.1231172611027956,-0.0604866174057126,-0.033123120189178734
1746483010193006000,6.266006103515625,-0.1263151803612709,-0.06552928774803876,-0.011214563910290598
1746483010203003000,6.2760029296875,-0.1304372287273407,-0.06262713656574487,-0.07323030884573235
1746483010213000000,6.286,-0.15673369950056076,-0.06733896751850843,-0.06800710343788377
1746483010222997000,6.2959970703125,-0.18479659542441368,-0.05820756655782461,-0.03746122245872393
1746483010232993800,6.305993896484375,-0.18010346917212008,-0.02285655945241451,0.009761332894675434
1746483010242990800,6.315990966796875,-0.1467325299680233,-0.02486731475293636,0.03907435674378648
1746483010252988000,6.32598779296875,-0.12223580209314823,-0.02326309442669153,0.026765202529821543
1746483010262985000,6.33598486328125,-0.059061260777711865,-0.03537175763249397,0.003180237471312284
1746483010272981800,6.345981689453125,-0.0620966829508543,-0.03185965785831213,0.016343652160745112
1746483010282979000,6.35597900390625,-0.045782677009701726,-0.03201864781230688,0.010603227078914642
1746483010292975900,6.365975830078125,-0.025462358036637305,-0.032716859209537506,-0.026078462374676016
1746483010302973000,6.375972900390625,-0.0011649521261453627,-0.0532408840611577,0.009082063659932464
1746483010312970000,6.385969970703125,-0.04920622171759605,-0.05327653989642858,0.01779047170188278
1746483010322967000,6.395967041015625,-0.11385609628260135,-0.04393237296789884,0.01911699846475385
1746483010332963800,6.4059638671875,-0.10912556062936782,-0.006957271791994572,0.006591790347313508
1746483010342961000,6.4159609375,-0.08852700923681259,0.0021560089901089667,-0.035589692965801806
1746483010352958000,6.4259580078125,-0.03784896140098572,-0.023066695071756838,-0.06910827874597161
1746483010362954000,6.4359541015625,-0.021091887867450712,-0.0738937959894538,-0.05476026651500724
1746483010372951000,6.445950927734375,-0.022173253363370893,-0.10410919377207756,-0.003294876826927066
1746483010382947800,6.45594775390625,0.001970423290133476,-0.10736731878519058,0.02903808849840425
1746483010392945200,6.465945068359375,-0.00620353081524372,-0.10362024121135473,0.039442441137507556
1746483010402942000,6.47594189453125,-0.03906301336586475,-0.08495850310027599,0.01716702887418214
1746483010412938800,6.485938720703125,-0.08845862017571926,-0.0503892940223217,-0.04740333244751673
1746483010422936000,6.49593603515625,-0.11472528033256531,-0.06032791971266269,-0.0986235380357597
1746483010432932900,6.505932861328125,-0.13355389944314955,-0.06179419287294149,-0.0988012966223061
1746483010442930000,6.515929931640625,-0.12946224621534347,-0.06909750162363051,-0.11782843397967517
1746483010452927000,6.525927001953125,-0.06527063681185245,-0.07246580901294947,-0.10347669542166404
1746483010462924000,6.535924072265625,-0.009996493357419967,-0.05620820943415165,-0.11579901051130145
1746483010472920800,6.5459208984375,0.025913024413585662,-0.06379559582322836,-0.14124007003158331
1746483010482917600,6.555917724609375,0.08536942198872566,-0.07158873391747474,-0.0906203739200253
1746483010492914400,6.56591455078125,0.09547463641762732,-0.027141981686651707,-0.06716315429387613
1746483010502911500,6.575911376953125,0.2973369329333305,-0.005982289279997348,-0.05085697546615265
1746483010512908500,6.585908447265625,0.5413567016988993,-0.10182488222718238,0.13488628055807203
1746483010522905300,6.5959052734375,0.18428455424904822,-0.2735121129706502,0.15463285476379096
1746483010532902400,6.60590234375,-0.08811082965135573,-0.01709434266388416,-0.011745905724458862
1746483010542899500,6.6158994140625,-0.3192851453691721,0.15574293489754198,-0.14637936001564375
1746483010552896500,6.625896484375,-0.302565481236577,0.17383827129751442,-0.05360142903581727
