time,seconds_elapsed,z,y,x
1746481518967954400,0.474954345703125,-0.029962007543444632,-0.013352525787055492,0.04906582686621695
1746481518977951500,0.484951416015625,-0.16702303832471369,0.009150982443988322,0.10957425424493848
1746481518987947500,0.494947509765625,-0.21413784072101114,0.06908931831717491,0.16511331397956236
1746481518997943300,0.504943359375,-0.12076222240924835,0.14251023609787225,0.16258638931782915
1746481519007940600,0.514940673828125,0.061270168998837464,0.06695990507304668,0.05625067860269919
1746481519017936400,0.524936279296875,0.1507061097741127,-0.084352353900671,0.006613381124613806
1746481519027933400,0.534933349609375,0.09107084850072861,-0.2274117483139038,-0.032664142641611396
1746481519037929500,0.544929443359375,0.008110825741291046,-0.2428814123854041,-0.10118927860422991
1746481519047926500,0.554926513671875,-0.07899404173791408,-0.19276801269501448,-0.12336133552435785
1746481519057922300,0.56492236328125,-0.07148702710866928,-0.08500438806861639,-0.09444673640830442
1746481519067919600,0.574919677734375,-0.0005932897180318832,-0.007004910326004028,-0.00031679031461244445
1746481519077915400,0.584915283203125,0.05798574050068855,-0.003763444186747074,0.12084259416908025
1746481519087912400,0.594912353515625,0.0997849008321762,0.030591829879581926,0.19190637263068927
1746481519097908500,0.604908447265625,0.05405190818309784,0.07156359947621822,0.21592795727448535
1746481519107904500,0.614904541015625,-0.041191842088103295,0.09993629200160503,0.22725831131786106
1746481519117901300,0.6249013671875,-0.17933540740907192,0.11889613627642392,0.27505930588003247
1746481519127897600,0.634897705078125,-0.2852069346785545,0.16782821722775695,0.2800963319328613
1746481519137894400,0.644894287109375,-0.2681540930688381,0.16008534801602362,0.23985804597623644
1746481519147890400,0.654890380859375,-0.19205168111920357,0.09038549658507108,0.18798487007170914
1746481519157887500,0.664887451171875,-0.05292728806734085,0.007993629102408886,0.19140567483324555
1746481519167883500,0.674883544921875,0.10902736095190048,-0.10289923346042633,0.2323096764232963
1746481519177880600,0.684880615234375,0.23267244532108305,-0.23557196615487336,0.27155524328183384
1746481519187876400,0.69487646484375,0.3401157519519329,-0.3097892950102687,0.3036930787607096
1746481519197873400,0.704873291015625,0.38399873282015323,-0.32358255030214783,0.3050349035574123
1746481519207869400,0.714869384765625,0.3545248010545969,-0.27425240994393824,0.31343451964482666
1746481519217865500,0.724865478515625,0.26744682158231736,-0.2262014957413077,0.30562662237286564
1746481519227862300,0.7348623046875,0.2150683995693922,-0.18264292452186345,0.32683658366203305
1746481519237858600,0.744858642578125,0.16743921791017055,-0.13725538430958986,0.39222558615654707
1746481519247855400,0.75485546875,0.2646732652157545,-0.12511164979040623,0.4776694616209715
1746481519257851400,0.764851318359375,0.4486959536582231,-0.10860519001707435,0.5607932235747576
1746481519267848400,0.774848388671875,0.7037269457817077,-0.13212664311900735,0.6586116466395556
1746481519277844500,0.784844482421875,0.8389116612970828,-0.2674295781865716,0.746098499173671
1746481519287841500,0.794841552734375,0.5891530566185712,-0.4874209672413766,0.770119718491286
1746481519297837600,0.804837646484375,0.22360475724637507,-0.6055829440243542,0.6429024747237563
1746481519307834400,0.81483447265625,-0.04940203655064106,-0.48090223299711937,0.44186479246392846
1746481519317830400,0.824830322265625,-0.33012276572585103,-0.42594197779744863,0.257470640360564
1746481519327826400,0.834826416015625,-0.6517500903069973,-0.5078767491623759,0.1856197118429467
1746481519337823500,0.844823486328125,-1.0304542238503693,-0.6390560284286737,0.19640001252181827
1746481519347819300,0.8548193359375,-1.2633897040218114,-0.5946512156434357,0.24068013948146252
1746481519357816600,0.864816650390625,-1.3100029866367577,-0.45100642255768175,0.28993816445153203
1746481519367812400,0.874812255859375,-1.1908949611753226,-0.24390038016960022,0.38050610493142156
1746481519377809400,0.884809326171875,-0.9828425778478384,-0.06768193573728204,0.5465095178848132
1746481519387805400,0.894805419921875,-0.7990151197165251,0.033595103348791594,0.6702051268648356
1746481519397802200,0.90480224609375,-0.5935439850538968,0.07621317884773016,0.6353929758764802
1746481519407798500,0.914798583984375,-0.38115561834871764,0.11324337121173739,0.4429405684692785
1746481519417794600,0.924794677734375,-0.2485480598449707,0.14308423659354447,0.22645813738349824
1746481519427791400,0.934791259765625,-0.21731822432279585,0.11578750273659824,0.0684222692431882
1746481519437787600,0.94478759765625,-0.23695173007547854,0.06998392906934023,-0.10581124844960868
1746481519447784400,0.954784423828125,-0.2877642179459333,0.12578136574551463,-0.3121077280204743
1746481519457780500,0.964780517578125,-0.25355624339580535,0.2524959206879139,-0.4952028532892465
1746481519467777500,0.974777587890625,-0.28492402608394624,0.2547081899099052,-0.6483509493879973
1746481519477773300,0.984773193359375,-0.33215690190196034,0.1907537502631545,-0.6860505654461682
1746481519487770600,0.9947705078125,-0.2623217336535454,0.15761793498918414,-0.613575842474401
1746481519497766400,1.004766357421875,-0.12835925340950488,0.15550167348757385,-0.5332574933301657
1746481519507763500,1.014763427734375,0.052017187485098836,0.17236323030889034,-0.44413745010364797
1746481519517759200,1.02475927734375,0.24520810176730154,0.20629750248417256,-0.3647229544639587
1746481519527755500,1.034755615234375,0.4100888673663139,0.22385566326752304,-0.26084404405010864
1746481519537752300,1.04475244140625,0.4994090728074312,0.1930111738011241,-0.1719244918317534
1746481519547748400,1.054748291015625,0.5452940411478281,0.14063333631008862,-0.11012748594721779
1746481519557745400,1.064745361328125,0.5351175150483847,0.11559577955678105,-0.08932517387717961
1746481519567741400,1.074741455078125,0.4502601342350244,0.15465119413807987,-0.14108444107845425
1746481519577738500,1.084738525390625,0.3321545638144016,0.18272008141130208,-0.19860216220859436
1746481519587734500,1.094734619140625,0.2584007608175278,0.17375892245098948,-0.24828960983818396
1746481519597731300,1.1047314453125,0.23727906233370302,0.18049699853435158,-0.3484538836430758
1746481519607727600,1.1147275390625,0.26574177123010156,0.15782544026002288,-0.38332799395173783
1746481519617724400,1.124724365234375,0.27247254078984257,0.12774945094808934,-0.3602075959313661
1746481519627720400,1.134720458984375,0.2550923669219017,0.1170901097677648,-0.34444011795707047
1746481519637716500,1.144716552734375,0.2310673482120037,0.156095401597023,-0.271484954524599
1746481519647713500,1.154713623046875,0.16651567332446573,0.21636691494733093,-0.18469958305703474
1746481519657709300,1.164709228515625,0.14365736030638218,0.24509675034731626,-0.09265833688788115
1746481519667706400,1.174706298828125,0.17016016730666159,0.25430340850129723,0.022258465695101766
1746481519677702400,1.184702392578125,0.1639034449994564,0.2455696285560727,0.058083282591029996
1746481519687699500,1.194699462890625,0.1600210506081581,0.2576144327454269,0.02863430260363966
1746481519697695500,1.204695556640625,0.16768296353816986,0.15024799074307083,0.008188804614637047
1746481519707692500,1.214692626953125,0.1161415768712759,0.02841433971002698,0.014824260573741048
1746481519717688600,1.2246884765625,0.05637362912893295,-0.05551964264810085,0.013163834814541042
1746481519727685400,1.234685302734375,0.022984569746255873,-0.08882526153102517,0.0618094452410005
1746481519737681700,1.244681640625,0.022308277919888497,-0.15833835821822284,0.14897482900209724
1746481519747677400,1.254677490234375,0.04252162938714027,-0.20202157873064278,0.2522623311277479
1746481519757674500,1.264674560546875,0.07519581849873065,-0.22311405111998317,0.3435979315118864
1746481519767670500,1.27467041015625,0.1380138014614582,-0.21215295051410793,0.39443920708540825
1746481519777667600,1.28466748046875,0.1862590691924095,-0.19457330855131147,0.32793471762966364
1746481519787663400,1.294663330078125,0.2581850722402334,-0.24870047392770647,0.16261826402712612
1746481519797660700,1.30466064453125,0.3302466843664646,-0.3611503566741943,0.035318127749115226
1746481519807656400,1.314656494140625,0.34065409661233426,-0.48651451992094513,-0.044424065474979575
1746481519817653500,1.324653564453125,0.31910628167092797,-0.5109850904412567,-0.1159501642187126
1746481519827649500,1.3346494140625,0.2599193486869335,-0.4424580821819603,-0.12285384265994652
1746481519837646600,1.344646484375,0.14846388380527495,-0.25338541687354443,-0.07574190807417035
1746481519847642400,1.354642333984375,-0.07109130578935145,-0.07384601132497191,-0.020362952538393438
1746481519857638700,1.364638671875,-0.36022622756659983,0.075580287771672,-0.029141722402814773
1746481519867635500,1.374635498046875,-0.4553752852916717,0.2246891914822161,0.0028429500746540723
1746481519877631500,1.384631591796875,-0.41101825717091556,0.1743599570840597,0.11994140754565596
1746481519887628500,1.394628662109375,-0.327892230194807,0.016470657807588576,0.15547621025275438
1746481519897624600,1.40462451171875,-0.2835258497238159,-0.0950214858226478,0.13891882400978356
1746481519907621600,1.41462158203125,-0.24437457355260847,-0.15540230476632713,0.12561654883893206
1746481519917617700,1.42461767578125,-0.25192542732357975,-0.16707096911966798,0.05108808994144201
1746481519927614500,1.434614501953125,-0.32244565522670743,-0.08651946880668401,-0.023223785329610107
1746481519937610800,1.44461083984375,-0.26574586288332935,0.12763736887574195,-0.097193514365796
1746481519947606500,1.4546064453125,-0.08790215533673763,0.28518720706477757,-0.06727688033403828
1746481519957603300,1.464603271484375,0.010755202770233153,0.22498189081847667,-0.07569114600131288
1746481519967599600,1.474599609375,-0.012620996642112732,0.04834741293117404,-0.14839925760384648
1746481519977596400,1.484596435546875,-0.15037760847210882,-0.08301628299131988,-0.22742734774183482
1746481519987592400,1.494592529296875,-0.3134253134250641,-0.08187500400170683,-0.20831671508578584
1746481519997589500,1.504589599609375,-0.43463060342669485,-0.07184256254807114,-0.10839478040309622
1746481520007585500,1.51458544921875,-0.4696861347168684,-0.0808364547342062,-0.01365413908213377
1746481520017582300,1.524582275390625,-0.44200200897753233,-0.03378083517923951,0.03768116708602756
1746481520027578600,1.53457861328125,-0.4008785559505224,0.032937370092421765,0.0062161893674172455
1746481520037575400,1.544575439453125,-0.3572533492356539,0.02869067243337631,-0.027997575602680444
1746481520047571500,1.554571533203125,-0.3823515501350164,-0.010332447313517332,-0.0516131093293894
1746481520057567500,1.5645673828125,-0.4441209008276462,-0.08691957404017447,0.007897265189001336
1746481520067564500,1.574564453125,-0.5676560950815678,-0.02319105210378766,0.07741106512909755
1746481520077560300,1.584560302734375,-0.7119219426751137,0.11242767091467976,0.21360939640011636
1746481520087557600,1.5945576171875,-0.7340764913380146,0.16308482209295033,0.4352808840289712
1746481520097553400,1.604553466796875,-0.6073749420076608,0.13524959744513035,0.5899360236898065
1746481520107550700,1.61455078125,-0.44773383062779903,0.1084422545403242,0.5521664476679637
1746481520117546500,1.62454638671875,-0.348101490008831,-0.0018827450066804885,0.3489149252835661
1746481520127543600,1.63454345703125,-0.3207446965277195,-0.21580942719504237,0.2434215836767107
1746481520137539600,1.64453955078125,-0.3344488122314215,-0.5177576533161103,0.27572018094155937
1746481520147535600,1.65453564453125,-0.3419055579781532,-0.7292119540415704,0.38730000285524874
1746481520157532400,1.664532470703125,-0.1984410898953676,-0.8346056346662342,0.6094134620979428
1746481520167528700,1.67452880859375,0.11809972520172596,-0.8915142474547028,0.9718879800479858
1746481520177525500,1.684525390625,0.623667320638895,-0.8833448233939707,1.4517512984514236
1746481520187521500,1.694521484375,1.2847212458640336,-0.8521309160932898,2.0332067863047123
1746481520197518600,1.7045185546875,2.283067097792029,-0.8044562878571451,2.4199136090397833
1746481520207514600,1.7145146484375,3.3685026196300982,-0.7701222027093172,2.5473458107322453
1746481520217511400,1.724511474609375,4.68536146351099,-0.8401327275246381,2.568729959544539
1746481520227507700,1.7345078125,6.113388772025704,-0.4308700818493962,2.914519373218715
1746481520237504500,1.74450439453125,7.427260124528408,-0.20890563915595411,3.549148817376792
1746481520247500500,1.75450048828125,9.066759853947161,-0.6937361515127122,3.281867415489256
1746481520257496600,1.76449658203125,10.015725296634436,-0.7141977786526084,2.5798724080666897
1746481520267493400,1.774493408203125,10.316350749719142,-0.44419323541149497,1.7382143706709146
1746481520277489400,1.784489501953125,10.067091911256313,0.12082549690380692,1.4662109086975454
1746481520287486500,1.794486572265625,9.704495447427034,0.8874882068090141,1.8295108446210622
1746481520297482500,1.804482421875,9.549788285318016,1.1134477104879914,2.1151682995460925
1746481520307479600,1.8144794921875,9.355500223448873,1.2980521443411708,2.4364497332990167
1746481520317475600,1.8244755859375,9.155489692279696,1.4262795880645514,2.822720210443437
1746481520327472400,1.834472412109375,8.891832910630107,1.3099679153233765,3.389595676541328
1746481520337468700,1.84446875,8.622515619000792,1.1231919095847755,3.9886049412637945
1746481520347465500,1.854465576171875,8.335918691268564,0.9647938570685685,4.523779739457368
1746481520357461500,1.86446142578125,8.007188841205835,0.8144331266660243,5.043657015275955
1746481520367457500,1.87445751953125,7.666994763320684,0.6523216796498745,5.552399733617902
1746481520377454600,1.88445458984375,7.292158411121368,0.49433279245644807,6.0323833904653785
1746481520387450400,1.894450439453125,6.892909502199291,0.3326304742304608,6.473634288814663
1746481520397447700,1.90444775390625,6.47958998234868,0.16925311719803138,6.881303235557675
1746481520407443500,1.914443359375,6.048645373958349,0.029729459162894635,7.25919897532761
1746481520417440500,1.9244404296875,5.59999793561697,-0.13506887058336287,7.617882065105438
1746481520427436500,1.9344365234375,5.157233125573397,-0.289273782258667,7.928673522895574
1746481520437433600,1.94443359375,4.6997249199062585,-0.45266719537675376,8.22859228901565
1746481520447429400,1.954429443359375,4.2272167135059835,-0.611013663836196,8.480812899893522
1746481520457425700,1.96442578125,3.7590468285709617,-0.7637139431022107,8.69816444196403
1746481520467422500,1.97442236328125,3.3119121328800913,-0.9240129338689148,8.890275744315982
1746481520477418500,1.98441845703125,2.8162624126061795,-1.0788634499713778,9.050288027095794
1746481520487415600,1.99441552734375,2.380809094619751,-1.240412586929649,9.172370684453844
1746481520497411600,2.00441162109375,1.923013304182887,-1.3956465493917465,9.270418970751761
1746481520507408600,2.01440869140625,1.4729250193834305,-1.5480439732536673,9.344702935102582
1746481520517404700,2.02440478515625,1.0575772085756063,-1.719042491080612,9.389939668667315
1746481520527401500,2.0344013671875,0.6373855379331856,-1.8833032250851391,9.41908100747764
1746481520537397500,2.0443974609375,0.23736206444203853,-2.0492818689234555,9.405878411555289
1746481520547394600,2.05439453125,-0.14027471386445686,-2.2327225196942684,9.386285237812995
1746481520557390300,2.064390380859375,-0.5205447998166084,-2.3924153612613677,9.325168213549256
1746481520567386600,2.07438671875,-0.8841618388652801,-2.563952077618241,9.248642607751488
1746481520577383400,2.084383544921875,-1.2043009707152843,-2.756640595336258,9.151426096102595
1746481520587379500,2.09437939453125,-1.524263869215548,-2.9295471387416123,9.0303944091022
1746481520597376500,2.10437646484375,-1.8237936360180378,-3.1189775314465162,8.902582852703333
1746481520607372500,2.11437255859375,-2.097382029095292,-3.2920398499354717,8.744812211370467
1746481520617369300,2.124369384765625,-2.3419261139959096,-3.4768533964946866,8.56086375720799
1746481520627365600,2.13436572265625,-2.577119602227211,-3.681985800722241,8.372744739362597
1746481520637362400,2.144362548828125,-2.771454133586585,-3.8690544327318666,8.153118822619318
1746481520647358500,2.1543583984375,-2.9743586326315996,-4.010597577363252,7.893179600188136
1746481520657354500,2.1643544921875,3.131311820101738,-0.822633603452146,-1.8657383423000573
1746481520667351600,2.1743515625,31.258724932050704,18.418811982768773,-44.99696268558502
1746481520677347300,2.184347412109375,62.61285318884849,44.552347279238695,-79.11263421506881
1746481520687344400,2.194344482421875,86.81691329164505,55.31332044956684,-75.88397845754623
1746481520697340400,2.20434033203125,68.48399680056572,38.037009107160564,-48.32321957015991
1746481520707337500,2.21433740234375,47.83777647886276,12.905688028484581,-17.118693845808505
1746481520717333200,2.224333251953125,33.58574164620638,1.40372493416816,-0.8355897503327577
1746481520727330600,2.23433056640625,21.281628349018096,-0.6602641630869358,5.778599768054485
1746481520737326300,2.244326416015625,11.148380250287055,0.46876310158781703,7.8510116065442555
1746481520747323400,2.254323486328125,3.1294787594556808,1.0995161427039652,7.331504917603731
1746481520757319400,2.2643193359375,-2.795629082161188,1.090572446335107,5.330349804598093
1746481520767315500,2.2743154296875,-6.896261735236644,1.0959802967280148,2.9738185344055292
1746481520777312500,2.2843125,-8.786400943821668,1.3784461160048842,1.267027183741331
1746481520787308500,2.29430859375,-9.172929487380385,0.8415072307482361,-0.02277487251833081
1746481520797305300,2.304305419921875,-9.435990641224384,-0.11788345210254192,-0.8874008207865058
1746481520807301400,2.31430126953125,-9.460176987975835,-1.0984178991384803,-0.9817366624325513
1746481520817298400,2.32429833984375,-8.907257858777045,-2.0948110095635055,-0.39862741602286694
1746481520827294500,2.33429443359375,-8.358744271060823,-2.5019959721818563,0.7565370372101664
1746481520837291500,2.34429150390625,-8.080053001886606,-2.449499622877687,1.9971616594552992
1746481520847287300,2.354287353515625,-7.618564786672592,-2.5682500670731065,2.4938053592026233
1746481520857283300,2.364283447265625,-6.939715092515945,-2.7476713991999624,2.6747660297259688
1746481520867280400,2.3742802734375,-5.988239712834358,-2.946968521402776,2.6544454184919593
1746481520877276400,2.3842763671875,-4.585209482932091,-3.1267820677176115,2.4727824449181557
1746481520887273200,2.394273193359375,-2.501304775047302,-3.288958542793989,2.0505267544180152
1746481520897269500,2.40426953125,-0.8618974000871181,-3.2399808691352603,1.205562368953228
1746481520907266300,2.414266357421875,-0.26165304061174394,-2.7249609702199695,-0.1895744773507118
1746481520917262300,2.424262451171875,-0.47027007208466526,-1.7064163798719643,-1.8152502640783785
1746481520927259400,2.43425927734375,-0.9062029902815818,-0.5091754837360233,-3.0134476572215556
1746481520937255400,2.44425537109375,-1.006278983014822,0.05499216644158587,-3.961703782595694
1746481520947251200,2.454251220703125,-1.8244640826255083,-0.9524770310048013,-4.029109677870571
1746481520957248500,2.46424853515625,-1.0188871201753615,-2.4626643710076808,-2.871197241103649
1746481520967244300,2.474244384765625,0.9062830697804689,-2.9558842337861657,-0.20787410415112972
1746481520977241600,2.48424169921875,4.141528142565488,-2.172332494530827,3.326338717639446
1746481520987237400,2.4942373046875,7.585701212468743,-0.5833564991690218,6.632270022544264
1746481520997234400,2.504234375,8.495763800787925,0.7096136657327413,7.777628974947333
1746481521007230200,2.514230224609375,6.724698715394735,1.036782111697644,5.5295028421550985
1746481521017227500,2.5242275390625,3.7222599434435364,0.798305364011973,2.043245803629607
1746481521027223300,2.534223388671875,0.9220441180139779,0.6142791684381663,-0.42077111449819055
1746481521037220400,2.544220458984375,-1.1364707125484943,0.5934675222842023,-1.6286998107239603
1746481521047216400,2.55421630859375,-2.428586744838953,0.5995872838061302,-2.0027602101147175
1746481521057212400,2.56421240234375,-3.0226205592364073,0.4734313491271808,-2.0245166993707415
1746481521067209500,2.57420947265625,-3.0819103680729865,0.13138503097146748,-1.9065137125417588
1746481521077205500,2.58420556640625,-2.628287479406595,-0.32245712646879254,-1.6301098236523568
1746481521087202300,2.594202392578125,-1.7735428736835717,-0.5254830599363893,-1.1508126877643168
1746481521097198600,2.604198486328125,-0.8089379633158444,-0.45986887038387353,-0.5525570544207469
1746481521107195400,2.6141953125,0.04128595011234283,-0.26614673530180005,-0.028524558618851004
1746481521117191400,2.62419140625,0.667237582296133,-0.07122439411710947,0.3844955033611506
1746481521127188500,2.6341884765625,0.9764286191523075,0.006613353725150227,0.635885727829486
1746481521137184300,2.644184326171875,0.9196808960139751,-0.021187639859504996,0.6014719285089523
1746481521147180300,2.65418017578125,0.5100701675534248,-0.09290427447296679,0.26144469509068874
1746481521157177300,2.66417724609375,-0.030348376512527465,-0.12263908566441387,-0.08524696465283632
1746481521167173400,2.67417333984375,-0.3441992218732834,-0.08990757687501609,-0.2491220238080248
1746481521177170400,2.68417041015625,-0.41211832736730575,-0.014349574000388382,-0.34437322673331944
1746481521187166500,2.69416650390625,-0.2891466122150421,0.027271197556890545,-0.3617848917180672
1746481521197163300,2.704163330078125,-0.08520692490339278,0.00258862825371325,-0.2985701279900968
1746481521207159300,2.7141591796875,0.03397708840370178,-0.09038388914987444,-0.1753699013115838
1746481521217156400,2.72415625,0.05972293955683708,-0.1649815956249833,-0.08980323971770703
1746481521227152400,2.73415234375,-0.008092705562710762,-0.15622399641275406,-0.04786887216661125
1746481521237149400,2.7441494140625,-0.0925216318309307,-0.08812628294881433,-0.07513005978614092
1746481521247145500,2.7541455078125,-0.11901800909042358,-0.024657069535739717,-0.136371331484057
1746481521257141200,2.764141357421875,-0.09059680124819278,-0.004669891507178545,-0.1877396266063675
1746481521267138600,2.774138671875,-0.042561961397528644,-0.0344902986228466,-0.2147613429142162
1746481521277134300,2.78413427734375,-0.021444939088821408,-0.08458685677628963,-0.18889003875050692
1746481521287131400,2.79413134765625,-0.04941781864166259,-0.10463131795004009,-0.14056757759749888
1746481521297127400,2.80412744140625,-0.06528641890287398,-0.10507895211968571,-0.10993673088178038
1746481521307124500,2.81412451171875,-0.06813947024643421,-0.09385035968404262,-0.11739647230319677
1746481521317120300,2.824120361328125,-0.050937575554847715,-0.06906436653900891,-0.15093023738618938
1746481521327117600,2.83411767578125,-0.05049684605002403,-0.06154591720029711,-0.15471180175151675
1746481521337113300,2.84411328125,-0.061118777829408645,-0.05129424350541085,-0.17993140054084358
1746481521347109400,2.854109375,-0.06619944209456444,-0.05984126870688051,-0.15290603097118435
1746481521357106400,2.8641064453125,-0.06454290705919265,-0.0944915071317926,-0.1412859184673056
1746481521367102500,2.8741025390625,-0.044648120021820066,-0.11507343618310988,-0.1301969171654433
1746481521377099500,2.884099609375,-0.07504325828552245,-0.09309723976179957,-0.139246485061571
1746481521387095600,2.894095458984375,-0.05529810885190963,-0.07507807387057691,-0.15383640715647487
1746481521397092400,2.90409228515625,-0.057711015212535854,-0.05721453693248331,-0.15485146595053373
1746481521407088600,2.914088623046875,-0.07495207287073134,-0.06592179419696331,-0.14900113248713315
1746481521417085400,2.92408544921875,-0.07453472424149513,-0.06450856639817357,-0.16058526036217807
1746481521427081500,2.93408154296875,-0.04092413106262684,-0.08354531183410435,-0.1379050073247403
1746481521437078500,2.94407861328125,-0.04759469486773014,-0.08919665212668478,-0.1416545325839892
1746481521447074300,2.95407421875,-0.07044424005746841,-0.08050477509442716,-0.1434354246513918
1746481521457070300,2.9640703125,-0.06024082595109939,-0.07144698735922575,-0.1525862974975258
1746481521467067400,2.9740673828125,-0.0602186141192913,-0.06240224176868796,-0.14643537365235387
1746481521477063400,2.9840634765625,-0.06738017631173134,-0.06800046363454312,-0.14457001817189155
1746481521487060200,2.994060302734375,-0.05464928955435753,-0.06514321103990077,-0.13669902906846254
1746481521497056500,3.004056396484375,-0.07476268777847289,-0.06678695965893566,-0.1375783326536417
1746481521507053300,3.01405322265625,-0.05416296734213829,-0.06570347527116537,-0.1418389127075672
1746481521517049300,3.02404931640625,-0.05496200876533985,-0.07328512603919952,-0.13038162608258425
1746481521527046400,3.03404638671875,-0.054105684196949,-0.06522749178986996,-0.12954327556230127
1746481521537042400,3.04404248046875,-0.07613456065356732,-0.051311486901156604,-0.14120061480402946
1746481521547038200,3.0540380859375,-0.05040858324468136,-0.05889434324558824,-0.12969568964503705
1746481521557035500,3.064035400390625,-0.049532969453930854,-0.05192881508190184,-0.11158533833902329
1746481521567031300,3.07403125,-0.06870236482620239,-0.0603158274160698,-0.11880893291700631
1746481521577028600,3.084028564453125,-0.06600888795852661,-0.055057797290012235,-0.12091975105851888
1746481521587024400,3.0940244140625,-0.07364391288161277,-0.05109652897622436,-0.11311941603850573
1746481521597021400,3.104021484375,-0.052848962134122844,-0.06381989001426845,-0.11103164997901767
1746481521607017500,3.114017578125,-0.07184709259271621,-0.03592109861094504,-0.11315551026519387
1746481521617014500,3.1240146484375,-0.05596680189371109,-0.052373307446390384,-0.11372582096643745
1746481521627010300,3.13401025390625,-0.059388593035936355,-0.053723187685385344,-0.0937475934293121
1746481521637007400,3.14400732421875,-0.0698345837265253,-0.0554544684574008,-0.09002857290618121
1746481521647003400,3.15400341796875,-0.06202361771464347,-0.04742690055277198,-0.11207370637785642
1746481521656999400,3.16399951171875,-0.07006546987295151,-0.057841290528699754,-0.11875818911045789
1746481521666996500,3.17399658203125,-0.20535306124091146,-0.08284176667463033,-0.17331337064057586
1746481521676992500,3.183992431640625,-0.3937760304689407,-0.11455328476652503,-0.12093593500833957
1746481521686989600,3.193989501953125,-0.5547673874139786,-0.1703060420507565,0.014516783793456852
1746481521696985600,3.203985595703125,-0.6567500905513763,-0.18299685252606868,0.15133352095745503
1746481521706982700,3.213982666015625,-0.6432651705563068,-0.13942962307613344,0.22678367954343556
1746481521716978400,3.223978515625,-0.46693362113833425,-0.13581260162275283,0.19410223870715126
1746481521726975500,3.2339755859375,-0.2640928349792957,-0.17182130545191465,0.09317764805424958
1746481521736971500,3.243971435546875,-0.12704349463582038,-0.1728044712703675,0.004273530867043882
1746481521746967600,3.253967529296875,0.009770867908000946,-0.07417922533471137,-0.10928725399710237
1746481521756964400,3.26396435546875,0.13674655800461769,0.05432593935150653,-0.2384793049689382
1746481521766960600,3.273960693359375,0.1589928766041994,0.00025759149026125666,-0.36840964362006634
1746481521776957400,3.28395751953125,-0.048620530784130096,-0.13767240414526313,-0.456591492681019
1746481521786953500,3.293953369140625,-0.5646253490835428,-0.23954671500474214,-0.54062568401061
1746481521796950500,3.303950439453125,-1.6281974141597746,-0.4477232361685484,-0.541187153818272
1746481521806946600,3.313946533203125,-2.016116535294056,-0.6624304012101143,-0.2825802029041573
1746481521816943400,3.323943359375,-1.4422995794951914,-0.6436212174523621,0.17590766145009545
1746481521826939600,3.333939697265625,-0.622423458057642,-0.47684857369214295,0.47855526801217346
1746481521836935400,3.343935302734375,-0.09163491212427616,-0.2738803252285346,0.3288912146368995
1746481521846932500,3.353932373046875,0.004005143988132477,-0.1784373991234228,-0.17788239558916538
1746481521856928500,3.363928466796875,-0.008498948276042938,-0.004296089758723974,-0.04700527760721743
1746481521866925600,3.373925537109375,-0.29874329259991644,0.21564554187022147,0.29864469106364994
1746481521876921300,3.38392138671875,-0.6316460444331169,0.038220132800936696,0.6292834069550037
1746481521886918700,3.393918701171875,-0.09465046055316924,-0.3593735197274014,1.0436339503537864
1746481521896914400,3.40391455078125,0.873046570611,-0.688383976829797,0.5948425004318356
1746481521906911500,3.413911376953125,2.345446689337492,-0.10142919744048268,0.27656718969233335
1746481521916907500,3.423907470703125,3.468336035779118,1.0053500316016375,0.11025558757260441
1746481521926904300,3.433904296875,3.3949422982662916,1.492538359130919,-0.36730310715027154
1746481521936900600,3.443900634765625,3.08233239287734,1.3755201455555854,-0.6035752574637532
1746481521946896600,3.453896728515625,2.9176854360342026,1.214313976816088,-0.6520669742364436
1746481521956893400,3.4638935546875,2.781482483386993,1.0514263577956706,-0.714640919310227
1746481521966889700,3.4738896484375,2.812268082273006,0.722322340658307,-0.509009698715061
1746481521976886500,3.483886474609375,2.9413632487416264,0.31616255636923013,-0.5876831301964819
1746481521986882600,3.493882568359375,2.9520798730671403,0.0672084730066359,-0.9157396110422908
1746481521996879600,3.503879638671875,3.144752316433191,-0.07126257070302963,-1.0046168950214982
1746481522006875400,3.51387548828125,3.457770218101144,-0.019888211166113615,-0.9275766176998614
1746481522016872400,3.52387255859375,3.643507309246063,0.35149091325141485,-0.6456918131813406
1746481522026868500,3.533868408203125,3.7906665401935573,0.8800696011155843,-0.10844868428111076
1746481522036864500,3.543864501953125,3.8835646041214464,1.2642707246400415,0.2604696760460734
1746481522046861300,3.553861328125,3.7482793508410452,1.2631466890461742,-0.020161621280014513
1746481522056857600,3.563857666015625,3.537677283030748,1.1087940394632518,-0.49219198103547096
1746481522066854400,3.5738544921875,3.196275582921505,1.0607372800417243,-0.9498033548161386
1746481522076850400,3.583850341796875,2.947352844545245,0.9313837548978626,-1.099997423414886
1746481522086847500,3.593847412109375,2.9625965909063816,0.6918829248614609,-0.8217445456579328
1746481522096843500,3.603843505859375,3.2214106086999177,0.3782582529393956,-0.4335305332303047
1746481522106840600,3.613840576171875,3.505703935664892,0.2820151528999209,-0.3092810532271862
1746481522116836600,3.623836669921875,3.570322830569744,0.5575301301255822,-0.2247512969329953
1746481522126833400,3.63383349609375,3.361852514091134,0.7932284991391003,-0.04310381318926811
1746481522136829700,3.64382958984375,3.1092694996416568,0.824189016200602,-0.006603343787789344
1746481522146825500,3.653825439453125,2.835691043436527,0.88699677003026,-0.03690612759292126
1746481522156822500,3.663822509765625,2.6438077046215533,0.8152995342370122,-0.36507834377288817
1746481522166818600,3.673818603515625,2.416195465299487,0.6325665202789008,-0.8564122466742992
1746481522176815600,3.683815673828125,2.2643255724430085,0.34842443835288284,-1.5260405234992502
1746481522186811400,3.693811279296875,2.3230150772988796,0.0900541092062369,-2.3309610678672787
1746481522196808700,3.70380859375,2.477776015421748,0.0209480224173516,-2.9082705419570205
1746481522206804500,3.713804443359375,2.874502712389827,0.1218339067613706,-3.2716035033673045
1746481522216801500,3.723801513671875,3.2158383615255355,0.318650537260063,-3.4281823045670983
1746481522226797600,3.733797607421875,3.454007650697231,0.39794904183726754,-3.4839053608328103
1746481522236794400,3.74379443359375,3.6721214093118903,0.41674777726624157,-3.4364386762589216
1746481522246790400,3.753790283203125,3.547786004590988,0.47200686928201463,-3.1298207047611473
1746481522256786700,3.76378662109375,3.337608884194493,0.5137582814816385,-2.8916332954108714
1746481522266783500,3.773783447265625,3.022958412888646,0.4392382433526218,-2.8377999984145164
1746481522276779500,3.783779541015625,2.573767953711748,0.27564558133538813,-3.103402068912983
1746481522286776600,3.793776611328125,2.311650802719593,0.10834668521136046,-3.046004357433319
1746481522296772600,3.803772705078125,2.32014215221107,-0.16418145822323857,-2.462533438104391
1746481522306769700,3.813769775390625,2.394518763281405,-0.5748969330552965,-1.5629425594389437
1746481522316765400,3.823765380859375,2.2797636723324657,-0.8675795373767614,-0.8468407007306814
1746481522326762500,3.833762451171875,2.086760681837797,-0.9152234782136976,-0.7254676529467106
1746481522336758500,3.843758544921875,1.7348858107700942,-0.7962238815627992,-0.8367880932718514
1746481522346754600,3.853754638671875,1.3718493480883538,-0.701849315341562,-1.1118752004742622
1746481522356751400,3.86375146484375,1.06814960212484,-0.5226630340795964,-1.2502169187158345
1746481522366747600,3.87374755859375,0.6741594905138015,-0.3140130136525258,-1.4414841714590787
1746481522376744400,3.883744384765625,0.096805008238554,-0.12251539535266347,-1.7216192097008227
1746481522386740500,3.893740478515625,-0.48247839627265926,0.09530393775952979,-2.0853519840836525
1746481522396737500,3.903737548828125,-0.8525351129800081,-0.02208533761790022,-2.299134435495734
1746481522406733600,3.913733642578125,-0.8757645973980426,-0.21378763904385267,-2.035950532054901
1746481522416730600,3.923730712890625,-0.611913023828715,-0.3573263779392466,-1.903322515285015
1746481522426726700,3.9337265625,-0.48890156118795275,-0.39897253966610874,-1.9238947631925343
1746481522436723500,3.943723388671875,-0.5337994181871414,-0.2879247057372704,-1.7957143734812735
1746481522446719500,3.953719482421875,-0.722958300474286,-0.08262786819562315,-1.8012813599586486
1746481522456715500,3.963715576171875,-0.6656526511922478,0.11093951471615582,-1.648829283300042
1746481522466712600,3.973712646484375,-0.44970337713509795,0.2533919927448034,-1.342642104434967
1746481522476708400,3.983708251953125,-0.1567009662747383,0.3208818765087053,-0.8143015361756086
1746481522486705700,3.99370556640625,0.11508271546810865,0.37258250885792077,-0.1813221973121166
1746481522496701400,4.003701416015625,0.4089665853381157,0.5087357771445066,0.24283728098273274
1746481522506698500,4.013698486328125,0.9197709123849869,0.611594532464072,0.6311100378602743
1746481522516694500,4.023694580078125,1.4084510859072208,0.588021751033701,1.212108429595828
1746481522526691300,4.03369140625,1.8612328475743531,0.5647094471704215,1.6579980936616658
1746481522536687600,4.0436875,2.2138322335243226,0.5606711315650492,1.8858453107833861
1746481522546683600,4.05368359375,2.347311314165592,0.6083456136707216,1.852148792886734
1746481522556680400,4.063680419921875,2.465118193900585,0.7132312717080116,1.594369378837943
1746481522566676700,4.0736767578125,2.562565007174015,0.731896736146137,1.2372305958926677
1746481522576673500,4.083673583984375,2.631553203204274,0.7046931604653597,0.7781769143491983
1746481522586669600,4.093669677734375,2.791542689630389,0.8401445640929043,0.3068757456511259
1746481522596666600,4.10366650390625,3.065854720807075,1.102711066287756,-0.15433073001205921
1746481522606662400,4.113662353515625,3.2004514073014256,1.0765152794100343,0.09981178883910179
1746481522616659700,4.12365966796875,4.075580629405379,0.8019866828732192,0.6009428631335496
1746481522626655500,4.133655517578125,5.5344882293522355,0.6346984177410602,1.1972539748132227
1746481522636652500,4.143652587890625,5.005671275752783,0.5229406089119613,1.3683335950523614
1746481522646648300,4.1536484375,3.711690618634224,0.5575204855144024,1.22806879979372
1746481522656644600,4.16364453125,3.2524457984328268,1.0269251729413866,1.2866595204502342
1746481522666641200,4.17364111328125,3.2551761001795527,1.3286713006190956,1.3587342843189836
1746481522676637200,4.18363720703125,3.4010739328891035,1.2496302048690617,1.470262522175908
1746481522686634000,4.193634033203125,3.4829192724049087,1.1341162583768367,1.506714183999598
1746481522696630300,4.20363037109375,3.15680223518908,1.0204336189649998,1.2717021898150442
1746481522706627000,4.213626953125,2.6432623456984756,0.8585456054411827,1.061331884934008
1746481522716623000,4.223623046875,2.190641327551007,0.7682632769696414,0.977432827758789
1746481522726620200,4.2336201171875,2.0183774659633635,0.7801699878625571,0.9969598043970763
1746481522736616200,4.2436162109375,2.2814193305850026,0.9190395293705165,0.5785149043567478
1746481522746613200,4.25361328125,2.5761685851126908,1.0498578663699327,0.28073227348253127
1746481522756609300,4.263609375,2.5898580877691506,1.126037727469951,0.1681017734721303
1746481522766605000,4.27360498046875,2.8929180745244025,1.1519394998371602,0.0032787294097244737
1746481522776602400,4.283602294921875,3.4108073913961645,1.1032973417431116,0.11821575279682874
1746481522786598100,4.29359814453125,3.4183331107258796,0.8707875396378337,0.46174204384461043
1746481522796595200,4.30359521484375,3.082897041022777,0.6059719433419406,0.6361894600164145
1746481522806591000,4.313591064453125,3.0441064148575068,0.5577765061020851,0.43077875030413265
1746481522816588300,4.32358837890625,3.1877526692479847,0.6102446522250771,0.17094203839935362
1746481522826584000,4.333583984375,3.116526923424005,0.49202407712265844,-0.06448343195691704
1746481522836581000,4.3435810546875,2.8978619606673717,0.2931809822976589,-0.16789825025666505
1746481522846577200,4.3535771484375,2.654067232829332,0.26243819964006543,-0.10451645939871668
1746481522856573200,4.3635732421875,2.503872579708695,0.3170787213660776,-0.024991890980675814
1746481522866570200,4.3735703125,2.4077216514647004,0.31535467405244705,0.06390864600995555
1746481522876566300,4.383566162109375,2.3807570721715687,0.23547274356409906,0.12055430614645592
1746481522886563000,4.39356298828125,2.3526912536382674,0.20655936829075217,0.08147299907207489
1746481522896559400,4.403559326171875,2.2214555680096146,0.18459201276302337,0.012147577293950598
1746481522906556200,4.41355615234375,2.0185867247998712,0.09527648349702357,-0.027383457725751213
1746481522916552200,4.42355224609375,1.7793465915262698,0.003956044149398804,-0.06645321592623367
1746481522926549200,4.43354931640625,1.3858365185171364,0.04854235098138451,-0.10614139371942728
1746481522936545000,4.443544921875,1.0314069945305586,0.18786489695385097,-0.10036732209632172
1746481522946542300,4.453542236328125,0.9769079271018505,0.3320771146640181,-0.02416535876234993
1746481522956538000,4.4635380859375,1.1496984429121018,0.49795332104116674,0.14814645188655703
1746481522966534100,4.4735341796875,1.3801280777424574,0.5465963559180498,0.39874402813985943
1746481522976531200,4.48353125,1.5206658447235821,0.49856136993691325,0.55842700590007
1746481522986527200,4.49352734375,1.597886447048187,0.3896346928805113,0.5948434502799064
1746481522996524000,4.50352392578125,1.408989430567622,0.11642390094399452,0.5655608398353681
1746481523006520000,4.51352001953125,1.0798486616164444,-0.04638751103505492,0.34413222105167807
1746481523016517000,4.52351708984375,0.7964736185401677,-0.025955256120115518,0.11666698898486792
1746481523026513200,4.53351318359375,0.6731611271262169,0.07549275561869144,0.1331525521006435
1746481523036510200,4.54351025390625,0.7491641703546047,0.09078691699281334,0.24195297242887318
1746481523046506200,4.55350634765625,1.0294354021966456,0.05373538957983255,0.3488110265176743
1746481523056503000,4.5635029296875,1.3183195640832186,-0.0941850349985063,0.48491380672603845
1746481523066499300,4.573499267578125,1.5708844583541155,-0.24165099380761385,0.5022586900848895
1746481523076495000,4.5834951171875,1.6897820559352634,-0.3238420780211687,0.40112931584119793
1746481523086492200,4.5934921875,1.5732470958322287,-0.4035078815408051,0.1919507049627602
1746481523096488200,4.60348828125,1.3659873241871594,-0.41928602703958745,0.08634995745867491
1746481523106485200,4.6134853515625,1.119383968669176,-0.47170039714872836,0.05196326534077525
1746481523116481000,4.62348095703125,0.8519248721271753,-0.4800761574365198,0.04178177080526948
1746481523126478000,4.63347802734375,0.6465595359265804,-0.42615693572238084,0.059949222593382
1746481523136474000,4.64347412109375,0.5299222844928503,-0.32816023348122836,0.00949519277177751
1746481523146471200,4.65347119140625,0.48253100324273107,-0.27762510124742984,0.001065802600607276
1746481523156467200,4.66346728515625,0.46437633787095545,-0.22508929671570657,0.04450016291849315
1746481523166463200,4.673463134765625,0.4721382040441036,-0.14154504432752726,0.05712700477950275
1746481523176460300,4.683460205078125,0.4653285240292549,-0.14379413842856884,0.07777231792323291
1746481523186456300,4.693456298828125,0.44638533862829205,-0.15441314759850502,0.15255312588028608
1746481523196453000,4.703453125,0.48378246460855007,-0.1492750540576875,0.20814692974314092
1746481523206449200,4.71344921875,0.5950163956940174,-0.11742226433157921,0.2671339562408626
1746481523216446200,4.7234462890625,0.7625304324060678,-0.10000175845324992,0.2883516624450683
1746481523226442000,4.73344189453125,0.834386877349019,-0.12627075669765472,0.31207177992425855
1746481523236439300,4.743439208984375,0.7655833902359008,-0.13336685243844984,0.31868827545456585
1746481523246435000,4.75343505859375,0.6535603545993566,-0.09386515539437532,0.30141594587527215
1746481523256431000,4.76343115234375,0.5726338834941387,-0.05488046796172857,0.26525895614922046
1746481523266428200,4.77342822265625,0.4872784900307655,-0.04265431585609913,0.20271277586519718
1746481523276424200,4.783424072265625,0.3778004627019167,-0.07408961082249879,0.111981023125723
1746481523286421000,4.7934208984375,0.3245242150664329,-0.1080459486991167,0.06684563104361295
1746481523296417300,4.803417236328125,0.30983108832538125,-0.09646744684726,0.11455394235365092
1746481523306414000,4.8134140625,0.2819523167967796,-0.033695056591928,0.2642297592319548
1746481523316410000,4.82341015625,0.24903788918852804,0.06442132650613784,0.40646797345541413
1746481523326407200,4.8334072265625,0.2452443421244621,0.18166311970427632,0.5096550839465112
1746481523336403200,4.8434033203125,0.28557109181582924,0.20653043445721267,0.5246444171551615
1746481523346400300,4.853400146484375,0.3100409316837787,0.13669073616415262,0.495189847677201
1746481523356396300,4.863396240234375,0.2882967173874378,0.00441021765768528,0.356427858196944
1746481523366392000,4.87339208984375,0.24235972659885882,-0.1348806180022657,0.18352555257529019
1746481523376389400,4.883389404296875,0.19724632715284823,-0.18199819687753915,0.05758022843971848
1746481523386385200,4.89338525390625,0.11688625775873661,-0.14763064785152674,-0.015507950255274771
1746481523396382200,4.90338232421875,0.051291795819997786,-0.08731003466248512,0.005612286923825741
1746481523406378000,4.9133779296875,0.02079261265993118,-0.009146598529815673,0.09013093730211258
1746481523416375000,4.923375,0.008144728010892867,0.05536664404347539,0.14721227630898356
1746481523426371000,4.93337109375,0.00282031811773777,0.08911094660460948,0.14783793392665684
1746481523436368100,4.9433681640625,0.06413023460507393,0.1443725228384137,0.20813567769676447
1746481523446364200,4.9533642578125,0.11885901913642882,0.14410554246529936,0.24032646720558404
1746481523456361000,4.96336083984375,0.08160393197536468,0.1062340769715607,0.21081388393007217
1746481523466357200,4.973357177734375,0.042894554352760315,0.07990896462574601,0.09005772593542932
1746481523476353300,4.983353271484375,-0.022822657182812688,0.1391626792356372,0.004497019158303737
1746481523486350000,4.99335009765625,-0.04978548291027546,0.20135040147081015,0.028180750149860975
1746481523496346000,5.00334619140625,-0.06520575488209725,0.20938713906258344,0.082564739831537
1746481523506343200,5.01334326171875,-0.018315993413329124,0.23057342721521853,0.12843480286374687
1746481523516339000,5.0233388671875,0.07613280708789825,0.19184432197883725,0.13814239627718924
1746481523526336300,5.033336181640625,0.16990063958764076,0.1294511402994394,0.07264138477556407
1746481523536332000,5.04333203125,0.202062203001976,0.034264819303900004,-0.07737177429832517
1746481523546329300,5.053329345703125,0.18651508978009224,-0.0438112308062613,-0.22466982919462025
1746481523556325000,5.0633251953125,0.10986088916659355,-0.03558116259947419,-0.3135519354794174
1746481523566321200,5.073321044921875,-0.01298223116993904,-0.015053922877460718,-0.3151050832055509
1746481523576318200,5.083318115234375,-0.08460194474756717,-0.014757862540334463,-0.2185473277263343
1746481523586314200,5.093314208984375,-0.068994041249156,0.011093056422471999,-0.15350275475531816
1746481523596311000,5.10331103515625,-0.01007306572496891,0.030148616156727075,-0.08962254938855767
1746481523606307300,5.113307373046875,0.07479951265752315,0.01367562026157975,-0.06669438600465655
1746481523616304000,5.12330419921875,0.05438274757266044,-0.04779270165786147,-0.14622107331454753
1746481523626300200,5.133300048828125,-0.05268295791745185,-0.06910700010433793,-0.34003377275690433
1746481523636297200,5.143297119140625,-0.07901216191649436,-0.0009855039060115813,-0.41964506961032744
1746481523646293200,5.153293212890625,0.05391805267035961,0.07078823118954897,-0.2741004342526197
1746481523656290000,5.1632900390625,0.029749241575598714,0.04293254827558994,-0.09360606606677174
1746481523666286600,5.17328662109375,0.46880818283855913,-0.23705928210318086,0.22196707304194568
1746481523676282400,5.183282470703125,0.47246553630232807,-0.3700397655725479,0.5080765095181763
1746481523686279400,5.193279541015625,0.09443360293209552,-0.1430453658878803,0.02015862560532987
1746481523696275500,5.203275390625,-0.0961293009340763,0.006640168666839599,-0.35544140444286165
