time,seconds_elapsed,z,y,x
1746483175804521200,0.770521240234375,-0.3257207313746214,0.08269348077774047,0.43224063955023884
1746483175814517200,0.780517333984375,-0.3943436012238264,0.21827126899762078,0.38682964539714154
1746483175824514300,0.790514404296875,-0.4300695791214704,0.23525990453101694,0.33532522973977025
1746483175834511400,0.800511474609375,-0.41888942893743514,0.19090799097679553,0.3284638195376843
1746483175844508400,0.81050830078125,-0.41585926746129986,0.10593611693829297,0.28685557866841555
1746483175854504400,0.82050439453125,-0.3838327286034822,0.02603486526154447,0.2280881132055074
1746483175864501200,0.830501220703125,-0.37296412858664985,-0.039001560935634186,0.12418138320297002
1746483175874498300,0.840498291015625,-0.40962008081078527,-0.06355457187527791,-0.045714434079080817
1746483175884495400,0.850495361328125,-0.4553022200554609,-0.04483674249567557,-0.2348310115944594
1746483175894492400,0.860492431640625,-0.5027268190532922,0.013438856930215843,-0.4453085031770169
1746483175904488400,0.870488525390625,-0.49644905395805833,0.04257167450736742,-0.6455573000814765
1746483175914485200,0.8804853515625,-0.42738194747269154,0.032036238267924635,-0.8008797445446252
1746483175924482300,0.890482421875,-0.40458910090625283,0.015957301457971335,-0.9349865286301821
1746483175934479400,0.900479248046875,-0.4489151493668556,-0.018499907746026292,-1.0961233584605157
1746483175944475400,0.910475341796875,-0.526071454283595,-0.02882900319183245,-1.3002321187287569
1746483175954472200,0.92047216796875,-0.5947136133551597,-0.05255551387919113,-1.5183222042068838
1746483175964469500,0.930469482421875,-0.6341875456094741,0.004090612048190087,-1.7752390100769697
1746483175974466300,0.94046630859375,-0.6648311056762933,0.06916967181069776,-2.0197408632710574
1746483175984463000,0.950463134765625,-0.6438672281026839,0.10669563006870449,-2.1953860378600654
1746483175994459400,0.96045947265625,-0.5686427680313587,0.0960041219181381,-2.2886254625715314
1746483176004456200,0.970456298828125,-0.47758653257787226,0.030859157312568275,-2.3483476714760063
1746483176014453500,0.98045361328125,-0.3612240064322948,0.014747067151684314,-2.3364713557213546
1746483176024450300,0.9904501953125,-0.20964637452065943,0.05556096103917807,-2.2700420503936707
1746483176034446300,1.0004462890625,-0.018912790262699125,0.1631402968735434,-2.1483882859721777
1746483176044443400,1.010443359375,0.08352057925164699,0.2541781746864319,-1.947190152453631
1746483176054440200,1.020440185546875,0.062037061718106266,0.37755591335631905,-1.7609306448698043
1746483176064437500,1.0304375,0.061571782293915744,0.4671993228698149,-1.6467042539700865
1746483176074433300,1.040433349609375,0.09926058469712734,0.5424398938257247,-1.5963056075975297
1746483176084430300,1.050430419921875,0.22919980077445506,0.5918622790446505,-1.5497493158668278
1746483176094427400,1.060427490234375,0.40502398519217964,0.6105841498451307,-1.4357254618018864
1746483176104424200,1.070424072265625,0.5925707561075687,0.5577793556462973,-1.286786215569824
1746483176114421200,1.080421142578125,0.7179279050916433,0.512627925744839,-1.1287998856596648
1746483176124417300,1.090417236328125,0.7888035223037004,0.4801009265515953,-0.976241645212844
1746483176134414300,1.100414306640625,0.8836948058754205,0.4405587878992781,-0.9149589820586145
1746483176144411400,1.110411376953125,0.9045523004651069,0.3927311245258897,-0.9094498632483183
1746483176154408200,1.120408203125,0.7814777094602584,0.35510033592022955,-0.947766003769636
1746483176164404500,1.130404541015625,0.4474433232486248,0.2826501628678292,-1.1279817742098122
1746483176174401300,1.1404013671875,-0.08302432016730309,0.2590576538236812,-1.4897466825857757
1746483176184398300,1.1503984375,-0.726556032705307,0.2435301951503381,-2.0217852285802365
1746483176194395400,1.1603955078125,-1.3548521821886301,0.16950780434515325,-2.395285071478784
1746483176204392400,1.170392333984375,-1.8381062390089034,0.15728895876314491,-2.5436343889936803
1746483176214388500,1.180388427734375,-2.1587661798626185,0.2535936893293634,-2.6298326630219817
1746483176224385300,1.19038525390625,-2.3278888208150863,0.44310481912028044,-2.683027662114799
1746483176234382300,1.20038232421875,-2.3139976581066843,0.5682511748978868,-2.7238082930535077
1746483176244379400,1.21037939453125,-2.157638052615523,0.5803874567629769,-2.7233529505014418
1746483176254375200,1.220375244140625,-1.939255413931608,0.6012453532114624,-2.7379028693795204
1746483176264372200,1.230372314453125,-1.7304577651947737,0.6985608682554215,-2.7904937650993467
1746483176274369300,1.240369384765625,-1.5228718303352593,0.8157597721599041,-2.8616180963754654
1746483176284366300,1.250366455078125,-1.3197978199422358,0.9076183369722217,-3.0254809171035886
1746483176294362400,1.2603623046875,-1.1051678117901087,1.0201804479215293,-3.2021026816397904
1746483176304359400,1.270359375,-0.8748042279332876,1.1245816103775053,-3.3247669382780787
1746483176314356200,1.280356201171875,-0.6921364612311124,1.1649668122578412,-3.3769857858151195
1746483176324353300,1.290353271484375,-0.5775573113709688,1.191819820935279,-3.328481574887037
1746483176334350300,1.300350341796875,-0.5900806928575039,1.191938698074594,-3.308087898416817
1746483176344346400,1.310346435546875,-0.7663572972178458,1.2717702866151928,-3.4525936922460794
1746483176354343400,1.320343505859375,-1.0073545032918452,1.3352046479105948,-3.721658762679994
1746483176364340200,1.33034033203125,-1.2104963182240724,1.3309534202069044,-3.9811858971789476
1746483176374337500,1.340337646484375,-1.3962012606650591,1.390336606415361,-4.325786393329501
1746483176384333300,1.350333251953125,-1.6130501139104365,1.5759595696613191,-4.623829428705573
1746483176394330400,1.360330322265625,-1.7901421263068913,1.674167138174176,-4.867468673720955
1746483176404327400,1.370327392578125,-1.8903560662060974,1.6556804643690586,-4.966495449662208
1746483176414324200,1.38032421875,-1.8075895201921461,1.6903522570386529,-4.972724699440598
1746483176424320300,1.3903203125,-1.4732020827591419,1.893361677762866,-4.876074297241867
1746483176434317300,1.4003173828125,-0.9652665891468525,2.2089733953163027,-4.726122512966394
1746483176444314400,1.410314453125,-0.31471652227938174,2.53855284794569,-4.593853684897721
1746483176454311400,1.4203115234375,0.3796709327489137,2.800552510038018,-4.4565740429297085
1746483176464308200,1.43030810546875,1.1702964097827673,3.034021074172854,-4.2754695800215
1746483176474304500,1.440304443359375,2.1967004814594984,3.212279207739234,-4.059247918763757
1746483176484301300,1.45030126953125,3.510129350891709,3.2068232804208994,-3.6187931392282247
1746483176494298000,1.460298095703125,4.816640988281369,2.937032233799994,-3.3050159436255693
1746483176504295400,1.47029541015625,6.569474835935234,2.633940390601754,-3.5894606617599725
1746483176514291200,1.480291259765625,8.955867283645272,2.4073066409230233,-4.061208405181765
1746483176524288500,1.49028857421875,10.907176123464106,2.39591299411878,-4.236796735017001
1746483176534285300,1.500285400390625,10.155586187267303,2.764614058433473,-2.752588689596951
1746483176544282400,1.510282470703125,9.475523610189557,2.096592924544215,-0.4431824509337544
1746483176554278400,1.5202783203125,9.60325041091442,2.061361452165246,-0.46198863901682197
1746483176564275200,1.530275146484375,9.568995090091228,2.0586742589078844,-0.34099366729762404
1746483176574272500,1.5402724609375,9.568839022746682,2.0355140403337777,-0.1831361148662865
1746483176584269300,1.550269287109375,9.541274723994732,2.0030698605857786,-0.01614597416417673
1746483176594265300,1.560265380859375,9.530147180780768,1.9971200122706592,0.14723660703264177
1746483176604262400,1.570262451171875,9.481301609069108,1.9673038429386913,0.2936407087638974
1746483176614259200,1.58025927734375,9.452183651134371,1.9442735343545674,0.46836496911570424
1746483176624256300,1.59025634765625,9.40884602918923,1.9155287936463952,0.6242080764520913
1746483176634252300,1.600252197265625,9.37439664709866,1.8854890446916222,0.7950611944589764
1746483176644249300,1.610249267578125,9.3254207270056,1.8673896166384218,0.9560540127087384
1746483176654247000,1.620246826171875,9.285274010056257,1.8397599975652992,1.1020054022364318
1746483176664244000,1.630243896484375,9.245689603164791,1.8092529233597219,1.2722864194437862
1746483176674240800,1.64024072265625,9.21249577409327,1.7961700082942842,1.4350558919772505
1746483176684236800,1.65023681640625,9.16902137402594,1.7633640094965695,1.596233565274626
1746483176694233900,1.66023388671875,9.148149850910901,1.7328588349871337,1.770849104554951
1746483176704231000,1.67023095703125,9.115688427767157,1.7124616513855755,1.9359578336909413
1746483176714228000,1.68022802734375,9.062151483368874,1.6989277776822447,2.117938641042262
1746483176724223700,1.6902236328125,8.988276684340834,1.6553734442465007,2.259438092662394
1746483176734220800,1.700220703125,8.921991902050376,1.6369906692072749,2.4135537186190485
1746483176744217900,1.7102177734375,8.850602490097284,1.6024544856160878,2.5445965120241043
1746483176754214700,1.720214599609375,8.795220210093259,1.5766152570910752,2.702543094445765
1746483176764211000,1.7302109375,8.737582260116934,1.5658382808804512,2.8493887293994424
1746483176774207700,1.740207763671875,8.676890183266996,1.5318901263102889,2.9669086088865995
1746483176784204800,1.750204833984375,8.605582604378462,1.5161480750381946,3.097045685623586
1746483176794201900,1.760201904296875,8.551807759571075,1.4876754292696714,3.2145322473630307
1746483176804198000,1.770197998046875,8.500441729471087,1.4798913512647152,3.332656230223179
1746483176814195000,1.78019482421875,8.458333941581845,1.460130858131498,3.425247420158982
1746483176824191700,1.790191650390625,8.412434360194206,1.4478086983054876,3.512872804380953
1746483176834189000,1.80018896484375,8.377090659612417,1.4265405770882964,3.599395780318975
1746483176844184800,1.810184814453125,8.326942773130536,1.422774940944463,3.684966277837753
1746483176854182000,1.820181884765625,8.268426286754012,1.3979304225452243,3.751976451793313
1746483176864179000,1.830178955078125,8.205321303543448,1.3750757627889514,3.8157080424696206
1746483176874175700,1.84017578125,8.142726607942581,1.374270583885908,3.8638863824442025
1746483176884171800,1.850171875,7.963993258079886,1.3571300639927386,3.920279885317385
1746483176894168800,1.8601689453125,3.3397190082162616,1.6647841005399822,2.725969562740624
1746483176904165600,1.87016552734375,-35.575617824828626,10.537422773617505,-9.909888256156444
1746483176914163000,1.880162841796875,-72.09000586154461,21.10550722748041,-22.744815233719347
1746483176924158700,1.89015869140625,-88.94911821231841,29.908493395400047,-24.553894115686415
1746483176934156000,1.900156005859375,-89.90421762771606,32.954081573247905,-24.392147556459904
1746483176944152800,1.91015283203125,-72.0902443464756,27.0381518943429,-21.241427271533013
1746483176954149600,1.920149658203125,-46.039431756877896,17.361045973622797,-13.148879529732465
1746483176964146000,1.93014599609375,-24.192271465325355,8.699388430801033,-6.388342023715376
1746483176974142700,1.940142822265625,-8.793101318243146,2.9145038833886385,-1.777898730805516
1746483176984140000,1.95014013671875,1.1541782186746596,-0.4786035641333088,1.1287667140424251
1746483176994136800,1.96013671875,7.062869178497791,-2.036402367475629,2.86869607193768
1746483177004134000,1.9701337890625,9.60476256904304,-2.413333792258054,3.271479584726691
1746483177014130000,1.9801298828125,9.952722020232677,-2.1510971065394577,3.0975013204365967
1746483177024126700,1.990126708984375,9.508507011380791,-1.4303300324991344,2.97879749186188
1746483177034123800,2.000123779296875,9.166967948627471,-0.9879712459731846,2.46915607111454
1746483177044120800,2.010120849609375,9.132826025050878,-0.7885521778911352,2.1548568974643945
1746483177054116600,2.02011669921875,9.157847653582692,-0.6408055024445056,2.1612948215574024
1746483177064114000,2.030114013671875,9.177791540458799,-0.5384684329114854,2.2435037336885926
1746483177074110700,2.04011083984375,9.267387640231847,-0.6084421328477561,2.310305525590479
1746483177084107800,2.050107666015625,9.44083048247099,-0.9138121501110493,2.332747951284051
1746483177094103800,2.060103759765625,9.620078796118497,-1.5029267744153738,2.299569612042606
1746483177104100900,2.070100830078125,9.544794714814424,-2.3322370791524647,2.236255369995534
1746483177114098000,2.080097900390625,8.059506472942232,-3.3888527492195366,2.293487369519472
1746483177124094700,2.0900947265625,5.792646998107433,-4.265049308294057,2.3591513895630833
1746483177134091000,2.100091064453125,2.2036866870850322,-4.6644332417726515,2.334424652324617
1746483177144087800,2.110087890625,-2.6065216378003355,-4.1568981456547975,2.341581099950522
1746483177154084900,2.1200849609375,-6.46000616095662,-2.7712004510864614,2.2888236154921353
1746483177164082000,2.13008203125,-9.230407862880826,-0.9658617785610258,2.080370834670216
1746483177174077700,2.14007763671875,-10.149362198185921,1.0466429959766566,1.5080217594668268
1746483177184074800,2.15007470703125,-8.6500483535707,2.8360613380536437,0.32685821097195145
1746483177194071800,2.16007177734375,-5.690766001778841,3.8622175724491474,-0.8987997282877563
1746483177204068900,2.17006884765625,-2.624246679583192,3.9362390864714976,-1.642055551381409
1746483177214065000,2.18006494140625,-0.3939157312005758,3.12813669719696,-1.8306594301342962
1746483177224061700,2.190061767578125,0.8445932140648365,1.80518567392081,-1.8356454018533228
1746483177234058800,2.200058837890625,1.4274357723623514,0.5252470226908103,-1.5846774213850496
1746483177244055800,2.210055908203125,1.5849024623125791,-0.45377815229333934,-1.0066843489453197
1746483177254051800,2.2200517578125,1.5592629941433667,-1.0838054364182055,-0.3688274671733379
1746483177264049000,2.230048828125,1.4445008889317512,-1.370451317858696,0.11892214750051498
1746483177274046000,2.2400458984375,1.1995920623719691,-1.3341440329417587,0.4331652070492506
1746483177284042800,2.250042724609375,0.7398989138811827,-0.9964603304423392,0.6486410183757543
1746483177294038800,2.260038818359375,0.16010229915082455,-0.4783859027946368,0.729456138060987
1746483177304035800,2.270035888671875,-0.3013338936150074,-0.011813552716746925,0.5635141729712486
1746483177314033000,2.280032958984375,-0.4778203413337469,0.29796964134629816,0.21916794384270905
1746483177324030000,2.290030029296875,-0.43018648349940775,0.4403244311541319,-0.11098638606518506
1746483177334026000,2.30002587890625,-0.2753115636080503,0.38200054474025963,-0.30856033773720265
1746483177344022800,2.310022705078125,-0.0917635069400072,0.15219755390826611,-0.3255702169880271
1746483177354019800,2.320019775390625,0.059947395962476724,-0.11818407901693134,-0.25026860002726314
1746483177364017000,2.330016845703125,0.12075637719035148,-0.25591866167820987,-0.141490537661314
1746483177374013000,2.340012939453125,0.09232873960733413,-0.22423187616877258,-0.014673545257747172
1746483177384009700,2.350009765625,0.018104981011152266,-0.11428659665435552,0.0745905460819602
1746483177394006800,2.3600068359375,-0.060248424735665315,-0.0012715177731588481,0.10390957954674959
1746483177404003800,2.37000390625,-0.05312777907550335,0.034318595317751166,0.07578326299786567
1746483177413999900,2.379999755859375,-0.030483401069045065,0.01548997620716691,-0.031443186011910436
1746483177423997000,2.389996826171875,-0.003981178590655327,-0.03670132573582232,-0.12623714668899774
1746483177433993700,2.39999365234375,0.006105331137776375,-0.06624021249637008,-0.15250380684584378
1746483177443991000,2.409990966796875,-0.0016834230422973632,-0.09316223128940909,-0.09655278704315423
1746483177453986800,2.41998681640625,-0.017258008792996406,-0.07458886558152734,-0.010930851598083973
1746483177463983900,2.42998388671875,-0.02332593052983284,-0.039220249754190445,0.03912555720806122
1746483177473981000,2.43998095703125,-0.01537467926442623,-0.03445354680903256,0.02626958276629448
1746483177483977700,2.449977783203125,0.004490881678462028,-0.030518655045516787,-0.027399755840003488
1746483177493973800,2.459973876953125,0.0023147066831588742,-0.05114873408749699,-0.0761959354519844
1746483177503970800,2.469970703125,-0.02068681419789791,-0.06595131255239248,-0.09101444213837384
1746483177513967900,2.4799677734375,-0.03061082684099674,-0.06032441258132457,-0.04889145667999983
1746483177523965000,2.48996484375,-0.019303250885009764,-0.05330149167459458,-0.028090952974557874
1746483177533960700,2.499960693359375,-0.010438976427912711,-0.03560907351970673,0.0030517887860536572
1746483177543957800,2.509957763671875,-0.022592355558276177,-0.03356156640537083,-0.00866962866783142
1746483177553954800,2.519954833984375,-0.01624035618305206,-0.051689964824728665,-0.037105157296359534
1746483177563951600,2.52995166015625,-0.00926350290775299,-0.0623782033059746,-0.05470394235104322
1746483177573948000,2.539947998046875,-0.004912321960926056,-0.050106823819130654,-0.06057984864711761
1746483177583944700,2.54994482421875,-0.0154980133831501,-0.04050470007415861,-0.04201718699634075
1746483177593942000,2.55994189453125,-0.03523205690085888,-0.047034357571229334,-0.02787467987537384
1746483177603937800,2.569937744140625,-0.020857494589686394,-0.023297471620328723,-0.028073125056922433
1746483177613934800,2.579934814453125,-0.006504559588432312,-0.03229655143823475,-0.008145897054672242
1746483177623932000,2.589931884765625,-0.0020481647014617918,-0.05023932762499898,-0.02751081499904394
1746483177633928700,2.5999287109375,-0.005398644173145294,-0.03653594257365912,-0.04272913465797901
1746483177643924700,2.6099248046875,-0.05094049816429615,-0.03923690862804651,-0.023564415460824967
1746483177653921800,2.619921875,-0.04356090930700302,-0.07294387485347688,-0.03027852614670992
1746483177663918800,2.6299189453125,0.007882277682423592,-0.09907952904179691,-0.060391048076748846
1746483177673916000,2.639916015625,0.03993044385015964,-0.059716181022487574,-0.07963760033845901
1746483177683911700,2.64991162109375,-0.004314356067776679,-0.011405994829162954,-0.059278410659730434
1746483177693909000,2.659908935546875,-0.06394435664415359,0.0004176408901810646,-0.02158697790801525
1746483177703905800,2.66990576171875,-0.08464286127984523,-0.019121318446844816,0.005553542473912239
1746483177713902600,2.679902587890625,-0.01929039140343666,0.016980214764922855,0.006758242088556289
1746483177723899000,2.68989892578125,-0.0059200376987457275,-0.03868501036632806,-0.003050619742274284
1746483177733895700,2.699895751953125,-0.06259644916653632,-0.1843776758925989,-0.031736031478643414
1746483177743893000,2.70989306640625,0.003022562691569328,-0.13486037893183528,-0.08135580243319272
1746483177753889800,2.719889892578125,0.07133037524223328,-0.007573248265869915,-0.11990940497219561
1746483177763885800,2.7298857421875,-0.024924597898125646,-0.004414638104476034,-0.06638999623060227
1746483177773883000,2.7398828125,-0.06911854441165924,-0.01017122886981815,-0.014634966813027858
1746483177783879700,2.749879638671875,-0.0461672924131155,-0.021826997208967802,0.0346691623210907
1746483177793877000,2.759876953125,-0.01234744039773941,-0.060039933084137735,0.010809271045029163
1746483177803872800,2.769872802734375,0.004516600641608238,-0.09029748950805515,-0.07349076814651488
1746483177813869800,2.779869873046875,-0.014900632011890411,-0.06563512274269014,-0.06508358980715274
1746483177823867000,2.789866943359375,-0.024214988324046133,-0.03544336156398058,-0.04978840551972389
1746483177833863700,2.79986376953125,-0.032008418679237365,-0.04881864717211574,-0.03270107711851596
1746483177843860000,2.80985986328125,-0.017487725895643232,-0.03825140472203493,-0.01907119569480419
1746483177853856800,2.819856689453125,-0.016294716718792915,-0.01380907391551882,-0.02038753899037838
1746483177863853800,2.829853759765625,-0.01990647747516632,-0.058833552969060836,-0.03188742264807224
1746483177873851000,2.839850830078125,-0.011099486163258551,-0.07589026703629642,-0.02822100909501314
1746483177883846700,2.8498466796875,0.0023439327776432037,-0.05797547483500093,-0.04369184221029281
1746483177893844000,2.859843994140625,-0.03418459367454052,-0.02722180545721203,-0.039303836384415626
1746483177903840800,2.8698408203125,-0.015907763227820396,-0.021126191995851695,-0.0383484353557229
1746483177913837800,2.879837890625,-0.013696516919136047,-0.03929269393589347,-0.029418986707925796
1746483177923833900,2.889833740234375,-0.014618892461061477,-0.054362106643430885,-0.0292117736980319
1746483177933830700,2.89983056640625,-0.01748655685186386,-0.05539897541049867,-0.02374064881056547
1746483177943828000,2.909827880859375,-0.02534311557114124,-0.0566075474826619,-0.0494327239498496
1746483177953824800,2.91982470703125,-0.005501520025730133,-0.057999622895568606,-0.039731414146721364
1746483177963821000,2.929821044921875,-0.0247217688024044,-0.04683952911887317,-0.03341857773810625
1746483177973817900,2.93981787109375,-0.03353226724565029,-0.033847214946337044,-0.0382592957675457
1746483177983814700,2.949814697265625,-0.0064496145308017725,-0.051183732335641975,-0.035380233199894424
1746483177993812000,2.95981201171875,-0.017374328649044035,-0.05011040401570498,-0.03390343864560127
1746483178003807700,2.969807861328125,-0.02992985883951187,-0.039206075098365545,-0.042995384378731245
1746483178013804800,2.9798046875,-0.019457564663887022,-0.030106932439468798,-0.05058043268024921
1746483178023801900,2.9898017578125,-0.02288052484989166,-0.04810377690102905,-0.03556464985609054
1746483178033797600,2.999797607421875,-0.01491115340590477,-0.0385185312256217,-0.031549861256778236
1746483178043795000,3.009794921875,-0.02376549099087715,-0.039696087105013426,-0.03407528808116913
1746483178053791700,3.019791748046875,-0.012094342419505119,-0.04115962031893432,-0.03661708151847124
1746483178063788800,3.029788818359375,-0.01365326229929924,-0.03505187802836299,-0.009825228443741799
1746483178073784800,3.039784912109375,-0.017138181805610657,-0.04017060928158462,-0.029490590639412402
1746483178083781600,3.04978173828125,-0.02541734985113144,-0.030300737978518007,-0.021553952421247958
1746483178093779000,3.059779052734375,-0.011879238364100455,-0.03267857302576303,-0.02247282083183527
1746483178103775700,3.069775634765625,-0.02581190212666988,-0.03203168995697051,-0.03189443691074848
1746483178113772000,3.07977197265625,-0.01818973668515682,-0.037769904815405604,-0.028307518334686754
1746483178123768800,3.089768798828125,-0.012333996394276618,-0.03251107097174972,-0.025709903056919572
1746483178133766000,3.099765869140625,-0.022827333357930184,-0.041113808415830136,-0.031215806996822356
1746483178143763000,3.109762939453125,-0.031847090637683866,-0.031122100831381973,-0.03161415866464376
1746483178153758700,3.1197587890625,-0.021796821266412733,-0.03196045135166496,-0.022903028942644593
1746483178163755800,3.129755859375,-0.01841243952512741,-0.02245440839231014,-0.012439502595365047
1746483178173752800,3.1397529296875,-0.015219780963659285,-0.025477628671005368,-0.024129063606262206
1746483178183750000,3.14975,-0.013989362385869026,-0.030806495543569325,-0.022883739720284936
1746483178193746000,3.159745849609375,-0.022658991053700447,-0.03013550094682723,-0.023824527701735494
1746483178203742700,3.16974267578125,-0.02518587918281555,-0.027552498716302214,-0.017153087113797663
1746483178213739800,3.17973974609375,-0.013366846573352813,-0.02592935449387878,-0.023748247595131396
1746483178223736800,3.18973681640625,-0.016032266390323638,-0.021368147525563836,-0.031165245853364467
1746483178233732900,3.19973291015625,-0.028519992041587828,-0.021733364108763635,-0.021863456761837003
1746483178243730000,3.20972998046875,-0.02269113975763321,-0.02875555436313152,-0.02428454642891884
1746483178253726700,3.219726806640625,-0.017234627917408943,-0.026761786730028686,-0.02151858884692192
1746483178263723800,3.229723876953125,-0.012077391284704208,-0.02832578464373946,-0.0329720030143857
1746483178273719800,3.2397197265625,-0.016780454409122465,-0.0270440742701292,-0.027125030551850796
1746483178283716900,3.249716796875,-0.01594634167253971,-0.018380765745230017,-0.02457943772226572
1746483178293714000,3.2597138671875,-0.017076807007193565,-0.02579743520990014,-0.027491233515739438
1746483178303711000,3.2697109375,-0.021823709273338317,-0.015160050133056938,-0.02477028411924839
1746483178313706800,3.279706787109375,-0.025327333480119705,-0.018568981793709097,-0.020692659416794774
1746483178323703800,3.289703857421875,-0.018363339686393736,-0.02095233326628804,-0.026487609431147575
1746483178333700900,3.299700927734375,-0.02652794144153595,-0.02787657957151532,-0.02204670437425375
1746483178343697000,3.30969677734375,-0.0241337397813797,-0.02073576790615916,-0.02368395018726587
1746483178353693700,3.319693603515625,-0.02153086380660534,-0.02723112127482891,-0.027770634979009626
1746483178363690800,3.329690673828125,-0.014407295536994933,-0.032335349078662694,-0.020278233397006986
1746483178373687800,3.339687744140625,-0.026609189984202385,-0.027539785365201533,-0.012863573226332664
1746483178383683800,3.349683837890625,-0.03028407910466194,-0.016302132840268314,-0.01274696110934019
1746483178393681000,3.359680908203125,-0.021194179198145865,-0.016344437612034378,-0.005624854144454002
1746483178403678000,3.369677978515625,-0.031275428229570384,-0.00883771524373442,-0.021470365791022777
1746483178413674800,3.3796748046875,-0.03057634004950523,-0.02788527433462441,-0.01702770716845989
1746483178423670800,3.3896708984375,-0.009253566035628318,0.0010582038160413503,-0.02697393164336681
1746483178433667800,3.399667724609375,-0.03699789752960205,-0.05265449900794774,-0.03025309944450855
1746483178443665000,3.409664794921875,-0.0013964227944612503,-0.027613946579955518,-0.0033332360759377477
1746483178453662000,3.419661865234375,-0.008854337584972382,-0.0065767115091904995,-0.03555471298396587
1746483178463657700,3.42965771484375,-0.022680033841729164,-0.03234269213490188,-0.0010533084452152251
1746483178473654800,3.43965478515625,0.035189386802911754,-0.010252842738665639,-0.004070610439777374
1746483178483651800,3.44965185546875,-0.010559387937188148,-0.012542086187005043,0.005897825866937637
1746483178493648600,3.459648681640625,-0.09095219055712223,-0.042195831498876214,-0.06342267085760832
1746483178503645000,3.46964501953125,-0.05677870279848575,-0.001990370099619031,-0.03999503351897001
1746483178513641700,3.479641845703125,-0.03186637986004352,-0.0332724107330665,-0.017529519210755823
1746483178523638800,3.489638671875,-0.0366296487390995,-0.050145000405050814,0.0034741058513522148
1746483178533635800,3.4996357421875,0.020996026277542112,-0.009311397170089185,0.009885141937434673
1746483178543632000,3.5096318359375,0.020656419059634206,-0.00042900253441184756,-0.008213993854820727
1746483178553629000,3.51962890625,-0.050022214275598526,-0.0425704369649291,-0.05835311250835657
1746483178563625700,3.529625732421875,-0.06029810909628868,0.011613573165237904,-0.008397825989127158
1746483178573623000,3.539623046875,-0.0012596446722745894,-0.009215243319235742,0.005612871445715427
1746483178583618800,3.549618896484375,-0.0016384148567914962,-0.0688732278810814,-0.04289689244031906
1746483178593616000,3.559615966796875,-0.03863865047395229,-0.024873488765396176,-0.05178747038245201
1746483178603613000,3.569613037109375,-0.048132455006241796,0.024502719224244355,-0.012276128727197647
1746483178613609700,3.579609619140625,-0.006502221500873566,-0.0012818565040826797,0.006801204447448253
1746483178623605800,3.589605712890625,-0.0017138181805610656,-0.05116016879696399,-0.016557751569151877
1746483178633602800,3.599602783203125,-0.017682371684908865,-0.028507351755723356,-0.04198182342201471
1746483178643600000,3.609599853515625,-0.0509206244200468,0.0005400616934522986,-0.01094400334060192
1746483178653596700,3.6195966796875,-0.025347791746258733,-0.03155062844175845,-0.024371347929537296
1746483178663592700,3.6295927734375,0.008650339445471764,-0.031268852358311415,-0.01923807669430971
1746483178673589800,3.63958984375,-0.029396774876117703,-0.013596746339090167,-0.018055004389584062
1746483178683586600,3.649586669921875,-0.029709494087100028,-0.007283508071675896,-0.014870529134571552
1746483178693582800,3.659582763671875,-0.016655951246619224,-0.01777198619712144,-0.014244213929772376
1746483178703579600,3.66957958984375,-0.020437807872891425,-0.011856953467056154,-0.013513269306719302
1746483178713576700,3.67957666015625,-0.033190321940183634,-0.012667064273543655,-0.022990122704207895
1746483178723573800,3.68957373046875,-0.03497077561616897,-0.02038059779293835,-0.03412701826840639
1746483178733569500,3.699569580078125,-0.022868249890208244,-0.022997684956155715,-0.01028437038809061
1746483178743566800,3.70956689453125,-0.009212064981460572,-0.014603073837421834,-0.024439152468740937
1746483178753563600,3.719563720703125,-0.023308394873142242,-0.010318053461983799,-0.022104279780387877
1746483178763560700,3.729560791015625,-0.0230225636690855,-0.008953450577892362,-0.018346388551592825
1746483178773556700,3.739556640625,-0.014050152662396431,-0.023511808490753173,-0.016722294481098653
1746483178783553500,3.749553466796875,-0.0218505972802639,-0.039590580903925,-0.012628303165733814
1746483178793550800,3.75955078125,-0.028812837508320806,-0.018549108049459754,-0.013415654151141643
1746483178803547600,3.769547607421875,-0.016610943061113357,-0.0019058336213231086,-0.02143529447764158
1746483178813543700,3.779543701171875,-0.006119944185018539,-0.0136010206554085,-0.011665303352475166
1746483178823540700,3.789540771484375,-0.027143442991375923,-0.026352219548448918,-0.008432312780618668
1746483178833537800,3.799537841796875,-0.02167816332280636,-0.003968757500499486,-0.011339432398974895
1746483178843534600,3.80953466796875,-0.030384616869688033,-0.017476619979739188,-0.011261983248591423
1746483178853530600,3.819530517578125,-0.027427520629763603,-0.027258411140553652,-0.009383622156083583
1746483178863527700,3.829527587890625,-0.022826748836040495,-0.019443390008062122,-0.008109364436566829
1746483178873524700,3.839524658203125,-0.027344518521428107,0.007251761226542293,-0.01896802758127451
1746483178883521800,3.849521728515625,-0.005697334858775139,-0.01943750825654715,-0.02255026998221874
1746483178893517800,3.859517822265625,-0.02250117014348507,-0.02205664124637842,-0.020610826352238654
1746483178903514600,3.8695146484375,-0.029274025279283522,-0.01614062213562429,-0.013030746486783026
1746483178913511700,3.87951171875,-0.019438275441527365,-0.011170469040237366,-0.011846505138278007
1746483178923508700,3.8895087890625,-0.030651158851385116,-0.0200238202445209,-0.024174364052712918
1746483178933504800,3.8995048828125,-0.026160277172923088,-0.01320102501977235,-0.00701309363245964
1746483178943501800,3.909501708984375,-0.034114451047778126,0.00001004646997898817,-0.01564268255084753
1746483178953498600,3.91949853515625,-0.03008008096516132,-0.017439722035452722,-0.016056816309690476
1746483178963495700,3.92949560546875,-0.021437340304255485,-0.006576784574426711,-0.0060679217368364334
1746483178973491700,3.93949169921875,-0.025116905599832533,-0.011108801980875433,-0.011189502534270286
1746483178983488800,3.94948876953125,-0.024117957690358162,-0.0048773602453991765,-0.023903730417788028
1746483178993485600,3.959485595703125,-0.01962766053378582,-0.020333507248200475,-0.01584580390751362
1746483179003481600,3.969481689453125,-0.024880758756399154,-0.012988733975961803,-0.010432838948071002
1746483179013478700,3.979478759765625,-0.024440029251575467,-0.014582615571282802,-0.008617898480594157
1746483179023475700,3.989475830078125,-0.028365093740820885,-0.018566789836622775,-0.009527122280001639
1746483179033472800,3.99947265625,-0.03018821751475334,-0.013074731758981942,-0.027855098392069337
1746483179043468800,4.00946875,-0.029893033960461616,-0.008113931013830006,-0.020213059206306932
1746483179053465600,4.019465576171875,-0.02689735927581787,-0.01643591528777033,-0.0013785948768258094
1746483179063462700,4.029462646484375,-0.01797930880486965,-0.012122983992099762,-0.009992109443247318
1746483179073459700,4.039459716796875,-0.017577742266654966,-0.024262809521146116,-0.006880991685390472
1746483179083455700,4.049455810546875,-0.02714695012271404,-0.011217632650211452,-0.011577332808077335
1746483179093452800,4.059452880859375,-0.02863572737574577,-0.008475567400455474,-0.017773557099699973
1746483179103449900,4.069449951171875,-0.034058336946368215,0.00265431390106678,-0.020677169586718083
1746483179113446700,4.07944677734375,-0.01914835258424282,-0.015546236439049243,-0.008674597103893756
1746483179123442700,4.089442626953125,-0.020822423276305197,-0.015838497383892536,-0.00887830298244953
1746483179133439700,4.099439697265625,-0.03548983105421066,-0.011965930266864598,-0.008591302734613417
1746483179143436500,4.1094365234375,-0.01859539487659931,-0.00650090632662177,-0.025610826596617696
1746483179153433900,4.119433837890625,-0.028311902248859405,-0.015052863431535661,-0.023899054242670536
1746483179163429600,4.1294296875,-0.020523148068785666,-0.018711787797883152,-0.009424830949306488
1746483179173426700,4.1394267578125,-0.021297055050730703,-0.017923925355821848,-0.026699790877103804
1746483179183423700,4.149423828125,-0.020708441507816314,-0.0130123340472579,-0.026063246539235113
1746483179193420500,4.159420654296875,-0.021052140378952026,-0.008903400891087949,-0.016640169155597687
1746483179203416600,4.16941650390625,-0.03859773394167423,-0.008588599320873618,-0.013093874850869177
1746483179213413600,4.17941357421875,-0.033517069676518435,-0.02088083893265575,-0.007855389675498009
1746483179223410700,4.18941064453125,-0.023538696497678754,-0.014534502113237976,0.00008095628172159194
1746483179233407700,4.19940771484375,-0.03106792295873165,-0.005480952161736786,-0.004851239423453808
1746483179243403800,4.20940380859375,-0.028698271217942235,-0.010460128813795745,-0.01152004966288805
1746483179253400800,4.21940087890625,-0.02245090126097202,-0.0049824645876884455,-0.01275134502351284
1746483179263397600,4.229397705078125,-0.027863573959469794,-0.01337714877165854,0.0021308745488524436
1746483179273393700,4.2393935546875,-0.04106149370670319,-0.00942512321025133,-0.011991466566920279
1746483179283390700,4.249390625,-0.02386836684346199,-0.008689064020663499,-0.013281506377458572
1746483179293387800,4.2593876953125,-0.01697159306704998,-0.008928827593289316,-0.0033157004192471504
1746483179303384800,4.269384765625,-0.01769523116648197,-0.011790171841159462,-0.011055062499642372
1746483179313380600,4.279380615234375,-0.03922434140741825,-0.0047753977082669735,-0.017552607825398445
1746483179323377700,4.289377685546875,-0.022153964141011236,-0.00338847339451313,-0.019094868831336497
1746483179333374700,4.299374755859375,-0.025296938341856,-0.014619257787242532,-0.017746376831829547
1746483179343371500,4.30937158203125,-0.029168811339139938,-0.002206825861893594,-0.010204290889203547
1746483179353367800,4.319367919921875,-0.03321078020632267,-0.0009126578655093908,-0.007373159116506576
1746483179363364600,4.329364501953125,-0.01661737280189991,-0.013999664584174752,-0.0011938859596848487
1746483179373361700,4.339361572265625,-0.0197767136156559,-0.011845409159734845,-0.01401274326145649
1746483179383358700,4.349358642578125,-0.023860183537006377,0.006463533458299934,-0.01821107173413038
1746483179393354800,4.359354736328125,-0.020457681617140767,-0.011492796329781412,-0.009244505946338176
1746483179403351800,4.369351806640625,-0.027343349477648732,-0.0131757079154253,-0.016412790140509604
1746483179413348600,4.3793486328125,-0.01614332554936409,-0.021394524075835943,-0.006634615708887577
1746483179423346000,4.389345947265625,-0.025122166296839714,-0.005042560744471848,-0.011876608015596866
1746483179433341700,4.399341796875,-0.02630874573290348,-0.011332418136298655,-0.024781390035152433
1746483179443338800,4.4093388671875,-0.028077508971095084,-0.012187208334729074,-0.007551730553805828
1746483179453335800,4.419335693359375,-0.01627133584320545,-0.002329319730401039,-0.015153437729179858
1746483179463332600,4.42933251953125,-0.027072715842723846,-0.001674436018243432,-0.014740180753171444
1746483179473328600,4.43932861328125,-0.022310031485557553,-0.004588460301421582,-0.012269991247355937
1746483179483325700,4.44932568359375,-0.02532265730500221,-0.006472118623554706,-0.025380524972081184
1746483179493322500,4.459322509765625,-0.04028817124664783,-0.01350819127280265,0.0028840310037136076
1746483179503319800,4.46931982421875,-0.025348376268148422,-0.015207213743031025,-0.008123100700974464
1746483179513315600,4.479315673828125,-0.0060714288681745525,-0.012168028710223733,-0.009087269558012485
1746483179523313000,4.48931298828125,-0.01697100854516029,-0.0022326909555122256,-0.0018497195199131964
1746483179533309700,4.499309814453125,-0.020290508356690405,-0.01573686364032328,-0.018206103298068047
1746483179543306500,4.509306396484375,-0.03288753960132599,-0.005905863042920827,-0.02573269941061735
1746483179553302800,4.519302734375,-0.025875030490756033,-0.015484861640632152,-0.019226970778405666
1746483179563299600,4.529299560546875,-0.024259411987662315,-0.008067644186690448,-0.007312661100924015
1746483179573297000,4.539296875,-0.028297873723506926,-0.00902965761926025,-0.009157119923830032
1746483179583293700,4.549293701171875,-0.015447159978747366,-0.0011478183282539248,-0.01374824710637331
1746483179593289700,4.559289794921875,-0.02294891391098499,0.00010009937360882758,-0.005309796845912933
1746483179603286800,4.569286865234375,-0.04150573034286499,-0.00591452127341181,-0.016072306139767168
1746483179613283600,4.57928369140625,-0.019108605095744132,0.004380005182512105,-0.0017079729616641998
1746483179623279900,4.58927978515625,-0.011793898168206213,-0.007160064355097711,-0.01615676955282688
1746483179633276700,4.599276611328125,-0.02111117708981037,-0.013060885896719991,-0.02441080315709114
1746483179643273500,4.6092734375,-0.0239724117398262,0.008028992676734924,-0.005492167675495148
1746483179653271000,4.61927099609375,-0.037725627282261844,-0.009421543013677,-0.013929156631231307
1746483179663266800,4.629266845703125,-0.03296761910021305,-0.008070091872103512,-0.017713351345062255
1746483179673264000,4.63926416015625,-0.02847030768096447,-0.004905965285375714,-0.016372750391066074
1746483179683261000,4.649260986328125,-0.03162906397283077,-0.004635660444013774,-0.013616437420248985
1746483179693258000,4.659258056640625,-0.03356909212470054,-0.011627272897027432,-0.011971592822670936
1746483179703254000,4.66925390625,-0.034196284112334246,-0.01591561774071306,-0.0036506314620375633
1746483179713250800,4.679250732421875,-0.023614099821448326,-0.009768566353060304,-0.011585516114532946
1746483179723248000,4.689248046875,-0.027196049961447713,-0.02103197437375784,-0.007842530193924904
1746483179733245000,4.699244873046875,-0.01898059480190277,-0.007833470104634761,-0.011838321831822395
1746483179743241000,4.709240966796875,-0.03412906409502029,-0.013172894903831183,-0.011573533415794372
1746483179753238000,4.719238037109375,-0.024857962402701377,-0.006296177534759044,-0.00855769272595644
1746483179763234800,4.72923486328125,-0.024416648375988004,0.005425093788653612,-0.015122750329971313
1746483179773231900,4.73923193359375,-0.02694996624588966,-0.01141973109357059,-0.005743804349005222
1746483179783228000,4.749227783203125,-0.019616554617881775,-0.003439071070589125,-0.014137246423959731
1746483179793225000,4.759224853515625,-0.025927052938938138,-0.019859788789227603,-0.009713877023756503
1746483179803222000,4.769221923828125,-0.0295364756077528,-0.024712197256460785,0.002755143927037716
1746483179813219000,4.779218994140625,-0.026577041280269623,-0.030814130860753356,-0.005962707796692848
1746483179823215000,4.789215087890625,-0.02959083614349365,-0.010123005813919008,-0.00784223793298006
1746483179833212000,4.7992119140625,-0.01703939760625362,-0.007535510071367025,-0.002249240231513977
1746483179843209000,4.809208984375,-0.026487609431147575,-0.010699746255949138,-0.015339900211989879
1746483179853206000,4.8192060546875,-0.025614333727955817,-0.016378303349018096,-0.010766600947082042
1746483179863201800,4.829201904296875,-0.025494506740570067,-0.018443601848371325,-0.011388532237708568
1746483179873199000,4.83919921875,-0.024629414343833922,-0.008221409976296126,-0.011581132200360297
1746483179883196000,4.84919580078125,-0.021321020448207852,-0.001568783686682582,-0.0029991818159818646
1746483179893192000,4.85919189453125,-0.028206688308715817,0.00284516029804945,-0.005846095679700374
1746483179903189000,4.86918896484375,-0.03479775713682175,-0.00956851373631507,-0.022880817110836504
1746483179913185800,4.879185791015625,-0.016547814697027204,-0.005737191945128142,-0.012701952923834322
1746483179923182800,4.889182861328125,-0.017624504017829893,-0.005685132964327931,-0.00781827253550291
1746483179933179000,4.899178955078125,-0.03290565977990627,-0.0024435206945985556,0.0003071662530303001
1746483179943176000,4.909176025390625,-0.023961890345811844,0.007567512644827365,-0.004234861090779305
1746483179953173000,4.919173095703125,-0.02006897456049919,-0.02332728223670274,-0.00979249521791935
1746483179963170000,4.929170166015625,-0.02185761154294014,-0.020624489551410077,-0.016853227384388447
1746483179973166000,4.939166015625,-0.026488778474926946,-0.009114595956355333,-0.010291969172656535
1746483179983163000,4.949162841796875,-0.03203063051104545,-0.011275281121581791,-0.015974983245134352
1746483179993160000,4.959159912109375,-0.043564416438341136,-0.012439100736565888,-0.010552373674511908
1746483180003157000,4.969156982421875,-0.023807576566934583,-0.0071737275542691345,-0.0029416064098477363
1746483180013152800,4.97915283203125,-0.02454232058227062,0.002066577140986919,-0.006002747546136379
1746483180023150000,4.989150146484375,-0.015118658676743507,-0.007925422704406082,-0.01180588086694479
1746483180033147000,4.99914697265625,-0.02007072812616825,-0.00510002655275166,-0.01986059250682592
1746483180043144000,5.00914404296875,-0.03550152149200439,-0.008069032426178456,-0.0051630818516016
1746483180053140000,5.019139892578125,-0.015144377639889716,0.00378306220266968,-0.010577215854823588
1746483180063137000,5.029136962890625,-0.006326280412077903,-0.015045922234095632,-0.009947101257741451
1746483180073133800,5.0391337890625,-0.02130114670395851,0.0021417612690478563,-0.01786123538315296
1746483180083131000,5.049130859375,-0.02909106992781162,0.001885375355184078,-0.007511690804362297
1746483180093127000,5.059126953125,-0.008135375660657883,-0.008795264341495931,-0.009620938043296336
1746483180103124000,5.0691240234375,-0.030146131938695905,-0.0006287263575941324,-0.015422317798435687
1746483180113121000,5.07912109375,-0.02643500246107578,-0.003446085333265364,-0.016519465385377408
1746483180123117800,5.089117919921875,-0.030921207964420317,-0.02255052571054548,-0.009953823259472847
1746483180133113900,5.09911376953125,-0.026436171504855156,-0.005930339897051453,-0.00874327842593193
1746483180143111000,5.10911083984375,-0.021057401075959204,-0.007506028248555958,-0.006034896250069141
1746483180153108000,5.11910791015625,-0.018054127606749532,-0.006314626506902277,-0.0012818565040826797
1746483180163104000,5.12910400390625,-0.0035509704798460003,-0.012495397501066326,-0.002728255920112133
1746483180173101000,5.13910107421875,-0.01987374424934387,-0.007026062711887061,-0.008211071245372296
1746483180183097900,5.149097900390625,-0.025434885507822035,-0.0041650107249617575,-0.0033396658167243
1746483180193095000,5.159094970703125,-0.019919921478629112,-0.009429835917986929,-0.0029591420665383335
1746483180203091000,5.169091064453125,-0.011850596791505814,0.0015886208983138203,-0.006080196696519852
1746483180213088000,5.179087890625,-0.026546061620116232,-0.004856280924752355,-0.008363923719525337
1746483180223084800,5.189084716796875,-0.02734744113087654,-0.002054375246539712,-0.020915654517710207
1746483180233082000,5.19908203125,-0.026626141119003296,-0.011213175670802593,-0.014557517662644386
1746483180243078000,5.209077880859375,-0.029973113459348676,0.00600822743885219,-0.01409545310884714
1746483180253075000,5.219074951171875,-0.017490648505091667,-0.009810761526972056,-0.013076046933233738
1746483180263072000,5.229072021484375,-0.0320721315652132,-0.027041955378279088,-0.004034662343561649
1746483180273068800,5.23906884765625,-0.02452536944746971,-0.01649031235612929,-0.0049742812812328336
1746483180283064800,5.24906494140625,-0.029690789386630057,-0.00418521326277405,-0.005483984369039535
1746483180293062000,5.259061767578125,-0.024535890841484068,-0.017467304162122308,-0.01572802274674177
1746483180303059000,5.269058837890625,-0.027478374034166333,-0.014550539932586253,-0.014574468797445296
1746483180313056000,5.279055908203125,-0.014119710767269134,-0.011515629216097294,-0.0027849545434117315
1746483180323052000,5.289052001953125,-0.014985387685894965,-0.006968816099315881,-0.005305412931740284
1746483180333049000,5.299049072265625,-0.017083236747980117,-0.011459807375632226,-0.002483341248333454
1746483180343046000,5.3090458984375,-0.021314006185531614,-0.023391323916241526,-0.003302548676729202
1746483180353043000,5.31904296875,-0.014590835410356521,0.0032026319662109017,-0.0003217793002724647
1746483180363039000,5.3290390625,-0.02937573208808899,-0.002257131277024746,-0.018698855251073836
1746483180373036000,5.3390361328125,-0.02501636783480644,-0.00016118191108107567,-0.012814765648543834
1746483180383033000,5.349033203125,-0.027194296395778656,-0.004857303838059305,-0.014266425761580466
1746483180393030000,5.35902978515625,-0.026353753918409346,-0.0009041457654908299,-0.01490413914322853
1746483180403026000,5.36902587890625,-0.019672668719291686,0.0033209611162543294,-0.008222469422221183
1746483180413023000,5.37902294921875,-0.02291325807571411,-0.011704722047410904,0.005369418078660965
1746483180423019800,5.389019775390625,-0.022117723783850667,-0.006891622677259146,-0.011988543957471847
1746483180433016000,5.39901611328125,-0.03879880947172642,-0.019005875373631714,-0.014309972642362117
1746483180443012900,5.409012939453125,-0.03301964154839516,-0.00927194194253534,-0.006536708292365074
1746483180453010000,5.419010009765625,-0.01916764180660248,-0.015360248880274593,-0.019391513690352438
1746483180463007000,5.429007080078125,-0.012086159113049506,-0.017439137513563036,-0.011490531307458876
1746483180473003000,5.4390029296875,-0.03135726129412651,-0.022027122890949248,-0.010244622899591922
1746483180483000000,5.449,-0.02609305715560913,0.0014301058683544397,-0.004922551093995571
1746483180492996900,5.458996826171875,-0.027220015358924866,-0.006720613491907715,-0.02399111644029617
1746483180502994200,5.468994140625,-0.03193184631168842,0.006772672472707927,-0.008053250335156917
1746483180512990000,5.478989990234375,-0.0385205770522356,0.012360665205493568,-0.005530161598324776
1746483180522987000,5.488987060546875,-0.02669043852686882,-0.012369433033838867,-0.008300503094494342
1746483180532984000,5.498984130859375,-0.0225040927529335,-0.025273484401032328,-0.01075578729212284
1746483180542980900,5.50898095703125,-0.0008586626559495925,-0.018462635342404245,-0.003010579992830753
1746483180552977000,5.518976806640625,-0.028027240088582036,-0.007313209090195596,-0.002362052956223488
1746483180562974000,5.528973876953125,-0.041895021921396255,0.009362177509255706,-0.0032712767556309697
1746483180572970800,5.538970703125,-0.023469722914695738,0.007178732522949576,-0.013655600386857985
1746483180582968000,5.548968017578125,-0.03728080612421036,-0.0060106385916471475,-0.005621639274060726
1746483180592963800,5.5589638671875,-0.02819792048037052,-0.009637048927880823,-0.010449205560982227
1746483180602961200,5.568961181640625,-0.024820553001761433,-0.004682677923515439,-0.008187690369784832
1746483180612958000,5.5789580078125,-0.023808745610713958,-0.006247516087442636,-0.008579612296819687
1746483180622954800,5.588954833984375,-0.027463176465034482,-0.008783829632028936,-0.003923895445466041
1746483180632951000,5.598950927734375,-0.03199848180711269,-0.007082030682824552,-0.009188391844928263
1746483180642947800,5.60894775390625,-0.02849719568789005,-0.0013454232595860958,-0.0038221886366605756
1746483180652945200,5.618945068359375,-0.024279870253801343,0.006366539357230067,-0.0005944587618112564
1746483180662942000,5.62894189453125,-0.03437397876679897,-0.017787622157670557,-0.013864859223365783
1746483180672938000,5.63893798828125,-0.049508419534564016,-0.015852197115682063,-0.019230770170688628
1746483180682935000,5.64893505859375,-0.011350830575823784,-0.014473273445293306,-0.014353519523143768
1746483180692931800,5.658931884765625,-0.020199322941899297,-0.0038076121220365165,0.008100012086331845
1746483180702928100,5.66892822265625,-0.01830664106309414,-0.014350998772494494,-0.0003147650375962257
1746483180712925000,5.678925048828125,-0.031094226443767546,-0.02153283656798303,0.0023863106146454808
1746483180722921700,5.688921630859375,-0.01863105071187019,-0.0017706629343330858,0.006714110685884952
1746483180732919000,5.6989189453125,-0.03459083638787269,-0.003310805048421025,-0.0027142273947596547
1746483180742914800,5.708914794921875,-0.02746726811826229,-0.006331979500502348,-0.01485620834827423
1746483180752912100,5.718912109375,-0.02455810267329216,0.004320968471653759,-0.009835749837756156
1746483180762909000,5.728908935546875,-0.038377953711152074,0.019449856281466782,-0.02182750866562128
1746483180772906000,5.738906005859375,-0.03417056514918804,0.006803213741444051,-0.005168927070498466
1746483180782902000,5.748902099609375,-0.026534371182322502,0.003668203651346266,-0.001826338644325733
1746483180792898800,5.75889892578125,-0.1736462558567524,0.11909282789230347,-0.0944280499741435
1746483180802896100,5.768896240234375,-0.04671674298942089,0.15777864197622984,-0.3073758041277528
1746483180812893000,5.778892822265625,0.7372258952796459,0.1776409149834886,-0.2563900055170059
1746483180822889000,5.788888916015625,0.734890730330348,0.24489103517476468,0.02531009008437395
1746483180832886000,5.798885986328125,0.11402210049927233,-0.04793791881483048,0.37401626798808574
1746483180842882800,5.8088828125,-0.6824626239567995,-0.5219547396797687,0.42021804719269273
1746483180852880100,5.818880126953125,-1.0564619408100844,-0.7371499074339867,0.13464549407213924
1746483180862876000,5.8288759765625,-0.7647709048092365,-0.4975217977561056,-0.00044862055033445357
1746483180872873000,5.838873046875,-0.22308161015510558,0.07731123975012451,0.06560790594220162
