time,seconds_elapsed,z,y,x
1746483200031490600,0.535490478515625,-0.058958384925127026,0.03338935164362192,-0.1495410115174949
1746483200041487600,0.545487548828125,-0.14289572828412056,-0.035489538793265815,-0.209100723336637
1746483200051484700,0.555484619140625,-0.20041794292628765,-0.05600187320709228,-0.1916083212658763
1746483200061481700,0.565481689453125,-0.2521247492879629,-0.011792436863481998,-0.17124635510817168
1746483200071477800,0.575477783203125,-0.24730010561048982,0.05740326443761587,-0.1589436306349933
1746483200081474600,0.585474609375,-0.22595511976480484,0.06559855359196662,-0.12380144397467374
1746483200091471600,0.5954716796875,-0.14309037407338618,0.02194032139033079,-0.08683321093097329
1746483200101467600,0.605467529296875,-0.07739595889151096,0.04355623313188552,-0.09538812717795371
1746483200111464700,0.615464599609375,-0.08073533244729042,0.07646043160706759,-0.12932313000559806
1746483200121461500,0.62546142578125,-0.05456453388035297,0.07938625592589378,-0.1593500194787979
1746483200131457500,0.63545751953125,-0.01695581097602844,0.07469108384698629,-0.20124109587743877
1746483200141454600,0.64545458984375,0.012938976550102232,0.0339522462233901,-0.19972616126984358
1746483200151451600,0.65545166015625,0.0233189162671566,-0.008828618621826172,-0.20983619800433514
1746483200161447700,0.66544775390625,-0.018035422906279564,-0.06295972952097655,-0.15328925813511013
1746483200171444700,0.67544482421875,-0.07527531347572804,-0.13664426667392254,-0.113342009280622
1746483200181441500,0.685441650390625,-0.08664835588335991,-0.1605617333561182,-0.07502922976016999
1746483200191437800,0.695437744140625,-0.060679801890254015,-0.11682780556976795,-0.015664455991238356
1746483200201434600,0.7054345703125,0.002746083837747574,-0.046241526693105696,0.01601487686410546
1746483200211431700,0.715431640625,0.007733809122443198,-0.009542319849133491,-0.0008532558284699916
1746483200221427700,0.725427734375,-0.06592822393774986,-0.04717705397754907,-0.042341450514644385
1746483200231424500,0.735424560546875,-0.034655133795738216,-0.13026391798704862,-0.03655629124194383
1746483200241421800,0.745421875,0.03605623276531696,-0.14779694432914256,-0.04472659208551049
1746483200251417600,0.75541748046875,0.12232523394227027,-0.12675912473648787,-0.02493292733505368
1746483200261414700,0.76541455078125,0.16489128699302671,-0.06781126120537519,-0.01702317712381482
1746483200271411700,0.77541162109375,0.11727554933726787,-0.051259647116065024,0.0018592180006206036
1746483200281408500,0.785408447265625,-0.046125206837058064,-0.15529314530342817,0.12167948338463902
1746483200291404800,0.79540478515625,-0.230509129807353,-0.1793117342725396,0.1906638800226152
1746483200301401600,0.805401611328125,-0.30259353828728197,-0.13720365412235258,0.2094813932172954
1746483200311398700,0.815398681640625,-0.2895329811841249,-0.0859212106525898,0.18518895574286579
1746483200321394700,0.825394775390625,-0.1856540890365839,-0.02522036597430706,0.11867109534889458
1746483200331391500,0.8353916015625,-0.05483750560283661,0.02788987744450569,0.06414864704459905
1746483200341388800,0.845388916015625,0.07796294512450695,0.07102642385959625,0.01634776208028197
1746483200351384600,0.855384521484375,0.12592004356384276,0.05661737475693226,-0.06022708968669176
1746483200361382000,0.8653818359375,0.1000987890869379,-0.021974515920877454,-0.11397709231376647
1746483200371378700,0.875378662109375,0.0586456657141447,-0.05762362919002771,-0.1680005050547421
1746483200381374700,0.885374755859375,-0.0065437225550413125,-0.0740431413322687,-0.16531214275360107
1746483200391371800,0.895371826171875,-0.017948329144716262,-0.11243395452499388,-0.11306100038215518
1746483200401368600,0.90536865234375,0.007489478972554206,-0.09765314950048923,-0.04492664470225572
1746483200411364600,0.915364501953125,0.07545593073964119,-0.07836275809705257,-0.0038156127654016014
1746483200421361700,0.925361572265625,0.15766192026138304,-0.07578940047770738,0.038841187308728695
1746483200431358500,0.9353583984375,0.16302490859925747,-0.049637014350295064,0.0382275854550302
1746483200441354800,0.945354736328125,0.12639642890393732,0.010941080731153487,0.017252748095989225
1746483200451351600,0.9553515625,0.07021101582348346,0.03620440906435251,0.0004712707735598087
1746483200461348600,0.9653486328125,0.05318681578636169,0.0817141143515706,-0.01088540502116084
1746483200471345700,0.975345703125,0.0779430713802576,0.07898381260484456,-0.024994302133470772
1746483200481341700,0.985341796875,0.1411421626150608,0.08015373316705227,0.012653583737462759
1746483200491338800,0.9953388671875,0.16611059965491293,0.0831149210602045,0.048253012645989656
1746483200501335600,1.00533544921875,0.054658057382702824,0.0944523076325655,0.009493000814691186
1746483200511331600,1.01533154296875,-0.08000175747573375,0.10509031376391649,-0.08150032547041773
1746483200521328600,1.02532861328125,-0.11360358282625675,0.10529138929396867,-0.19709362080916762
1746483200531325700,1.03532568359375,-0.05410919132828712,0.08182692707628011,-0.2710130626965314
1746483200541321700,1.04532177734375,0.05203355409801006,0.09206950414925813,-0.24224172624237833
1746483200551318500,1.055318603515625,0.16259353144466876,0.07490560338050127,-0.17614435628280042
1746483200561315600,1.065315673828125,0.29737434233427046,0.045286417925357814,-0.1121957618549466
1746483200571311600,1.0753115234375,0.442871777549386,0.07231207975596189,-0.029713366544619202
1746483200581308700,1.08530859375,0.4843079497873783,0.1111027059212327,0.08351042318381369
1746483200591305700,1.0953056640625,0.47871115269362924,0.19600918657332658,0.25078093346357344
1746483200601301800,1.1053017578125,0.4487807093322277,0.29368893181979655,0.36172559927888215
1746483200611298600,1.115298583984375,0.3633084114909172,0.3515732577726245,0.3967288158599287
1746483200621295600,1.125295654296875,0.27299159622788427,0.31594197242110966,0.38838096649236975
1746483200631291600,1.135291748046875,0.1597211908787489,0.2112488412812352,0.3109411684591323
1746483200641288700,1.145288818359375,0.06297697291672229,0.07511661578267813,0.16258074502833186
1746483200651285800,1.15528564453125,-0.050239656418561936,0.0218985280752182,-0.022843334644660353
1746483200661282600,1.165282470703125,-0.14296820899844168,-0.03832183960974216,-0.17120536551065743
1746483200671278800,1.17527880859375,-0.2107715791583061,-0.06638795040398836,-0.29266185379438103
1746483200681276000,1.18527587890625,-0.2758060691267252,-0.10176204612404108,-0.33412118771225213
1746483200691273000,1.19527294921875,-0.3737222534775734,-0.08313888645768165,-0.3396037838418037
1746483200701269000,1.20526904296875,-0.4177396743804216,-0.14277970068901777,-0.30492936082370575
1746483200711265800,1.215265869140625,-0.3936977045357227,-0.2144169499233365,-0.26686595295444127
1746483200721262800,1.225262939453125,-0.348649771541357,-0.30197423734515905,-0.2334679796129465
1746483200731259000,1.2352587890625,-0.3183306211233139,-0.3141065736874938,-0.20811083551645276
1746483200741256000,1.245255859375,-0.2522685416728258,-0.30383827765136956,-0.1616195718459785
1746483200751253000,1.2552529296875,-0.2081190188229084,-0.246527659933269,-0.1297230160433799
1746483200761248800,1.265248779296875,-0.11835808387696742,-0.23065233767032622,-0.12572357114367186
1746483200771246000,1.27524609375,-0.0596738397181034,-0.2574962131932378,-0.11363456248641013
1746483200781243000,1.285242919921875,-0.05410100802183151,-0.23939152444303036,-0.09834683085307479
1746483200791239000,1.295239013671875,-0.030977322065830228,-0.1931666566237807,-0.10343312114141881
1746483200801236000,1.305236083984375,0.029908231529593467,-0.1928019149646163,-0.12920476432293654
1746483200811232800,1.315232666015625,0.09863631531894207,-0.17331629325002432,-0.13208105041161178
1746483200821229000,1.32522900390625,0.12604571577012538,-0.12443944961726665,-0.11509820529818535
1746483200831225900,1.335225830078125,0.12178981189131736,-0.08084814517199992,-0.08121398280970751
1746483200841223000,1.345222900390625,0.10128887565433979,0.00215630125105381,-0.04753719252683222
1746483200851219000,1.355218994140625,0.044803602844476695,0.08492723117917776,-0.042498979163914916
1746483200861215700,1.3652158203125,0.01310030459165573,0.17531068193763494,-0.0940682036858052
1746483200871213000,1.375213134765625,-0.008232990816235542,0.23456804980933665,-0.14806779715977608
1746483200881209900,1.3852099609375,0.007066869646310806,0.26760668831914664,-0.1705848224595189
1746483200891206000,1.395205810546875,0.03006196078658104,0.21885756271928547,-0.15713555829972028
1746483200901203000,1.405202880859375,0.02806289592385292,0.15027794748991727,-0.09867606280744075
1746483200911199700,1.41519970703125,0.04668050263226032,0.1486187821060419,-0.15588307402059434
1746483200921196000,1.425196044921875,0.04206336422562599,0.16804478258788585,-0.24010252225659787
1746483200931192800,1.43519287109375,0.07177578092217445,0.19144027122259138,-0.3200226658634841
1746483200941190000,1.44518994140625,0.12768939132392407,0.20370178690254687,-0.3960981898061931
1746483200951186000,1.45518603515625,0.20735680227875708,0.14621113644242287,-0.5670986803945154
1746483200961182700,1.4651826171875,0.30779578310549255,0.09736819507926701,-0.8570875886525958
1746483200971180000,1.475179931640625,0.2678688463866711,0.10365414348095654,-0.6189023712594062
1746483200981175800,1.48517578125,0.2708434782832861,0.19383885679692028,-0.48961993859037756
1746483200991172900,1.4951728515625,0.25230478202998635,0.22928221836090087,-0.45312874847389756
1746483201001170000,1.505169921875,0.21302257295548915,0.21939561511874198,-0.3684697397768497
1746483201011166000,1.515166015625,0.13947101453244684,0.2117781258523464,-0.31335911632105706
1746483201021163000,1.5251630859375,0.05301087469756603,0.18920768986493347,-0.2773362013034522
1746483201031159800,1.535159912109375,-0.03393734091520309,0.16519260802716015,-0.27618746965974567
1746483201041155800,1.54515576171875,-0.14718261182308195,0.08988163871616124,-0.3953463485255837
1746483201051153000,1.55515283203125,-0.2981073327839374,-0.0521364299505949,-1.089525421500206
1746483201061150000,1.56514990234375,-0.3538958555012941,-0.1808089870929718,-1.101463112053275
1746483201071146000,1.57514599609375,-0.29262510198056696,-0.18242665142267941,-1.0023414974354208
1746483201081142800,1.585142822265625,-0.2396539747714996,-0.17051994052976369,-0.9588238427482545
1746483201091139800,1.595139892578125,-0.21062895581722257,-0.2026312350615859,-0.8952944966457783
1746483201101137000,1.605136962890625,-0.2413017419785261,-0.19993951175957916,-0.8359203705266117
1746483201111133000,1.6151328125,-0.3300111220449209,-0.1316091951161623,-0.8103595205515622
1746483201121130000,1.6251298828125,-0.44431320852935313,-0.08796820631027222,-0.7941345080681145
1746483201131126800,1.635126708984375,-0.5702893661946058,-0.030431086359918116,-0.7704201627425848
1746483201141122800,1.645122802734375,-0.7004296578019857,0.035866847673058505,-0.7289601712375879
1746483201151120000,1.655119873046875,-0.8306815930902958,0.054524786391854284,-0.7095284716673195
1746483201161117000,1.665116943359375,-0.945033948457241,0.09405980118364095,-0.7252187927521765
1746483201171113000,1.675113037109375,-1.037898110115528,0.15136252785623072,-0.7519960327796638
1746483201181110000,1.685110107421875,-1.0892688163906334,0.1507028949037194,-0.7820828357465565
1746483201191106800,1.69510693359375,-1.1762994495898484,0.16543752269893883,-0.8133391208842397
1746483201201102800,1.705102783203125,-1.261907941031456,0.12505495116710663,-0.7995826904714107
1746483201211100000,1.715099853515625,-1.3130617896854877,0.1192220072299242,-0.7914566671609878
1746483201221097000,1.725096923828125,-1.419140822225809,0.08550240071862936,-0.7693805905617773
1746483201231093000,1.735093017578125,-1.5018997694551943,0.03926408889591693,-0.7388055656865239
1746483201241089800,1.74508984375,-1.5613427230268715,0.04408025700598955,-0.7544653455026448
1746483201251086800,1.7550869140625,-1.5918039122641086,0.06848287685662507,-0.7750415389329195
1746483201261083000,1.765082763671875,-1.5918839917629957,0.058954585532844064,-0.7937554456226528
1746483201271080000,1.775079833984375,-1.5675614514112473,0.054141632293164724,-0.7994019270770252
1746483201281077000,1.785076904296875,-1.5295780499756335,0.11706336789131164,-0.8357238250412047
1746483201291072800,1.79507275390625,-1.4964572861403227,0.22523089714348316,-0.9151239633619784
1746483201301070000,1.805070068359375,-1.504988967642188,0.3927186303704977,-1.0137754762500524
1746483201311067000,1.81506689453125,-1.5343202760666608,0.5641778975769877,-1.0932548172868788
1746483201321063000,1.82506298828125,-1.5938970851510763,0.7393903798371553,-1.1820387238942085
1746483201331060000,1.83506005859375,-1.6852262923270462,0.7944321758404373,-1.2200763397350907
1746483201341056800,1.845056884765625,-1.7504168496400117,0.8566232590764761,-1.271261898701638
1746483201351054000,1.85505419921875,-1.7997598494797944,0.9914090384021401,-1.437470990294963
1746483201361049900,1.8650498046875,-1.8400924443900584,1.1445645871549843,-1.60240392447263
1746483201371047000,1.875046875,-1.8362088809549808,1.3362909818425774,-1.7740515538580715
1746483201381044000,1.8850439453125,-1.846447366374731,1.546524508601427,-1.8989760105133056
1746483201391039700,1.895039794921875,-1.8567220921516416,1.6429019390776753,-1.9470719329014419
1746483201401037000,1.905037109375,-1.8235341082990169,1.7805518756628036,-1.9815052406400442
1746483201411033900,1.915033935546875,-1.842061114114523,1.9306255327522754,-2.0156484793908893
1746483201421030000,1.92502978515625,-1.8798820184648035,2.1044091512531042,-2.0119433412626386
1746483201431027000,1.93502685546875,-1.8901076444029807,2.294566981449723,-1.9878882196754215
1746483201441023700,1.945023681640625,-1.8950708197683095,2.4927380222320554,-2.0328307925991713
1746483201451020000,1.95502001953125,-1.911927846544981,2.7493030920550225,-2.147539560188353
1746483201461016800,1.965016845703125,-1.8638368925929067,2.8807755090489984,-2.1454783898748455
1746483201471014000,1.975013916015625,-1.7671236542910336,3.0040818629831074,-2.131382352244109
1746483201481010000,1.985010009765625,-1.6182400837689637,3.095618575429916,-2.061057208521664
1746483201491007000,1.995007080078125,-1.4371318214684723,3.2246576277971264,-2.041152923003584
1746483201501004000,2.005004150390625,-1.2288970673114061,3.466926461242139,-2.006148245117813
1746483201510999800,2.014999755859375,-1.0325099873363972,3.7557498328521843,-2.0121502620115876
1746483201520996900,2.024996826171875,-0.9002940584987401,4.200530658893287,-2.0546232299514116
1746483201530994000,2.034993896484375,-0.7984194919109344,4.566027228078246,-2.1222883606843648
1746483201540990000,2.044989990234375,-0.6221557470321655,4.7761514492437245,-2.2413990164943036
1746483201550987000,2.054987060546875,-0.3011941928833723,4.9447524044096465,-2.40739694955498
1746483201560983800,2.06498388671875,0.15631459730565547,5.145808060717583,-2.5336168528482315
1746483201570979800,2.074979736328125,0.6437140833675861,5.3103743535399435,-2.6467577865988017
1746483201580977000,2.084976806640625,1.1435697308987378,5.510698188441991,-2.7826033041104674
1746483201590974000,2.094973876953125,1.6429636061370372,5.764172598773241,-2.915515106257796
1746483201600971000,2.104970947265625,2.223849769669771,5.93599748442173,-2.9824159746199843
1746483201610967000,2.114967041015625,2.8823744686782358,6.114928402683138,-3.007098288194835
1746483201620963800,2.1249638671875,3.500657173669338,6.266067643177509,-3.0066970139175653
1746483201630959900,2.1349599609375,4.2390760781258345,6.188178932332992,-2.793904158064723
1746483201640957000,2.14495703125,5.260674795347452,5.968065524333715,-2.623233703148365
1746483201650954000,2.1549541015625,6.491536440730094,5.969727904587984,-2.989302519263327
1746483201660950800,2.16495068359375,8.034023072117566,6.1049266486287115,-3.6925001804739233
1746483201670947600,2.174947509765625,9.305527693533897,5.715112507528066,-3.8826153405725954
1746483201680944600,2.184944580078125,9.14294760609269,3.9825335123956203,-2.397049158541858
1746483201690941700,2.194941650390625,8.878554911383986,3.573455867898464,-1.9731440933994948
1746483201700937500,2.2049375,8.976528963401913,3.6026664725527167,-2.0028207081303
1746483201710934500,2.2149345703125,8.990955548161267,3.5084602486357093,-1.898177992003411
1746483201720931600,2.224931640625,9.022153234979509,3.446575162608921,-1.814952011784166
1746483201730927400,2.23492724609375,9.054424103987216,3.3663390118554233,-1.7309525629743934
1746483201740924700,2.244924560546875,9.083116529986262,3.2892057955533263,-1.6375241915620862
1746483201750921500,2.25492138671875,9.101272948923706,3.206061063876748,-1.5394168685533105
1746483201760917800,2.264917724609375,9.134555625322461,3.111712216618657,-1.4373969021454454
1746483201770914600,2.27491455078125,9.141641784191131,3.026887276770174,-1.3377297824740408
1746483201780911600,2.28491162109375,9.168861215028166,2.9363869216337797,-1.2322875865325331
1746483201790907600,2.29490771484375,9.179387869739532,2.8398420256361363,-1.1166967754118144
1746483201800904400,2.304904541015625,9.1989372043401,2.745786316105723,-0.9910181393884122
1746483201810901800,2.31490185546875,9.208098415917158,2.6577853765696284,-0.8761888872247189
1746483201820897500,2.3248974609375,9.224761965948343,2.5527780649140475,-0.7303998486518859
1746483201830894600,2.33489453125,9.23621508785486,2.452823652733862,-0.5990517886899411
1746483201840891600,2.3448916015625,9.244086259621382,2.3392647858321665,-0.454019925159961
1746483201850888400,2.354888427734375,9.245317262721061,2.245400945612043,-0.3123116165621206
1746483201860884700,2.364884765625,9.243899797138571,2.1466789978362617,-0.16703757830671964
1746483201870881500,2.374881591796875,9.239047096410394,2.033955558845401,-0.011783157578483224
1746483201880878600,2.384878662109375,9.227436738115548,1.9041604274138808,0.15131675248574464
1746483201890874600,2.39487451171875,9.205817611503601,1.804606120467186,0.31245993899162855
1746483201900871400,2.404871337890625,9.19115838703215,1.6714279224686324,0.49469190809242425
1746483201910868700,2.41486865234375,9.168875243553519,1.5515857375137507,0.6674172497119755
1746483201920864500,2.424864501953125,9.169978236359357,1.4377566753685473,0.8378070610560476
1746483201930861600,2.434861572265625,9.145757402816415,1.3140318037614225,1.0156583673872053
1746483201940858600,2.444858642578125,9.101441875749826,1.2021741147544234,1.1922815932281314
1746483201950854700,2.454854736328125,9.041489219090343,1.075219686641544,1.3883873720437288
1746483201960851700,2.464851806640625,8.999448066696525,0.9500631747961044,1.560748118134588
1746483201970848500,2.4748486328125,8.95048325251937,0.816328073567152,1.751102786077559
1746483201980844500,2.484844482421875,8.857722551235556,0.6905564985632896,1.9409967046409844
1746483201990841600,2.494841552734375,8.748214713290333,0.5671360167302191,2.12261876168251
1746483202000838400,2.50483837890625,8.614711082729697,0.44609654828216877,2.295680203388631
1746483202010834400,2.51483447265625,8.28745422782898,0.33035971628688277,2.4187270296037195
1746483202020831500,2.52483154296875,-7.678824901846051,1.4315784251250325,5.070637376660108
1746483202030828500,2.53482861328125,-78.13745062754154,10.310860920131207,12.11343524250984
1746483202040824600,2.544824462890625,-120.48413027501105,17.82304038479328,21.852624402177334
1746483202050821600,2.554821533203125,-105.61469770350456,15.481213054996728,37.931000217247
1746483202060818700,2.564818603515625,-70.159217831707,5.851031382536887,37.03154494765997
1746483202070814700,2.574814697265625,-44.42658154945373,2.667511236292124,28.01988680320978
1746483202080811500,2.5848115234375,-27.570499360156056,1.3487784152328968,17.550013717252014
1746483202090808600,2.59480859375,-13.051954109984635,0.2836580247361213,9.432279511746763
1746483202100804600,2.6048046875,-1.935232734286785,-0.3289341404631734,4.232233664885163
1746483202110801400,2.614801513671875,5.63711039943695,-0.4408275583706796,1.0645866489462554
1746483202120798500,2.624798583984375,9.652384736439585,-0.08835727869309484,-0.6306906434044242
1746483202130795500,2.63479541015625,10.82119529157877,0.41398974726237353,-1.2180155347477644
1746483202140791600,2.64479150390625,10.452406402850151,0.6859975200846791,-0.739447809112817
1746483202150788600,2.65478857421875,9.945942735356091,1.0589686629340052,0.120261652475968
1746483202160785700,2.66478564453125,9.806198749101162,1.297046474429965,0.6329470440290867
1746483202170781700,2.67478173828125,9.691869190087914,1.4070989406459034,0.8570297940507531
1746483202180778500,2.684778564453125,9.630881929683685,1.4785222548685968,1.1205215213317423
1746483202190775600,2.694775634765625,9.571429623761773,1.4972143881179392,1.349676825377345
1746483202200771600,2.704771484375,9.517353750181197,1.4311585922777652,1.5173859462700783
1746483202210768400,2.714768310546875,9.483326392894982,1.2345458868533372,1.6063380490511654
1746483202220765700,2.724765625,9.325657458370923,0.7870112320594489,1.3427955414310098
1746483202230761500,2.734761474609375,9.110829297298192,-0.11874503736793994,0.17665902780666945
1746483202240758800,2.7447587890625,8.735589040473103,-1.2509274050727486,-1.502105813421309
1746483202250755600,2.754755615234375,7.130047110235691,-2.577453364226222,-4.355460523842275
1746483202260751400,2.76475146484375,3.589983224329352,-3.9450574759602546,-8.606842833572626
1746483202270748700,2.774748779296875,-0.7843249155849218,-4.45514576369226,-11.903185056877135
1746483202280745500,2.784745361328125,-5.746069955849647,-3.255427444592118,-12.018311319226026
1746483202290741800,2.79474169921875,-10.031883819752931,-0.8984729074861854,-8.250501923006773
1746483202300738600,2.804738525390625,-11.3444195397377,1.5909186538621782,-2.3551254950478673
1746483202310735400,2.8147353515625,-9.835900644403695,3.3468490062266585,2.688057180714607
1746483202320731600,2.824731689453125,-7.239418754580616,3.820629424519837,5.361815202441811
1746483202330728400,2.834728515625,-4.182130202066898,3.1719226474314928,5.732203343060612
1746483202340725800,2.844725830078125,-1.4858943910717963,1.9417469384863972,4.70229506265521
1746483202350721500,2.854721435546875,0.4967810623914003,0.7649787023410201,3.4803245797365903
1746483202360718600,2.864718505859375,1.8134388307422398,-0.007219502924755215,2.4680454795241356
1746483202370715600,2.874715576171875,2.4568553924679755,-0.5260507037565112,1.4590091606251894
1746483202380711700,2.884711669921875,2.620692786493897,-0.8883013498228043,0.4379221192527562
1746483202390708700,2.894708740234375,2.4471277791798114,-1.1119106371138243,-0.561793925049901
1746483202400705500,2.90470556640625,1.9342098209798335,-1.1175791112042963,-1.3601913512594996
1746483202410702600,2.91470263671875,1.2180378196448087,-0.7880773269210011,-1.6436363908320664
1746483202420698600,2.92469873046875,0.4633195222944021,-0.2328341386888176,-1.3054337790250778
1746483202430695400,2.9346953125,-0.1358002170652151,0.1419454418219626,-0.7913221540611237
1746483202440692700,2.944692626953125,-0.5261942038804293,0.28372400264441966,-0.4509978008598089
1746483202450688500,2.9546884765625,-0.7030676050901412,0.29157449694909154,-0.13811470455266533
1746483202460685600,2.964685546875,-0.6495002655535936,0.2358577242936939,0.1912910720102489
1746483202470682600,2.9746826171875,-0.4093628911793232,0.10546696505658328,0.3970441654194146
1746483202480678700,2.9846787109375,-0.10569149452745914,-0.0383659710124135,0.37098661796860394
1746483202490675700,2.99467578125,0.13612521123588084,-0.07601071507818996,0.3022097266014665
1746483202500672500,3.004672607421875,0.2499456516832113,-0.0335316827237606,0.2100519596468657
1746483202510668500,3.01466845703125,0.18015139996707438,0.004860226447507739,0.025805253190174696
1746483202520665600,3.02466552734375,-0.001810264292359352,-0.005175722137466073,-0.1386362442087382
1746483202530662700,3.03466259765625,-0.10566226843297481,-0.03914901114888489,-0.23133001773618161
1746483202540658400,3.044658447265625,-0.10461071355342864,-0.05329078761748969,-0.19983882786408066
1746483202550655500,3.054655517578125,-0.029043723654747007,-0.03324884719438851,-0.04216901655718684
1746483202560652500,3.064652587890625,0.05140285497903824,0.005011763747408986,0.11079575886391102
1746483202570648600,3.074648681640625,0.03933481604456901,0.020385127837583422,0.15399068440273403
1746483202580645600,3.084645751953125,0.011745382851362228,0.0025384324364364145,0.09530790154859423
1746483202590642400,3.094642333984375,-0.03382569723427296,-0.023440204559266566,-0.00587502951323986
1746483202600638700,3.104638671875,-0.05311024341881275,-0.0186149032946676,-0.07279387192353606
1746483202610635500,3.114635498046875,-0.023205519020557404,-0.02163293594159186,-0.07606872887574136
1746483202620632600,3.124632568359375,0.010115151301026344,-0.018734364955872298,-0.03902684607394039
1746483202630628600,3.134628662109375,0.01023205567896366,-0.022771876843646167,0.027331878235563635
1746483202640625400,3.14462548828125,-0.009063011899590492,-0.015439341998472808,0.04912658061012625
1746483202650622700,3.154622802734375,-0.02473755089342594,0.0013100596852600574,0.04955518128573894
1746483202660618500,3.164618408203125,-0.013028992921113968,0.009978665439784526,-0.0036003625795245167
1746483202670615600,3.174615478515625,-0.008843816190958023,-0.002955781065672636,-0.038299335516989226
1746483202680611800,3.18461181640625,-0.003471475502848625,-0.016827362290769813,-0.0324258403737098
1746483202690609000,3.19460888671875,-0.0004874912559986114,-0.02026866185106337,-0.003322933877632022
1746483202700605000,3.20460498046875,-0.005566401955485344,-0.020594459739327428,0.02595978616476059
1746483202710601700,3.214601806640625,-0.017377835780382156,-0.00742503543421626,0.027423575107008217
1746483202720599000,3.22459912109375,-0.021999650362133978,0.0009149959530681372,0.0022960019826889035
1746483202730594800,3.2345947265625,-0.01720773991048336,-0.0041473289377987384,-0.018289324602112172
1746483202740592000,3.244592041015625,-0.014968436551094054,-0.014186346262693404,-0.015222630507871508
1746483202750589000,3.2545888671875,-0.027396540969610212,-0.014758593192696571,-0.01215126023851335
1746483202760584700,3.264584716796875,-0.0016588731229305266,-0.0224730400275439,0.007229366731643676
1746483202770582000,3.27458203125,-0.008991700229048728,-0.022504458079114557,0.007793649550899863
1746483202780578800,3.284578857421875,-0.030808395239710806,-0.03002031360194087,-0.017719415759667755
1746483202790574800,3.294574951171875,-0.015050854137539862,-0.023067206528410315,-0.02920643993578851
1746483202800572000,3.304572021484375,-0.003974164327979088,0.03758293087594211,0.008901172401383519
1746483202810568700,3.314568603515625,0.0093283848375082,0.03825250070057809,-0.001113733395561576
1746483202820565000,3.32456494140625,0.010194061756134033,-0.026492066410556434,0.011552271432057023
1746483202830561800,3.334561767578125,-0.004467500802874565,-0.051595308811217544,-0.02055880390405655
1746483202840559000,3.34455908203125,-0.01898410193324089,-0.014831000841781496,0.027268896001949906
1746483202850555000,3.354554931640625,-0.0063958385169506065,0.0009396920029073954,0.002991948357596993
1746483202860552000,3.364552001953125,-0.007449731484055519,-0.002975947070866823,-0.014906477230787276
1746483202870549000,3.374549072265625,-0.009102759388089179,-0.00600552402511239,-0.021906930577382445
1746483202880545000,3.384544921875,-0.021806758138537406,0.006503244414180517,0.015333251275494694
1746483202890541800,3.394541748046875,-0.02478548168838024,-0.019099325810745357,-0.00008234452120959759
1746483202900539000,3.404538818359375,-0.010728899285197257,-0.03211575151123106,-0.0036257892817258834
1746483202910535000,3.414534912109375,-0.008182137411832808,-0.01149425763450563,-0.0163384827952832
1746483202920532000,3.424531982421875,-0.008327683362364769,-0.00008365969546139239,-0.0024896979238837958
1746483202930528800,3.43452880859375,-0.003839139771461487,-0.009469254612922667,-0.015780045194923875
1746483202940526000,3.444526123046875,-0.007873509854078293,-0.008854849041625857,-0.010442191298305988
1746483202950521900,3.45452197265625,-0.026129882034659383,-0.0032763182569295166,0.02221095502525568
1746483202960519000,3.464518798828125,-0.01205634849667549,-0.010655760983750224,-0.0075236735031008715
1746483202970516000,3.474515869140625,-0.006232172387838363,-0.016530279040336607,-0.005163447177782655
1746483202980512000,3.484511962890625,-0.015827099207043647,-0.02468684361949563,-0.0009996785618364811
1746483202990508800,3.4945087890625,-0.018505963027477264,-0.010833747899159788,0.009741349552571773
1746483203000505900,3.504505859375,0.001852349868416786,-0.00007240764908492565,0.005928001809492707
1746483203010502000,3.514501953125,-0.01161678803563118,-0.00970825100056827,-0.0002994944032281637
1746483203020499000,3.5244990234375,-0.004127893584966659,-0.013080503912642597,-0.004649287110567093
1746483203030496000,3.53449609375,-0.015062544575333594,-0.027551950727030632,-0.009228796920552848
1746483203040491800,3.54449169921875,-0.021645430096983907,-0.018235475523024798,-0.011879311429336667
1746483203050488800,3.55448876953125,-0.010566986721754074,-0.009989332964271307,-0.0031244886960834265
1746483203060486000,3.56448583984375,-0.022840777361392974,-0.013118132509291171,-0.00046213761903345584
1746483203070482000,3.57448193359375,-0.014765607455372809,-0.011887421670556068,0.010927636727690697
1746483203080479000,3.58447900390625,-0.04043956241607666,-0.016335633251070975,0.008420403147116303
1746483203090475800,3.594475830078125,-0.04130816194415092,-0.016270166799426077,-0.07165091243349016
1746483203100472000,3.60447216796875,-0.028614100065827368,-0.05249072328098118,-0.20597068168260155
1746483203110468900,3.61446875,0.006579962912201881,-0.14418233402855693,-0.31021321951076386
1746483203120466000,3.6244658203125,0.021460136657953263,-0.07579086178243159,-0.12817490981854499
1746483203130462000,3.6344619140625,0.08726210386753082,0.18720453334897755,0.2995187339518219
1746483203140458800,3.644458740234375,-0.013557985231280326,0.24248773689270017,0.5884347522813826
1746483203150456000,3.6544560546875,-0.04354746530354023,0.07423398772925138,0.42741073517575856
1746483203160451800,3.664451904296875,-0.025799042645096776,-0.06490457997843622,0.0808034292474389
1746483203170449000,3.674448974609375,-0.025631284862756728,-0.099424396956712,-0.2890600299101323
1746483203180446000,3.684446044921875,-0.027049334967136383,-0.11266929765082895,-0.4873575466163456
1746483203190441700,3.694441650390625,-0.02849894925355911,-0.14674991949424146,-0.34218042939677834
1746483203200439000,3.70443896484375,0.040890228793025014,-0.09058942165933549,-0.014386691140383481
1746483203210435800,3.714435791015625,0.05700082111656665,0.0766482092641294,0.21073343910500406
1746483203220433000,3.724432861328125,-0.04071837935745716,0.10745317043773829,0.2564736652124673
1746483203230429000,3.734428955078125,-0.10014321275055407,0.02889320926815271,0.11660882905684411
1746483203240425700,3.74442578125,-0.032765959048271176,-0.042410351032391186,-0.03969970383420587
1746483203250423000,3.754423095703125,0.03668284023106098,-0.04527976898886263,-0.10457067380398512
1746483203260418800,3.764418701171875,0.005837035590410232,-0.020234759581461547,-0.07376271695569157
1746483203270416100,3.774416015625,-0.029523616126179694,-0.010268734427541493,-0.018136545193195342
1746483203280413000,3.784412841796875,-0.013097966504096984,-0.045669864284992215,-0.00007401508428156376
1746483203290409000,3.794408935546875,-0.00023790040910243987,-0.031415713483095166,0.030851649859547612
1746483203300406000,3.804406005859375,-0.010385200414061546,0.00007452654093503952,0.04607238067127764
1746483203310402800,3.81440283203125,-0.01843815848827362,0.0288985430303961,0.022380320242792368
1746483203320398800,3.82439892578125,-0.033407764083147044,0.027041809247806668,-0.015349033366516232
1746483203330396000,3.83439599609375,-0.02281213578879833,-0.022040859155356883,-0.04906937053017318
1746483203340392700,3.844392822265625,-0.005316811108589172,-0.03939743295200169,-0.010284954909980297
1746483203350389000,3.854388916015625,-0.004713584518432617,-0.018133257257565854,0.02018522135131061
1746483203360385800,3.8643857421875,-0.019365210205316542,-0.006974149861559272,0.02162957494072616
1746483203370382800,3.8743828125,-0.018016133683919907,0.0003359539560973644,0.015052826898917555
1746483203380379000,3.88437890625,-0.01113046582341194,-0.00110788817666471,0.004350669490173459
1746483203390376000,3.8943759765625,-0.010533668974041939,-0.006970277404040098,-0.010509119054675102
1746483203400373000,3.904373046875,-0.020553543207049368,-0.023570772136375307,-0.009363090824708343
1746483203410369000,3.914369140625,-0.023846155011653897,-0.021749036601930855,0.003669190032035112
1746483203420365800,3.92436572265625,-0.0123217214345932,-0.0034716216333210465,0.016135872895270586
1746483203430363000,3.93436279296875,-0.011281856992840766,-0.01336297411583364,0.007355623459815978
1746483203440359000,3.94435888671875,-0.00843172825872898,-0.004109188884496688,-0.0003663490943610668
1746483203450356000,3.95435595703125,-0.016505144599080084,0.012264584419876337,-0.006341697176918387
1746483203460353000,3.96435302734375,-0.020989012014865874,-0.0032579788826406,-0.005924494678154588
1746483203470349800,3.974349853515625,-0.022034721675515175,-0.016199804976955057,-0.013899638275802135
1746483203480345900,3.984345947265625,-0.008721651116013526,-0.030022140232846137,-0.005041574363783001
1746483203490343000,3.994343017578125,-0.0103740944981575,-0.013878522422537207,-0.0032098288919776676
1746483203500340000,4.004340087890625,-0.008886486288905144,-0.013976356773823499,-0.0013187544483691453
1746483203510336000,4.0143359375,-0.025060206976532936,-0.0008646540053188801,-0.0006431202091276646
1746483203520332800,4.024332763671875,-0.013692425265908241,0.006112126204743981,-0.004357318426668644
1746483203530329900,4.034329833984375,-0.012491232782602309,-0.021919424732774494,-0.007199775310978293
1746483203540326000,4.044325927734375,-0.0024602526336908338,-0.016842632925137876,0.002133577962592244
1746483203550323000,4.054322998046875,-0.005910685348510742,-0.008160437036678195,0.0030538346126675604
1746483203560320000,4.064320068359375,-0.024182255098223686,-0.0019967267751693726,-0.0005653787977993488
1746483203570315800,4.074315673828125,-0.012817395997047424,-0.007294321726635098,-0.004172024987637996
1746483203580313000,4.08431298828125,-0.02390577624440193,-0.006727993080765008,-0.004244797962903976
1746483203590310000,4.094309814453125,-0.011481763479113578,-0.01396846572831273,0.003680734339356422
1746483203600306000,4.104305908203125,-0.012380758145451545,-0.0034712563071399925,0.006230491887405514
1746483203610303000,4.114302978515625,-0.020472294664382933,-0.01538885392025113,-0.010039236520603298
1746483203620299800,4.1242998046875,-0.01748655685186386,-0.016086042404174803,-0.010675196336582302
1746483203630296000,4.134296142578125,-0.025725392886996268,-0.003540814412012696,-0.006305383754521608
1746483203640292900,4.14429296875,-0.02871463783085346,-0.01818359920531511,-0.0030859833166003224
1746483203650290000,4.1542900390625,-0.031682839986681935,-0.035141163747012615,-0.01536313495710492
1746483203660286000,4.164285888671875,-0.07665712322294711,-0.06457783224210142,-0.04889993224740028
1746483203670282800,4.17428271484375,-0.03528700195848942,-0.05182027667351067,-0.03945383931435644
1746483203680279800,4.18427978515625,0.04548632441163063,0.025193551032617688,0.0015944295845925808
1746483203690275600,4.194275634765625,0.09924187999665736,0.1363707104295492,0.09716536598354578
1746483203700273000,4.20427294921875,-0.009833996272087097,0.013638210860639809,0.04134871315024793
1746483203710269700,4.214269775390625,-0.04678513205051422,-0.13925751791223884,-0.031989860109239814
1746483203720266800,4.224266845703125,-0.02734218043386936,-0.046735813016071916,-0.03152085435800254
1746483203730262800,4.2342626953125,-0.03733341309428215,0.05271349918618798,-0.007833981561288237
1746483203740259800,4.244259765625,-0.03612169921696186,0.040323242560029025,0.034663974689319726
1746483203750257000,4.2542568359375,0.013227145841717719,-0.004765460836142301,-0.026944047961756586
1746483203760252700,4.264252685546875,0.023684242448210716,-0.006324965237826109,-0.004755816224962473
1746483203770249700,4.274249755859375,-0.048262803387641905,-0.026563889537751673,0.023051643633097408
1746483203780246800,4.284246826171875,-0.033731589210033414,-0.027380539682880043,0.017354527970030904
1746483203790242600,4.29424267578125,-0.006029343292117118,-0.02310958436541259,-0.005507949766516685
1746483203800239900,4.304239990234375,-0.0006277765095233917,0.01896291301473975,-0.018180603530630467
1746483203810236700,4.314236572265625,-0.0230967979490757,0.01937105542421341,-0.0225776694457978
1746483203820233000,4.32423291015625,-0.013534019833803175,-0.021462255549803376,-0.013595394632220268
1746483203830229800,4.334229736328125,0.005323825371265411,-0.028983298704400657,0.008261632388830185
1746483203840226800,4.344226806640625,-0.0006523264288902282,0.00025974691472947597,0.033132381207868454
1746483203850222800,4.354222900390625,-0.010224456894397735,0.004711100300401449,0.007841215019673109
1746483203860219600,4.3642197265625,-0.004990647894144058,-0.017282924038544298,-0.026014658157154917
1746483203870217000,4.374217041015625,-0.010101707297563552,-0.027001550302654505,-0.02911686195619404
1746483203880212700,4.384212646484375,-0.00007832593321800231,0.0003925795141607523,-0.006092763917148113
1746483203890209800,4.394209716796875,-0.0017144027024507521,0.0034076164864003658,0.007062631862610578
1746483203900206800,4.404206787109375,-0.020419687694311142,-0.004440101339295506,-0.0070898121304810045
1746483203910202600,4.41420263671875,-0.0186176067084074,-0.01912095312066376,0.004790449146926403
1746483203920200000,4.424199951171875,-0.006049801558256149,-0.004916705875098705,0.0010214520022273064
1746483203930196700,4.43419677734375,-0.004409048613905907,0.0012084259416908025,-0.00039594051502645015
1746483203940192800,4.44419287109375,-0.013843816435337065,-0.020516206871345637,-0.008762494583055376
1746483203950189800,4.45418994140625,-0.019828736063838004,-0.007430953718349337,-0.0019632628969848153
1746483203960186600,4.4641865234375,-0.0026017069309949873,-0.005114639599993824,0.009858473126217722
1746483203970184000,4.474183837890625,-0.004691372686624526,-0.0078037325534969565,0.0001926730278879404
1746483203980179700,4.4841796875,-0.015613748717308043,0.004463263019174337,-0.006376987686008214
1746483203990176800,4.4941767578125,-0.008144728010892867,-0.003908917072042823,-0.014595511585474013
1746483204000173800,4.504173828125,-0.005465279668569564,-0.006463935317099094,-0.0022231559421867133
1746483204010169900,4.514169921875,-0.012194880184531211,-0.012361249727383256,-0.0008857698585838079
1746483204020167000,4.5241669921875,-0.018031331253051758,-0.008120689548179507,0.006482932278513908
1746483204030163700,4.534163818359375,-0.00845744722187519,-0.011532105426862836,0.0010873568452894687
1746483204040159700,4.54415966796875,-0.005016951379179954,-0.010136486349999904,-0.0019988456670194865
1746483204050156800,4.55415673828125,-0.003827449333667755,-0.004396262197569012,-0.012966887470334768
1746483204060153600,4.564153564453125,-0.009509586623311042,-0.00830393716059625,0.0011336802050471305
1746483204070149600,4.574149658203125,-0.012941899159550666,-0.019194237552583218,-0.005317176434770226
1746483204080146700,4.584146728515625,-0.005914192479848862,-0.01775192978978157,-0.004851166358217597
1746483204090143700,4.594143798828125,-0.006970423534512519,-0.013496025910973548,-0.0011566957544535397
1746483204100139800,4.604139892578125,-0.020292261922359466,-0.018425664332881567,-0.0026909195844084023
1746483204110136800,4.61413671875,0.005891980648040771,-0.00570281475149095,-0.006457505576312542
1746483204120134000,4.6241337890625,-0.004576806396245956,-0.005531988229230046,-0.0033791941095143553
1746483204130130000,4.6341298828125,-0.01953998225033283,-0.007878259094431996,-0.004229965719953179
1746483204140126700,4.644126708984375,-0.01116144548356533,-0.005269537900760769,-0.0028418723624199626
1746483204150123800,4.654123779296875,-0.012056933018565178,-0.011207038190960883,-0.0030691052470356224
1746483204160119800,4.664119873046875,-0.010268296036124228,-0.005958689208701253,0.0003000789251178503
1746483204170116600,4.67411669921875,-0.01312251642346382,-0.008715294440463185,-0.0033444881223142144
1746483204180114000,4.684114013671875,-0.006399345648288726,-0.014670403452590106,-0.01873136928118765
1746483204190109700,4.694109619140625,-0.008636310920119286,-0.017324278962239623,-0.015167320124059915
1746483204200106800,4.704106689453125,0.0003454524368047714,0.00335121012404561,0.0015090163234621286
1746483204210103800,4.714103759765625,-0.007442717221379279,-0.007813596360385417,-0.00810235017389059
1746483204220100900,4.724100830078125,-0.00879471635222435,-0.009595072949677706,-0.003812909351661801
1746483204230097000,4.734096923828125,-0.012835516175627708,-0.003135010090097785,0.004260653119161724
1746483204240093700,4.74409375,-0.014635843595862388,0.00024864099882543084,-0.0045478725627064705
1746483204250090800,4.7540908203125,-0.019874913293123245,-0.02428220834136009,-0.016978534264490006
1746483204260086800,4.764086669921875,-0.02464870356619358,-0.00846446148455143,-0.0024764731161296366
1746483204270083600,4.77408349609375,-0.019262334352731704,-0.0030990619938820597,0.015425751864537596
1746483204280081000,4.784080810546875,-0.02733516617119312,-0.014208265833556652,-0.0027750907365232703
1746483204290076700,4.79407666015625,-0.005486906978487968,-0.011786956970766186,-0.014702844417467713
1746483204300074000,4.804073974609375,0.002285480588674545,-0.0047867228198796505,-0.010369491388276218
1746483204310070800,4.81407080078125,-0.008797054439783096,-0.012178586636856198,0.004264014120027423
1746483204320066800,4.82406689453125,-0.030639468413591383,-0.001073620580881834,-0.00014313479773700235
1746483204330064000,4.83406396484375,-0.02810205889046192,-0.01107267122156918,-0.005304097757488488
1746483204340060700,4.844060791015625,-0.0017734394133090972,-0.008551628311350942,-0.004365793994069099
1746483204350057000,4.854056884765625,-0.005074819046258926,-0.011795943994820117,0.0021712796244770286
1746483204360053800,4.8640537109375,-0.020638298881053924,-0.004284910777583718,-0.0017092150706797837
1746483204370050600,4.874050537109375,-0.01105856963098049,-0.0008146043185144662,0.015560703355818986
1746483204380046800,4.884046875,-0.00836859989464283,-0.004163184094056487,-0.001913505471125245
1746483204390043600,4.894043701171875,-0.005387538257241249,0.0008379121288657188,0.007588482367619872
1746483204400041000,4.904041015625,-0.01227905133664608,-0.0012318798825144766,-0.008500555711239576
1746483204410036700,4.91403662109375,-0.007492986103892326,-0.0014629121594130993,-0.0038281069207936522
1746483204420033800,4.92403369140625,-0.004510755422711372,-0.012038374448567628,-0.01572992244288325
1746483204430030800,4.93403076171875,-0.011088380247354507,0.0055802843503654,-0.01000562651194632
1746483204440027600,4.944027587890625,-0.022010171756148337,-0.008269085042923688,0.00518704724907875
1746483204450024000,4.95402392578125,-0.010498013138771056,-0.008681319105625153,0.0021081512603908776
1746483204460020700,4.964020751953125,-0.006312836408615112,-0.016024448410049078,-0.009628609893098473
1746483204470017800,4.974017822265625,-0.009008651363849639,-0.009434475560486317,0.002025368347764015
1746483204480013800,4.984013916015625,-0.011701543709635734,-0.008394611118733882,-0.006357260072231292
1746483204490010600,4.9940107421875,-0.013951952984929085,0.0022171645928174256,-0.005390972323343158
1746483204500008000,5.004008056640625,-0.030562311524152754,0.005046908126026392,-0.004060819698125124
1746483204510003700,5.014003662109375,-0.02053250041902065,-0.0027308862686157226,-0.00684884298145771
1746483204520000800,5.024000732421875,-0.013657353952527046,0.004087488509342074,-0.0011865794360637664
1746483204529997800,5.033997802734375,-0.011862287229299544,-0.005308920063078404,-0.0011703589536249637
1746483204539993900,5.043993896484375,-0.017854805642366408,0.0014605740718543528,-0.000792830878123641
1746483204549991000,5.053990966796875,-0.017719196563959122,0.0014306903902441262,0.002438771454244852
1746483204559987700,5.06398779296875,-0.012484803041815757,0.00289754807241261,-0.0012118600077927113
1746483204569983700,5.073983642578125,-0.01816986294090748,-0.011598887052759528,-0.0017857143729925154
1746483204579980800,5.083980712890625,-0.008593056300282478,0.000050634208694100375,-0.008388619769364595
1746483204589977900,5.093977783203125,-0.016073182922601698,-0.003497778987884521,0.004991451611742377
1746483204599973600,5.1039736328125,-0.006339139893651008,-0.013229191668331622,-0.0074973700180649755
1746483204609970700,5.113970703125,-0.019948563051223753,-0.007663008908554911,-0.01499013692624867
1746483204619967700,5.1239677734375,-0.0031938276052474973,0.0004522738121449947,-0.004690349773317575
1746483204629963800,5.1339638671875,-0.004693710774183273,-0.012536314033344388,-0.005606149443984031
1746483204639960800,5.1439609375,-0.013975918382406234,-0.0018595102615654468,0.0060549891900271175
1746483204649958000,5.1539580078125,-0.01219838731586933,-0.0004767506662756204,0.004807254151254892
1746483204659954000,5.163953857421875,-0.021810849791765213,-0.0021957564786076545,-0.010379209064692259
1746483204669950700,5.17395068359375,-0.02553893040418625,-0.010072408137843013,-0.014878200984373688
1746483204679947800,5.18394775390625,0.005934650745987892,-0.001057473163679242,-0.027817762056365606
1746483204689945000,5.193945068359375,-0.016985621592402456,-0.010048661936074494,-0.02161182008832693
1746483204699940900,5.20394091796875,-0.032576573956012725,0.0015198299784213304,-0.007576353538408875
1746483204709938200,5.213938232421875,0.02723053675293922,0.03175057146064937,-0.025557123648002743
1746483204719935000,5.22393505859375,0.05036065244972705,0.04475947144180536,-0.030790421191602944
1746483204729930800,5.2339306640625,0.02856090857386589,0.017722119173407554,0.011497618635371326
1746483204739928000,5.243927978515625,-0.010862170276045798,0.0042753392316401,0.024139877261221406
1746483204749924900,5.2539248046875,-0.04246785337328911,-0.011625263603031635,0.019391294494643805
1746483204759921000,5.2639208984375,-0.0472784685254097,-0.005902063650637865,0.005625877057760954
1746483204769918000,5.27391796875,-0.03644201721251011,-0.025639833495393394,-0.0024422785855829714
1746483204779914800,5.283914794921875,-0.039350013613700864,-0.021592530865967272,-0.008157587492465972
1746483204789911000,5.2939111328125,-0.010409750333428383,-0.003036591216921806,-0.010716989651694894
1746483204799907800,5.303907958984375,0.0014513678520917891,0.005506342331320047,-0.00678045392036438
1746483204809905200,5.3139052734375,-0.014697802916169166,0.002338014493510127,-0.0003561199612915516
1746483204819901000,5.32390087890625,-0.004665653723478317,-0.004403276460245251,-0.012969883145019411
1746483204829898000,5.33389794921875,-0.01869943977296352,0.011010858031734823,-0.0037228199154138563
1746483204839895000,5.34389501953125,-0.020741759255528448,-0.003998056660220027,-0.006233560627326369
1746483204849891000,5.35389111328125,-0.016489362508058547,-0.0047436143305152655,0.003378536522388458
1746483204859887900,5.363887939453125,-0.024368717581033705,-0.0024644904173910616,0.0007687924154102802
1746483204869885000,5.373885009765625,-0.019079379001259802,-0.01658887735977769,0.0007370090376585722
1746483204879881000,5.383880859375,-0.007335165193676948,-0.009732362528517842,0.026249928217753765
1746483204889878000,5.3938779296875,0.0023491934746503827,-0.0022823387835174797,0.019696341855823994
1746483204899874800,5.403874755859375,-0.010701426756381988,-0.013169789631292223,-0.0004349573511630296
1746483204909870800,5.413870849609375,-0.025370003578066826,-0.0022231559421867133,-0.013940408677607773
1746483204919868000,5.423867919921875,-0.032545594295859334,-0.011659019742161035,-0.01968034056909382
1746483204929865000,5.433864990234375,-0.013806991556286811,-0.0008397387597709893,-0.00648402825705707
1746483204939862000,5.443862060546875,-0.012714520144462584,-0.020296718901768325,0.005739128173887729
1746483204949858000,5.453858154296875,-0.013713468053936957,-0.021552929507941007,0.010457023541256785
1746483204959854800,5.463854736328125,0.005811316627264022,-0.009156243140995501,0.017277809472009537
1746483204969852000,5.473851806640625,0.0017284312278032302,0.00805346953086555,-0.0004722206216305494
1746483204979848000,5.483847900390625,-0.021506898409128186,-0.0011017506968230009,0.00703793581277132
1746483204989845000,5.493844970703125,-0.021510405540466307,0.005385054039210081,-0.000471563034504652
1746483204999842000,5.503842041015625,-0.008631634745001792,0.012781813227012754,-0.004966317170485854
1746483205009837800,5.513837890625,-0.028104981499910354,0.012138108495995401,-0.007077098779380321
1746483205019835000,5.5238349609375,-0.02055003607571125,-0.012738923933357,-0.018664514590054748
1746483205029832000,5.53383203125,0.003897591960430145,-0.014640008314326405,-0.019415698283538223
1746483205039828000,5.543827880859375,0.0003559738308191299,-0.0161973938241601,-0.010751987899839877
1746483205049825000,5.553824951171875,-0.02276946569085121,-0.018394465477019548,-0.010435980753228068
1746483205059821800,5.56382177734375,-0.03137655051648617,-0.0072902300734072915,0.00367342781573534
1746483205069818000,5.573818115234375,-0.025734160715341566,-0.011360109860822558,0.00195478732958436
1746483205079815000,5.58381494140625,-0.021439093869924545,0.006295519947633147,0.004894859369471669
1746483205089812000,5.59381201171875,-0.012342179700732231,0.0014995909079909323,0.003488865029066801
1746483205099808000,5.60380810546875,-0.012798106774687767,-0.004071341092139482,-0.003525032320991158
1746483205109804800,5.6138046875,-0.01505143865942955,-0.005524170248955488,-0.013903364602848887
1746483205119802000,5.623802001953125,-0.017143442502617835,0.00551372192017734,-0.015977832789346575
1746483205129798000,5.6337978515625,-0.012925532546639442,-0.006329129956290125,0.00828698602579534
1746483205139795000,5.643794921875,-0.011992051088809966,0.007165069323778152,-0.0005289192449301481
1746483205149792000,5.6537919921875,-0.017778817796707154,0.010388123023509978,0.02078618291914463
1746483205159787800,5.663787841796875,-0.010700257712602615,-0.0005253390483558177,0.007859262133017181
1746483205169785000,5.67378515625,-0.003353402081131935,0.00579063916541636,0.0002812280941754579
1746483205179782000,5.683781982421875,-0.01250818391740322,-0.009440832236036657,-0.019907135062292216
1746483205189778000,5.69377783203125,-0.012288988208770751,-0.022517975147813556,-0.0340474502261728
1746483205199775000,5.70377490234375,-0.008348726150393485,-0.018574352088570594,-0.014939502717554568
1746483205209771800,5.713771728515625,-0.003985854765772819,-0.016959537303075194,-0.002793941567465663
1746483205219769000,5.72376904296875,-0.01278524729311466,-0.010580138464272021,0.009688158060610293
1746483205229764900,5.733764892578125,-0.019619477227330206,0.007017915938049554,0.019397505039721725
1746483205239762000,5.743761962890625,-0.0020405659168958664,0.010804448739439249,0.004468596781417727
1746483205249759000,5.753759033203125,-0.016178396862745283,0.013918050715327262,0.02499167178496718
1746483205259755000,5.763755126953125,-0.008318915534019469,0.013392711666971445,0.00013334405608475208
1746483205269752000,5.773751953125,-0.0019558102428913113,0.006356748615577817,0.003477174591273069
1746483205279748900,5.783748779296875,-0.012507599395513535,-0.016083265925198792,-0.006255480198189616
1746483205289745000,5.793744873046875,-0.008546879070997238,-0.015400690488517284,0.008314970011264085
1746483205299742000,5.803741943359375,-0.0038309564650058745,-0.00813435274735093,-0.0024570377632975576
1746483205309738800,5.81373876953125,-0.005995441022515297,-0.008697174261882901,-0.01129383969157934
1746483205319735000,5.823735107421875,-0.00861176100075245,-0.015162278622761368,-0.018422887853905556
1746483205329731800,5.83373193359375,-0.0025490999609231947,-0.0029055121831595898,-0.013394757493585348
1746483205339729000,5.84372900390625,-0.01218318974673748,-0.005840542721748352,-0.0018651362847536801
1746483205349725000,5.853724853515625,-0.020604981133341787,0.008510930974781512,0.003936827992275357
1746483205359722000,5.863721923828125,-0.026463059511780736,-0.008878595243394374,0.0030563188306987283
1746483205369719000,5.873718994140625,-0.03415186044871807,-0.0015869038652628659,0.013552651469036937
1746483205379715000,5.883715087890625,-0.015830606338381768,0.006569879909604787,-0.01162577505968511
1746483205389712000,5.8937119140625,0.009202712631225586,-0.009911226226761936,-0.0045117783360183236
1746483205399709000,5.903708984375,0.004111526972055435,-0.008775427129864692,-0.012793942056223749
1746483205409705000,5.913705078125,-0.02073299142718315,-0.013978329535201192,-0.002425911972671747
1746483205419702000,5.923701904296875,-0.008756137907505035,0.0003039513826370239,0.006883110577240586
1746483205429699000,5.933698974609375,0.003539280042052269,0.005236293218284845,0.0054378802049905054
1746483205439694800,5.94369482421875,-0.00073415949344635,0.01387969146631658,0.01025244087986648
1746483205449692000,5.95369189453125,-0.00647241088449955,0.010110109799727797,-0.005047565713152289
1746483205459689000,5.96368896484375,-0.02835866400003433,0.0023301965132355687,-0.014178236021474003
1746483205469684700,5.973684814453125,-0.02646598212122917,-0.012422478395327926,-0.02009374367557466
1746483205479682000,5.98368212890625,0.00014905308187007903,-0.00739215607792139,-0.01318191846050322
1746483205489678800,5.993678955078125,0.000571077886223793,0.005375263297557831,0.0052758215110749
1746483205499675100,6.003675048828125,-0.01590659418404102,0.005443652358651161,0.011432590575143694
1746483205509672000,6.013671875,-0.01906125882267952,-0.0038820290651172397,0.029948928866162895
1746483205519669000,6.0236689453125,-0.016682839253544808,-0.0063240884549915785,0.008765709453448652
1746483205529666000,6.033666015625,-0.009673837274312973,-0.01889810415022075,-0.0006387362949550152
1746483205539661800,6.043661865234375,-0.010881459498405455,-0.006902472864836454,-0.01165324758850038
1746483205549659100,6.0536591796875,-0.008470306703448295,-0.00776230456456542,0.005791077556833625
1746483205559656000,6.063656005859375,-0.020418518650531767,-0.00546666790805757,0.008191197501122951
1746483205569652000,6.07365185546875,-0.014728198054432868,0.013660861083865165,0.01300078973993659
1746483205579649000,6.08364892578125,-0.012485387563705444,0.008420330081880091,0.00936732860840857
1746483205589645800,6.093645751953125,-0.005936404311656951,-0.0028960137024521826,-0.01731448822058737
1746483205599642000,6.10364208984375,-0.008553893333673476,-0.0013169278174638747,-0.014623495570942759
1746483205609639000,6.113638916015625,-0.004430091401934623,-0.011460939886793494,-0.005008914203196764
1746483205619636000,6.123635986328125,-0.01720072564780712,-0.011528232969343662,-0.0007172814238816499
1746483205629632000,6.133632080078125,-0.019806524232029915,-0.0019258534960448742,0.0036976854741573332
1746483205639628800,6.14362890625,-0.01626782871186733,-0.005820303651317953,-0.002144245487079024
1746483205649626000,6.153626220703125,-0.020780337700247762,-0.005314619151502847,-0.0030934359706938264
1746483205659622000,6.163621826171875,-0.0070341364204883575,-0.010261866295337676,0.0035645606137812134
1746483205669619000,6.173618896484375,-0.006890344035625457,-0.013382409468665719,-0.0032118016533553596
1746483205679615700,6.18361572265625,-0.02858078231811523,0.003478928156942129,-0.00063384092412889
1746483205689611800,6.19361181640625,-0.010608487775921821,-0.0026127397816628215,0.014252835627645254
1746483205699608800,6.20360888671875,-0.009539397239685058,-0.006236848562955856,-0.0012373597752302883
1746483205709605600,6.213605712890625,-0.014161211821436882,0.002816153399273753,0.0030666210290044545
1746483205719601700,6.2236015625,-0.02238952646255493,-0.002066577140986919,0.002536678870767355
1746483205729598700,6.2335986328125,-0.0024906477719545362,-0.015224822464957832,-0.0064652504913508884
1746483205739595800,6.243595703125,0.003940846580266952,-0.02002542767971754,-0.00471029658280313
1746483205749591600,6.253591552734375,-0.0195499191224575,-0.014540785723552108,0.007239376669004559
1746483205759588600,6.263588623046875,0.0049719431936740876,-0.012982888757064938,0.0021560089901089667
1746483205769585700,6.273585693359375,-0.012879939839243888,-0.004368132081627845,0.0014342705868184565
1746483205779581700,6.283581787109375,-0.0012584756284952164,0.0019240268651396035,-0.012451923685520887
1746483205789578800,6.293578857421875,-0.0050385786890983575,0.016851473818719386,0.012651537910848856
1746483205799575800,6.303575927734375,-0.010626607954502106,0.0027647154729813334,-0.005029299404099584
1746483205809572600,6.313572509765625,-0.008130114963650703,-0.000003507131338119507,-0.0017654753025621176
1746483205819568600,6.323568603515625,-0.016436755537986753,0.002611643803119659,0.000251490543037653
1746483205829565700,6.333565673828125,-0.06748597477376461,0.07015292896069586,-0.04776281797625124
1746483205839562800,6.343562744140625,-0.0512345126748085,0.21900186656080184,-0.10767879588715731
1746483205849558500,6.35355859375,0.13099661617577074,0.15674970078729092,-0.1450961609378457
1746483205859555800,6.363555908203125,0.13794599692225457,0.07910422411412,-0.14557466516979037
1746483205869552600,6.373552734375,0.09658347444236277,-0.05871010925248265,-0.07586502299718559
1746483205879548700,6.383548583984375,0.054478609162569046,-0.15885887496098874,0.004155658374726772
1746483205889545700,6.393545654296875,-0.03553308567404747,-0.20575791571475563,0.03907331556417048
1746483205899542800,6.403542724609375,-0.1203109715104103,-0.17218188239261506,0.0761689013145864
1746483205909538800,6.413538818359375,-0.1272603522568941,-0.09957403456047177,0.08567578452415764
1746483205919535600,6.42353564453125,-0.1450070213496685,-0.016082462207600474,0.12174750711955129
1746483205929532700,6.43353271484375,-0.15227379748225212,-0.006178396373987197,0.19901048728115855
1746483205939528700,6.44352880859375,-0.12716507518887518,-0.012361834249272941,0.1929031833820045
1746483205949525500,6.453525390625,-0.09225801245868205,-0.05047390356585383,0.14421492112390696
