time,seconds_elapsed,z,y,x
1746483190909539800,0.423539794921875,-1.5537030219286678,0.8382295242518186,1.1319858222194015
1746483190919537000,0.433536865234375,-2.1333184348732233,0.973922773811221,1.227813655988872
1746483190929534000,0.443533935546875,-2.702043035969138,1.0577601639270782,1.5240705386005342
1746483190939530000,0.453530029296875,-2.8777088149547576,1.104728835850954,1.8748443165585398
1746483190949526800,0.46352685546875,-2.7093834618598223,1.070315694117546,2.1456647062271834
1746483190959523800,0.47352392578125,-2.15046363094151,0.9879404855087399,2.0222826567083594
1746483190969519900,0.483519775390625,-1.3850935911953448,0.7970286220744252,1.585532576909661
1746483190979517000,0.493516845703125,-0.8949421760767697,0.4436465613141656,0.968832318804413
1746483190989514000,0.503513916015625,-0.6338555371761322,0.09063421064913273,0.5001463010407984
1746483190999511000,0.513510986328125,-0.3615741350442171,-0.06895780089199542,0.3208347128987312
1746483191009506800,0.5235068359375,-0.10385141961872577,-0.12771101863384246,0.40551629875376816
1746483191019503900,0.53350390625,0.17410218293070792,-0.1270531392470002,0.5334524313803762
1746483191029501000,0.5435009765625,0.3697130178362131,-0.07863602208048105,0.555684940650314
1746483191039497000,0.5534970703125,0.5184148020505905,0.02299333757460117,0.5797844859011471
1746483191049493800,0.56349365234375,0.3717950848072767,0.09910130248218774,0.4799696648547426
1746483191059490800,0.57349072265625,-0.015398060140013693,0.11782412313073873,0.16715722263101487
1746483191069486800,0.58348681640625,-0.5791612394362687,0.06469692857712507,-0.24983864764478056
1746483191079484000,0.59348388671875,-1.1873586037427186,-0.07067834107428789,-0.5263217757828533
1746483191089481000,0.60348095703125,-1.7700410030424594,-0.22793255731761455,-0.4612748647242784
1746483191099478000,0.61347802734375,-2.2410037335664033,-0.34218758978992697,-0.19415736642787232
1746483191109474000,0.62347412109375,-2.430130467149615,-0.32219840246737,0.09215112715126014
1746483191119470800,0.633470947265625,-2.4307640888780355,-0.18504750144556165,0.23065155221903696
1746483191129468000,0.643468017578125,-2.260362514030933,-0.0857470231294632,0.1542301922470331
1746483191139464000,0.6534638671875,-2.019611391672492,-0.09081628921777009,0.015653772483731152
1746483191149460700,0.663460693359375,-1.7816075221955776,-0.17715528689101337,0.027246266328322236
1746483191159458000,0.6734580078125,-1.7533739458799362,-0.2336523962691426,0.1805045973189175
1746483191169453800,0.683453857421875,-1.920948772868514,-0.27689678697288034,0.3793953306779265
1746483191179451000,0.693450927734375,-2.0963497634381056,-0.28002383295223116,0.5119260245531797
1746483191189448000,0.703447998046875,-2.246425758615136,-0.3230342687696218,0.5071086873993277
1746483191199443700,0.713443603515625,-2.2967396493136882,-0.4454629630863666,0.4897060094386339
1746483191209441000,0.72344091796875,-2.319390457060933,-0.5554720285519957,0.45221068378090856
1746483191219437800,0.733437744140625,-2.400098901501298,-0.6068161390811204,0.4295693014491349
1746483191229435000,0.743434814453125,-2.5140344927608966,-0.635667701164633,0.4627763918610289
1746483191239431000,0.753430908203125,-2.56641642190516,-0.5497603729069233,0.43070199527349323
1746483191249427700,0.763427734375,-2.45376911689043,-0.4311690647959709,0.34500571595057844
1746483191259425000,0.773425048828125,-2.2593138817608356,-0.34980127966403957,0.21523805704787372
1746483191269420800,0.7834208984375,-1.9602812508255243,-0.38868002250418066,0.06148282536882907
1746483191279418000,0.793418212890625,-1.4797551576644181,-0.4895706926211714,-0.043481414330005644
1746483191289415000,0.803414794921875,-0.9491372921228408,-0.60361851208359,-0.15057082948926837
1746483191299411000,0.813410888671875,-0.5060229379892349,-0.7119345098957419,-0.22898458712119607
1746483191309408000,0.823407958984375,-0.19666472787261008,-0.8006051653869449,-0.14784913117410614
1746483191319404800,0.83340478515625,-0.10973755504786968,-0.7753361379653215,0.1580795611515641
1746483191329401900,0.84340185546875,-0.11643149972856044,-0.628514468409121,0.3652107379809022
1746483191339398000,0.85339794921875,-0.11953531096279621,-0.4018418480247259,0.40634295883625743
1746483191349394700,0.863394775390625,-0.04023030357956886,-0.1948664462789893,0.3810133603338152
1746483191359392000,0.87339208984375,0.03490998533964157,-0.07255684829726815,0.3322882001314312
1746483191369387800,0.8833876953125,0.08859072212278843,-0.001284632983058691,0.24954768360788002
1746483191379385000,0.893385009765625,0.11241408078074455,0.015115736067295073,0.17119508157866076
1746483191389382000,0.9033818359375,0.10062368974387645,-0.012194880184531211,0.07558821534980088
1746483191399378000,0.9133779296875,0.08588263220787049,-0.022550854504108427,-0.03814412668896839
1746483191409375000,0.923375,0.05437105713486671,-0.03941314197778702,-0.12025644657788798
1746483191419371800,0.933371826171875,0.06455518201887607,-0.03919467692151665,-0.1679272754217498
1746483191429368000,0.9433681640625,0.13663140719234942,-0.048802317091822624,-0.16441011587996035
1746483191439364900,0.95336474609375,0.21395196276009082,-0.05018763397037983,-0.12435052922479807
1746483191449362000,0.96336181640625,0.14844751719236374,-0.056118777585029596,-0.10619056662339717
1746483191459359000,0.97335888671875,0.03300093684792518,-0.018040245211869477,-0.1317732265714556
1746483191469354800,0.983354736328125,-0.10073708699047565,0.018644640845805405,-0.1677224187657237
1746483191479352000,0.99335205078125,-0.22812778762876987,0.02653787831366062,-0.19952738729473202
1746483191489348900,1.003348876953125,-0.3724924194216728,0.06985431134030222,-0.20378204906452446
1746483191499345000,1.013344970703125,-0.4923404495954513,0.1182883796416223,-0.2208295203793794
1746483191509342000,1.023342041015625,-0.47805941078662867,0.1462234114021063,-0.2682620469553396
1746483191519338800,1.0333388671875,-0.34756256082653997,0.13482348098754882,-0.2753499959222972
1746483191529334800,1.043334716796875,-0.19277707278430462,0.1349772102445364,-0.26750574869532134
1746483191539331800,1.053331787109375,-0.07118366024792194,0.13590060869976878,-0.2192121117779985
1746483191549329000,1.063328857421875,0.015865093129873276,0.10252718527764082,-0.1505531659684144
1746483191559326000,1.073325927734375,0.016072013878822327,0.06899301833584905,-0.09827179285548626
1746483191569322000,1.083322021484375,0.00709025052189827,0.05363032177016139,-0.05065784529801458
1746483191579319000,1.093319091796875,0.03593815934360027,0.06691402010470629,-0.03210616169897839
1746483191589315800,1.10331591796875,0.09511632449924945,0.07437704946175218,-0.06313852015398443
1746483191599312000,1.113311767578125,0.15742811150550842,0.05157821154594421,-0.08974714388260617
1746483191609309000,1.123308837890625,0.21315818203389644,0.024990941132605075,-0.10258998484816402
1746483191619305700,1.1333056640625,0.25407939048707484,0.01669379903897643,-0.0765679105695337
1746483191629301800,1.1433017578125,0.2214864499181509,0.002228635834902525,-0.038084706385619935
1746483191639298800,1.153298828125,0.12380758145451545,0.026389994275569914,-0.040544849421456454
1746483191649296000,1.1632958984375,-0.06836743378341198,0.07618205305710435,-0.0007112352755852043
1746483191659293000,1.17329296875,-0.20482991414964197,0.13186360826864837,0.04666572518823668
1746483191669289500,1.18328955078125,-0.3011988690584898,0.1622730673186481,0.046837574623804536
1746483191679286500,1.19328662109375,-0.26564240250885485,0.16936448688432573,0.028685009877569972
1746483191689283600,1.20328369140625,-0.15423194581270216,0.14013064748495815,-0.04023885221220553
1746483191699279600,1.213279541015625,-0.01876198361515999,0.08385945581719279,-0.07867434479687363
1746483191709276400,1.2232763671875,0.05954056872725486,0.0064174658268690106,-0.09151194333173335
1746483191719273500,1.2332734375,-0.003249357184767723,-0.04702230180725455,-0.033899694052245466
1746483191729269500,1.24326953125,-0.07368073776066303,-0.06063610887899994,0.05804934378881007
1746483191739266600,1.2532666015625,-0.11087971082031726,0.0145481653124094,0.07220408933684229
1746483191749263600,1.263263671875,-0.16837912910878658,0.0701579704619944,0.0703249793256633
1746483191759259400,1.27325927734375,-0.18177052560150622,0.10865852763950824,0.05468942063534632
1746483191769256700,1.283256591796875,-0.14275719659626482,0.1070940548017621,0.031137535862531512
1746483191779253500,1.29325341796875,-0.13270108200609684,0.09187193575054406,0.038363724256400014
1746483191789250600,1.30325048828125,-0.08980535860955714,0.05903422664031386,0.03335068186735734
1746483191799246600,1.31324658203125,-0.1022206035465002,0.06055778294578194,0.020523641259130088
1746483191809243400,1.323243408203125,-0.07493161460459231,0.04424976835399866,-0.02201208971859887
1746483191819240400,1.333240478515625,-0.01445055015683174,0.028683950431644914,-0.08021176523091271
1746483191829236500,1.343236572265625,0.10328034173250197,0.015179010561853647,-0.10585368108553811
1746483191839233500,1.353233642578125,0.25001930144131185,-0.021006839932501315,-0.13684192640418186
1746483191849230600,1.363230712890625,0.3264326790362596,-0.05539294752851128,-0.16712176772514356
1746483191859227400,1.373227294921875,0.24483693036735057,-0.03134673990011215,-0.14983425884302704
1746483191869223700,1.3832236328125,0.14112170434892177,0.05595525758638978,-0.19100569746391846
1746483191879220500,1.393220458984375,0.045618426358699796,0.1648214366272092,-0.2553618315130472
1746483191889217500,1.403217529296875,-0.04458323809206485,0.27345044591128825,-0.30630850368980317
1746483191899213600,1.413213623046875,-0.061443772000074386,0.3428430580239743,-0.3252935189384967
1746483191909210400,1.42321044921875,-0.005436638095974922,0.37149215633794663,-0.37521614529713987
1746483191919207700,1.433207763671875,0.08973580050468444,0.3388992157690227,-0.45219628992937505
1746483191929203500,1.443203369140625,0.18602116878330707,0.2569117643687874,-0.5749128612767904
1746483191939200500,1.453200439453125,0.21519465629756448,0.16762487667538226,-0.6725937025018036
1746483191949197600,1.463197509765625,0.14871113656461238,0.13310352532714603,-0.7219215778376906
1746483191959193300,1.473193359375,-0.010631868651509285,0.12728577895909546,-0.7823436055745929
1746483191969190700,1.483190673828125,-0.24240765739381312,0.19681823793388903,-0.858444483154267
1746483191979187500,1.4931875,-0.5441892947763204,0.32487390528693794,-0.9703623048506677
1746483191989184500,1.5031845703125,-0.8094254545718431,0.41914859133027493,-1.1053175955243408
1746483191999180500,1.5131806640625,-1.0187228695243598,0.4524876010261476,-1.2288669644340873
1746483192009177300,1.52317724609375,-1.2189075882166622,0.46977037893421947,-1.324768009570241
1746483192019174700,1.533174560546875,-1.3758330108970402,0.4584855993319302,-1.386246706753224
1746483192029170400,1.54317041015625,-1.4146826737731695,0.3993658863652497,-1.3645092144586146
1746483192039167700,1.553167724609375,-1.422024268707633,0.36568515055961903,-1.3022231464155019
1746483192049164500,1.56316455078125,-1.40757605663836,0.42430451278872783,-1.2947995722860097
1746483192059160600,1.57316064453125,-1.3654209224760532,0.5671248377490788,-1.3627590097904205
1746483192069157600,1.58315771484375,-1.4117530500620603,0.7368293702427298,-1.486752761466801
1746483192079154400,1.593154541015625,-1.4531810389935969,0.8758261913921683,-1.6416437557101249
1746483192089151700,1.60315185546875,-1.4957535217851399,0.9660781247254461,-1.8005322951570153
1746483192099147500,1.6131474609375,-1.505164324209094,0.987163144460693,-1.8812791719116269
1746483192109144600,1.62314453125,-1.5093144296258687,1.0948923553608356,-1.8509779955416916
1746483192119141600,1.6331416015625,-1.4459323830395936,1.1906363102391362,-1.8140822432123123
1746483192129137400,1.643137451171875,-1.3405857564270496,1.2752531602948902,-1.918344289458543
1746483192139134700,1.653134765625,-1.260717854464054,1.3852709935888647,-2.0377479368656872
1746483192149131500,1.663131591796875,-1.2193629307687281,1.5288193405628203,-2.2170092561252415
1746483192159127600,1.67312744140625,-1.2909580944269894,1.6825183485426007,-2.4216195361748336
1746483192169124600,1.68312451171875,-1.3851947134822606,1.8171167886026203,-2.5528736342430114
1746483192179121400,1.693121337890625,-1.439984288290143,1.8852306860163808,-2.60393980461359
1746483192189117400,1.703117431640625,-1.5012269847601651,1.9714831744499504,-2.6190193003237248
1746483192199114500,1.713114501953125,-1.451978092944622,2.050024211723357,-2.681350668813288
1746483192209111600,1.723111572265625,-1.2758546333193779,2.1932541403979062,-2.7151328191667794
1746483192219108600,1.733108642578125,-1.0342460173487662,2.399869622790068,-2.730459567636251
1746483192229104600,1.743104736328125,-0.8566279352515935,2.673998844745755,-2.7504458323493597
1746483192239101400,1.753101318359375,-0.8358008358001708,3.1320874806493517,-3.0080130649521943
1746483192249098500,1.763098388671875,-0.9528940143078565,3.425880457365513,-3.065168492108583
1746483192259094500,1.773094482421875,-1.148698325958848,3.6221710912287235,-3.142668203635514
1746483192269091600,1.783091552734375,-1.2431594014197587,3.745802731594443,-3.271347190518677
1746483192279088400,1.79308837890625,-1.143496665662527,3.877801218289137,-3.4017291819274424
1746483192289084400,1.80308447265625,-0.9250883080154657,4.035933386410773,-3.5174767910450693
1746483192299081500,1.81308154296875,-0.6787281136035919,4.212399960385262,-3.72950859939754
1746483192309078500,1.82307861328125,-0.4601210185140371,4.366798494936526,-3.964510364449024
1746483192319075600,1.83307568359375,-0.20211714805960654,4.465744606857002,-4.135185495540499
1746483192329071600,1.843071533203125,0.061706806850433345,4.548777402591705,-4.214547493807971
1746483192339068400,1.853068359375,0.22855682669579983,4.653659042041004,-4.189200578844547
1746483192349065500,1.8630654296875,0.2572299634724855,4.770837853005528,-4.0197757400751115
1746483192359061500,1.8730615234375,0.3457797690629959,4.827478900898993,-3.883851019847393
1746483192369058600,1.88305859375,0.5409931290835142,4.8468201457068325,-3.8010038098126646
1746483192379055600,1.8930556640625,0.8426420799970626,4.820170915973186,-3.7544314437299966
1746483192389051400,1.903051513671875,1.188379763484001,4.749118188628554,-3.628759237447381
1746483192399048400,1.91304833984375,1.5058125589847564,4.716470303002,-3.515362575370073
1746483192409045500,1.92304541015625,1.951771781155467,4.861041855543852,-3.475802133876085
1746483192419041500,1.93304150390625,2.8006173919677733,5.180646734386682,-3.563192248037457
1746483192429038600,1.94303857421875,4.167134292986988,5.579740160486102,-3.8625565951451657
1746483192439035400,1.953035400390625,6.006225451380014,5.755926748475432,-4.476249341997504
1746483192449032400,1.963032470703125,7.827397506722807,5.70401009875536,-5.126981195172667
1746483192459028500,1.973028564453125,9.354159330233932,4.3759412940740585,-3.50516676004827
1746483192469025500,1.983025634765625,9.800627086448669,2.8710867664664983,-2.251683240751922
1746483192479022600,1.993022705078125,9.464552718842029,2.277057774374634,-1.8221970144763588
1746483192489018400,2.003018310546875,9.46623088118732,2.249188647457212,-1.5561537760816513
1746483192499015700,2.013015625,9.496589194571971,2.213223161715269,-1.3206839551270007
1746483192509012500,2.023012451171875,9.51637818314731,2.182340824456513,-1.0820118309997022
1746483192519008500,2.033008544921875,9.532483514773846,2.136979149337858,-0.834064221265912
1746483192529005600,2.043005615234375,9.536506194418669,2.0901852494589983,-0.5786947909682989
1746483192539002400,2.05300244140625,9.512177224326134,2.051528332675993,-0.3120564362246543
1746483192548998700,2.06299853515625,9.4913904568851,2.0052537804961204,-0.07747063156291842
1746483192558995500,2.072995361328125,9.460887182071804,1.9567535150907933,0.18721275318805128
1746483192568992500,2.082992431640625,9.43032720863521,1.9026228425830602,0.43893458423092957
1746483192578988500,2.092988525390625,9.378629170101881,1.8627305387862025,0.7100305759705603
1746483192588985300,2.1029853515625,9.346087082937359,1.8021956983245908,0.9570011573657393
1746483192598982700,2.112982666015625,9.295049554139375,1.752577827066183,1.2225367384992538
1746483192608979500,2.1229794921875,9.238757758074998,1.6984341489464043,1.4939723374567926
1746483192618975700,2.132975830078125,9.167433812573552,1.6526123089700937,1.7470654933854937
1746483192628972500,2.14297265625,9.096128571772574,1.5931315076060593,2.0225838316120206
1746483192638969300,2.15296923828125,9.003592911416291,1.5434918629072605,2.2831764033854007
1746483192648965600,2.162965576171875,8.911974950426817,1.4803760660417378,2.542111124949157
1746483192658962400,2.17296240234375,8.817066715720296,1.4267895834133029,2.8034254351258276
1746483192668959700,2.182959716796875,8.700180457961558,1.3757543927028775,3.0630791186138984
1746483192678955500,2.19295556640625,8.584445123803615,1.3148784837186336,3.326211876389384
1746483192688952600,2.20295263671875,8.462283555990457,1.2665201110020279,3.580462531790137
1746483192698949600,2.21294970703125,8.33747118140757,1.2035890230536461,3.814090085878968
1746483192708945400,2.2229453125,8.20647339618802,1.1619257640615106,4.047149484691023
1746483192718942700,2.232942626953125,8.050126650178433,1.098912331591919,4.270318773129582
1746483192728939500,2.242939453125,7.907577543374895,1.0532559843756257,4.492220525850355
1746483192738935800,2.252935791015625,7.749444498470425,0.9972668975848704,4.696901094657182
1746483192748932600,2.2629326171875,7.617675728878378,0.9422749320726841,4.9104666884481905
1746483192758929400,2.272929443359375,7.470734524595737,0.899270560669899,5.081457461360096
1746483192768926700,2.2829267578125,7.304848965868353,0.8587894971996546,5.2691778352767225
1746483192778922500,2.292922607421875,7.106845682868361,0.813034950305894,5.430715135666728
1746483192788919800,2.302919921875,4.973181795558333,1.3554080625057219,5.6228562486350535
1746483192798916600,2.31291650390625,-36.0777221280694,13.309108670133352,6.08506693290472
1746483192808912600,2.32291259765625,-88.48606464748381,30.67485069261789,-7.2417667790114875
1746483192818909700,2.33290966796875,-92.21522078018188,38.131654891538616,0.055376873176544904
1746483192828906500,2.342906494140625,-77.02085482828616,34.21247069250345,33.2664851424098
1746483192838902800,2.35290283203125,-55.609130611324304,21.002918959665298,40.96291993522644
1746483192848899600,2.362899658203125,-39.58425725386142,8.667445478573441,28.57273228265047
1746483192858896400,2.372896484375,-25.470784504199028,3.0446476821273563,19.486922860318423
1746483192868892700,2.382892578125,-11.0733217944324,0.8481330786287784,12.79356620864868
1746483192878889500,2.392889404296875,-0.5724146877855062,-0.10877313046250492,7.340556823587417
1746483192888886800,2.40288671875,5.912701364508271,-0.7144899665322154,3.1836908266365525
1746483192898882600,2.412882568359375,9.252583454331756,-1.0612135192513465,0.5414719986416399
1746483192908879600,2.422879638671875,9.769722829619049,-1.031050509243086,-0.9419906352385878
1746483192918876700,2.432876708984375,9.818010767447948,-0.8040728414975106,-1.864381813124567
1746483192928872700,2.442872802734375,9.71600935961008,-0.3437459982130676,-2.382455254391581
1746483192938869800,2.452869873046875,9.726179455968737,0.18837218888886273,-2.2731791793756186
1746483192948866600,2.462866455078125,9.669379125860333,0.556294889242202,-2.1795926947921513
1746483192958862600,2.472862548828125,9.617851183196901,0.7158367049660533,-2.205275125320256
1746483192968859600,2.482859619140625,9.66026701412201,0.7579108097814024,-2.1830806830383835
1746483192978856400,2.4928564453125,9.78665642876327,0.678761066025123,-2.1036659316703674
1746483192988853800,2.502853759765625,10.06034652864933,0.385975512785837,-2.060956670756638
1746483192998849500,2.512849609375,10.351614955323933,-0.12477291935533284,-2.1298979589052496
1746483193008846600,2.5228466796875,10.397580587685107,-0.8949836771309375,-2.4993068792283535
1746483193018843600,2.53284375,9.604971243357658,-1.9951447666749358,-3.4950054315179586
1746483193028839700,2.542839599609375,6.580391366747021,-3.626026597613096,-5.589266698244214
1746483193038836700,2.552836669921875,1.2164771461993455,-5.374337999406457,-8.48258692382872
1746483193048833500,2.56283349609375,-5.1615352066814895,-5.489616237446666,-9.411630106949806
1746483193058829600,2.57282958984375,-11.071840615963936,-3.457895013524592,-7.116406122896075
1746483193068826600,2.58282666015625,-14.497297879481314,-0.4963737967647612,-3.303781433394551
1746483193078823700,2.59282373046875,-13.852410076159238,2.3694392670825124,0.19945055919885635
1746483193088819500,2.6028193359375,-10.342364311897754,4.03437212844342,2.09914816198498
1746483193098816500,2.61281640625,-5.922952124887704,4.022052745096385,2.191277579627931
1746483193108813600,2.6228134765625,-2.0910697772085665,3.1304765383213757,1.8792159557715058
1746483193118809600,2.6328095703125,0.5211924500703812,1.990569421583414,1.9090804942898452
1746483193128806700,2.642806640625,2.0261323178738353,0.920240941049531,1.9140235036499798
1746483193138803700,2.6528037109375,2.683181683632731,0.016279665280133485,1.598637119285017
1746483193148799700,2.6627998046875,2.7477497251331804,-0.7356986857123673,0.9181789670184254
1746483193158796500,2.672796630859375,2.523765028658509,-1.1960877805780619,0.15279782135635614
1746483193168793600,2.682793701171875,2.1694202603459356,-1.2127789492685348,-0.4081942857913673
1746483193178789600,2.69278955078125,1.6923428463339805,-0.8463611005201935,-0.6336492009490728
1746483193188786400,2.702786376953125,0.9501800791740417,-0.40286161952652033,-0.7001138698510825
1746483193198783700,2.71278369140625,0.16486089185476302,-0.11273198762349784,-0.7331416947059333
1746483193208780500,2.722780517578125,-0.46252749513387675,0.04097408941788599,-0.6882375540964305
1746483193218776600,2.732776611328125,-0.8134329366475344,0.17033256473150105,-0.46669440555498
1746483193228773600,2.742773681640625,-0.8964379675924777,0.24575618237042798,-0.23135712493881583
1746483193238770700,2.752770751953125,-0.7505074016571045,0.2400002309259027,-0.08728753056973218
1746483193248766700,2.7627666015625,-0.3430518054038286,0.17906789731299502,0.04413505593314767
1746483193258763500,2.772763427734375,0.006087210959196091,0.046076399259269235,0.18615210168659685
1746483193268760600,2.782760498046875,0.23779694872796533,-0.05636829536668956,0.22358780611157417
1746483193278756600,2.792756591796875,0.3122217828541994,-0.1089055155373644,0.08034267986789345
1746483193288753400,2.80275341796875,0.17911971883177757,-0.13409978808918968,-0.09911489261612295
1746483193298750700,2.812750732421875,-0.03499532553553581,-0.09881135222543962,-0.24351094246059654
1746483193308746500,2.82274658203125,-0.1807598872542381,-0.027622915337700397,-0.3091096421830356
1746483193318743800,2.832743896484375,-0.18172551741600035,0.0440262435301207,-0.21842808526083826
1746483193328740600,2.84274072265625,-0.07791033815443515,0.054227611809875814,-0.0869034996882081
1746483193338736600,2.852736572265625,0.007817980274558068,0.03381778792245314,0.00005173018723726272
1746483193348733700,2.862733642578125,0.04187865530848503,-0.03094100864343345,0.004628098192065954
1746483193358730500,2.87273046875,0.03012859628200531,-0.05667425604332238,-0.03166998050510883
1746483193368726500,2.8827265625,-0.041165538603067396,-0.043827222959836945,-0.09469225386828184
1746483193378723600,2.8927236328125,-0.07633680522739887,-0.012430816965410485,-0.16123846357390284
1746483193388720600,2.902720703125,-0.052875850141048425,0.016747273658728225,-0.16481164588555694
1746483193398716700,2.912716552734375,-0.020581600257754323,0.01357272614268586,-0.13595979154109955
1746483193408713500,2.92271337890625,-0.01579085884988308,0.0005762472516857087,-0.08124255131706595
1746483193418710800,2.932710693359375,-0.008618775263428687,-0.009180692595662548,-0.027128391552716492
1746483193428707600,2.94270751953125,-0.015974398723244666,-0.026086307754414156,-0.05306114358007907
1746483193438703600,2.95270361328125,-0.03961187942028045,-0.02770304050236009,-0.09576704349294304
1746483193448700700,2.96270068359375,-0.044483284848928446,-0.01114389156056568,-0.14230696861073375
1746483193458697500,2.972697509765625,-0.02207622272968292,-0.0024041841980535538,-0.13693389727026223
1746483193468693500,2.982693603515625,-0.03667348788082599,-0.004415697550401092,-0.10497998525723815
1746483193478690600,2.992690673828125,-0.020564649122953412,-0.016691716679744423,-0.07154007247015834
1746483193488687600,3.0026875,-0.025997780087590214,-0.015447717101173474,-0.04909194768816232
1746483193498683600,3.01268359375,-0.014580898538231848,0.04290125808818265,-0.09037629036530852
1746483193508680700,3.0226806640625,-0.005575754305720329,0.11324415666302666,-0.13898834558203815
1746483193518677800,3.032677734375,-0.09639408935010432,-0.07715225892928429,-0.17166721086874603
1746483193528673500,3.042673583984375,-0.06563479394912719,-0.25013129218211394,-0.09639730422049761
1746483193538670600,3.052670654296875,0.0964998878121376,-0.029935083003900943,0.007630494878441095
1746483193548667600,3.062667724609375,-0.013062895190715788,0.07484456650880165,-0.03092939127087593
1746483193558663700,3.07266357421875,-0.12688275111615657,-0.008401890242891386,-0.07810016163811087
1746483193568660500,3.082660400390625,-0.006484685844182968,-0.0004898293435573578,-0.16496128348931668
1746483193578657500,3.092657470703125,-0.0064472764432430265,0.021953162605594843,-0.18621683748587964
1746483193588654600,3.102654541015625,-0.06467910065948963,0.004284198391530662,-0.05694894479885697
1746483193598650600,3.112650634765625,-0.023030162453651425,-0.03445219510216266,-0.06857932296842337
1746483193608647700,3.122647705078125,-0.005370587122440338,-0.06924477374036796,-0.0735131261087954
1746483193618644700,3.132644775390625,-0.019448212313652038,-0.03825602609822527,-0.0608275397978723
1746483193628640800,3.142640869140625,-0.02203004550039768,0.02737498672492802,-0.089952950386703
1746483193638637600,3.152637451171875,-0.029324294161796566,0.01527904600338079,-0.13423764392361043
1746483193648634600,3.162634521484375,-0.04256137687563896,-0.02596769547658041,-0.13215791504010557
1746483193658630700,3.172630615234375,-0.013722820404171943,-0.02409164507216774,-0.09178688781559467
1746483193668627700,3.182627685546875,-0.017490648505091667,-0.02019180635572411,-0.07724062219932674
1746483193678624500,3.19262451171875,-0.012923194459080696,-0.036706038443557916,-0.07974471397474407
1746483193688620800,3.202620849609375,-0.017955927929282186,-0.026571771450107917,-0.09894567352905868
1746483193698617600,3.21261767578125,-0.038597149419784545,0.00034694114099256693,-0.10368395409733057
1746483193708615000,3.222614990234375,-0.033200843334197996,0.0027446590656414627,-0.09810703074783086
1746483193718610700,3.232610595703125,-0.026156770041584967,-0.017371643501613288,-0.10150544101446866
1746483193728607700,3.242607666015625,-0.0189835174113512,-0.027059993358468634,-0.08553659524917602
1746483193738604800,3.252604736328125,-0.020762802043557165,-0.025106594268372282,-0.08770984763503074
1746483193748601600,3.2626015625,-0.0286649534702301,-0.018330944387288762,-0.08160013258308171
1746483193758598000,3.272597900390625,-0.03217325385212898,-0.011237588592851533,-0.09051569883599876
1746483193768594700,3.2825947265625,-0.009901216289401054,-0.01232722872677259,-0.11316343784332275
1746483193778591700,3.292591796875,-0.033140637579560275,-0.013439263355592266,-0.11150324954614042
1746483193788587800,3.302587890625,-0.04322364017665386,-0.008695265432586892,-0.08969576075524091
1746483193798584600,3.31258447265625,-0.016968670457601545,-0.014223910927260294,-0.08052446617558598
1746483193808582000,3.322581787109375,-0.033389643904566765,-0.025090574715333058,-0.08973843085318803
1746483193818577700,3.33257763671875,-0.027668928170204162,-0.009584304960491135,-0.09388955918326973
1746483193828574700,3.34257470703125,-0.01582125398814678,-0.016332582777459175,-0.10599763786718248
1746483193838571800,3.35257177734375,-0.03344984965920448,-0.022664297416480256,-0.09954100907370447
1746483193848567800,3.36256787109375,-0.03083645229041576,-0.011054706306615843,-0.09469707617387176
1746483193858564900,3.37256494140625,-0.029288053804636,-0.01713735068854876,-0.09082476478517056
1746483193868561700,3.382561767578125,-0.030167174726724623,-0.015025655764201656,-0.07587693263068795
1746483193878557700,3.3925576171875,-0.029988311028480527,-0.023210651853401213,-0.07838949997350574
1746483193888554800,3.4025546875,-0.02470306410193443,-0.005622534323204308,-0.08053045752495527
1746483193898551800,3.4125517578125,-0.030080665487051007,-0.009123637779336422,-0.09703940151631832
1746483193908547600,3.422547607421875,-0.02495148590505123,-0.011910720347752793,-0.08812705013379454
1746483193918545000,3.432544921875,-0.023418869510293004,-0.011330399709148332,-0.08627353122159838
1746483193928541700,3.442541748046875,-0.01846563101708889,-0.0188982594138477,-0.07388254394307732
1746483193938538800,3.452538818359375,-0.03145429192781448,-0.008249996749963611,-0.08852014110460876
1746483193948534800,3.46253466796875,-0.04119534921944141,-0.0016436846869532019,-0.08703574776574968
1746483193958531600,3.472531494140625,-0.021740707165002822,-0.014810716105578466,-0.0899725318700075
1746483193968528600,3.482528564453125,-0.016664134553074837,-0.016516460577538236,-0.07948606303855776
1746483193978524700,3.492524658203125,-0.020383447337150574,-0.0054563657097518444,-0.07978329241946339
1746483193988521700,3.502521728515625,-0.020688567763566968,-0.004071560287848114,-0.07736059531718492
1746483193998518800,3.512518798828125,-0.02068681419789791,0.004603703536326066,-0.07265694767087698
1746483194008514600,3.5225146484375,-0.03326689430773258,-0.00804587987945415,-0.07639175028502941
1746483194018512000,3.532511962890625,-0.026102994027733802,-0.01123995407987386,-0.08629135913923382
1746483194028508700,3.5425087890625,-0.018166940331459044,-0.014394746582675724,-0.08231032667905092
1746483194038505000,3.5525048828125,-0.032248072654008864,-0.008815457746153697,-0.07917962743788957
1746483194048501800,3.562501708984375,-0.02404313888847828,-0.009345080243982375,-0.07385024910867213
1746483194058498600,3.57249853515625,-0.022997429227828978,-0.013120908988267182,-0.06751198599785566
1746483194068494800,3.582494873046875,-0.034255320823192596,-0.01857236106088385,-0.07553630249947309
1746483194078491600,3.59249169921875,-0.03219897281527519,-0.01940851962408051,-0.07729059882089495
1746483194088488700,3.60248876953125,-0.030533085429668424,-0.02058471466344781,-0.0686240388929844
1746483194098484700,3.612484619140625,-0.05915536880195141,-0.03849178934916854,-0.0823183638550341
1746483194108481500,3.6224814453125,-0.02132861923277378,-0.038035204688087104,-0.0655909548074007
1746483194118478800,3.632478759765625,-0.0167921448469162,-0.058326525895530355,-0.06885624021366238
1746483194128474600,3.642474609375,0.0741436790972948,0.10741150498678907,-0.04418327898904681
1746483194138472000,3.652471923828125,-0.052393619582056995,0.08747589274868368,-0.1033776646271348
1746483194148468700,3.66246875,-0.13136720305383204,-0.0498777551704552,-0.09831073662638663
1746483194158464800,3.67246484375,0.03374327964782715,-0.00767275398443453,-0.041556729877740145
1746483194168461800,3.6824619140625,-0.00003214870393276214,-0.022331713594403117,-0.04248787324801087
1746483194178458600,3.692458740234375,-0.028311317726969716,-0.001416524867573753,-0.07190262217223643
1746483194188456000,3.7024560546875,0.0007674772411584853,-0.010235243149893358,-0.09457418044656514
1746483194198451700,3.71245166015625,-0.0293359845995903,-0.09439514321838505,-0.04636266885474324
1746483194208448800,3.72244873046875,0.015858663389086723,0.02054244642429985,-0.05867942185327411
1746483194218445800,3.73244580078125,-0.06480477286577224,0.0648762215336319,-0.08116656347140669
1746483194228441600,3.742441650390625,-0.07260463296175003,-0.030253848363179712,-0.08800430053696036
1746483194238439000,3.75243896484375,0.01577156962752342,-0.04429028302747756,-0.07314911510199308
1746483194248435700,3.762435791015625,0.006495791760087013,-0.003915173282893375,-0.043943478883802886
1746483194258431700,3.772431640625,-0.06078560035228729,0.013460991130210459,-0.046090866176038976
1746483194268428800,3.7824287109375,-0.0447772993594408,-0.008300722290202974,-0.07678308769017457
1746483194278425600,3.792425537109375,0.0073036010116338725,-0.02775036850911565,-0.06866568607762455
1746483194288421600,3.802421630859375,-0.01976268509030342,-0.0011649886587634683,-0.0615377338938415
1746483194298418700,3.812418701171875,-0.04369125768840313,0.014841686632577329,-0.06970861925929785
1746483194308415700,3.822415771484375,-0.03920680575072765,-0.027424360558297483,-0.07392419112771749
1746483194318411800,3.832411865234375,0.005534253251552581,-0.021361854782095176,-0.07317512632608414
1746483194328408800,3.842408935546875,-0.019890110862255096,-0.0066504434656817464,-0.0711596948504448
1746483194338406000,3.852406005859375,-0.026444354811310765,0.0041857886515092105,-0.06429770012646913
1746483194348401700,3.862401611328125,-0.008472060269117355,-0.005073385140998288,-0.08682473536357282
1746483194358398700,3.872398681640625,-0.03379413305222988,-0.027965061572566625,-0.07051219072714447
1746483194368395800,3.882395751953125,-0.02675005975961685,0.00013106990060769022,-0.059386839470267294
1746483194378391800,3.892391845703125,-0.022811551266908644,-0.0024487539921421555,-0.06830035989657043
1746483194388388600,3.902388671875,-0.028450433936715123,-0.019950316616892814,-0.0655538376674056
1746483194398385700,3.9123857421875,-0.02300561253428459,-0.018784505974221974,-0.0835576963916421
1746483194408381700,3.922381591796875,-0.019054244560003278,-0.0006560162233188748,-0.07296367553249002
1746483194418378800,3.932378662109375,-0.02210720238983631,-0.0020739841293077915,-0.06972557039409875
1746483194428375800,3.942375732421875,-0.029268180060386655,-0.025074171569803728,-0.06118219845443964
1746483194438371600,3.95237158203125,-0.015074235013127326,-0.007361048553604632,-0.07183525602445005
1746483194448369000,3.962368896484375,-0.02470189505815506,0.008566615817928686,-0.06601122604608535
1746483194458365700,3.97236572265625,-0.009153028270602225,-0.013048930597444995,-0.07977569363489746
1746483194468361700,3.98236181640625,-0.015491583642363548,-0.01151877102125436,-0.08099500629678368
1746483194478358800,3.99235888671875,-0.01850479398369789,-0.00013021138408221303,-0.05349047490805387
1746483194488355600,4.00235546875,-0.02346095508635044,-0.007596373413130641,-0.05829919036403298
1746483194498351900,4.012351806640625,-0.019928104785084725,-0.006089019323792308,-0.06987330830171704
1746483194508348700,4.0223486328125,-0.030620179191231726,-0.005725254912162199,-0.06397255982533097
1746483194518345700,4.032345703125,-0.017465514063835143,0.0010670447096228599,-0.051095688726007935
1746483194528342800,4.0423427734375,-0.016015315255522727,-0.003777545777335763,-0.07097980823889374
1746483194538338600,4.052338623046875,-0.02861877624094486,-0.01746664657499641,-0.07031783719882369
1746483194548335900,4.0623359375,-0.01593114410340786,0.004468140123691409,-0.06665142364576458
1746483194558331600,4.07233154296875,-0.023629881912469862,0.00014815803272649644,-0.06658361910656094
1746483194568328700,4.08232861328125,-0.03042787148952484,-0.011355059226369485,-0.06800663764700293
1746483194578325800,4.09232568359375,-0.02510053898692131,-0.01637043056981638,-0.0695529903061688
1746483194588322600,4.102322509765625,-0.01617196712195873,-0.007714793894719332,-0.06790697666481137
1746483194598318800,4.11231884765625,-0.012671850046515463,-0.01734078257246874,-0.061507631016522644
1746483194608315600,4.122315673828125,-0.018424129962921143,-0.011189475134806707,-0.06053484046161174
1746483194618313000,4.13231298828125,-0.020541268247365952,0.008869800015585497,-0.055482671638578174
1746483194628308700,4.142308837890625,-0.015635376027226446,0.002077052869228646,-0.057345542901009315
1746483194638305800,4.152305908203125,-0.012691723790764808,-0.01161996637340635,-0.07066650450602173
1746483194648302800,4.162302734375,-0.007498831322789192,-0.0016932137839496134,-0.047461277746409174
1746483194658298600,4.172298583984375,-0.014137830945849418,-0.011118190863728523,-0.048240591555833816
1746483194668295000,4.182294921875,-0.0070113400667905805,-0.009220458350470289,-0.05501037795171141
1746483194678291700,4.192291748046875,-0.02965922520458698,-0.015494040460931136,-0.06640329410359264
1746483194688288000,4.2022880859375,-0.026126374903321266,0.0024089699710253625,-0.05627513719052076
1746483194698284800,4.212284912109375,-0.03891629837155342,-0.011473233112785964,-0.05218173039704561
1746483194708281900,4.22228173828125,-0.014580314016342162,-0.006914994419692084,-0.054153614991903305
1746483194718278000,4.23227783203125,-0.011953472644090652,-0.002300431562634185,-0.05528334967419505
1746483194728275000,4.24227490234375,-0.021930676779150962,-0.008548769633984193,-0.047288405397534365
1746483194738272000,4.25227197265625,-0.01200023439526558,-0.00998058340223506,-0.06066460432112217
1746483194748267800,4.262267822265625,-0.020011106893420217,0.00710031525818631,-0.050027036581188435
1746483194758264800,4.272264892578125,-0.029196283867955208,-0.00985845485990867,-0.05740063408911228
1746483194768262000,4.282261962890625,-0.0062432783037424085,-0.017249487559823317,-0.05623465904965996
1746483194778258000,4.2922578125,-0.011229250022768974,-0.01437216942468658,-0.04561243500933051
1746483194788255000,4.3022548828125,-0.03763794899880886,0.0025067403902299702,-0.06487389257922768
1746483194798251800,4.312251708984375,-0.03833995978832245,-0.003787957573495805,-0.05479001319929957
1746483194808247800,4.322247802734375,-0.012226444366574286,-0.009416081387270242,-0.0511569173939526
1746483194818244900,4.332244873046875,-0.023956045126914977,-0.017088497444987295,-0.047607846610248084
1746483194828242000,4.342241943359375,-0.027350363740324974,-0.011435504051437602,-0.05860708726942539
1746483194838237700,4.35223779296875,-0.01800853489935398,-0.01452264727866277,-0.05158873293995857
1746483194848235000,4.362235107421875,-0.00641921939253807,-0.009787453716620802,-0.05308554736897349
1746483194858231800,4.372231689453125,-0.02041150438785553,-0.008745022858446463,-0.0521546962596476
1746483194868227800,4.382227783203125,-0.034085809475183484,-0.008287899341247976,-0.04261179188862443
1746483194878225000,4.392224853515625,-0.02519464701116085,-0.005869092962797731,-0.04637289798781275
1746483194888222000,4.402221923828125,-0.021255553996562957,-0.019837869218364355,-0.04780409983471036
1746483194898218000,4.412218017578125,-0.01552022521495819,-0.012980358873261138,-0.057917205309122796
1746483194908214800,4.42221484375,-0.010823007309436798,-0.008122717108484357,-0.04852788406461477
1746483194918211800,4.4322119140625,-0.017393033349514007,0.0007814601007383316,-0.049217473763972515
1746483194928208000,4.442207763671875,-0.013877134183049202,-0.0019472707434091715,-0.04230652533173561
1746483194938204700,4.45220458984375,-0.025763971331715582,-0.0009722608319483696,-0.04223170652985572
1746483194948202000,4.462201904296875,-0.013731588232517241,-0.007092643408384174,-0.060358899372816084
1746483194958197800,4.47219775390625,-0.01293780750632286,-0.022357743084803223,-0.05491583153605461
1746483194968195000,4.482195068359375,-0.010498597660660743,-0.01204881364419125,-0.047537411722540855
1746483194978192000,4.49219189453125,-0.023148235875368118,0.006959217153908685,-0.04858049103468656
1746483194988188000,4.50218798828125,-0.019936872613430023,-0.005976078734919428,-0.058000207417458295
1746483194998185000,4.51218505859375,-0.021961071917414664,-0.012495424900529906,-0.05529065619781613
1746483195008181800,4.522181640625,-0.009194529324769973,0.002161808543233201,-0.045350130811333655
1746483195018177800,4.532177734375,-0.013659107518196106,0.000038797640427947044,-0.0474817360125482
1746483195028174800,4.5421748046875,-0.03153904760181904,-0.015827418867452068,-0.05776011505126953
1746483195038171600,4.552171630859375,-0.021293547919392586,-0.011089932883623987,-0.05415814503654837
1746483195048168000,4.56216796875,-0.0190098208963871,-0.002371067379740998,-0.04680062188059091
1746483195058164700,4.572164794921875,-0.005201075774431229,-0.013326697226054965,-0.04885273210480809
1746483195068162000,4.582162109375,-0.02128770270049572,-0.0001262658613268286,-0.04836962476298213
1746483195078157800,4.59215771484375,-0.014648703077435493,-0.012846284164814278,-0.04243585079982876
1746483195088155000,4.60215478515625,-0.026887422403693198,-0.0020506945852655917,-0.04483940481022
1746483195098152000,4.61215185546875,-0.019508418068289755,-0.00111798031241633,-0.03804477623403072
1746483195108148000,4.62214794921875,-0.007612228569388389,0.0013305088182445615,-0.04698679210245609
1746483195118144800,4.632144775390625,-0.016381810480356217,0.007951689656823873,-0.04268324968963861
1746483195128141800,4.642141845703125,-0.02353285127878189,-0.007283005748176947,-0.0483795616351068
1746483195138137900,4.652137939453125,-0.015119243198633192,-0.005313011716306209,-0.04957958507463336
1746483195148135000,4.662135009765625,-0.022982231658697127,-0.004587035529315471,-0.049732145287841555
1746483195158131700,4.672131591796875,-0.002881692916154861,-0.010676995568023994,-0.05310206011235714
1746483195168127700,4.682127685546875,-0.015548866787552833,-0.009006760800862684,-0.04598711354061961
1746483195178124800,4.692124755859375,-0.01223638123869896,-0.011655750072840601,-0.03841317115500569
1746483195188121900,4.702121826171875,-0.030734745481610298,-0.0008891034599859267,-0.04638648812174797
1746483195198118000,4.712117919921875,-0.023045944544672965,-0.0014405359308235347,-0.037144028002023696
1746483195208115000,4.722114990234375,-0.018377368211746216,0.0010862608667463064,-0.044796150190383195
1746483195218111700,4.73211181640625,-0.010561141502857207,0.00040602351762354373,-0.045092502788454294
1746483195228108800,4.74210888671875,-0.009592588731646538,-0.010880884109670296,-0.04103562861308455
1746483195238104800,4.752104736328125,-0.03153086429536343,-0.007846722311852499,-0.0394279011555016
1746483195248102000,4.762101806640625,-0.013375614401698111,-0.009533816882269456,-0.046086482261866325
1746483195258099000,4.772098876953125,-0.01887304277420044,-0.004525815994525328,-0.046363253376632926
1746483195268094700,4.7820947265625,-0.003108487409353256,0.0008061561505775898,-0.03251344559192657
1746483195278092000,4.792092041015625,-0.013230652973055838,-0.006671184859611093,-0.04992927529513835
1746483195288088800,4.8020888671875,-0.01780161415040493,0.0005577252143062651,-0.055010524082183834
1746483195298084900,4.8120849609375,-0.015203414350748061,-0.0019948544784914703,-0.03845379542633891
1746483195308082000,4.82208203125,-0.01127951890528202,0.0069603770645335315,-0.04159501606151461
1746483195318078700,4.83207861328125,-0.021866379371285438,-0.0056881834379397325,-0.03933423152267933
1746483195328075000,4.842074951171875,-0.011340309181809425,-0.010732315084990113,-0.03715937170162797
1746483195338071800,4.85207177734375,-0.008294365614652632,-0.015745841531222684,-0.036315322092920536
1746483195348068900,4.86206884765625,-0.019657471150159835,-0.004452997353486717,-0.03911109029129147
1746483195358065000,4.87206494140625,-0.012744915282726288,-0.0008545984021853656,-0.04735942480713129
1746483195368061700,4.882061767578125,-0.02062719296514988,-0.008160619699768721,-0.03247618232145905
1746483195378059000,4.89205908203125,-0.02074701995253563,-0.00496001529386267,-0.03982786025851965
1746483195388054800,4.9020546875,-0.009786065477132797,-0.00892160326805897,-0.03321750220805406
1746483195398052000,4.912052001953125,-0.014229600882530212,0.0013107172723859548,-0.0381033745534718
1746483195408049000,4.922048828125,-0.010161913052201271,-0.008910351221682503,-0.04455883430317044
1746483195418045000,4.932044921875,-0.013123685467243193,0.006145681414473802,-0.02901084429845214
1746483195428042000,4.9420419921875,-0.027736732709407803,-0.00530484667615965,-0.0313261355035007
1746483195438038800,4.952038818359375,-0.022308862441778182,-0.0022009806429967283,-0.034730537119507784
1746483195448034800,4.962034912109375,-0.0005868599772453308,-0.005781679540826008,-0.03447144779190421
1746483195458031900,4.972031982421875,-0.014589081844687461,-0.007882725206995383,-0.03657528820335865
1746483195468028700,4.982028564453125,-0.02578793672919273,-0.00637031135004945,-0.04410027688071132
1746483195478025000,4.99202490234375,-0.010654665005207061,-0.008731843716464936,-0.03952069400548935
1746483195488021800,5.002021728515625,-0.001633154159784317,0.003162884477712214,-0.04471694747433066
1746483195498018800,5.012018798828125,-0.02658756267428398,-0.01838472040113993,-0.04276157562285662
1746483195508014800,5.022014892578125,-0.01219838731586933,-0.008321737678768112,-0.037419191681593654
1746483195518012000,5.032011962890625,-0.012003741526603698,-0.012768277892004697,-0.034371494548767804
1746483195528009000,5.042009033203125,-0.014202128353714942,-0.007573275665333494,-0.03132803519964218
1746483195538005000,5.0520048828125,-0.023006197056174276,-0.0011581661923322827,-0.04842398529872298
1746483195548001800,5.062001708984375,-0.026712065836787223,0.006192881557065993,-0.03375058617144823
1746483195557998800,5.071998779296875,-0.004220832565426826,-0.0022344262548722326,-0.023074586117267606
1746483195567995000,5.081994873046875,-0.007633271357417106,0.00162986622415483,-0.03162000388354063
1746483195577992000,5.091991943359375,-0.019282792618870732,-0.008696014351258054,-0.03287511851117015
1746483195587988700,5.10198876953125,-0.00727320587337017,-0.013305855367425828,-0.03883490369841456
1746483195597984800,5.11198486328125,-0.009615969607234001,0.0018167214326094835,-0.038760523287951945
1746483195607981800,5.12198193359375,-0.013918635237216948,0.00277994957473129,-0.03919423853009939
1746483195617979000,5.131978759765625,-0.021362521502375602,-0.0030135208685882387,-0.04021262179240584
1746483195627974700,5.141974609375,-0.021188333979248998,0.0030089542913250625,-0.0338104996651411
1746483195637972000,5.151971923828125,-0.0129360539406538,-0.005669643134251236,-0.036403731028735634
1746483195647968800,5.16196875,-0.015581015491485595,0.007075975401373579,-0.04486278568580746
1746483195657965000,5.171965087890625,-0.00343465062379837,-0.001389709925884381,-0.03816723356992006
1746483195667962400,5.18196240234375,-0.017779986840486525,0.00008870119675993918,-0.03853299814239144
1746483195677959400,5.19195947265625,-0.01790390548110008,0.0011926438506692648,-0.03198606071695685
1746483195687955500,5.20195556640625,-0.02401683540344238,0.00218094250196591,-0.0392125048391521
1746483195697952300,5.2119521484375,-0.020687983241677282,-0.0007114818707574159,-0.035002924320101735
1746483195707949300,5.22194921875,-0.005533668729662895,0.0013570680316071957,-0.039305005428195
1746483195717946400,5.2319462890625,-0.011624386820197105,-0.0035321013825945556,-0.028931495451927185
1746483195727942400,5.2419423828125,-0.02507832715511322,-0.001082680670171976,-0.028115941285341978
1746483195737939500,5.251939453125,-0.01621814435124397,-0.004109353281278163,-0.031710020254552364
1746483195747936300,5.261936279296875,-0.03070318129956722,-0.00391818722388707,-0.026640754166245458
1746483195757932500,5.2719326171875,-0.011841828963160514,-0.010734625773085281,-0.028557839833945033
1746483195767929300,5.281929443359375,-0.010171265402436255,-0.013556231665611266,-0.037274376383423805
1746483195777926400,5.291926513671875,-0.010880290454626082,0.00482962124668993,-0.029315672463923692
1746483195787922400,5.30192236328125,-0.018327099329233168,0.002040218857023865,-0.023322715659439563
1746483195797919200,5.311919189453125,-0.022350363495945928,-0.008157761022401974,-0.022496347837895152
1746483195807916300,5.321916259765625,-0.00961246247589588,0.003500591999478638,-0.03049187663644552
1746483195817912300,5.331912353515625,0.001668225473165512,-0.002948301012115553,-0.039058044929802416
1746483195827909400,5.341909423828125,-0.00412087932229042,-0.011584493201225995,-0.042288259022682906
1746483195837906400,5.351906494140625,-0.020986089405417442,-0.004444010329432785,-0.04134747104123235
1746483195847902200,5.361902099609375,-0.016299977415800092,-0.0060312429882586,-0.0300603533513844
1746483195857899500,5.3718994140625,-0.020323826104402542,0.0029419991354923693,-0.04076031880304217
1746483195867896300,5.381896240234375,-0.02329144373834133,0.0010496643165592103,-0.041247079406678676
1746483195877892400,5.391892333984375,-0.012031798577308654,-0.0012384557537734508,-0.03270589942410588
1746483195887889400,5.401889404296875,-0.011557751324772833,-0.006287902896758168,-0.03169628399014473
1746483195897886200,5.41188623046875,-0.01303016196489334,0.0013300886931363492,-0.0351775502346456
1746483195907882500,5.421882568359375,-0.018232991304993628,0.004276809669518843,-0.031135727497935292
1746483195917879300,5.43187939453125,-0.013400748842954635,-0.009802980079315602,-0.02494987846985459
1746483195927876400,5.44187646484375,-0.023247604596614835,0.0016399492267519234,-0.034699995850771666
1746483195937872400,5.451872314453125,-0.0063087447553873055,0.0011750351287424564,-0.036507337533682585
1746483195947869200,5.461869140625,-0.002374327915906906,-0.00647241088449955,-0.022090981907397507
1746483195957866500,5.471866455078125,0.003787701845169067,-0.006606768720736727,-0.023615268865227697
1746483195967862300,5.4818623046875,-0.017288988453149794,-0.0002884980851784348,-0.033990094015747305
1746483195977859300,5.491859375,-0.009037877458333968,0.00650411206386052,-0.03299976780414581
1746483195987856400,5.5018564453125,-0.010504442879557608,-0.0067971584599930785,-0.031071430090069768
1746483195997852400,5.511852294921875,-0.010924714118242264,-0.006424370491690933,-0.023761399337649345
1746483196007849500,5.521849365234375,-0.014017419436573982,-0.00028965799580328165,-0.022489479705691335
1746483196017846300,5.53184619140625,-0.003950783452391624,0.008535901019256562,-0.03367284476011991
1746483196027842300,5.54184228515625,-0.011118190863728523,-0.0018826445419806985,-0.026416005499660968
1746483196037839400,5.55183935546875,-0.0070662851244211195,-0.00833120876001194,-0.027410861755907533
1746483196047836400,5.56183642578125,-0.019458733707666397,-0.0050044389574788505,-0.02205050376653671
1746483196057832200,5.571832275390625,-0.01854921764731407,0.007823688496137038,-0.032169746720790864
1746483196067829200,5.581829345703125,-0.022891630765795708,0.0036386122306808827,-0.024552257454395293
1746483196077826300,5.591826416015625,-0.0077712185233831405,-0.00006109167062677442,-0.015544629003852605
1746483196087822300,5.601822265625,0.0022860651105642317,-0.0007953790282364935,-0.018990823934972284
1746483196097819400,5.6118193359375,-0.004561608827114105,0.0006021397447679191,-0.029747195748984812
1746483196107816400,5.62181640625,-0.02101005480289459,0.001991228616144508,-0.022363807499408722
1746483196117812500,5.6318125,-0.017241057658195495,-0.003165505693061277,-0.027628596159815787
1746483196127809300,5.641809326171875,-0.012731471279263495,-0.010617091207485645,-0.025591829635202883
1746483196137806300,5.651806396484375,-0.012259177592396735,-0.005252166640851646,-0.03192044813483953
1746483196147803400,5.661803466796875,-0.002966448590159416,-0.005941856804909184,-0.033200843334197996
1746483196157799200,5.671799072265625,-0.010136778610944747,0.010383127187984063,-0.026859073092043398
1746483196167796500,5.68179638671875,-0.013550386446714401,-0.0029289661239832636,-0.024339199225604534
1746483196177793300,5.691793212890625,-0.012615735945105552,-0.006403610831452533,-0.025215397538244724
1746483196187789600,5.70178955078125,-0.020372341421246526,-0.008679382876865566,-0.017620412364602087
1746483196197786400,5.711786376953125,-0.007177928805351257,-0.0049197289492469275,-0.019894348645955323
1746483196207783400,5.721783447265625,-0.008513561323285103,-0.001544745223969221,-0.017754998529702425
1746483196217779500,5.731779541015625,-0.015384616136550903,0.008508318892586976,-0.01934548259153962
1746483196227776300,5.7417763671875,-0.00876899738907814,-0.010973275100858881,-0.028478052596002817
1746483196237773300,5.751773193359375,-0.010088263294100761,-0.0037231395758222786,-0.02864785620495677
1746483196247769300,5.761769287109375,-0.008877133938670158,-0.0038116489763371643,-0.031133243279904126
1746483196257766100,5.77176611328125,-0.012453823381662368,-0.002411289792275056,-0.02493278120458126
1746483196267763500,5.781763427734375,-0.004044306954741478,0.005295658722706139,-0.020012860459089277
1746483196277759200,5.79175927734375,-0.009561024549603461,0.0003517543134279549,-0.02426101942285895
1746483196287756500,5.801756591796875,-0.013441665375232696,-0.004847686626343056,-0.03019683921262622
1746483196297753300,5.81175341796875,-0.014447627547383308,-0.0014098119989968834,-0.035093232952058316
1746483196307749400,5.821749267578125,-0.016662380987405776,-0.01152653420260176,-0.025085195287317036
1746483196317746400,5.831746337890625,-0.009919336467981339,-0.005203258598363026,-0.03372399042546749
1746483196327743200,5.8417431640625,-0.017528642427921293,-0.01062053440674208,-0.020153876364976165
1746483196337739500,5.851739501953125,-0.015437807628512382,-0.002412705431226641,-0.01957183869332075
1746483196347736300,5.861736328125,-0.029662147814035415,0.00286203836761415,-0.030081542269885537
1746483196357733400,5.8717333984375,-0.0037847792357206343,-0.008531115246284752,-0.03177095666155219
1746483196367729400,5.8817294921875,-0.0061573535859584805,-0.006393728758255019,-0.0210499484218657
1746483196377726200,5.891726318359375,-0.030517303338646887,0.00030528482319787143,-0.02853811222016811
1746483196387723500,5.9017236328125,-0.02017185041308403,-0.006231295605003833,-0.03084156685695052
1746483196397719300,5.91171923828125,-0.01401274326145649,-0.005951063024671748,-0.023559154763817786
1746483196407716400,5.92171630859375,-0.012940730115771293,-0.0015288992008659988,-0.03542114973217249
1746483196417713400,5.93171337890625,-0.0175806648761034,-0.002113722484651953,-0.025999241392314434
1746483196427709400,5.94170947265625,-0.006781622964143753,-0.004039420717069879,-0.03007555092051625
1746483196437706500,5.95170654296875,-0.019608371311426162,0.008297406955109908,-0.02509995446503162
1746483196447703300,5.961703369140625,-0.01971826142668724,0.005700029139360413,-0.03464052074849605
1746483196457699300,5.97169921875,-0.008042436680197716,0.004783727145195007,-0.0317804551422596
1746483196467696400,5.9816962890625,-0.004421908095479011,-0.005739338236441836,-0.030746874310821293
1746483196477693400,5.991693359375,-0.011268412989377976,0.002854247786803171,-0.02054725959673524
1746483196487689200,6.001689208984375,-0.021133973443508147,-0.004963577224127948,-0.01825432635396719
1746483196497686300,6.011686279296875,-0.01229600247144699,-0.005359371608681976,-0.024198329450190067
1746483196507683300,6.021683349609375,-0.012127075645327567,-0.004211754209827632,-0.016484832463413476
1746483196517679400,6.031679443359375,-0.017641455152630804,-0.002865381102170795,-0.012193565010279416
1746483196527676400,6.041676513671875,-0.01073532902598381,0.0012013386137783527,-0.026906711626052855
1746483196537673500,6.051673583984375,-0.013570260190963744,0.005676282937591895,-0.02686623348519206
1746483196547670300,6.061670166015625,-0.017300094369053838,0.006773613187624141,-0.029063012877106664
1746483196557666300,6.071666259765625,-0.00009761515557765961,0.004771095992485061,-0.019659224715828896
1746483196567663400,6.081663330078125,-0.015633622461557386,0.006438335084961727,-0.02432999300584197
1746483196577660400,6.091660400390625,-0.021297639572620392,-0.004804441139660776,-0.0327560221761465
1746483196587656200,6.10165625,-0.017853636598587037,-0.007360774558968841,-0.024065789111703633
1746483196597653500,6.111653564453125,0.00009293898046016692,-0.018366143564833327,-0.014090923064202069
1746483196607650300,6.121650390625,-0.01364800160229206,-0.00560397575320676,-0.01472132992222905
1746483196617646300,6.131646240234375,-0.024998832178115844,-0.007201839403901249,-0.02061126474365592
1746483196627643400,6.141643310546875,-0.011519172880053519,-0.01090298634362407,-0.014723521879315376
1746483196637640400,6.151640380859375,-0.004615384840965271,0.0011228574169334024,-0.027941607631742953
1746483196647636500,6.161636474609375,-0.012380173623561858,-0.002379479015059769,-0.024572277329117057
1746483196657633300,6.17163330078125,-0.01896715079843998,0.002612438387563452,-0.024278847340494392
1746483196667634000,6.181634033203125,-0.012956512206792831,-0.006562902179546654,-0.026855565960705277
1746483196677630000,6.1916298828125,-0.00201426243185997,-0.005705956556648016,-0.019446166487038133
1746483196687626800,6.201626708984375,-0.02609831785261631,-0.005586074770335108,-0.028086276799440382
1746483196697624000,6.2116240234375,-0.0011123451560735701,0.0050017172774299975,-0.032589287307113406
1746483196707619800,6.221619873046875,-0.011145663392543793,-0.005555469569517299,-0.018265432269871235
1746483196717617000,6.231616943359375,-0.010088263294100761,0.0021004063453525304,-0.033631343705952166
1746483196727614000,6.241614013671875,-0.020095278045535087,0.0038683293333277103,-0.02097615253329277
1746483196737610000,6.25160986328125,-0.011843582528829574,0.009561225479003042,-0.015491291381418705
1746483196747607000,6.26160693359375,-0.01585749434530735,-0.005358622690010815,-0.03841740893870592
1746483196757603800,6.271603759765625,-0.010470540609955788,-0.003232917506620288,-0.0313869257800281
1746483196767599900,6.281599853515625,0.0024146599262952805,-0.002624311488447711,-0.021733839032799004
1746483196777597000,6.291596923828125,-0.025488076999783515,-0.003418494073441252,-0.03389832407906651
1746483196787593700,6.30159375,-0.07523205885589122,0.10624969466580077,-0.07491554025262594
1746483196797590000,6.311590087890625,0.020294015488028526,0.17358436960168183,-0.12741656573191285
1746483196807586800,6.3215869140625,0.23780045585930346,0.06143653854168951,-0.2336550266176462
1746483196817583900,6.331583984375,0.19101240119934082,0.022644884896534493,-0.12374708343893288
1746483196827580000,6.341579833984375,-0.10561316859424114,-0.1351607866505161,0.10254238284677267
1746483196837577000,6.351576904296875,-0.33138065683245654,-0.20814521271008998,0.11255407377332448
1746483196847574000,6.361573974609375,-0.20671908889710902,-0.13240040029278025,0.09358633845299481
1746483196857570000,6.371570068359375,0.019122049099206923,-0.0756187931511551,0.13551687007918953
1746483196867566800,6.38156689453125,0.07902034522294998,-0.14118377326708287,0.16867343588024378
1746483196877564000,6.39156396484375,0.021824293795228003,-0.05128237040452659,0.1538775794170797
1746483196887561000,6.40156103515625,-0.05259060345888138,0.13206177032240665,-0.06085574297904968
