time,seconds_elapsed,z,y,x
1746481606461075000,0.721074951171875,0.21043021837472914,-0.14740268431454895,-0.19128624970465896
1746481606471070700,0.73107080078125,0.23948797055482862,-0.13094342468380926,-0.22533954514972865
1746481606481067800,0.74106787109375,0.17858605034649372,-0.059629416054487225,-0.23292101325467227
1746481606491063800,0.751063720703125,0.10019289711117745,-0.0009489712879061699,-0.23729484442472457
1746481606501060600,0.761060546875,0.07219312955141068,-0.005123480493575334,-0.21881197001188993
1746481606511056600,0.771056640625,0.04329027567207813,-0.021227789206802843,-0.19319201026074587
1746481606521053700,0.7810537109375,0.03583352992534637,-0.027717151226103305,-0.1472670752361417
1746481606531049700,0.7910498046875,0.0470645335137844,-0.055083150926977395,-0.07911861796565353
1746481606541045800,0.801045654296875,0.051750645503401756,-0.10452844209745525,0.011212518083676695
1746481606551042800,0.811042724609375,-0.03571837911307812,-0.11861746546551584,0.04169131604284048
1746481606561038800,0.821038818359375,-0.1426110661238432,-0.11652619227468967,-0.03356142027489841
1746481606571036000,0.831035888671875,-0.1418774911522865,-0.0784675336457789,-0.07708228983245789
1746481606581031700,0.84103173828125,-0.13549392759501933,-0.035346477060765026,-0.07623860554993152
1746481606591028700,0.85102880859375,-0.11620938141047954,-0.039708617793023586,-0.038113530621305104
1746481606601024800,0.861024658203125,-0.11269231320023536,-0.06122676824852824,0.010851356621086597
1746481606611021800,0.871021728515625,-0.07485621128082275,-0.07304638537988066,0.05187748675346374
1746481606621017600,0.881017578125,0.0018985270977020263,-0.09299480230063199,0.09838803964629769
1746481606631014000,0.891013916015625,0.11469839232563972,-0.07421513689830898,0.12800108762159942
1746481606641010700,0.9010107421875,0.2090378872334957,-0.051643385736644266,0.11051489609591662
1746481606651006700,0.9110068359375,0.24595804335176943,-0.009747779293358325,0.08310995262414217
1746481606661003800,0.921003662109375,0.15216858354210852,-0.006472118623554706,0.04164762303158641
1746481606670999800,0.930999755859375,0.07517828284204006,-0.020676585064828393,0.022047946483269333
1746481606680996600,0.94099658203125,-0.03818681505322456,-0.06177782626003027,0.054746685514226553
1746481606690993000,0.950992919921875,0.06142214469015598,-0.058048138212412594,0.12754808315709232
1746481606700989700,0.96098974609375,0.14288812949955462,-0.1384182906091213,0.11225406791344285
1746481606710985700,0.97098583984375,0.08462824823260306,-0.12779592043831944,0.19015125432536004
1746481606720981800,0.980981689453125,0.11993337036967276,-0.07394567230716348,0.1017001598689705
1746481606730978800,0.990978759765625,0.12309388022720813,-0.0615147914096713,0.09268865896090865
1746481606740974600,1.000974609375,0.1349503222376108,-0.07468611541092396,0.1270974898453802
1746481606750972400,1.010972412109375,0.1417734462559223,-0.1066539098188281,0.14610153858810662
1746481606760968400,1.020968505859375,0.08619652046263217,-0.09739712891280651,0.14040822231732308
1746481606770965200,1.03096533203125,-0.08310673775374888,-0.029168957469612358,0.05943871578797698
1746481606780961500,1.04096142578125,-0.25861411130726336,0.052855391874909396,-0.020059110753610727
1746481606790958300,1.050958251953125,-0.29584464854896064,0.05771320716962218,-0.11488836193978785
1746481606800954400,1.060954345703125,-0.20659750834405421,0.009993278487026691,-0.18484379556700586
1746481606810950400,1.070950439453125,-0.09359422949850559,-0.0063848787315189835,-0.17263189118243752
1746481606820947500,1.080947509765625,0.004103343665599822,-0.015528700782358646,-0.04564925988838076
1746481606830943200,1.090943115234375,0.0053010290175676345,-0.0846696031562984,0.07883644002340734
1746481606840940500,1.1009404296875,-0.044077626657485956,-0.13551701620966194,0.16502967255041
1746481606850936300,1.110936279296875,-0.18304069166779516,-0.10460983677059411,0.18983100939504802
1746481606860933400,1.120933349609375,-0.24362755457758903,-0.06283668766319751,0.14014401842318475
1746481606870929400,1.130929443359375,-0.12847089709043502,-0.05304930701181292,0.09647935648076236
1746481606880926500,1.140926513671875,0.029480946028232573,-0.10690262388288974,0.09848419349715114
1746481606890922200,1.150922119140625,0.1330120476514101,-0.11797098425552248,0.0815595083117485
1746481606900918500,1.16091845703125,0.21516893733441828,-0.08119593569636345,0.06942439549043775
1746481606910915300,1.170915283203125,0.28839550158679483,-0.05374605710431933,0.06639043462201953
1746481606920911400,1.180911376953125,0.31062896070480345,-0.04150792229995131,0.04054631072618067
1746481606930908400,1.190908447265625,0.2153641676455736,-0.02887538135051727,0.03929777196981012
1746481606940904400,1.200904541015625,0.011525018098950386,-0.03438493855223059,0.06498349043354391
1746481606950901500,1.210901611328125,-0.17045827347040177,-0.08528101305291057,-0.00790346660092473
1746481606960897500,1.2208974609375,-0.23045886092483997,-0.13629194610491394,-0.03783091428764164
1746481606970894300,1.230894287109375,-0.2646475462526083,-0.15626929685920476,-0.03025726416297257
1746481606980890600,1.240890625,-0.22945582136213777,-0.14537278592213987,-0.04094473545923829
1746481606990886400,1.250886474609375,-0.16354747116863727,-0.14916940172612667,-0.07789075667113066
1746481607000883500,1.260883544921875,-0.08622223942577839,-0.09567615033909678,-0.09529584578461944
1746481607010879500,1.27087939453125,0.006615618747472763,-0.055958034065365786,-0.08446838149577379
1746481607020876300,1.280876220703125,0.0894154825091362,-0.025061668281257152,-0.06156359898746013
1746481607030872300,1.290872314453125,0.1364671565413475,0.008019055804610252,-0.04954604813121259
1746481607040869400,1.300869384765625,0.16937047823369503,0.005765285528451204,-0.03665134911425411
1746481607050865400,1.310865478515625,0.1720768145829439,-0.028372546394914388,-0.00732018682025373
1746481607060861400,1.320861328125,0.10373802237212658,-0.08185103860422968,0.006969181425496935
1746481607070858500,1.3308583984375,-0.015111644414067267,-0.06928834802061319,-0.03908135274015367
1746481607080854500,1.3408544921875,-0.08175356957912444,-0.04676043600067496,-0.03476341647580266
1746481607090851300,1.350851318359375,-0.11656009454429149,0.00027209493964910507,0.004809811434522271
1746481607100847400,1.360847412109375,-0.10793372049629688,-0.033344781849533316,0.1549295726880431
1746481607110844400,1.370844482421875,-0.06621639322936534,-0.08621464064121245,0.17972338381335137
1746481607120840200,1.380840087890625,0.04301671942770481,-0.07423048059791326,0.040483620753511786
1746481607130836500,1.39083642578125,0.11368249328136443,-0.07381371649056673,0.14446524262316524
1746481607140833300,1.400833251953125,0.17523323278725148,0.02724368849545717,0.10714425061903893
1746481607150829300,1.410829345703125,0.17166180404126644,0.08451631229072809,0.02274381979294121
1746481607160826400,1.420826416015625,0.18937515538632868,0.004143529545515776,-0.022775968496873973
1746481607170822400,1.430822509765625,0.1751397092849016,-0.048391690464317794,-0.03402662663385272
1746481607180819500,1.4408193359375,0.19556933385133743,-0.05778466497063636,0.021399492511898276
1746481607190815500,1.4508154296875,0.2649550047665834,-0.04974792737886309,0.09033004007078707
1746481607200812300,1.460812255859375,0.34222704501748086,-0.07306245973184704,0.16911569975502788
1746481607210808600,1.47080859375,0.36276071448028085,-0.09727847096920013,0.1495765942875296
1746481607220804400,1.480804443359375,0.2928086418539286,-0.1220068156428635,0.1380281222477555
1746481607230801400,1.490801513671875,0.10719897648096084,-0.12410612600967287,0.1112803275104612
1746481607240797200,1.500797119140625,-0.0201338564902544,-0.11653232975453137,0.13054909160397946
1746481607250794500,1.51079443359375,-0.044347675770521164,-0.11413637452870606,0.1611065808225423
1746481607260790300,1.520790283203125,0.012160393393039703,-0.09372779275029897,0.147638027440384
1746481607270787600,1.53078759765625,0.14500409874022005,-0.07767273000627756,0.15392419503778218
1746481607280783400,1.540783447265625,0.2556412329763174,-0.07713438534587622,0.13105543369092046
1746481607290779400,1.550779296875,0.2665256150841713,-0.06289294789507985,0.12233590146675705
1746481607300776400,1.5607763671875,0.18125614633858203,-0.041883477614074946,0.0942835269369185
1746481607310772500,1.5707724609375,0.09226619576513767,-0.01567819225564599,0.06427300407662988
1746481607320769300,1.580769287109375,-0.011070260068774223,-0.045538346859812735,0.08245835684761404
1746481607330765600,1.590765625,-0.16637889520227908,-0.1240712008267641,0.14350187748372553
1746481607340762400,1.600762451171875,-0.2918950341403484,-0.20278569497093557,0.168882840847224
1746481607350758400,1.61075830078125,-0.3459919505089521,-0.23251667023748157,0.18417583317756653
1746481607360754400,1.62075439453125,-0.34927170283198355,-0.23417963501363992,0.21587876610420642
1746481607370751500,1.63075146484375,-0.350175373673439,-0.1970977124623954,0.21366715446934104
1746481607380747300,1.640747314453125,-0.3466553828537464,-0.17200287256389854,0.16786445758491753
1746481607390744300,1.650744384765625,-0.3139356010347605,-0.15334873323738574,0.1000116953253746
1746481607400740400,1.660740234375,-0.22323592393398284,-0.14874460044279694,0.06060790569782257
1746481607410737400,1.6707373046875,-0.13011165003478525,-0.17752631216049194,0.018341310517676172
1746481607420733400,1.6807333984375,-0.05997369944751262,-0.1804566665239632,-0.035150954488664864
1746481607430729500,1.6907294921875,0.021025836893916128,-0.14623349440470337,-0.08467906510438769
1746481607440726500,1.7007265625,0.0839735837161541,-0.11095029183849692,-0.10593812623228877
1746481607450722600,1.71072265625,0.14480711486339568,-0.09448051081374287,-0.08244798158407211
1746481607460719400,1.72071923828125,0.1796545563608408,-0.08754998089820146,-0.04500508023332804
1746481607470715400,1.73071533203125,0.20708441507816314,-0.10101064323484897,-0.002280840946175158
1746481607480712400,1.74071240234375,0.2202536932528019,-0.1529101956896484,0.052086380263790484
1746481607490708200,1.750708251953125,0.22482290086448192,-0.21182108821123838,0.0973937313793227
1746481607500705500,1.76070556640625,0.12042378423511982,-0.26700404625087976,0.13747735649719833
1746481607510701300,1.770701416015625,-0.11619769097268581,-0.29346491380557416,0.2132707755628973
1746481607520697300,1.780697265625,-0.2957639845281839,-0.3301131211146712,0.23400785864330828
1746481607530694400,1.7906943359375,-0.2938216182887554,-0.3446061952389777,0.21214849353469906
1746481607540690400,1.8006904296875,-0.1712532232403755,-0.3731054367534816,0.18307948930822313
1746481607550687200,1.810687255859375,-0.022846038058400152,-0.38528424258604643,0.09161686501093208
1746481607560683500,1.82068359375,0.0969920552432537,-0.4288010204903781,-0.023853242339566347
1746481607570679600,1.830679443359375,0.21972762355208394,-0.5185273225143552,-0.06907024829052388
1746481607580676400,1.84067626953125,0.3279541895151138,-0.5887501749061048,0.06506853836849331
1746481607590672400,1.85067236328125,0.3027957828611135,-0.6296639307051897,0.26144422016665336
1746481607600669400,1.86066943359375,0.2590133397579193,-0.661426265668869,0.35654439724870024
1746481607610665200,1.870665283203125,0.3322206147879362,-0.7421328104130923,0.3947397609345615
1746481607620662500,1.88066259765625,0.4026169240504503,-0.8046165929853916,0.3274382758822292
1746481607630658300,1.890658203125,0.4693967963814735,-0.8018301771372556,0.23746194461993872
1746481607640654300,1.900654296875,0.3881950154662132,-0.6843366011351346,0.4045372976537794
1746481607650651400,1.9106513671875,0.18235154035985468,-0.624334113984555,0.5182050317574292
1746481607660647400,1.9206474609375,-0.10901917764544486,-0.8548618023619056,0.3258604321062565
1746481607670644200,1.930644287109375,-0.33803894567787646,-1.1452518387667834,0.3503257419295609
1746481607680640500,1.940640625,-0.15147943223416804,-1.5092203216016291,0.5400486147750169
1746481607690637300,1.95063720703125,0.12796470113396644,-1.988876792321354,0.9104185621500015
1746481607700633300,1.96063330078125,0.6266869607210159,-2.4114950325235722,1.2589543519228696
1746481607710629400,1.97062939453125,1.3350170163840054,-2.854341383370757,1.4418588499903677
1746481607720626400,1.98062646484375,2.4115333187073467,-3.2858544392988085,1.1655785874806344
1746481607730622200,1.990622314453125,3.884470028528571,-3.347083399504423,0.6622595016226172
1746481607740619500,2.00061962890625,6.80283292543292,-2.679156958161294,0.39221944867670533
1746481607750615800,2.01061572265625,10.096198763275146,-1.0878336690209804,0.5264471557281911
1746481607760612600,2.020612548828125,10.15023664293289,0.8922920999594032,0.8151939549706876
1746481607770608600,2.030608642578125,10.621212817460298,1.435613671990484,-0.0010759586684405804
1746481607780605000,2.04060498046875,11.264777263224124,1.9621945371009408,-1.089095651780814
1746481607790601700,2.050601806640625,11.216731901979445,2.329811897832155,-1.5831646787345408
1746481607800597800,2.06059765625,10.070590859287977,2.2268667794033883,-1.5967868152432143
1746481607810594800,2.0705947265625,9.331067208459972,1.9524480729818343,-1.4465117903627454
1746481607820590800,2.0805908203125,9.462794476997852,1.8685519384160636,-1.2857112798146904
1746481607830588000,2.090587890625,9.470831068459153,1.7711966028183697,-1.1236082353007049
1746481607840583700,2.100583740234375,9.471941075527667,1.6753120704255997,-0.9581509119227528
1746481607850579700,2.110579833984375,9.479294945421815,1.5926384633921087,-0.7995889740817248
1746481607860576800,2.12057666015625,9.490011569747328,1.4894427312031386,-0.6179848180230707
1746481607870572800,2.13057275390625,9.485949142614006,1.3991231394611299,-0.4695324419924989
1746481607880569600,2.140569580078125,9.475792490258812,1.3242191435158253,-0.305990633379668
1746481607890566000,2.15056591796875,9.477210540363192,1.2220503432217984,-0.14776623866362495
1746481607900562700,2.160562744140625,9.483465509104729,1.1274442332670092,0.02088704947773367
1746481607910558700,2.170558837890625,9.462980354958772,1.037934788864106,0.18095137297203764
1746481607920554800,2.1805546875,9.438685871657729,0.9368537838067859,0.3645687502829358
1746481607930551800,2.1905517578125,9.42978827945292,0.844557339033857,0.5166678122527897
1746481607940547600,2.200547607421875,9.387872799265384,0.76512563653104,0.6842951731462031
1746481607950545000,2.210544921875,9.381424353778362,0.6778888132352382,0.8520893419738859
1746481607960540700,2.220540771484375,9.327033422899246,0.5951327520826831,1.0069732488892973
1746481607970537700,2.230537841796875,9.292472981649636,0.4901393958872184,1.1672225552953779
1746481607980533800,2.24053369140625,9.272946443402766,0.40623431083001194,1.3259919984072446
1746481607990529800,2.25052978515625,9.229968886941672,0.3198033240243792,1.4818579751625656
1746481608000526600,2.260526611328125,9.183339822235704,0.23424152126871048,1.643307012747228
1746481608010523000,2.27052294921875,9.133223499935864,0.15744990321220828,1.779665155956149
1746481608020519700,2.280519775390625,9.092510965797304,0.07823985323659144,1.9367162508428095
1746481608030515700,2.290515625,9.028806847649813,-0.018057981797959654,2.0722022873923183
1746481608040512800,2.3005126953125,8.957384702470899,-0.08857019079141318,2.201990404561162
1746481608050508800,2.3105087890625,8.916195782992244,-0.17945567278787491,2.3363573739528656
1746481608060504600,2.320504638671875,8.853678828802705,-0.2557999306693673,2.458857379940152
1746481608070502000,2.330501953125,8.808297133809328,-0.3283414717996493,2.6023855609089135
1746481608080497700,2.34049755859375,8.737989671874045,-0.40353951878808436,2.7286089713335038
1746481608090495000,2.350494873046875,8.661285786899924,-0.4889676852267235,2.8350524532720445
1746481608100490800,2.36049072265625,8.597634860244392,-0.5509897685714066,2.9533105839058753
1746481608110487800,2.37048779296875,8.524404204338788,-0.6284488558270037,3.0682810711711643
1746481608120483800,2.38048388671875,8.445133683747052,-0.6989928299318998,3.1616879614040254
1746481608130479900,2.39047998046875,8.255369821304082,-0.7736484771393239,3.2612098273858425
1746481608140476700,2.4004765625,6.330043564003706,-0.7735038079716264,3.161348938708007
1746481608150473000,2.410472900390625,-37.7398101213932,2.9210905683025716,-8.478111239719391
1746481608160469800,2.4204697265625,-99.11963075056076,14.894444263166188,-27.551860126137733
1746481608170465800,2.4304658203125,-108.96956342744826,17.27609390026331,-25.99637489696741
1746481608180462800,2.440462890625,-96.22641573891639,15.54928296713829,-8.68092922952473
1746481608190459000,2.450458984375,-68.40948662624359,13.977639214849471,3.195935683442652
1746481608200454700,2.46045458984375,-41.05797722301483,9.533490061467885,3.2432319798856972
1746481608210452000,2.470451904296875,-20.373220542168617,5.789056864660978,1.5118489165395497
1746481608220447700,2.48044775390625,-5.7348272618234155,3.275144244714081,0.5639667390443385
1746481608230444500,2.490444580078125,3.155513948944211,1.1297628124076873,0.4508892259187996
1746481608240440800,2.50044091796875,7.568506916561723,-0.28615356787890195,0.9097704735048114
1746481608250436900,2.510436767578125,9.677128132551909,-0.8233668861627578,1.2262919993795454
1746481608260433700,2.52043359375,10.151424391412734,-0.9132829386051744,1.455457021101564
1746481608270430000,2.530429931640625,9.870905322289467,-0.8497019353806972,1.3442426714994014
1746481608280426800,2.5404267578125,9.501903083071111,-1.1986346155166625,1.7389667964734137
1746481608290422800,2.5504228515625,9.140978351846337,-1.4180046578027308,2.1159502437040207
1746481608300419800,2.560419921875,8.948062747374177,-1.5029120152376592,2.436084114857018
1746481608310416000,2.570415771484375,8.640058289954066,-1.6037980091795325,2.6346707507029175
1746481608320411600,2.58041162109375,8.163433295884728,-1.7196359269291162,2.807509489569068
1746481608330408700,2.59040869140625,7.552065484848618,-1.8403752068541943,2.892563854259252
1746481608340404700,2.60040478515625,6.814615717685222,-1.9194839610129593,2.907743887734413
1746481608350401800,2.61040185546875,6.015049978348612,-1.9745641893304884,2.7680688750624656
1746481608360397800,2.620397705078125,5.220022466963529,-1.9358010356940327,2.430594869790971
1746481608370394600,2.63039453125,4.324637807816266,-1.7728947850383816,1.8473957531407474
1746481608380391000,2.640390869140625,3.059382309922576,-1.3082467906191944,1.1382394757866858
1746481608390387000,2.650386962890625,0.5671919847011566,-0.7419221633370965,-0.3073836951732635
1746481608400383700,2.6603837890625,-1.7598112854510544,-1.0514799146138132,-2.467669047427177
1746481608410379800,2.6703798828125,-3.064908379867673,-2.0690422159262,-2.808103948330879
1746481608420376800,2.680376953125,-4.21812096838057,-3.22272987460494,-2.565768771651387
1746481608430372600,2.69037255859375,-5.765245780962705,-3.348965559989214,-2.1931547716766593
1746481608440370000,2.700369873046875,-7.376634099140763,-2.0309885257333518,-0.9038320964317769
1746481608450365700,2.71036572265625,-7.908029963317513,-0.1549152519017458,1.0033369382135569
1746481608460361700,2.72036181640625,-6.544583555784821,1.2267992182493208,2.1861165436029433
1746481608470358800,2.73035888671875,-3.8361931966155765,1.8072287240557372,2.0664049992904068
1746481608480354800,2.740354736328125,-1.0710182894289493,1.698349831663817,1.1086420637719332
1746481608490351600,2.7503515625,0.9631441901654004,1.299391430120915,0.19390213129147887
1746481608500348000,2.760347900390625,2.1995950338572263,0.8513321669310331,-0.21637100660055875
1746481608510344700,2.7703447265625,2.735316360017657,0.3817455105332657,-0.2279411790154874
1746481608520340700,2.7803408203125,2.6869021654605865,-0.11881711622346192,-0.14949892594143746
1746481608530336800,2.790336669921875,2.1978391301006077,-0.5705019494993612,-0.20357611469626424
1746481608540333800,2.800333740234375,1.4572101483792066,-0.7927693571947515,-0.4069828641749918
1746481608550329600,2.81032958984375,0.5624491740882397,-0.6373506858155131,-0.5122898894295096
1746481608560327000,2.820326904296875,-0.18593290597796439,-0.27591917411237954,-0.3181139096327126
1746481608570322700,2.83032275390625,-0.6983084278643131,0.04263203095905482,-0.07743585251048207
1746481608580320000,2.840320068359375,-0.9069500092566013,0.18112130444515495,0.17363047376573085
1746481608590315800,2.850315673828125,-0.768445793929696,0.20438458153493702,0.3844273334957659
1746481608600311800,2.860311767578125,-0.2910088989555836,0.09448800000045449,0.35371786858588455
1746481608610308900,2.870308837890625,0.10649345856010914,-0.05210077411532402,0.07203267829269171
1746481608620305000,2.880304931640625,0.247031225541234,-0.08722626536916941,-0.11843524076640605
1746481608630301700,2.8903017578125,0.21997312274575231,-0.024210348681546746,-0.21364099711477755
1746481608640298000,2.900298095703125,0.06810732154250144,0.0015421879407018421,-0.1955139504022896
1746481608650294800,2.910294677734375,-0.08397825989127158,-0.02564494806192815,-0.08492883861437439
1746481608660290800,2.920290771484375,-0.13553776673674583,-0.056260597208514805,0.015521394258737563
1746481608670286800,2.930286865234375,-0.07854688249230385,-0.05597341429758817,0.054260582497715946
1746481608680284000,2.940283935546875,-0.003457446977496147,-0.040557087848521765,0.04576806396245956
1746481608690279700,2.95027978515625,0.028370354437828062,-0.009352459832839667,0.020297084227949378
1746481608700276700,2.96027685546875,-0.0007394201904535293,-0.010105104831047356,-0.03948284621313214
1746481608710272800,2.970272705078125,-0.04477905292510986,-0.007217420565523207,-0.08166019220724702
1746481608720269600,2.98026953125,-0.04700198967158794,-0.022603680669888854,-0.06832680951207876
1746481608730265900,2.990265869140625,-0.020573416951298714,-0.037851445619016884,-0.04962181678116321
1746481608740262000,3.000261962890625,-0.014528291568160056,-0.024051906716823578,0.011505582746118306
1746481608750258000,3.0102578125,-0.024413141244649886,-0.016033910358138382,0.031644699933379886
1746481608760254000,3.02025390625,-0.03641863633692265,-0.031873211459629236,0.0026087211936712262
1746481608770250800,3.030250732421875,-0.033442835396528245,-0.03864559167139232,-0.03973725936561823
1746481608780247000,3.0402470703125,-0.010534838017821312,-0.033032610627822576,-0.06253858149945736
1746481608790243800,3.050243896484375,-0.021887422159314156,-0.02607340260706842,-0.05955693534016609
1746481608800239900,3.060239990234375,-0.02859305727779865,-0.028283918263390658,-0.02351253914311528
1746481608810236000,3.07023583984375,-0.01586743121743202,-0.019623861141502857,-0.006447130312770605
1746481608820233000,3.08023291015625,-0.019014497071504592,-0.021718787594139574,0.006960486662387848
1746481608830228700,3.090228759765625,-0.030381109738349912,-0.032429895494319495,-0.011162468396872282
1746481608840226000,3.10022607421875,-0.017502923464775083,-0.03227605663947761,-0.0454908544562757
1746481608850221800,3.110221923828125,-0.018098551270365713,-0.020699929407797753,-0.04772840424999594
1746481608860219000,3.120218994140625,-0.02215337961912155,-0.0204639652274549,-0.036827363268285986
1746481608870215000,3.13021484375,-0.027547347617149352,-0.009552183656021953,-0.020567133340984582
1746481608880211000,3.1402109375,-0.014670914909243583,-0.017804755955561996,-0.025360797358304262
1746481608890208000,3.1502080078125,-0.021995558708906172,-0.025977431419305502,-0.025481647258996962
1746481608900204000,3.1602041015625,-0.01838321343064308,-0.028251879157312212,-0.03344721931070089
1746481608910200800,3.170200927734375,-0.015495090773701667,-0.028465887234173714,-0.033236645299941296
1746481608920197000,3.180197021484375,-0.055426119145751,-0.043990971287339926,0.0007161854453384876
1746481608930194000,3.19019384765625,-0.024683190357685087,-0.07890829968322068,0.04885112466961145
1746481608940190000,3.20018994140625,0.09345452876687049,-0.12757570181638,0.014806377857178449
1746481608950186000,3.21018603515625,0.22944062379300592,-0.1511477160617709,-0.14344240238144992
1746481608960182800,3.220182861328125,0.36356326303482056,-0.11958547024745493,-0.25560002418309447
1746481608970178800,3.2301787109375,0.4334527918189764,-0.26475385617129504,-0.10385375770628452
1746481608980176000,3.24017578125,0.4618564640045166,-0.3752818309444934,-0.005114566534757614
1746481608990172000,3.250171875,0.4481114317685365,-0.26563290402814743,-0.1532553558655083
1746481609000168700,3.260168701171875,0.3517933302640915,-0.06453026677332818,-0.354548401125893
1746481609010165000,3.2701650390625,0.18551555734872818,0.12311484995000063,-0.44429253106750544
1746481609020161000,3.2801611328125,-0.024601941815018652,0.19677476411834358,-0.3417453259151429
1746481609030157800,3.29015771484375,-0.27585926061868665,0.2103942337458953,-0.119899833426252
1746481609040153900,3.30015380859375,-0.5051151754945516,0.1268776365496218,0.0968685019288212
1746481609050151000,3.31015087890625,-0.510409190249443,-0.07905607412345707,0.31090923895090816
1746481609060146700,3.320146728515625,-0.22487959948778152,-0.10857888653203844,0.5716037732614204
1746481609070144000,3.33014404296875,0.207286075130105,0.049340716551151124,0.7867698245190083
1746481609080139800,3.340139892578125,0.6428448993176221,0.3676999975133687,0.8925221093229949
1746481609090135800,3.3501357421875,0.7752677489042281,0.7591106870904565,0.8839845826022327
1746481609100132900,3.3601328125,0.5750841992557049,0.9194203453816473,0.7297924573432654
1746481609110129000,3.37012890625,0.35173253998756404,0.7191201836161315,0.464793101978302
1746481609120126000,3.3801259765625,0.31050562658607955,0.22038860821146516,0.28178039429597557
1746481609130122000,3.3901220703125,0.011796236255764961,-0.36636498604994266,0.43706908261999483
1746481609140118800,3.400118896484375,-0.49354105755686756,-0.77786835985668,0.47760326451696455
1746481609150115000,3.410114990234375,-0.8024982856571674,-0.8712366716448217,0.2906763060003519
1746481609160110800,3.42011083984375,-0.8449959496468306,-0.6114023708928376,-0.10021320924684404
1746481609170108000,3.43010791015625,-0.638195612207055,-0.2100661708353087,0.043349604643881316
1746481609180104000,3.44010400390625,-0.54488019964993,-0.07103742931080051,0.4281637455001473
1746481609190101000,3.45010107421875,-0.9217162012338638,0.09749949330873788,0.07730155860632658
1746481609200096800,3.4600966796875,-1.3727239389657973,0.3452555259931832,-0.8103798326872289
1746481609210094000,3.470093994140625,-1.4515841251909731,0.2540384191558696,-1.5000306145824491
1746481609220089900,3.48008984375,-1.0453829129129648,-0.017752514311671255,-1.560060135870427
1746481609230086000,3.4900859375,-0.7056582061052322,-0.11222926226574927,-0.8113239816695451
1746481609240083000,3.5000830078125,-0.6536375114887952,0.10954944859724491,0.05365151068866253
1746481609250079000,3.510078857421875,-0.6816127291291951,0.20124752561822531,0.22947876384630797
1746481609260075800,3.52007568359375,-0.6733855835318565,-0.15277473274171352,-0.26475115275755523
1746481609270072000,3.530072021484375,-0.5943249062985182,-0.5695827522952109,-0.5379373947747051
1746481609280068900,3.54006884765625,-0.45124388457536696,-0.8842254056207836,-0.48055444247275586
1746481609290065000,3.55006494140625,-0.18185761936306952,-0.9400591557193547,-0.37443902344480157
1746481609300061000,3.56006103515625,0.005165419939160347,-0.7302298258472234,-0.29075901584774255
1746481609310058000,3.57005810546875,-0.07320552146434783,-0.5033405670374631,-0.26615137494429947
1746481609320053800,3.5800537109375,-0.6494780537217855,-0.34932007201835513,-0.3605482260625809
1746481609330051000,3.590051025390625,-1.3290285896241665,-0.3245237766750157,0.33799788301512596
1746481609340046800,3.600046875,-1.9377555307626724,-0.6688336193159222,0.7136600185140967
1746481609350044000,3.6100439453125,-2.4466128153949973,-1.163911823312193,0.41566885945573445
1746481609360040000,3.6200400390625,-4.0524785707592965,-1.2569148089192808,-0.39825211643707004
1746481609370036700,3.63003662109375,-4.595777054175734,-0.4087565958492458,-0.7095156121857464
1746481609380033000,3.640032958984375,-3.7503397905021902,0.43917540724948045,-0.8049018396675586
1746481609390029000,3.650029052734375,-2.904201685082912,0.8154182652458548,-0.5006613744234666
1746481609400025900,3.66002587890625,-2.370287700605392,0.9794783621117472,-0.04188216243982315
1746481609410022000,3.67002197265625,-1.9092039745390414,1.0550896295435725,0.3126031103219837
1746481609420019000,3.68001904296875,-1.93634215683341,0.8271285767838359,0.6646360945608466
1746481609430015000,3.690014892578125,-2.321247483104467,0.6102575117066502,0.7393696293100714
1746481609440012000,3.700011962890625,-2.585672326517105,0.609054127266258,0.5757164327446371
1746481609450007800,3.7100078125,-2.5945547211527824,0.6261541690185666,0.27532858780808744
1746481609460003800,3.72000390625,-2.1528315291166304,0.6290593889407813,-0.11132358213029801
1746481609470001000,3.7300009765625,-1.2149129656225441,0.8244154453676193,-0.4407645761370659
1746481609479997000,3.739996826171875,-0.07691548189818859,1.19142161539793,-0.7076229303069412
1746481609489993700,3.74999365234375,1.0300199240863324,1.5246752264954149,-0.789537754862383
1746481609499990000,3.759989990234375,2.2684067042768,1.699804414386302,-0.7076323557224125
1746481609509986800,3.76998681640625,3.4688299567759033,1.69140205835253,-0.7041278547327965
1746481609519982800,3.77998291015625,4.34964190069139,1.5364872448422013,-0.7266657766900956
1746481609529979000,3.789978759765625,4.9835827780634165,1.14594588544555,-0.7588933910779655
1746481609539976000,3.799975830078125,5.486899964225292,0.670711249756068,-0.7791611030809581
1746481609549971700,3.8099716796875,5.642866186484694,0.423842229039222,-0.5917259758464992
1746481609559969000,3.819968994140625,5.232732895454764,0.46198184394985436,-0.47688061279822136
1746481609569964800,3.82996484375,4.6942035261362784,0.5404438246376813,-0.35201986902896315
1746481609579962000,3.839962158203125,4.208848113122582,0.5111586934424937,-0.06023264264464378
1746481609589958000,3.8499580078125,3.5813889989852905,0.3556732404373586,0.13456928703077137
1746481609599954000,3.859953857421875,2.942893527048826,0.3061614599019289,0.18986911291573197
1746481609609951000,3.869950927734375,2.5179566346406936,0.21012495181784033,0.024016725805588064
1746481609619947000,3.879947021484375,2.3982734396398064,-0.04610840183272957,-0.10010543802343308
1746481609629943800,3.88994384765625,2.4576556029349566,-0.33712767605185506,-0.1284201167512685
1746481609639939800,3.89993994140625,2.4774253022879362,-0.548462734311819,-0.19022234680019318
1746481609649937000,3.90993701171875,1.8858084859043358,-0.460708755274117,-0.22971198808029292
1746481609659933000,3.919932861328125,1.1333131253004074,-0.006751373956352472,-0.202927587659657
1746481609669928700,3.9299287109375,0.3889361892223358,0.46270767400637264,-0.037481443262845276
1746481609679926000,3.939926025390625,-0.21993629786670207,0.4311442956808954,0.0106670860953629
1746481609689921800,3.949921875,-0.3187830410659313,0.20076514892876146,-0.1594283454120159
1746481609699919000,3.959919189453125,-0.12096972768008708,0.09935849211364985,-0.35958179218322034
1746481609709915000,3.969914794921875,-0.310165434846282,0.21800593259232118,-0.5446919836014509
1746481609719912000,3.979911865234375,-0.9834364520877599,0.755608085796982,-0.32711598512530327
1746481609729908000,3.989907958984375,-2.56156722830832,1.4151269104093311,0.18794497645273803
1746481609739904000,3.999904052734375,-4.270697543314099,1.2946886592574416,0.6289835472255945
1746481609749901000,4.009901123046875,-5.566992907115817,0.46048641776032745,0.5737263549059629
1746481609759897000,4.01989697265625,-6.336288595873117,-0.36731819512154906,-0.18280337578058242
1746481609769894100,4.02989404296875,-6.459014811831713,-0.8067961289815604,-0.8460165248662233
1746481609779890200,4.03989013671875,-5.95671703184545,-0.7468073780953883,-1.1014163503021002
1746481609789887000,4.049886962890625,-5.059350258970261,-0.4647179909154773,-1.094554940100014
1746481609799883000,4.059883056640625,-3.8727322444617744,-0.18921640289435163,-0.8835115582630038
1746481609809880000,4.069880126953125,-2.9013901347935196,0.004607360223069554,-0.7804235242322087
1746481609819875800,4.079875732421875,-2.300878064292669,0.018304741366952655,-0.5395926146358251
1746481609829872000,4.0898720703125,-1.548997620716691,0.008859780945070088,-0.0785986126795411
1746481609839869000,4.099868896484375,-0.6110153443366289,0.15569219109099358,0.3619818390622735
1746481609849865000,4.109864990234375,0.49741585316359993,0.40453466730527576,0.7046338314935564
1746481609859862000,4.119862060546875,1.4762357513666151,0.5648015093680471,1.0432257348790763
1746481609869858000,4.129858154296875,2.3410645287305116,0.5796727691549808,1.0738630113355814
1746481609879854800,4.139854736328125,3.3014871849775314,0.6260905291978269,0.8968022708602249
1746481609889851100,4.14985107421875,4.336775989377498,0.7703502393115311,0.6663879797294735
1746481609899847000,4.159846923828125,5.526131319895386,0.911819222728163,0.6136302030101418
1746481609909844000,4.169843994140625,6.520082151734829,1.0341947255529462,0.5326910185538232
1746481609919840000,4.179840087890625,7.205608254915475,1.0441581934235988,0.2246357077293098
1746481609929837000,4.189837158203125,7.904173872411251,0.5330907584611326,0.3749816058889031
1746481609939832800,4.199832763671875,8.860538777700066,0.5008860134921967,0.2778922642836347
1746481609949830100,4.209830078125,9.708483055758476,0.6942976578529924,-0.0589842819847865
1746481609959826000,4.219825927734375,9.760315534326434,0.4737677049420774,-0.2938545341776684
1746481609969822000,4.229822021484375,9.71364087691307,0.28568834325363857,-0.6260972511995584
1746481609979819000,4.239819091796875,9.67068962393701,0.19391029633162543,-0.9748004334285855
1746481609989815000,4.24981494140625,9.61537514847219,0.03358859597619157,-1.2987082701623438
1746481609999812000,4.25981201171875,9.55854676131308,-0.15375665645115077,-1.6050208289727568
1746481610009808100,4.26980810546875,9.479156998255847,-0.3293585033550858,-1.9129047287531196
1746481610019805000,4.279804931640625,9.26441534642279,-0.4967405111853033,-2.2138076836049554
1746481610029801200,4.28980126953125,7.773734305596351,-0.8882307688046246,-2.767387322539091
1746481610039797000,4.299796875,4.425079711252451,-1.3542799352586268,-3.3290003380641338
1746481610049794000,4.3097939453125,-4.351498926734924,-1.032453800169751,-1.5017442866325377
1746481610059790000,4.3197900390625,-14.099953927397728,-0.03800572286527604,3.6205171865418553
1746481610069787100,4.329787109375,-20.95030263724327,0.6594944208234548,6.83506112434268
1746481610079783000,4.339782958984375,-25.443279242157935,0.5292355078050867,5.718283538779616
1746481610089780000,4.349780029296875,-24.641808545982837,0.290758139064908,1.0978063431113958
1746481610099776000,4.35977587890625,-20.053844795906542,0.3738835084538907,-2.9930209552645684
1746481610109772800,4.369772705078125,-13.655904338240623,0.5634462223015725,-4.633207497903705
1746481610119769000,4.37976904296875,-7.367569918197393,0.6516231029264629,-3.924662630446255
1746481610129765000,4.38976513671875,-2.6995494655877352,0.6360290818229317,-2.3638467077724634
1746481610139762000,4.399761962890625,0.6635632776975632,0.4362180918138474,-1.0891492816641926
1746481610149758200,4.40975830078125,3.003967296692729,0.22995593463769182,-0.23929584551621227
1746481610159755000,4.419755126953125,4.396517049112916,0.07411662669358775,0.21809499911526217
1746481610169751000,4.4297509765625,5.095036489379406,-0.02406689422340132,0.4471410888990387
1746481610179748000,4.439748046875,5.341478516855836,-0.12452921939310617,0.5837855017034337
1746481610189743900,4.449743896484375,5.12231320336163,-0.2331652155403979,0.7781959843758494
1746481610199740000,4.459739990234375,4.292631142702699,-0.38897242957949635,0.9284221286132931
1746481610209737000,4.469737060546875,2.8733015199065206,-0.527441792788729,0.8270422867398709
1746481610219733000,4.47973291015625,1.23698392765522,-0.523438183170557,0.4656749993793666
1746481610229730000,4.48972998046875,-0.20672668768167496,-0.36220772024001924,0.12375501101706177
1746481610239726000,4.49972607421875,-1.2050444825589657,-0.15351197924138976,-0.12597521695033648
1746481610249723000,4.509722900390625,-1.686707470795512,0.03806422985317185,-0.39426980533525346
1746481610259719200,4.51971923828125,-1.6389789204150438,0.15240405453210695,-0.6362993501316756
1746481610269715000,4.52971484375,-1.1501637223362922,0.19024991066055372,-0.6478674767199903
1746481610279712000,4.5397119140625,-0.48847909799218175,0.1265033050782047,-0.4168897064875811
1746481610289708000,4.5497080078125,0.04622749816775322,0.027942361116991377,-0.1119527103466913
1746481610299705000,4.559705078125,0.2696446238875389,-0.013304254782095085,0.05964235773445107
1746481610309700900,4.569700927734375,0.2705336816817522,-0.0065625111663684945,0.13854642876712606
1746481610319698200,4.5796982421875,0.1416740775346756,-0.017891652212658662,0.19405377818923442
1746481610329694000,4.58969384765625,0.037030046233534814,-0.04964135259869508,0.11436768080024048
1746481610339691000,4.59969091796875,0.03602583762705326,-0.12334423825908451,-0.004314616362680681
1746481610349687000,4.60968701171875,0.05512275228500366,-0.17452623529536648,-0.08388603329686448
1746481610359683000,4.61968310546875,0.11374912877678871,-0.17869520980939269,-0.16474212431330232
1746481610369680000,4.629679931640625,0.14654372939765453,-0.12221310620415024,-0.23256213508071377
1746481610379676200,4.63967626953125,0.08175298505723476,-0.03154706194491591,-0.19231683486141263
1746481610389673000,4.6496728515625,-0.04178746989369392,0.12886510230610146,-0.059249586424045264
1746481610399669000,4.6596689453125,-0.18646306733191012,0.2587792387410998,0.13469075798597185
1746481610409666000,4.669666015625,-0.2885398784935474,0.3168128369715065,0.2520154802272096
1746481610419662000,4.679662109375,-0.2561900990307331,0.2290549854762852,0.2153361288611777
1746481610429657900,4.689657958984375,-0.06963409271836281,0.1642660312341526,0.015124467363022268
1746481610439655200,4.6996552734375,0.07464753696620464,0.19427313829464837,-0.05998953633746132
1746481610449651000,4.70965087890625,0.1899099929153919,0.5659189690906554,0.7553506039045751
1746481610459648300,4.719648193359375,1.0818278527349232,0.4013767512636259,1.5686873867012558
1746481610469644000,4.72964404296875,1.0202192455619572,0.07751531095486133,1.6760811551019548
1746481610479641000,4.73964111328125,0.5833949314832687,-0.3053200589080341,1.066020627272129
1746481610489637000,4.74963720703125,0.5366501314431429,-0.6400460623793304,-0.03700878424979746
1746481610499633200,4.759633056640625,0.3995779947459697,-0.5360947625827044,-1.2119149528503417
1746481610509630000,4.7696298828125,-0.0948264016419649,0.07389543995726854,-1.5928484528809785
1746481610519626200,4.779626220703125,-1.0169073445349932,0.46333800779916345,-1.1818771766569465
1746481610529623000,4.789623046875,-1.7079729616641997,-0.1074220811797306,-0.6450531499516219
1746481610539619000,4.799619140625,-1.720413925564289,-0.7135143264330923,-0.3615398674484342
1746481610549616000,4.8096162109375,-1.0105769724696874,-0.9048829206589609,-0.4515185367982834
1746481610559612200,4.819612060546875,-0.1563444079220295,-0.9791358322843908,-0.5899062861386686
1746481610569609000,4.82960888671875,0.17274550762474536,-1.2832207781732081,-0.5324463961429894
1746481610579605000,4.83960498046875,0.11606149737238883,-1.6130900075294077,-0.40997590851113197
1746481610589601000,4.84960107421875,-0.06916764425039292,-1.1666932707242668,0.07923771430067718
1746481610599597800,4.859597900390625,-0.6397293976455927,0.031991657057392875,1.8173725169293582
1746481610609594000,4.869593994140625,-2.3052245690643787,1.6254899087667465,1.3655625229038297
1746481610619591000,4.8795908203125,-3.400319899651408,2.06362457479164,0.05427753363251686
1746481610629587000,4.8895869140625,-3.303137874794006,1.2584525398805737,-1.1880695284910499
1746481610639584000,4.899583984375,-2.8110785802274942,0.2631215239954181,-1.6687376604713497
1746481610649580000,4.909580078125,-2.882070517295599,-0.17672639395445583,-1.7024882466427982
1746481610659576000,4.919576171875,-3.0613562403440473,0.18712154950695112,-2.537998428933322
1746481610669573000,4.929572998046875,-3.3500738134920596,0.4492316314375028,-3.459444288793206
1746481610679569000,4.93956884765625,-5.706467428779602,0.033692152248788625,-3.660381287157535
1746481610689566200,4.949566162109375,-10.15311249063015,0.20052896555271,-4.209750614920258
1746481610699562000,4.95956201171875,-7.188312252199649,1.5273361162677406,-3.408813294969499
1746481610709559000,4.96955908203125,-3.835643746039271,1.0421105401787907,-2.4360119264036415
1746481610719555000,4.97955517578125,-1.1869435932010413,1.0212561873942614,-2.2743363865867257
1746481610729551000,4.989551025390625,1.7914555469930171,2.623414320412278,-2.724597982126474
1746481610739548000,4.9995478515625,4.414930657681823,3.8491403564721343,-2.6881290769070385
1746481610749544200,5.009544189453125,6.458547194319963,3.988787896615267,-2.0265461593717333
1746481610759541800,5.019541748046875,7.6161115483015775,3.2519580149158833,-1.0986734813347458
1746481610769537800,5.029537841796875,8.060785406836867,2.4877359761610625,0.2834861022353172
1746481610779534600,5.03953466796875,8.056959126546978,1.750744181898236,1.8317516092851758
1746481610789531000,5.04953076171875,7.212514381042123,1.166909982214868,2.5509496804431078
1746481610799527700,5.059527587890625,6.078250823149085,1.201876958438754,2.2560332526549693
1746481610809523500,5.0695234375,4.73299356777966,1.2435998386636375,1.546320072070509
1746481610819519700,5.079519775390625,3.4643805761516093,1.07297526871562,0.9134341105788946
1746481610829516500,5.0895166015625,2.160465384995937,0.9766609666034579,0.4804788930185139
1746481610839512600,5.0995126953125,1.0141372952997685,1.1609499047666787,0.43686639965474605
1746481610849509600,5.109509521484375,0.17820961824953555,1.3524012819051743,0.7430223065987229
1746481610859505700,5.119505615234375,-0.35786008295714855,1.4044704918384552,1.0366814278021454
1746481610869502700,5.129502685546875,-0.5195768315672874,1.5751380241453647,1.3377607621341943
1746481610879498800,5.139498779296875,-0.5661293239057064,1.5720517485678196,1.7446138624496756
1746481610889494800,5.149494873046875,-0.5100555545061827,1.257977469714731,2.2300123839527366
1746481610899491800,5.159491943359375,-0.4274994363725185,0.9057603610806166,2.87424464597553
1746481610909487600,5.169487548828125,-0.8588356744289398,0.43008389990776774,3.800921976748109
1746481610919484700,5.179484619140625,-2.014948660558462,0.10119418310821056,4.751250816743076
1746481610929480700,5.189480712890625,-3.690837215697765,0.37131606911867854,5.750331120425463
1746481610939477800,5.199477783203125,-5.427824090400338,0.8933417551428079,6.536397326719761
1746481610949473500,5.2094736328125,-6.42287616147995,0.9479546582095324,7.060685404717922
1746481610959470800,5.219470947265625,-6.173618492060899,0.5953044188551604,7.243492287629842
1746481610969466600,5.229466552734375,-5.1772822263896465,0.46473976435586806,6.915185631415247
1746481610979462700,5.239462646484375,-3.8842560935169455,0.7251667703039943,6.216945592612028
1746481610989459700,5.249459716796875,-2.612584298840165,0.9972449049487709,5.248154336470365
1746481610999455700,5.259455810546875,-1.668604243350029,1.1055293385788798,4.1430668964400885
1746481611009452500,5.26945263671875,-1.141264376565814,1.2493056490898131,2.761760714828968
1746481611019448800,5.27944873046875,-0.646245063149929,1.399488465642184,1.2501213493868708
1746481611029445600,5.289445556640625,-0.07216331893503665,1.4120263140454887,-0.0595259556800127
1746481611039441700,5.299441650390625,0.5439800359398126,1.2555227700389922,-1.2071779874563215
1746481611049437700,5.309437744140625,1.2269868497759102,1.0593769514739513,-2.1764070504933595
1746481611059434800,5.319434814453125,1.7744331005215643,0.9497612692400813,-3.016775924861431
1746481611069430500,5.329430419921875,2.0772131012916564,0.8782289416849612,-3.787894737392664
1746481611079427800,5.339427734375,2.149272375330329,0.744743431302905,-4.406519387689232
1746481611089423600,5.349423583984375,2.100996127939224,0.4860255673602223,-4.863438103030622
1746481611099420700,5.359420654296875,2.0059458544135094,0.269250948394835,-5.023507961216569
1746481611109416700,5.369416748046875,1.8864491218954325,0.2580392340287566,-4.843974985408782
1746481611119413500,5.37941357421875,1.9133757072657345,0.32318565993905063,-4.550475438681245
1746481611129409800,5.389409912109375,1.9905629918426273,0.31566812391579147,-4.173117459049821
1746481611139405800,5.39940576171875,1.9539491251945496,0.26498218503445387,-3.6541923693895337
1746481611149402600,5.409402587890625,1.7554226951032876,0.16226736823022364,-3.201808667129278
1746481611159399000,5.41939892578125,1.679005225855112,0.09666823011636734,-2.9366479106575247
1746481611169395700,5.429395751953125,1.873905866664648,0.16161504180133343,-2.6548200970232485
1746481611179391700,5.439391845703125,2.2074393176168203,0.2957397268697619,-2.2214786566242575
1746481611189388800,5.449388916015625,2.5011861171036958,0.5044420985385776,-1.5845429813504217
1746481611199384600,5.459384521484375,2.842945544609427,0.6562772123426198,-0.8134773603111505
1746481611209381600,5.469381591796875,3.0683009449154137,0.6423115230932831,-0.2609980838343501
1746481611219377700,5.479377685546875,2.971848403376341,0.6761351745009422,0.12308452787697315
1746481611229373700,5.489373779296875,2.7911785324931144,0.8807254346758127,0.45513621583878994
1746481611239370500,5.49937060546875,2.60703601706326,0.9999027259811758,0.6962520798563957
1746481611249366800,5.50936669921875,2.4241408713459967,0.9329203168153762,0.8080348769962787
1746481611259363600,5.519363525390625,2.209652902013063,0.8253352636262774,0.8776198698759079
1746481611269359600,5.529359619140625,2.0105933879584073,0.6770259858608245,0.8962345539748668
1746481611279356700,5.539356689453125,1.577465005788207,0.5586755007684231,0.9115390906125307
1746481611289352700,5.549352783203125,0.9905372240036725,0.4939882168024778,0.9591843466237187
1746481611299348500,5.559348388671875,0.47582127647101874,0.3380171722374856,0.8190455158323049
1746481611309345800,5.569345703125,0.07945406046509743,0.13898819945156574,0.4935615158230066
1746481611319341600,5.579341552734375,-0.21459552136063575,0.07352014037147164,0.10438187323361635
1746481611329339000,5.5893388671875,-0.34878304253220554,0.040512919913232324,-0.12221154443472623
1746481611339334700,5.599334716796875,-0.15688216806054114,0.12551263180673122,-0.27613953886479137
1746481611349331700,5.609331787109375,0.3514806110531091,0.28042086944580075,-0.4456579011365771
1746481611359327700,5.61932763671875,1.0604828668892383,0.4111880607798695,-0.6703142132624983
1746481611369324800,5.62932470703125,1.6346622262597084,0.27119623724371195,-0.7665279776096343
1746481611379320600,5.639320556640625,2.160882149103284,-0.02412511808350682,-0.7544768898099661
1746481611389316900,5.64931689453125,2.677762581193447,-0.3498186691902578,-0.5899177573807537
1746481611399313700,5.659313720703125,3.635184302058816,-0.44850423047840593,-0.24646862322241067
1746481611409309700,5.669309814453125,4.998263629844784,-0.009526464692875743,0.24844606077522038
1746481611419306800,5.679306640625,6.83547087418735,0.34881212249621746,1.1918879908006637
1746481611429302800,5.689302734375,8.31397398596406,1.000319417023286,2.455987085200846
1746481611439299600,5.699299560546875,7.408625566685199,1.5114029263377189,3.106663408796489
1746481611449296000,5.7092958984375,4.174699175283313,1.5867616803131996,3.8928167088523504
1746481611459292700,5.719292724609375,-3.493312656125426,1.6086979100503027,4.9371805078506465
1746481611469288700,5.729288818359375,-12.712466134542225,1.5654698859594762,4.791896423125267
1746481611479284700,5.73928466796875,-17.556691295319794,1.077904907137528,1.794148000947386
1746481611489281500,5.749281494140625,-17.20594425923824,0.08777268373817206,-3.0595576664894817
1746481611499277600,5.759277587890625,-13.142944294464588,-0.7171838087260722,-6.322960912266374
1746481611509274600,5.769274658203125,-7.816953269597888,-1.0049683388076722,-6.410857806906104
1746481611519270700,5.779270751953125,-3.0665958945631977,-0.9369709073804319,-4.6294516525015235
1746481611529267700,5.789267822265625,0.0902343976765871,-0.5547605192817747,-2.90850464297384
1746481611539263700,5.799263671875,1.9080588961571454,-0.11720550717520527,-1.7244737223491071
1746481611549259800,5.809259765625,2.74500890199244,0.18787019418347625,-0.9547929797969757
1746481611559256800,5.8192568359375,2.8227620037585495,0.37347624282725156,-0.36187012231610716
1746481611569252600,5.829252685546875,2.369915360161662,0.4328190239600837,0.16504421253241597
1746481611579249700,5.839249755859375,1.6387673234909772,0.45126825183164326,0.5410688246682286
1746481611589245700,5.84924560546875,0.9137737177968025,0.4985154119033366,0.6930147053703666
1746481611599242800,5.85924267578125,0.40121114890575404,0.5691016177147626,0.6581651449810713
1746481611609238500,5.869238525390625,-0.0715162532031536,0.5268836474493146,0.612080087491311
1746481611619235800,5.87923583984375,-0.4373948074430227,0.4139436430983245,0.48812688702102747
1746481611629231600,5.889231689453125,-0.5537064801841974,0.26436536831036206,0.2632286558980122
1746481611639227600,5.8992275390625,-0.47363399555981156,0.010980115833599119,0.15706616459162906
1746481611649224700,5.909224609375,-0.2813917603045702,-0.2086031856106594,0.1624452455477789
1746481611659220700,5.919220703125,-0.1565916606813669,-0.40111126872785385,0.2851749686377123
1746481611669217500,5.929217529296875,-0.08132336146831512,-0.569848271363601,0.4331860306415707
1746481611679213800,5.9392138671875,-0.05640402426719665,-0.695410733661428,0.4742416060641408
1746481611689210600,5.949210693359375,0.0057172086030244824,-0.5914353223368525,0.47570382410380985
1746481611699206700,5.95920654296875,-0.05041033681035041,-0.3816418309630826,0.3516631280131638
1746481611709203700,5.96920361328125,-0.08650690158605576,-0.16552341088410466,0.05723525092694908
1746481611719199700,5.97919970703125,-0.09074760789573193,0.004902019762620329,-0.1919055871794
1746481611729195500,5.989195556640625,-0.14914543632864952,0.07460504953134804,-0.29879673982020466
1746481611739192800,5.99919287109375,-0.23011516205370425,0.06698673828104511,-0.24446044347146526
1746481611749188600,6.009188720703125,-0.1409592072635889,0.09686473906915634,-0.10153441138062626
1746481611759185200,6.01918505859375,-0.04528174175024032,0.17543646374177185,0.03961058251233771
1746481611769181000,6.029180908203125,0.03729366560578346,0.19596083565326405,0.08186000736197456
1746481611779178200,6.03917822265625,0.07508008316457271,0.13740675721270962,0.03481876339223235
1746481611789174000,6.049174072265625,0.034010406151413916,0.0384280764631927,0.036225177857745434
1746481611799170000,6.059170166015625,-0.001236263796687126,0.008719879284035415,0.0758996193865314
1746481611809167000,6.0691669921875,-0.02574234402179718,0.03440046491492539,0.04123458525128662
1746481611819163100,6.0791630859375,-0.04728489826619625,0.008782112598977982,-0.029796478250809014
1746481611829160000,6.089159912109375,-0.04338146108686924,-0.07738448764942586,-0.05362528026886284
1746481611839156200,6.09915625,0.007393617382645607,-0.07739458891833201,-0.05345726675819605
1746481611849153000,6.109153076171875,0.015549451309442519,-0.0115376035858877,-0.023927860212046653
1746481611859149000,6.119149169921875,-0.04722819964289665,0.04888552012955769,-0.0005537431589327752
1746481611869146000,6.12914599609375,-0.08669687120020389,0.0997132969006896,-0.009231920459400862
1746481611879142100,6.13914208984375,-0.09401450073719024,0.07490958543587475,-0.04405304020550102
1746481611889138000,6.149137939453125,-0.09488426930904388,-0.025107187923416492,-0.08314200999652967
1746481611899135200,6.15913525390625,-0.06922142026424408,-0.09654062168132513,-0.04419515208993107
1746481611909131000,6.169131103515625,-0.004335983377695083,-0.09392737044300883,0.042178971695620564
1746481611919128000,6.179128173828125,0.03926818054914474,-0.008382336159050464,0.051823820337466894
1746481611929124000,6.1891240234375,-0.018891162952780722,0.03669610157143324,0.008768303269334136
1746481611939121000,6.199120849609375,-0.027069208711385725,0.04035586618799716,0.0031367636557668443
1746481611949117200,6.2091171875,-0.01087912141084671,-0.001837700288556516,0.018294950625300406
1746481611959114000,6.219114013671875,-0.0015524901390075682,-0.03917834684122354,-0.048555886316392564
1746481611969110000,6.229110107421875,0.013522329396009444,-0.056188079961575564,-0.08572740511354059
1746481611979106000,6.23910595703125,0.05257423684597015,-0.020136925230175254,-0.051580184307321905
1746481611989103000,6.24910302734375,0.06553542522788047,0.07902140466887503,-0.01109974189158529
1746481611999099100,6.25909912109375,-0.052669513913989066,0.08133636708036064,-0.007361852271202951
1746481612009096200,6.26909619140625,-0.1345230367362499,0.030443836243636904,-0.052356429376825685
1746481612019092000,6.279092041015625,-0.07833411652445793,-0.05966594867259264,0.006530059355869889
1746481612029089000,6.289089111328125,0.07980594264268874,-0.05276924796141684,0.11775920466836541
1746481612039085000,6.2990849609375,0.16963526664972303,0.08519260411709546,0.10909624320333823
1746481612049082000,6.30908203125,0.04783785597383976,0.12522870029881597,0.10798258287301286
1746481612059078000,6.319077880859375,-0.1594470501124859,0.13173972616065294,0.016238237291201947
1746481612069074200,6.32907421875,-0.4135761249601841,0.34138178983237594,-0.2970930046422407
1746481612079071000,6.339071044921875,0.1297702892512083,-0.03287880830559879,-0.29185705848382787
1746481612089067000,6.34906689453125,0.3197574390560388,-0.631844343484193,0.09318462578430771
1746481612099064000,6.35906396484375,0.2662000363916159,-0.6980358945332467,0.16574726450154556
1746481612109060000,6.36906005859375,-0.004047814086079597,-0.08084314020331948,0.20538893627189098
1746481612119057200,6.37905712890625,-0.6160521694600581,0.2705802973024547,0.2063476252362132
