time,seconds_elapsed,z,y,x
1746481623759026400,0.4490263671875,-0.28501754958629605,-0.34871348442733285,0.43996111426707357
1746481623769023200,0.459023193359375,-0.33530805940926073,-0.37964207198061045,0.4967242907028645
1746481623779019000,0.46901904296875,-0.296431508526206,-0.3859383956458419,0.6030977030798792
1746481623789016000,0.47901611328125,-0.2505383568793535,-0.3783359578181058,0.7110181257031858
1746481623799012000,0.48901220703125,-0.24955285297334193,-0.36415114592537284,0.8330282292816787
1746481623809009200,0.499009033203125,-0.28791268650591373,-0.3169237500000745,0.9318206850104034
1746481623819005000,0.5090048828125,-0.42555531656742096,-0.23500300716049968,0.9991916551023721
1746481623829002200,0.519002197265625,-0.5573603265166283,-0.16933204591944812,1.060350691876933
1746481623838998000,0.528998046875,-0.6636439417183398,-0.15852737798430025,1.125968461626023
1746481623848995000,0.5389951171875,-0.7239099021106958,-0.15497976850531994,1.1785825920909643
1746481623858991000,0.5489912109375,-0.7784113076269626,-0.2189354502610862,1.2213561504125594
1746481623868987100,0.558987060546875,-0.7981342452287673,-0.24381343253850934,1.2296160292357206
1746481623878984000,0.56898388671875,-0.8142401613771915,-0.22944427705481646,1.1953922725945711
1746481623888980200,0.578980224609375,-0.8219868299812078,-0.18206855870001018,1.150774328515306
1746481623898977000,0.58897705078125,-0.843570300757885,-0.06960040964446962,1.0937316410183906
1746481623908973000,0.59897314453125,-0.7858353201478719,0.006609115941449999,1.1136704863931983
1746481623918970000,0.60897021484375,-0.7200596564233303,0.023038053499162197,1.1629667975470424
1746481623928966100,0.618966064453125,-0.6866600756466388,-0.024809739346802234,1.2809550251983106
1746481623938963200,0.628963134765625,-0.6736001030653714,-0.07357165136300027,1.3430030467018483
1746481623948959200,0.638959228515625,-0.6501163516253232,-0.10521065220795571,1.3170143267035483
1746481623958955000,0.648955078125,-0.5543932934045791,-0.1711166643138975,1.2529426904179155
1746481623968952000,0.6589521484375,-0.4308329647094011,-0.2394782528784126,1.1253626046873628
1746481623978948000,0.668947998046875,-0.2720657135546207,-0.29385990447252985,0.9440737251229584
1746481623988945000,0.67894482421875,-0.07458031694889068,-0.304895823880285,0.7362435331787913
1746481623998941200,0.688941162109375,0.14324410333037377,-0.24936975149139762,0.4351363975243643
1746481624008938000,0.69893798828125,0.3391729181438684,-0.2682541193772107,0.23249325282927602
1746481624018934000,0.70893408203125,0.4769184240579605,-0.3549009408906102,0.16554306543264538
1746481624028930000,0.718929931640625,0.5424661242455244,-0.33218992738872766,0.09540189997497946
1746481624038927000,0.728927001953125,0.5736117886155844,-0.19721827010214327,0.047628451006859536
1746481624048923100,0.738923095703125,0.6337959159433841,-0.002631152221187949,0.0001701324025169015
1746481624058920200,0.748920166015625,0.6187789640754461,0.217313767343387,-0.02979625905510038
1746481624068916000,0.758916015625,0.4591320074766874,0.3711894470643252,-0.11402549803275615
1746481624078913000,0.7689130859375,0.2072960120022297,0.5184018695037812,-0.2488296532653272
1746481624088909000,0.778908935546875,-0.04983282918334007,0.5395451952975243,-0.2955009862104431
1746481624098906000,0.788906005859375,-0.15485621519088744,0.4914470809523016,-0.25118195201251653
1746481624108902000,0.79890185546875,-0.05037409645318985,0.4294004476882517,-0.14005297913886605
1746481624118898200,0.808898193359375,0.11835749935507774,0.43455439638532695,-0.05858122217580676
1746481624128895000,0.81889501953125,0.3169955731272697,0.43735922467298805,-0.0031571123240515587
1746481624138891000,0.82889111328125,0.5217547601282596,0.4054210216857493,-0.04030084806513041
1746481624148888000,0.83888818359375,0.6589706892102957,0.36429654574543235,-0.16164865180999038
1746481624158884000,0.848884033203125,0.6940308966755867,0.3128666566289961,-0.27528624650370326
1746481624168881200,0.858881103515625,0.6930313642442226,0.2707951090969145,-0.4330849083546549
1746481624178877200,0.868877197265625,0.6927829424411058,0.25488486165106294,-0.5808465987073257
1746481624188873000,0.878873046875,0.6875649155318737,0.23331088935509323,-0.7070794710800051
1746481624198870300,0.888870361328125,0.6585778905004263,0.22352102448567746,-0.7623369556605816
1746481624208866000,0.898865966796875,0.603204378324747,0.21284049438685176,-0.8186122389815748
1746481624218863000,0.908863037109375,0.5515466718018055,0.1918001905761659,-0.8153169968284666
1746481624228859000,0.91885888671875,0.4860533321499824,0.18880773076191543,-0.7963670894257724
1746481624238856200,0.928856201171875,0.40752807696759696,0.1629319696187973,-0.7402606598656624
1746481624248852000,0.93885205078125,0.2785205887824297,0.08752791519686579,-0.6182523098528385
1746481624258849000,0.94884912109375,0.16324819596111773,0.031953473621606825,-0.4792139145839959
1746481624268845000,0.958844970703125,0.12779402074217797,0.0023361878626048565,-0.35245489944536235
1746481624278841000,0.968841064453125,0.19513328052163123,0.013605039243400096,-0.2701234934456646
1746481624288838100,0.978838134765625,0.2900508675783872,0.015066928489506243,-0.18626728903148324
1746481624298834200,0.988834228515625,0.3273012785643339,-0.020675635216757655,-0.10708550616912543
1746481624308831000,0.9988310546875,0.3394523196071386,-0.07251556643880903,-0.06694361152537166
1746481624318827300,1.0088271484375,0.2316898640245199,-0.09777217277027667,-0.022041699405573306
1746481624328824000,1.018823974609375,0.04487432999312877,-0.10423749632686376,-0.020970526510104535
1746481624338820000,1.028820068359375,-0.13447802855074406,-0.09493190784305333,-0.07172525631133467
1746481624348817200,1.038817138671875,-0.2793728216975927,-0.0932257615122944,-0.034753552668914195
1746481624358813000,1.04881298828125,-0.3414794415205717,-0.1246788113310933,0.004927884856238961
1746481624368809000,1.05880908203125,-0.3230664174735546,-0.14559081258699297,0.0729284215560183
1746481624378806000,1.068805908203125,-0.2466390113532543,-0.14635017958693206,0.15107231273800134
1746481624388802000,1.078802001953125,-0.1600859325379133,-0.11701704453155398,0.17899517913665622
1746481624398799000,1.088799072265625,-0.08164309494197368,-0.11322547022886574,0.16572108888067305
1746481624408795100,1.098795166015625,-0.015664602121710777,-0.12046937694251536,0.10355868374984711
1746481624418792000,1.1087919921875,0.0026449615508317946,-0.14004530728906392,0.06085150519534945
1746481624428788200,1.118788330078125,0.01912964788377285,-0.20120463632456956,0.031171456398442387
1746481624438785000,1.128784912109375,-0.03974807302057743,-0.27562296764478084,0.035860271801799536
1746481624448781000,1.138781005859375,-0.15173253021240232,-0.2974421468734741,0.10600067007448524
1746481624458776800,1.14877685546875,-0.22610125023722646,-0.22334639857113361,0.14428765756655484
1746481624468774100,1.158774169921875,-0.26315175473690033,-0.08525828976444899,0.13810173547323792
1746481624478770000,1.16877001953125,-0.26813071219325063,0.06473441104330122,0.14159854634674265
1746481624488767200,1.178767333984375,-0.2071644945770502,0.1630475588224828,0.1358805522924289
1746481624498763000,1.188762939453125,-0.13491232831478117,0.18627032123878598,0.107977778833732
1746481624508760000,1.198760009765625,-0.1078407815158367,0.16917356742210685,0.09776342320824041
1746481624518756000,1.208756103515625,-0.10721943474709987,0.15098777625970541,0.09346256594285368
1746481624528752000,1.218752197265625,-0.10894318979978561,0.10347549897842108,0.10541729896226897
1746481624538749000,1.2287490234375,-0.11348960105776786,0.027932620607689022,0.146908836383
1746481624548745200,1.2387451171875,-0.14378887773156165,-0.003209755826741457,0.1841504247416742
1746481624558742000,1.248741943359375,-0.19095570257604122,-0.01334616911150515,0.18985526705347
1746481624568738000,1.258738037109375,-0.2493237203925848,-0.014455956984311341,0.16520702014500274
1746481624578735000,1.268735107421875,-0.28399405175745485,-0.03425210595279932,0.14113438116740434
1746481624588731100,1.278731201171875,-0.3608686171233654,-0.07463321617990731,0.13515873169074766
1746481624598728200,1.288728271484375,-0.35946108841300006,-0.16337927499487995,0.21637080567115916
1746481624608724200,1.29872412109375,-0.3799637782156467,-0.30811003668643533,0.45413259175419807
1746481624618720000,1.308719970703125,-0.44452480545341966,-0.4108461885396391,0.7018547952342779
1746481624628717300,1.31871728515625,-0.6172101073235273,-0.42980040679126974,0.8725633171387016
1746481624638713000,1.328713134765625,-0.8855190986931324,-0.4969099494680762,1.0004803797386586
1746481624648710000,1.3387099609375,-1.2248030759960413,-0.641203123459965,1.1480598088596015
1746481624658706000,1.348705810546875,-1.6149615004897118,-0.8003478296250105,1.3205185354322195
1746481624668703000,1.358702880859375,-1.8772060772538184,-0.9422977284263819,1.5209024299584328
1746481624678699000,1.368698974609375,-2.0455109720826146,-1.0289207306727766,1.6585649337641895
1746481624688695000,1.378695068359375,-2.1451830601900816,-1.1121087900344282,1.785563127953559
1746481624698692000,1.388692138671875,-2.2299714674204587,-1.2362430461600422,1.8514524811856448
1746481624708688100,1.398688232421875,-2.3780980820953843,-1.4100909620687365,1.9151658055528997
1746481624718685200,1.408685302734375,-2.5775503948599097,-1.5646747900590299,1.8856288915537296
1746481624728681000,1.418680908203125,-2.672655613443255,-1.6684895309291778,1.8873679903060196
1746481624738678000,1.428677978515625,-2.6363305006086826,-1.6984521229945122,1.943121003318578
1746481624748674000,1.438674072265625,-2.570654790127277,-1.6890778531886637,2.018601191716641
1746481624758671000,1.448671142578125,-2.4547774171501398,-1.6559927451886236,2.1081397160835564
1746481624768667400,1.45866748046875,-2.237657930269837,-1.599169764856994,2.1469082765474914
1746481624778663400,1.468663330078125,-1.8803572347611188,-1.5264263079464435,2.152943318928033
1746481624788660200,1.47866015625,-1.4751906262278556,-1.4875485880196093,2.1140518627367912
1746481624798656500,1.488656494140625,-1.030382327657938,-1.474495921961963,2.1334061131566764
1746481624808653300,1.4986533203125,-0.7249345689833164,-1.4417550973549484,2.2901365977868435
1746481624818649300,1.5086494140625,-0.49394671574831006,-1.3505213133774696,2.4691052177101374
1746481624828646400,1.518646484375,-0.30621640495955943,-1.1922082357309758,2.654561738348007
1746481624838642400,1.528642333984375,-0.05999824936687946,-1.0126356585651635,2.7146146405115723
1746481624848638200,1.53863818359375,0.39278877299726006,-0.873695682169497,2.7284806687787175
1746481624858635500,1.548635498046875,1.0627706855654715,-0.7984097011692821,2.790368969675898
1746481624868631300,1.55863134765625,1.7445868283122776,-0.7156184591054916,2.8169638388738036
1746481624878628400,1.56862841796875,2.2470237245082854,-0.5251785970970988,2.7632123749420043
1746481624888624400,1.578624267578125,2.748485638192296,-0.24063421798050402,2.6836118917435408
1746481624898621400,1.588621337890625,3.409297571355104,0.030251492009311914,2.7629750590547917
1746481624908617200,1.5986171875,4.3063352584064,0.3243476894557476,2.7665017718762157
1746481624918614300,1.6086142578125,5.570644999882578,0.5479419253081083,2.564289639009535
1746481624928610300,1.6186103515625,7.152394551122188,0.576444527823478,2.1705175540633497
1746481624938606300,1.6286064453125,8.744375573518871,0.6186762343533336,1.4720315776750446
1746481624948603400,1.638603271484375,10.140538255739212,0.7684658138044178,0.50321953447368
1746481624958599400,1.648599365234375,10.366666393983364,1.3884122142240405,-0.7255101769141853
1746481624968596500,1.658596435546875,10.12746600819826,1.6237977178961038,-0.40847083771042525
1746481624978592500,1.668592529296875,10.188630378735064,1.5953348628692328,0.5752666796831414
1746481624988588300,1.67858837890625,10.410470464396477,1.9754460867315529,0.5655346459481865
1746481624998585300,1.68858544921875,10.694062949615716,2.4427703146226705,0.62615468047522
1746481625008581400,1.698581298828125,10.76919505522847,2.738594943296909,0.8134104325547814
1746481625018578200,1.708578125,9.960245985996723,1.8781556330636142,1.584910061097145
1746481625028574500,1.718574462890625,9.298439196577668,1.0937063604466617,2.326854217070341
1746481625038571300,1.7285712890625,9.127448423665761,0.9092313251268118,2.811474009285867
1746481625048567300,1.7385673828125,8.95799611236751,0.737472344321385,3.2920962562978264
1746481625058564400,1.748564453125,8.738835475048422,0.536599570299685,3.748501176898181
1746481625068560400,1.758560302734375,8.534689451509713,0.35912791093587876,4.2019431560397145
1746481625078556400,1.768556396484375,8.28670370172262,0.18269043519170955,4.610463166654109
1746481625088553500,1.778553466796875,8.027104671031235,0.003986585418134928,5.035726806798577
1746481625098549200,1.78854931640625,7.739076833713054,-0.1941151164550334,5.423787382230162
1746481625108546300,1.79854638671875,7.42373078135848,-0.3586301174815744,5.799927802765369
1746481625118542300,1.808542236328125,7.138865207463502,-0.5465408263385295,6.146561558309197
1746481625128539400,1.818539306640625,6.803161426734924,-0.7225170595128089,6.4689364863872525
1746481625138535200,1.82853515625,6.472834662869572,-0.890446179831773,6.768322753065824
1746481625148532500,1.838532470703125,6.149965813794732,-1.053092464376986,7.044320545372367
1746481625158528300,1.8485283203125,5.815362103262544,-1.22681003190428,7.295935007050633
1746481625168524300,1.858524169921875,5.480332276272773,-1.3919156923003493,7.528688116392493
1746481625178521300,1.868521240234375,5.142431862282753,-1.5354676925361155,7.732757567563652
1746481625188517400,1.878517333984375,4.820532735022902,-1.7105542103290556,7.915275112140178
1746481625198514400,1.888514404296875,4.49514868825674,-1.8721195677697657,8.08802880307138
1746481625208510500,1.898510498046875,4.160284865483641,-2.0347845570154486,8.224637413910031
1746481625218507300,1.90850732421875,3.8462551564246414,-2.1788962369605898,8.347844691383838
1746481625228503600,1.918503662109375,3.5457635588526726,-2.3301994358450173,8.45909089742899
1746481625238499300,1.928499267578125,3.2540149474456905,-2.4881252677395937,8.538413440468906
1746481625248496400,1.938496337890625,2.984555909258127,-2.637897311533987,8.595788940116762
1746481625258492400,1.948492431640625,2.7206939604252574,-2.797536961609125,8.659194952100515
1746481625268489500,1.958489501953125,2.4568939709126947,-2.949346064189076,8.68229175004959
1746481625278485200,1.9684853515625,2.2206576956301927,-3.0926880749359724,8.711114524430036
1746481625288482300,1.978482421875,1.9943474788174032,-3.2354020169124005,8.72067496445775
1746481625298478300,1.988478271484375,1.793454173464328,-3.3682480603471396,8.721966173312067
1746481625308474400,1.998474365234375,1.5977768491938709,-3.521849599301815,8.717721375349164
1746481625318471400,2.008471435546875,1.4147165760427713,-3.658494450497627,8.676740545663238
1746481625328467500,2.018467529296875,1.258471682972461,-3.7886207135796544,8.635132523989677
1746481625338464300,2.02846435546875,0.8059044408388435,-3.5686022903874512,7.702409775573015
1746481625348460500,2.03846044921875,-5.0108939788371325,3.3359666699454187,-10.132354949283599
1746481625358457300,2.048457275390625,-13.46502286994457,22.168069823253152,-47.86414075417518
1746481625368453400,2.058453369140625,-20.643180807876586,49.93643919541835,-82.91088551130294
1746481625378449400,2.068449462890625,-22.923840260004997,62.863931059432026,-87.71919998526573
1746481625388446200,2.0784462890625,-20.53619927353859,51.4927731503725,-74.81068403987884
1746481625398442200,2.088442138671875,-27.070630268621443,23.861174886131284,-52.45474654319286
1746481625408439300,2.098439208984375,-24.395703787636755,-0.44405075820088385,-19.50811294786334
1746481625418435300,2.108435302734375,-18.723325675463677,-12.038863108867407,5.511730454099178
1746481625428432400,2.118432373046875,-13.627580745553969,-14.273140749049185,15.753289289945362
1746481625438428400,2.128428466796875,-3.688623631301522,-11.721102981108427,12.440717231851815
1746481625448424400,2.138424560546875,2.6632524098038672,-8.340901740378142,6.881529445528984
1746481625458421500,2.14842138671875,6.787384011888504,-5.149639017182588,2.6924872721165416
1746481625468417300,2.158417236328125,8.901475768244266,-2.3667305926457045,1.0274717009082437
1746481625478414300,2.168414306640625,8.889807542282343,-0.04614157344996929,2.0852619677126407
1746481625488410400,2.178410400390625,8.370110299205779,1.9825100337684154,3.7932173937201497
1746481625498407400,2.188407470703125,7.866728815636038,3.590997662068903,5.212686717247963
1746481625508403200,2.1984033203125,7.168040448543429,4.424281254351139,6.201987677454948
1746481625518399500,2.2083994140625,6.6856736959517,4.4824104949757455,6.335544499507546
1746481625528396300,2.218396240234375,6.460432277414203,3.8406343939334153,5.518902537685633
1746481625538392300,2.228392333984375,6.16399433914721,2.8070640838891268,4.193841390387714
1746481625548389400,2.238389404296875,5.627112152513861,1.6599313998118042,2.595411630243063
1746481625558385400,2.248385498046875,4.9009120936393735,0.5132102191448211,0.7707257215604185
1746481625568382200,2.25838232421875,4.232804742771386,-0.5148595937870443,-0.9787833655849099
1746481625578378500,2.26837841796875,3.499510341721773,-1.3230411857776343,-2.400644260424375
1746481625588374300,2.278374267578125,2.702285028031468,-1.9167530747443438,-3.1903456083506345
1746481625598371300,2.288371337890625,1.6786913376003503,-2.382195434411615,-3.085616821375489
1746481625608367400,2.298367431640625,0.19576456416249274,-2.7257915758252143,-1.9312730368755757
1746481625618364400,2.308364501953125,-1.4271785827308892,-2.8900314131721854,-0.38444589206576346
1746481625628360200,2.318360107421875,-3.0755484318256374,-2.7690181386113166,0.7046623269356787
1746481625638357500,2.328357421875,-4.55048420650959,-2.2481394306652245,1.2891063290804623
1746481625648353300,2.338353271484375,-5.50999150147736,-1.4498068863853812,1.5061470516361295
1746481625658349300,2.348349365234375,-5.432269963893294,-0.516125887395814,1.5357432946071028
1746481625668346400,2.358346435546875,-4.1177188124328845,0.3043543374147266,1.1158601784572004
1746481625678342400,2.36834228515625,-2.128167043459415,0.8035124311357736,0.22342530902624128
1746481625688339500,2.37833935546875,-0.29358079527020453,0.9836311709422617,-0.45852527375519275
1746481625698335500,2.38833544921875,0.8571791393935679,0.9909583720251918,-0.48616497583091256
1746481625708332300,2.398332275390625,1.486158010444045,0.9728774294767528,-0.10399068195894359
1746481625718328600,2.40832861328125,1.6996359259516,0.8100872794814408,0.24498612957969307
1746481625728325400,2.418325439453125,1.6144214022636412,0.4903888771362602,0.3893067761003971
1746481625738321400,2.4283212890625,1.3442109611868858,0.08271744617521762,0.32210297926887865
1746481625748317200,2.438317138671875,0.8984376169770956,-0.24727869749628006,0.05853402203321457
1746481625758314500,2.448314453125,0.2996171528249979,-0.4284782182767987,-0.24395181809589264
1746481625768309800,2.458309814453125,-0.1960018800497055,-0.5131412455618382,-0.4626901383496821
1746481625778306800,2.468306884765625,-0.4780068038165569,-0.49023697451017795,-0.4725539452381432
1746481625788302600,2.478302490234375,-0.5444441463202238,-0.3193477622766048,-0.22634353456050157
1746481625798300000,2.4882998046875,-0.4161544510155916,-0.09254413592368364,0.09624503626823425
1746481625808295700,2.498295654296875,-0.19412614930570124,0.08931012243852018,0.3053799541354179
1746481625818291700,2.508291748046875,0.033576106387376785,0.18310615811944006,0.3159745595164597
1746481625828288800,2.518288818359375,0.12508008560836315,0.14423632923811674,0.10183335779458284
1746481625838284800,2.528284912109375,0.10335282244682312,0.05913191486112773,-0.14168445279821754
1746481625848281600,2.538281494140625,0.03781798174083233,-0.045757031111791725,-0.24181758254617453
1746481625858278000,2.54827783203125,-0.0265519068390131,-0.14329225332103668,-0.14353636427521704
1746481625868273700,2.558273681640625,-0.05512625941634178,-0.1564760714776814,-0.00925634251460433
1746481625878270700,2.568270751953125,-0.02572013218998909,-0.10379304049499333,0.10056202268451452
1746481625888266800,2.578266845703125,-0.011474164694547652,-0.0504088755056262,0.08856164215877652
1746481625898263800,2.588263916015625,-0.010411503899097441,-0.00797265937961638,0.015784429109096526
1746481625908259600,2.598259521484375,-0.009819383224844932,-0.005151464479044079,-0.03445084339529276
1746481625918256600,2.608256591796875,-0.010762801554799079,-0.011017580033466218,-0.0623242080964148
1746481625928252700,2.618252685546875,-0.023753216031193732,-0.03489339953102171,-0.07424275555759668
1746481625938249700,2.628249755859375,-0.016302900025248528,-0.07812120442613958,-0.030355244644731282
1746481625948245800,2.638245849609375,-0.002081482449173927,-0.09646116323694587,0.02097717544659972
1746481625958241800,2.64824169921875,-0.001101239240169525,-0.10372793936952948,0.0010891104109585284
1746481625968238800,2.65823876953125,-0.012217676538228988,-0.09569850830137729,-0.0877777983047068
1746481625978235000,2.66823486328125,0.01321837801337242,-0.056574996919929975,-0.1428191559165716
1746481625988231700,2.678231689453125,0.010147300004959106,-0.06425780650749802,-0.16925664259567855
1746481625998227700,2.688227783203125,-0.013935586372017859,-0.09606390754766762,-0.1672058475457132
1746481626008224800,2.698224853515625,-0.03712473877966404,-0.06596957886144518,0.027318215036392212
1746481626018220500,2.708220458984375,0.0005821838021278381,0.15667298228926957,0.44686172396838664
1746481626028216800,2.718216796875,-0.005583937612175941,0.2427194267567247,0.5063055543228984
1746481626038213600,2.728213623046875,-0.16230594667494297,-0.004945055186748504,0.08832885631620883
1746481626048209700,2.738209716796875,-0.09813245745003223,-0.15971410355083643,-0.16592413717210291
1746481626058206700,2.748206787109375,0.08528349727094173,-0.13821670362241564,-0.24162761293202636
1746481626068202800,2.75820263671875,0.08011106306910515,-0.13472900763712822,-0.31754180883318184
1746481626078199600,2.768199462890625,-0.03340016529858112,-0.145131962903589,-0.19778847120553253
1746481626088195800,2.77819580078125,-0.015015782824158668,-0.034346140911802645,0.10040317886099219
1746481626098191600,2.788191650390625,0.020637714359164238,0.03786452429629862,0.20059885245114564
1746481626108188700,2.798188720703125,-0.07123392913043498,0.015410700425878165,0.06954846026152373
1746481626118184700,2.808184814453125,-0.08920271654129028,-0.026669541869312523,-0.0009837503403425216
1746481626128181800,2.818181640625,0.00024140754044055937,-0.07248831310570239,-0.05387114478871226
1746481626138177500,2.828177490234375,0.01381751295030117,-0.044037075451388956,-0.06009513387009501
1746481626148174800,2.8381748046875,-0.017348609685897826,-0.041620296633243556,-0.058818976454436775
1746481626158170600,2.848170654296875,0.008777765217423439,-0.06714242203310132,-0.044362727209180594
1746481626168166700,2.858166748046875,0.00511690462231636,-0.06349727046377956,0.016217413698881862
1746481626178163700,2.868163818359375,-0.04324585200846195,-0.04715118888393044,0.02854848748371005
1746481626188159700,2.87815966796875,-0.042132922330498694,-0.033272374200448394,0.013538549878448247
1746481626198156800,2.88815673828125,-0.020309797579050062,-0.022537191304937004,-0.019004267938435078
1746481626208152800,2.89815283203125,-0.007549684727191925,-0.04046382007449865,-0.050960079647600645
1746481626218149600,2.908149658203125,-0.003033668607473373,-0.05615910959541797,-0.04003916492164135
1746481626228146000,2.91814599609375,-0.01246025312244892,-0.044281551731750364,-0.01133461009338498
1746481626238141700,2.9281416015625,-0.023229484418034553,-0.05504669137410819,-0.0038823943912982936
1746481626248138800,2.938138671875,-0.016747136661410332,-0.04651267178468406,-0.00258504805713892
1746481626258134800,2.948134765625,-0.08700082258284092,-0.05840491576083004,-0.03258694921955466
1746481626268131800,2.9581318359375,-0.2884966238737106,-0.047632031203433865,-0.13024170615524053
1746481626278127600,2.968127685546875,-0.29946576165556904,0.014996858927980064,-0.19985738643407822
1746481626288124700,2.978124755859375,-0.03133797207176685,0.1851202013555914,-0.3976537486851215
1746481626298120700,2.98812060546875,0.13828618866205214,0.6831948106888681,-0.9631251201387494
1746481626308116700,2.99811669921875,-0.4659124613970518,1.504554375617206,-2.1087702690720556
1746481626318113800,3.00811376953125,1.514468743649125,2.0273297109648585,-2.662754981675744
1746481626328109800,3.01810986328125,2.4456840101122856,1.9840420656412838,-1.432162216362357
1746481626338106600,3.028106689453125,1.9418436768591403,1.6305444156773388,-0.054612355077452955
1746481626348103000,3.03810302734375,1.5371756654977797,0.9714568220891058,0.9631994274839758
1746481626358099700,3.048099609375,1.0252215838938952,0.33259967723339795,1.3651277847483754
1746481626368095700,3.058095703125,0.4921896429479122,-0.35623335853815075,1.2149719292681664
1746481626378091800,3.068091796875,0.04150339225530624,-1.0495587372928856,0.8390119068011641
1746481626388088600,3.078088623046875,-0.2285264315575361,-1.6551289679661392,0.57781837345995
1746481626398084600,3.088084716796875,-0.518068765091896,-2.0123700422421096,0.5111315862398594
1746481626408081700,3.09808154296875,-0.8926181170433759,-2.0033976312354205,0.44055992041043934
1746481626418077700,3.10807763671875,-1.2820073107302188,-1.6592118533656,0.15973050669636576
1746481626428074800,3.11807470703125,-1.4439672204464673,-1.0489473273962735,-0.14644593157898633
1746481626438070800,3.12807080078125,-1.3116069147020577,-0.35720366487503047,-0.2264517441753298
1746481626448066800,3.13806689453125,-0.904184636196494,0.2028933931291103,-0.0209223399868235
1746481626458064000,3.14806396484375,-0.4819587563127279,0.46547728485018014,0.202101713028457
1746481626468060000,3.158059814453125,-0.13491875805556774,0.45563934305533765,0.2518831225518137
1746481626478056700,3.168056640625,-0.0008218377768993377,0.2797169589601457,0.13211643225224687
1746481626488052700,3.178052734375,-0.04762742809355259,0.19584829692319033,-0.10899585156878455
1746481626498048800,3.188048828125,-0.1334171213209629,0.1907417675644159,-0.1916205231603235
1746481626508045600,3.198045654296875,-0.29653906055390833,-0.012813158213347196,-0.3737280621638521
1746481626518041900,3.208041748046875,-0.127853641974926,-0.4704017356403172,-0.26799093839637933
1746481626528038700,3.21803857421875,0.13671791643202305,-0.6087319095745682,0.20186730148438364
1746481626538034700,3.22803466796875,0.2055693343400955,-0.6288653276734054,0.3108718660825863
1746481626548031700,3.23803173828125,0.16067629964649677,-0.5498455669723451,0.013481175401713699
1746481626558027800,3.24802783203125,0.07234568976461887,-0.9941922393798828,0.4748757757818326
1746481626568023800,3.25802392578125,-0.29196342320144175,-1.5049164869278668,1.4772197939679026
1746481626578020900,3.268020751953125,-0.43278760590851306,-1.3378811736434697,1.8795953104779124
1746481626588016600,3.2780166015625,-0.7600275096744299,-0.6421076710842549,1.5169655289009212
1746481626598013700,3.288013671875,-0.7022317387878895,0.3207578482702374,0.7825194735981523
1746481626608009700,3.298009765625,-1.1533785927295683,0.8239817301254719,0.5182897143661975
1746481626618006800,3.3080068359375,-2.5758546968579292,0.5491358112677931,0.39730756559595465
1746481626628002600,3.31800244140625,-3.4251018742084502,-0.7431487094573677,0.022497955273091792
1746481626637998800,3.327998779296875,-2.325394081389904,-1.9686060115784405,-0.2801075657129288
1746481626647995600,3.33799560546875,-0.4483826499253511,-2.3366641018144785,-0.2817205538675189
1746481626657991700,3.34799169921875,0.7853080814033746,-1.6127140138238667,-0.2793655151739716
1746481626667988700,3.35798876953125,1.3035071948766708,-0.443204480102472,-0.31961393893212076
1746481626677984800,3.36798486328125,1.5792559808582067,0.5421258594404905,-0.25542759022563694
1746481626687981800,3.37798193359375,1.8283768721550702,1.0210602264307438,-0.03378448844105005
1746481626697977900,3.387977783203125,1.9809324091881513,1.050616575782746,0.30226211437582967
1746481626707973600,3.3979736328125,1.5295406405746936,0.8385458236593752,0.838780728393793
1746481626717971000,3.407970947265625,0.46856852886378764,0.552078148330003,1.2298033685013652
1746481626727966700,3.417966796875,-0.7862392247736454,0.3176177966788411,0.9439999292343855
1746481626737963800,3.4279638671875,-2.017143540254235,0.02160202934667468,0.1307809275984764
1746481626747959800,3.437959716796875,-2.7728970258712766,0.25669702563956376,-0.7409086754456162
1746481626757956900,3.447956787109375,-3.3606519061297178,0.5765991338633001,-1.5342150621265171
1746481626767953200,3.457953125,-3.356781786698103,1.1686880978032945,-1.4354980827867985
1746481626777949400,3.467949462890625,-2.748830506107211,1.7020738206230104,-0.8679711670428514
1746481626787946200,3.4779462890625,-2.415646599245071,0.9323067149616777,-0.6031465106576681
1746481626797942300,3.4879423828125,-2.4007488898426295,0.5147178472287952,-0.6526499617561697
1746481626807939300,3.497939208984375,-2.549635382974148,0.46851811385080216,-0.6848138632580637
1746481626817935000,3.50793505859375,-2.4329203901290892,0.4584621453911066,-0.4855220017522573
1746481626827932200,3.51793212890625,-1.795084843406081,0.5088926482066511,-0.3349579307973385
1746481626837928200,3.52792822265625,-0.96118662635684,0.5699133724890649,-0.24149054254889488
1746481626847924200,3.53792431640625,-0.04829495209157467,0.6476961387410759,-0.1191302372932434
1746481626857921000,3.547921142578125,0.8412672845125198,0.6274791340120136,-0.06476064146310091
1746481626867917300,3.557917236328125,1.4739081852018832,0.5137183147974312,0.027710136963427064
1746481626877914000,3.5679140625,2.0188678798288104,0.3778163909234106,0.2745633755892515
1746481626887910100,3.57791015625,2.8144103549987074,0.261447215841338,0.5466469170615077
1746481626897907200,3.5879072265625,3.6537680064976215,0.16854038408510386,0.8138225204870104
1746481626907903200,3.5979033203125,4.248146688809991,0.14528887049835174,1.0007143346250056
1746481626917899000,3.60789892578125,4.753944585871696,0.11395484394934027,1.0959338272377848
1746481626927896300,3.617896240234375,5.201369788941741,0.005734004474198445,1.0517144540220498
1746481626937892000,3.62789208984375,5.3801008007168765,-0.12024911265480331,0.7701815316811204
1746481626947889400,3.637889404296875,5.2375815045297145,-0.23937382438955826,0.4900311497397721
1746481626957885200,3.64788525390625,4.673670441195369,-0.24237693346198647,0.5235926430799067
1746481626967882200,3.65788232421875,3.499150276237726,-0.42104306330736724,0.4845294835835695
1746481626977878300,3.667878173828125,2.0830115584373474,-0.9036128276579082,0.19930618229210376
1746481626987874300,3.677874267578125,0.7476859144955873,-1.1321112021647393,-0.0732869161374867
1746481626997871000,3.68787109375,-0.3756593590199947,-1.0396395469553767,-0.3426683590441942
1746481627007867400,3.697867431640625,-1.133507771089673,-0.7640333843149244,-0.5652279911518097
1746481627017864200,3.7078642578125,-1.4778946244895457,-0.3150697196312249,-0.8575862588897347
1746481627027860200,3.717860107421875,-1.5979600968062877,0.04166413577497005,-1.2845770150877533
1746481627037857300,3.727857177734375,-1.7777099302351473,0.011215879084542394,-1.8627068656496704
1746481627047853300,3.737853271484375,-2.235024659156799,-0.27662637253366407,-2.4356948232784865
1746481627057849000,3.74784912109375,-3.0299826124370095,-0.53395351277031,-3.082069358026981
1746481627067846400,3.757846435546875,-3.6635032185703515,-0.5601028301578015,-3.1218118780896065
1746481627077842200,3.76784228515625,-4.258589172369241,-0.16574826914854346,-2.3003213071927426
1746481627087839200,3.777839111328125,-4.823305122345686,0.3946535439558327,-1.0372109315689653
1746481627097835300,3.787835205078125,-5.237084076401591,0.8662445624459535,-0.17806188034191728
1746481627107832300,3.797832275390625,-5.542109225749969,1.2480226235419511,0.12894421369060874
1746481627117828000,3.807828125,-5.425895168164372,1.284994802108407,0.5305419507611543
1746481627127824400,3.817824462890625,-5.128705534747243,1.201043430224061,0.7045204342469572
1746481627137821200,3.8278212890625,-4.284312227168679,1.0652196130875498,0.7189389818303287
1746481627147817200,3.837817138671875,-3.029918899551034,1.1490668670102953,0.6980842637196183
1746481627157814300,3.847814208984375,-1.6847557522058485,1.4117545113667844,0.589185570648685
1746481627167810300,3.857810302734375,-0.3377940310060978,1.5071610509842632,0.6362894132595509
1746481627177807400,3.867807373046875,1.0359797092735767,1.4400469782628118,0.6725472330115735
1746481627187803400,3.877803466796875,2.3016256677895783,1.3834423168569803,0.6002126856954768
1746481627197799200,3.887799072265625,3.483709545999765,1.3175610008008778,0.48897152115162457
1746481627207796200,3.897796142578125,4.218028613922,1.0470654591724275,0.30349530943259595
1746481627217792300,3.907792236328125,4.369409261956811,0.7073579957604408,0.18592603784576056
1746481627227789000,3.9177890625,4.260352090388536,0.5666496945179998,0.08257471323627978
1746481627237785300,3.927785400390625,3.936261590564251,0.5626733382329344,0.024247063962742683
1746481627247782100,3.9377822265625,3.5259231323510405,0.6963029332607984,0.10996617617197334
1746481627257778200,3.947778076171875,3.2913205957502125,0.8494019295208156,0.33516700697075574
1746481627267774500,3.9577744140625,3.390720296657085,0.856570213714987,0.5892283868771047
1746481627277771300,3.967771240234375,3.741278532168269,0.8749871832847594,0.777358218377456
1746481627287767300,3.977767333984375,4.278776220351458,1.190371083431691,0.9995247595142572
1746481627297764400,3.987764404296875,5.261493710514903,1.4020048323772847,1.4647932969845832
1746481627307760000,3.997760009765625,6.210798175898194,1.5761366797938943,1.7865628065153956
1746481627317757200,4.007757080078125,7.413130476889013,2.1123376061648127,1.566150853960961
1746481627327753200,4.017753173828125,8.542300511035323,2.4460556199036536,0.9706370301388203
1746481627337749200,4.027749267578125,9.915106867587566,1.8577131490156054,0.10138729452751576
1746481627347746000,4.03774609375,10.507176103913784,1.867571256815642,-0.5032157716140151
1746481627357742300,4.047742431640625,10.1759953535676,2.2577046929985283,-0.6014469401981681
1746481627367739100,4.0577392578125,9.450295060908793,2.1750107738293707,-0.5551615378307179
1746481627377735200,4.067735107421875,9.438259170678258,2.062786662662774,-0.4715618289282545
1746481627387732200,4.077732177734375,9.707233932480216,1.8826751563146709,-0.16516082464940846
1746481627397728300,4.087728271484375,11.151736574977635,1.4780224886529147,0.63276861872226
1746481627407724000,4.09772412109375,10.82503443135023,0.8406357086107135,0.8571643071506172
1746481627417721300,4.107721435546875,5.671629339632392,0.2860243885412812,0.5291979157410561
1746481627427717000,4.117717041015625,-8.634027777618169,-0.9119413147378712,-1.345363053831458
1746481627437714400,4.12771435546875,-22.058383121609687,-2.141810661147535,-4.986189161169529
1746481627447710200,4.137710205078125,-29.926031390178203,-1.3029248649440706,-8.442235624217986
1746481627457707300,4.147707275390625,-31.23459586844444,-0.15911065776497124,-9.160193339926003
1746481627467703300,4.157703369140625,-25.934242558181285,0.806156223642826,-6.891903540027141
1746481627477699300,4.16769921875,-16.92313737143874,1.2769459356874227,-3.6069109782546755
1746481627487696100,4.177696044921875,-8.357692131659388,1.02969544137232,-1.3338774909600615
1746481627497692400,4.1876923828125,-2.0880857929617167,0.5466746818512678,-0.6675079967353492
1746481627507689200,4.197689208984375,1.883747461721301,0.11127612625937908,-0.7227041065175086
1746481627517685200,4.207685302734375,4.359038090068101,-0.21402564905080942,-0.7390474116183817
1746481627527682300,4.217682373046875,5.813424997720122,-0.5665806478697806,-0.3500749455062672
1746481627537678300,4.22767822265625,6.5501441125214095,-0.6082390845563262,0.2858027816798538
1746481627547674000,4.237674072265625,6.841975433775782,-0.45868587114438414,0.9167148127499968
1746481627557671400,4.24767138671875,6.431040763235091,-0.09032543696090578,1.1987968934062867
1746481627567667200,4.257667236328125,5.106383812823891,0.34568887590914965,1.2226960937794298
1746481627577664300,4.267664306640625,3.148449417385459,0.5542338650591672,1.1563691528476774
1746481627587660300,4.277660400390625,0.9901578692972659,0.47853820727951824,1.0442561008401214
1746481627597656300,4.28765625,-0.9745137254416942,0.2910239138616249,0.808402687395364
1746481627607653000,4.297653076171875,-2.379346620851755,0.16254892511796204,0.24831571239382028
1746481627617649400,4.3076494140625,-2.961845480278134,0.10304945558607578,-0.5377493248566985
1746481627627646200,4.317646240234375,-2.7559254328042266,0.050077816920354956,-1.1364957008592784
1746481627637642200,4.327642333984375,-1.886276103416085,0.0718335389913991,-1.168940903520584
1746481627647639300,4.337639404296875,-0.6897498583555222,0.1205182210529223,-0.5870869909342378
1746481627657635300,4.34763525390625,0.19900866065025327,0.08449578095935284,-0.10051080395393074
1746481627667632400,4.35763232421875,0.6747375826627016,0.032459231186658145,0.11451477938704192
1746481627677628200,4.367628173828125,0.8023527397066355,0.012975582233443856,0.16173896044194697
1746481627687624200,4.377624267578125,0.6211509539037943,-0.07423102858718485,0.2137114320024848
1746481627697621200,4.387621337890625,0.2582482006043196,-0.23173406849242745,0.2871145218655467
1746481627707617300,4.3976171875,-0.05735387233793735,-0.26075547071751204,0.2332303714647889
1746481627717614000,4.407614013671875,-0.14032149388194085,-0.036400443093106145,-0.03001322627402842
1746481627727610400,4.4176103515625,-0.13502280295193195,0.23785719101522115,-0.28609168162383136
1746481627737606400,4.4276064453125,-0.1840676966279745,0.3588695157280192,-0.3314757877700031
1746481627747603200,4.437603271484375,-0.2453805357247591,0.5137874345108866,-0.12286452845074236
1746481627757599200,4.44759912109375,-0.42141280993521213,0.5396218772629275,0.31919790547713633
1746481627767596500,4.457596435546875,-0.5818436103880406,0.2020885064870119,0.6447169037345797
1746481627777592600,4.467592529296875,-0.42763153831958767,-0.3250213874662295,0.5953920240733772
1746481627787589600,4.477589599609375,0.04422726426124572,-0.7112339604109525,0.19202990767881273
1746481627797585400,4.48758544921875,0.5124591085165738,-0.6805847012557089,-0.1313830582100898
1746481627807581700,4.497581787109375,0.6715414169698953,-0.3314700886815786,0.004440685861185192
1746481627817578500,4.50757861328125,0.338250542601943,-0.06762538324445486,0.2692904036223888
1746481627827574500,4.517574462890625,0.02096913827061653,-0.07723605562206358,0.23639906462877988
1746481627837571600,4.527571533203125,-0.020951018092036245,-0.001992635121941566,0.11306268088258803
1746481627847567600,4.537567626953125,0.004572130221128463,0.17993253305200485,0.20533684075847267
1746481627857564400,4.547564453125,0.14463000473082066,0.4079128385014832,0.2687948021251708
1746481627867560700,4.557560791015625,0.34074645107090473,0.5127264542158693,0.4033717610057443
1746481627877556500,4.567556396484375,0.5798913072764873,-0.017328224484995006,0.6395290527679026
1746481627887553500,4.577553466796875,0.2735281873226166,-0.5131472369112074,0.8643455238915979
1746481627897549600,4.587549560546875,0.15633388652801514,-0.49296241741869595,0.861769828184694
1746481627907546600,4.597546630859375,0.14747078111469744,-0.22883871237710118,0.5293405025495216
1746481627917542400,4.60754248046875,-0.17856676112413405,0.08432508230125531,0.28431466201394795
1746481627927539700,4.617539794921875,-0.7763467763125896,0.2738560493038036,0.00335121012404561
1746481627937535500,4.627535400390625,-1.34761580119431,0.1260887968600262,-0.2850345737863332
1746481627947531500,4.637531494140625,-1.4201350939601658,-0.21865809462442992,-0.45612142748385665
1746481627957528600,4.647528564453125,-1.338184540504217,-0.4245086570587009,-0.4737807105541229
1746481627967524600,4.657524658203125,-1.595999610388279,-0.6389275797434151,-0.23616043356731534
1746481627977521700,4.667521728515625,-2.04676944771111,-1.1683223332308232,0.13084142561405895
1746481627987517700,4.677517578125,-1.3594038541436195,-1.7607494430840014,1.2255303673572837
1746481627997514500,4.687514404296875,0.14798574489951133,-1.4930281884744763,1.6392558376602828
1746481628007510800,4.6975107421875,0.4587415468543768,-0.18366101552322506,0.9079721919111907
1746481628017506600,4.707506591796875,-0.14069909502267836,0.8157467665478587,0.6883272782064974
1746481628027503600,4.717503662109375,-0.76812138428092,1.1411712914548813,-0.09976225060895084
1746481628037499600,4.727499755859375,-1.1354168195813894,1.034722110427916,-0.7720680760800838
1746481628047496400,4.737496337890625,-1.4967980624020099,0.7345584296360611,-1.1130668944768607
1746481628057492500,4.747492431640625,-1.9574632707953452,0.30397929355725645,-1.1463012016892433
1746481628067489500,4.757489501953125,-2.214719537752867,0.032223522734642025,-0.9345385656669736
1746481628077485600,4.767485595703125,-2.220752388176322,0.11585457662343979,-0.5680383723974227
1746481628087481600,4.777481689453125,-2.0557582253307105,0.48473172815740107,-0.16022884813994168
1746481628097478700,4.787478759765625,-1.6751731003463268,0.7532197293557226,-0.036110885562002655
1746481628107474700,4.797474609375,-1.235019934105873,0.9347146528862417,-0.0745864544287324
1746481628117471500,4.807471435546875,-0.7547662281453609,1.0175615706600247,-0.00028057050704956055
1746481628127467500,4.817467529296875,-0.28077392066717144,1.0106574172947556,0.19487959802150726
1746481628137464600,4.827464599609375,0.08273381278812884,0.7882542178578674,0.35862171497941014
1746481628147460400,4.83746044921875,0.3898077113598585,0.4834156771227717,0.48293841499984264
1746481628157456600,4.84745654296875,0.5726677857637406,0.31599998621866104,0.5343468229368329
1746481628167453400,4.857453369140625,0.5919803889989853,0.3453705306749791,0.6881441767245531
1746481628177449500,4.867449462890625,0.655784460389614,0.48828456180077046,0.9657236852645873
1746481628187446500,4.877446533203125,0.7766384527355432,0.6570633942842483,1.2467746693074702
1746481628197442600,4.887442626953125,0.9576251344829797,0.8246769458480179,1.2665773941472172
1746481628207439600,4.897439697265625,1.1096668767750262,0.9847029648922383,0.9379948436006903
1746481628217435600,4.907435546875,1.1763596553444862,0.9830527134671807,0.6192822374224662
1746481628227431400,4.917431396484375,1.033815809237957,0.8521483056195079,0.3589560615003109
1746481628237428700,4.9274287109375,0.7808844197422266,0.5946151214167475,0.3788783210664987
1746481628247424500,4.937424560546875,0.5758925930291414,0.0631593072136864,0.2772814023762941
1746481628257421600,4.947421630859375,0.46641807283163067,-0.20831172838341444,0.23878712880909442
1746481628267417600,4.95741748046875,0.5334674097537994,-0.20703168024392798,0.3198696672588587
1746481628277414700,4.96741455078125,0.6924298912197351,-0.17815238990327342,0.2520706810131669
1746481628287410400,4.977410400390625,0.803093913462758,-0.10621834967946633,-0.03776683607548475
1746481628297406700,4.98740673828125,0.6319546719908714,0.07202716186735779,-0.34809418348520993
1746481628307403500,4.997403564453125,0.11437924337387084,0.25579839629940687,-0.3080003657668829
1746481628317399600,5.007399658203125,-0.3640507542908191,0.337199754907377,0.14799480498880146
1746481628327396600,5.017396728515625,-0.5395148732244968,0.19488215530477462,0.50138826392591
1746481628337392600,5.027392578125,-0.35223522881269453,0.03920402927175164,0.827723327806592
1746481628347389400,5.037389404296875,0.06418459514081477,-0.12182999777123331,1.0265338355362414
1746481628357385700,5.0473857421875,0.7131921087414026,-0.3092790804658085,0.975498644825816
1746481628367381500,5.057381591796875,1.3415630770266056,-0.374273165358603,0.8239946626722812
1746481628377378600,5.067378662109375,1.8280466172873973,-0.1954063983745873,0.823500741675496
1746481628387374600,5.07737451171875,2.122670784130692,-0.006068652389198541,0.9442179558992385
1746481628397371600,5.08737158203125,2.2178414691656827,0.16993154618255793,1.181880464592576
1746481628407367400,5.097367431640625,2.059439544191956,0.20006956788003444,1.3191741350859403
1746481628417363700,5.10736376953125,1.7332541179150343,-0.0009459025479853153,1.2865543065100908
1746481628427360500,5.117360595703125,1.4430395842075348,-0.22701712297312915,1.3618705365180968
1746481628437356500,5.1273564453125,1.2681599871635436,-0.40491643316447734,1.4496458506047725
1746481628447353600,5.137353515625,1.2984253615677357,-0.4677279863864183,1.5843500891268252
1746481628457349600,5.147349609375,1.4932102670431135,-0.3884401493337005,1.7993500996351242
1746481628467346700,5.1573466796875,1.780976238554716,-0.25626615994162855,2.142756125304103
1746481628477342700,5.1673427734375,1.8568898499339819,-0.3971057594135403,2.6118986546635625
1746481628487338500,5.17733837890625,1.8532810117870568,-0.7122475213676691,2.8498090006381274
1746481628497335600,5.18733544921875,2.263577968946099,-0.8252229623582213,2.5590000081688165
1746481628507331600,5.19733154296875,2.925575312501192,-0.5235994381468743,2.170753847037256
1746481628517328400,5.207328369140625,3.4633225915312766,0.044701019252836705,1.6686027820453047
1746481628527324700,5.21732470703125,3.7706490035593507,0.6322244288429617,1.0089432337880133
1746481628537321500,5.227321533203125,3.6717993377506732,0.46366917598228896,0.22309300833195447
1746481628547317500,5.2373173828125,2.242681311389804,-0.44416751644834873,-0.40082624124139543
1746481628557313800,5.247313720703125,-0.3670551968038082,-1.666397673216462,-0.9666638887241482
1746481628567310600,5.257310546875,-3.0001930388510227,-1.637025740520656,-2.6302894668787715
1746481628577306600,5.267306640625,-5.019897369503974,-0.41334100103005766,-4.774085748885572
1746481628587303700,5.2773037109375,-5.610377875334024,0.5962913840658962,-5.975338145685195
1746481628597299500,5.287299560546875,-5.132723538216948,1.306061847795546,-6.232525439059734
1746481628607296500,5.297296630859375,-4.032816423434019,1.5447013848274946,-5.6465726397871965
1746481628617292500,5.30729248046875,-2.69758254942894,0.995377942033112,-4.673043249207735
1746481628627288600,5.31728857421875,-1.6417647517412899,0.3483059265397489,-3.6093548642754554
1746481628637285400,5.327285400390625,-0.9771727155178784,0.5411365196095779,-2.544355981266498
1746481628647281700,5.33728173828125,-0.5058896669983863,0.6435144691422582,-1.432185012716055
1746481628657278500,5.347278564453125,0.12171791569888592,-0.20476484955679625,0.021857118352595715
1746481628667274500,5.3572744140625,1.158842118832469,-1.0009184058297425,1.1722601110711692
1746481628677271600,5.367271484375,1.1323340511351823,-1.0876104547243566,2.0495526486888527
1746481628687267600,5.377267578125,0.6600380261808634,-1.1139354940049349,2.6811867104232308
1746481628697263400,5.387263427734375,0.17263737107515334,-0.8376955635055899,2.8146695904567838
1746481628707260700,5.3972607421875,-0.3598345979005098,-0.2611077912865206,2.421799861177802
1746481628717256400,5.40725634765625,-0.9363158044725656,0.23807306225560604,1.7098855172872542
1746481628727253800,5.417253662109375,-1.437404793190956,0.45243915877453983,1.0810958121333272
1746481628737249500,5.42724951171875,-1.5177093330055473,0.4204636194515973,0.6313280645251274
1746481628747245600,5.43724560546875,-1.1268389608502387,0.3107082730187103,0.21919848511144518
1746481628757242600,5.44724267578125,-0.5561977124780416,0.1752125918580219,-0.1782836333338171
1746481628767238700,5.45723876953125,-0.14963526567220686,-0.01677380547262728,-0.4654273082286119
1746481628777235200,5.467235107421875,0.10815116263926029,-0.17687212256807833,-0.6400676166240126
1746481628787231200,5.477231201171875,0.24070786773860453,-0.23721027141381054,-0.6220809282302856
1746481628797228000,5.48722802734375,0.19989947201013564,-0.24970435374062508,-0.4099202328011393
1746481628807224300,5.497224365234375,0.08241466383635997,-0.2796906920077279,-0.11671367767080663
1746481628817220000,5.50722021484375,0.0040939913153648375,-0.2895150071360171,0.1418435888826847
1746481628827217200,5.517217041015625,0.003293780848383903,-0.23542232855111359,0.32713958519659936
1746481628837213200,5.527213134765625,0.02690086640715599,-0.10640976233202963,0.41994807114489374
1746481628847210200,5.537210205078125,0.020797288835048673,0.007501534736528992,0.43599948062710464
1746481628857206000,5.5472060546875,-0.015875614523887634,0.015830752468854188,0.3713387193419039
1746481628867203300,5.557203369140625,-0.05407704262435436,-0.02912482606694102,0.18861125834174453
1746481628877199000,5.56719921875,-0.054417818886041636,-0.054324368448928,-0.009379822763800621
1746481628887195100,5.577195068359375,-0.02003273420333862,-0.09648790511339903,-0.07528546954356133
1746481628897192200,5.587192138671875,0.009837503403425216,-0.12909944078493862,-0.036724852741882204
1746481628907188200,5.597188232421875,0.05995908640027046,-0.059064366050250824,0.041906858489662406
1746481628917185300,5.607185302734375,0.07503975115418433,0.06274919204283505,0.09174363319575786
1746481628927181300,5.617181396484375,0.0554606059372425,0.14809987279847264,0.06444003120660781
1746481628937178000,5.62717822265625,-0.022657237488031386,0.14730627473536878,0.004011427598446607
1746481628947174100,5.637174072265625,-0.1395475868999958,0.11531272483170033,-0.05010784673243761
1746481628957170200,5.647170166015625,-0.18010989891290663,0.09676610100027173,-0.06889591463692486
1746481628967167200,5.657167236328125,-0.1376683490246534,0.06771919900774956,-0.05811791551299393
1746481628977163000,5.6671630859375,-0.05195055198967456,0.020527093591541052,-0.052897696646675464
1746481628987160300,5.677160400390625,-0.0001344400346279144,0.01394362354800105,-0.031237872698158024
1746481628997156000,5.687156005859375,-0.008075169906020164,-0.007430515326932072,-0.034948856045305725
1746481629007153200,5.697153076171875,-0.036032267367839814,-0.04956610453855246,-0.023923311901092526
1746481629017149200,5.707149169921875,-0.05057867911458015,-0.07222093087378889,0.005327040241658687
1746481629027145200,5.717145263671875,-0.0051291795819997784,-0.07906538994107395,0.10675663954094051
1746481629037142300,5.727142333984375,0.08944996930062771,0.0030280425842851397,0.16881050626337527
1746481629047138300,5.73713818359375,0.14265665883123874,0.05860149777885526,0.18926511914059518
1746481629057135000,5.747135009765625,0.11578969469368457,0.04860259326864034,0.17456994657292962
1746481629067131400,5.75713134765625,0.0482891068726778,0.014118651321344078,0.1056574461273849
1746481629077128200,5.767128173828125,-0.05027238964438438,-0.06535868042148649,0.019833412238955496
1746481629087124200,5.777124267578125,-0.13124971415400505,-0.11269026737362146,-0.0866416338816285
1746481629097120300,5.787120361328125,-0.16520985142290592,-0.1436427837917581,-0.13317074534446
1746481629107117000,5.797116943359375,-0.15201134715378284,-0.18210772166661918,-0.10269625823423266
1746481629117113000,5.807113037109375,-0.02543897716104984,-0.15608575698584318,0.02738645796701312
1746481629127110100,5.817110107421875,0.0861778157621622,-0.04088277613893151,0.11172522173374891
1746481629137106200,5.827106201171875,0.12257774739861488,0.05295815812963992,0.14484934656992554
1746481629147102200,5.837102294921875,0.040130350336432453,0.10376344907432794,0.07411503752470017
1746481629157099300,5.847099365234375,-0.0809013366639614,0.04769515956752002,-0.023115210388600826
1746481629167095300,5.85709521484375,-0.1331201842010021,0.005635740864649415,-0.07770034866556524
1746481629177092000,5.867092041015625,-0.08065876007974147,-0.05121504078935832,-0.02845876337364316
1746481629187088100,5.877088134765625,0.03000993833839893,-0.03517108396124095,0.02243731112703681
1746481629197085200,5.887085205078125,0.055631870850920674,-0.0076954498734325165,0.042318800291419024
1746481629207081000,5.8970810546875,0.009828735575079918,0.007232618134655058,0.013674743478745222
1746481629217077200,5.9070771484375,-0.06991174061596393,-0.007422368553094565,0.003428074752539396
1746481629227074000,5.917073974609375,-0.077768883857131,-0.00868197669275105,0.005850333463400602
1746481629237070000,5.927070068359375,-0.03608896599113941,-0.007574015450850129,0.008313216445595026
1746481629247067100,5.937067138671875,0.010496844094991683,-0.004760821193642914,0.02302855501845479
1746481629257063200,5.947063232421875,0.016868717214465142,-0.06300254574939608,0.0972822703614831
1746481629267060200,5.957060302734375,0.055792029848694795,-0.015413951828889548,0.11248436953797936
1746481629277056300,5.96705615234375,0.05932663371562957,0.03186974086090922,0.08929141773805022
1746481629287052000,5.977052001953125,-0.00194236623942852,0.036199915552325546,0.03838365279957652
1746481629297049300,5.98704931640625,-0.05780746132433414,0.03577818300891667,-0.02836100208759308
1746481629307045000,5.997045166015625,-0.06831073516011238,0.0317730390207842,-0.06976561014354228
1746481629317042200,6.007042236328125,-0.045516135028004646,-0.005924640808627009,-0.06054360828995704
1746481629327038200,6.0170380859375,0.009329553881287575,-0.06552136016990989,0.013360270702093838
1746481629337034200,6.0270341796875,0.07996317903101444,-0.07085022704247385,0.11778773664310574
1746481629347031000,6.037031005859375,0.09322948783934115,-0.009359072236716746,0.14672756153196095
1746481629357027300,6.04702734375,0.05707154826521873,0.031105222761817274,0.14197832117825746
1746481629367024000,6.057024169921875,-0.004153028026223182,0.053467203630320724,0.13112769520953296
1746481629377020200,6.067020263671875,-0.05555880561470985,0.036872992508299646,0.08017989052161574
1746481629387017200,6.077017333984375,-0.05298340216875076,0.09068426033593714,-0.03359641852304339
1746481629397013200,6.08701318359375,-0.037333997616171836,0.15851046338211744,-0.11292027673721312
1746481629407009000,6.097009033203125,-0.09381517877280711,0.14276749879457057,-0.0753249978363514
1746481629417006300,6.10700634765625,0.292751943230629,-0.3052975365489721,0.24057313544303177
1746481629427002000,6.117002197265625,0.1788794803351164,-0.49044575842265037,0.4545677683010697
1746481629436999200,6.126999267578125,-0.05150689987540245,-0.2628284410666674,0.13121449671015142
1746481629446995200,6.1369951171875,-0.3029062574982643,0.025207433427497743,-0.08930369269773364
1746481629456992300,6.1469921875,-0.4055763583779335,0.18998988975118844,-0.16289266052171586
1746481629466988000,6.156988037109375,-0.245309808576107,0.21855408626068382,-0.1862165452249348
