time,seconds_elapsed,z,y,x
1746481544978499000,0.5504990234375,-0.12666647801697253,0.04299377694353461,0.26982292133020236
1746481544988495000,0.5604951171875,-0.14537994631528853,0.11630889626219867,0.1929360810046084
1746481544998492200,0.5704921875,-0.13913082279264927,0.16762889526337385,0.11689551877742632
1746481545008488200,0.58048828125,-0.10013210683465003,0.11355287555232643,0.08726238699532113
1746481545018484200,0.590484130859375,-0.07626023285984992,0.03123845722004771,0.08315494254333898
1746481545028481300,0.600481201171875,-0.0155851071447134,-0.035935675125569104,0.07439575416222215
1746481545038477000,0.61047705078125,0.07963643129467964,-0.06427095825001597,0.04845021571852266
1746481545048474000,0.62047412109375,0.11592588829398155,-0.12248875394091009,0.06436501147532835
1746481545058470100,0.63047021484375,0.09740823482871055,-0.16139263122230768,0.07335373429600149
1746481545068466200,0.640466064453125,0.05710954218804836,-0.14776245753765105,0.07090164670245722
1746481545078463000,0.650462890625,0.015901333487033844,-0.1305250531412661,0.03454233933733776
1746481545088459300,0.660459228515625,-0.020603812089562416,-0.11958821019381284,0.0004409304342232644
1746481545098456000,0.6704560546875,-0.056336219727993006,-0.07135375611782073,-0.05579060507658869
1746481545108452000,0.6804521484375,-0.06782090581655502,-0.022087474776059386,-0.049297370599769054
1746481545118448400,0.690448486328125,-0.06120587159097194,0.02047653244808316,-0.016354447549395263
1746481545128445200,0.700445068359375,-0.048781274303793906,0.0318250249363482,0.035698541901446876
1746481545138441000,0.71044091796875,-0.008408931905031204,0.03390840708166361,0.0420850280681625
1746481545148438300,0.720438232421875,0.005078910699486732,-0.0076147127874195576,0.053996689130831506
1746481545158434000,0.73043408203125,-0.009874328282475472,-0.03905643749460578,0.05340148145034909
1746481545168430000,0.74043017578125,-0.005105214184522628,-0.07255728668868541,0.03346904755001887
1746481545178427100,0.75042724609375,0.013420622587203978,-0.07965133660286665,0.0009678221188485622
1746481545188423200,0.760423095703125,0.06657236706018448,-0.040531478483229876,-0.03866148336026817
1746481545198420200,0.770420166015625,0.12986673536300658,-0.00974909446761012,-0.0633915085343644
1746481545208416300,0.780416259765625,0.13213000411987305,0.0328606515944004,-0.08487403968721628
1746481545218412300,0.790412353515625,0.09883622180521488,0.06453881540596484,-0.08030300544463098
1746481545228409300,0.800409423828125,0.05848375315070152,0.043106735798716544,-0.047581360462121663
1746481545238405000,0.810405029296875,-0.016630232283473014,0.0041328620210289956,-0.04019504960309714
1746481545248402200,0.820402099609375,-0.05807692591547966,0.028870120653510092,-0.027145890676788985
1746481545258398200,0.830398193359375,-0.054880175700783726,0.060273266915976995,-0.010263181469589471
1746481545268394200,0.840394287109375,-0.005145546194911003,0.05182312621772289,0.03111592681892216
1746481545278391000,0.85039111328125,0.06170622232854366,0.033269963047653436,0.06672945731803774
1746481545288387300,0.86038720703125,0.11073065773844719,-0.00485328525006771,0.049566835190914565
1746481545298384100,0.870384033203125,0.11252221733033656,-0.04281622841954231,0.0246177969712764
1746481545308380200,0.880380126953125,0.05824000752270221,-0.019454934315383435,0.007416669464670121
1746481545318376200,0.890376220703125,-0.04147591972649097,-0.016628478717803954,0.029035321152582762
1746481545328373200,0.900373291015625,-0.18689327544271944,-0.0322118322968483,0.01917717681992799
1746481545338369000,0.910369140625,-0.26931495354175566,-0.02653875509649515,-0.01143357695583254
1746481545348366300,0.920366455078125,-0.24114684367775915,-0.02188420728892088,-0.060730363033711904
1746481545358362000,0.930362060546875,-0.13227671911418437,0.012381634928286075,-0.06107384270913899
1746481545368358100,0.940358154296875,-0.00027180267870426176,0.012397563149780034,-0.04032755340896547
1746481545378355200,0.950355224609375,0.12008943771421908,-0.033746056126803155,-0.008905117924138903
1746481545388351200,0.960351318359375,0.17752981929183007,-0.11220657550990581,-0.0061055868661031125
1746481545398348000,0.97034814453125,0.12940204046070575,-0.17280951277166604,-0.07435257260762154
1746481545408344300,0.98034423828125,0.07605389663279057,-0.185187640568614,-0.15163184631690382
1746481545418340000,0.990340087890625,0.05851356376707553,-0.18326485581248997,-0.23643004428893327
1746481545428337200,1.000337158203125,0.09698094932734966,-0.16200214142277836,-0.30974253325909373
1746481545438333200,1.010333251953125,0.12115151398777961,-0.10264715839549898,-0.31230642893034966
1746481545448330200,1.020330322265625,0.17502748108208177,-0.03316226488947868,-0.25099737095953895
1746481545458326000,1.030325927734375,0.1891699882030487,0.06015694705992937,-0.13759166705925016
1746481545468322300,1.040322265625,0.17299977464675903,0.1372873868830502,-0.02224438237082213
1746481545478319000,1.050319091796875,0.10332067374289035,0.18002265902087092,0.08010361041501164
1746481545488315100,1.060315185546875,0.02539163088798523,0.1904622199706733,0.1493166099107824
1746481545498312200,1.070312255859375,-0.014674422040581702,0.1769252775274217,0.16296411832273006
1746481545508308200,1.08030810546875,0.0030582185268402096,0.15066607002466917,0.11834160766620189
1746481545518304000,1.090303955078125,0.09093933107554912,0.11238412403389811,0.02789711090289056
1746481545528301300,1.10030126953125,0.15622574997842312,0.05061331203654408,-0.07002444374281913
1746481545538297000,1.110297119140625,0.19511106868982314,-0.005468786799907684,-0.07523779447693377
1746481545548293000,1.120293212890625,0.13443769654035567,-0.07581541170179844,-0.04185556669384241
1746481545558290200,1.130290283203125,0.05956745673418045,-0.08249430494382977,-0.027762451672554013
1746481545568286200,1.1402861328125,-0.006270166310667991,-0.048087008429318664,-0.008611651402898133
1746481545578283000,1.150282958984375,-0.04745791674554348,-0.02842851436585188,0.011677760975249111
1746481545588279300,1.160279296875,-0.06126490830183029,-0.03547244152799248,0.008957195171248168
1746481545598275000,1.170275146484375,-0.06107026251256466,-0.036205724238604305,0.02203894119290635
1746481545608272100,1.180272216796875,-0.05171031349301338,-0.07885901718139648,-0.006929342605452984
1746481545618268200,1.19026806640625,-0.10619067622125149,-0.12347995693534612,0.028603359476104376
1746481545628265200,1.20026513671875,-0.15837795957624912,-0.19373919581472873,0.0685752130488865
1746481545638261000,1.210260986328125,-0.3943243120014667,-0.24402488333210348,0.09172436223970726
1746481545648257300,1.22025732421875,-0.6535042404979468,-0.13345847624465823,0.029978575085755434
1746481545658254000,1.230254150390625,-0.6882447144895791,0.02892243536263704,0.0543787472509779
1746481545668250000,1.24025,-0.576204727718234,0.04490297156572342,0.0745783807201311
1746481545678247200,1.2502470703125,-0.5402648148089647,0.12210706114694475,0.13724398613274097
1746481545688243200,1.2602431640625,-0.43508185432553287,0.20948037030398844,0.297628901617229
1746481545698239000,1.270239013671875,-0.293359845995903,0.20506167707890272,0.4165581729782745
1746481545708236000,1.280236083984375,-0.15024316843748092,0.16187106238901613,0.5008533898642287
1746481545718232000,1.290232177734375,-0.07858955259025097,0.1477702024526894,0.5964910348238424
1746481545728229000,1.30022900390625,-0.11026713187992572,0.18685279730185866,0.7864080054692923
1746481545738225000,1.310224853515625,-0.199538822004199,0.1936161539569497,0.9532057106055318
1746481545748221200,1.32022119140625,-0.20962240912318228,0.34567484738379717,0.9242685891304164
1746481545758218000,1.330218017578125,-0.23643325915932653,0.2901525743871927,0.5431322965366766
1746481545768214000,1.340214111328125,-0.34188685327768326,-0.045693829682469364,0.12693362278686834
1746481545778211000,1.350211181640625,-0.08346680323779583,-0.14426599372401833,-0.0745014430264011
1746481545788207000,1.36020703125,0.3329617885440588,-0.1446452022999525,-0.09016387145733461
1746481545798203000,1.370202880859375,0.6954968775749206,-0.32790596645921466,0.01198512815767899
1746481545808200200,1.3802001953125,0.8799649716973305,-0.5550405052669346,0.14229182584052905
1746481545818196000,1.390196044921875,0.8663760068058967,-0.6654793404519558,0.2386194806246087
1746481545828193000,1.400193115234375,0.6142734693497419,-0.6219371358454228,0.3737888159077614
1746481545838189000,1.41018896484375,0.20021686739623545,-0.5288818355292082,0.6141499160353094
1746481545848185000,1.42018505859375,-0.18786475082337856,-0.44184798745959997,0.8779065047975629
1746481545858182000,1.430181884765625,-0.43429567238390443,-0.4096263644210994,1.1100905820798128
1746481545868178200,1.44017822265625,-0.5439601621955633,-0.5264144225023687,1.279884619487822
1746481545878175000,1.450175048828125,-0.5401145926833153,-0.7641023578979075,1.4330720246836541
1746481545888171000,1.4601708984375,-0.4703752860248089,-1.025548039369285,1.5487472992174327
1746481545898167000,1.4701669921875,-0.3737736914038658,-1.2710915105707943,1.6911290866300464
1746481545908164000,1.4801640625,-0.26229250755906103,-1.43278151730448,1.845106911551207
1746481545918160000,1.490159912109375,-0.01863280427753925,-1.5645556937240064,2.078400557510555
1746481545928157200,1.5001572265625,0.2538958506137132,-1.7050222951650618,2.553152451184392
1746481545938153000,1.510153076171875,0.8598679400861263,-1.5748030931025743,2.500657124793529
1746481545948149000,1.52014892578125,1.3517407721698282,-1.3842873893789946,2.7008091102600096
1746481545958146000,1.53014599609375,1.7845874147891998,-1.2491264931306243,3.1109210662409663
1746481545968142000,1.54014208984375,2.4184768542349335,-1.1895527527861296,3.690886607797444
1746481545978139100,1.55013916015625,3.518224979063868,-1.216264526361972,4.516125133050978
1746481545988135200,1.56013525390625,4.7490357710421085,-1.4648834594860671,5.271660299742222
1746481545998131000,1.570130859375,5.9167398262441155,-2.101656929935515,5.420209523743391
1746481546008128300,1.580128173828125,7.784563742646575,-2.7525258534938097,4.6790725924998515
1746481546018124000,1.5901240234375,9.32197204785645,-2.727260187073052,3.878115691065788
1746481546028121000,1.60012109375,9.357351988795399,-1.6180518677204847,3.527241229212284
1746481546038117000,1.6101171875,9.379924470609426,-0.947755555440858,2.766786434036493
1746481546048113200,1.620113037109375,9.438352694180606,-0.3482815958160907,1.9768790421441196
1746481546058110000,1.63010986328125,9.521133268719911,0.5359261280175298,1.2749021549001336
1746481546068106200,1.640106201171875,9.561341944989561,0.9968813323333859,1.1358012888543307
1746481546078102000,1.65010205078125,9.511342527067661,0.8504208242397755,1.4496188164673744
1746481546088099000,1.66009912109375,9.453869412264227,0.7413277776405215,1.7370793752916156
1746481546098095000,1.67009521484375,9.394376774331926,0.6209750128149986,1.9923004831597209
1746481546108092200,1.680092041015625,9.316036812588571,0.5155146236296743,2.2607718254841864
1746481546118088000,1.690087890625,9.225134890913964,0.404327162034437,2.517049748928845
1746481546128084200,1.700084228515625,9.126604374057054,0.29765153357414526,2.778276673083007
1746481546138081000,1.7100810546875,9.04108297637701,0.1867046210028231,3.01367240588814
1746481546148077000,1.7200771484375,8.931964430010318,0.09139511201903223,3.259814281374216
1746481546158074000,1.73007421875,8.82649680736661,-0.020450630821846425,3.4915272340133785
1746481546168070100,1.740070068359375,8.737806716522574,-0.12251286546885967,3.7192087391793724
1746481546178066000,1.75006591796875,8.61504250664115,-0.2213480278281495,3.9198502617284654
1746481546188063200,1.760063232421875,8.50062059316933,-0.317703356070444,4.13024277844131
1746481546198059000,1.77005908203125,8.3592726788491,-0.4170753652527928,4.345061587163806
1746481546208056000,1.78005615234375,8.243104798492789,-0.5234100530546159,4.533759281679988
1746481546218052000,1.790052001953125,8.11979055351317,-0.6173939394578337,4.726830953496695
1746481546228048100,1.800048095703125,8.00091224515438,-0.71141815787144,4.892559275835752
1746481546238045000,1.810044921875,7.875448713186382,-0.7981234315738082,5.067758606353402
1746481546248041200,1.820041259765625,7.73522483446002,-0.9008618484493345,5.229354358932375
1746481546258037000,1.830037109375,7.587178883805871,-0.9943573668137192,5.388363017627596
1746481546268034000,1.840033935546875,7.462696764090657,-1.0727435057863592,5.515391314694285
1746481546278030000,1.850030029296875,7.342729491451382,-1.1649820828922093,5.654948838466406
1746481546288027100,1.860027099609375,7.220516485711932,-1.2524335718519986,5.779844799679517
1746481546298023000,1.87002294921875,7.088299387830496,-1.3199889586001634,5.893472347903251
1746481546308019200,1.880019287109375,6.974261505240202,-1.3997219821371136,6.001743922051787
1746481546318016000,1.89001611328125,6.867896641495824,-1.4838013643153012,6.103955173248052
1746481546328012000,1.900011962890625,6.757915925341845,-1.5511287875264883,6.179985689005255
1746481546338009000,1.910009033203125,6.648021133905649,-1.6314716135248541,6.245280291214585
1746481546348005000,1.920005126953125,6.529473664936423,-1.7085151057168841,6.323529067543149
1746481546358001000,1.9300009765625,6.45521483502686,-1.7908870994552968,6.381664445647597
1746481546367998200,1.939998291015625,6.355905150490999,-1.8499312629677354,6.438212262299657
1746481546377994000,1.949993896484375,6.267323196196556,-1.9219383684277533,6.471387386670708
1746481546387991000,1.959990966796875,6.195580733022093,-1.9899010208025574,6.492448879399896
1746481546397987000,1.969987060546875,6.105605278542638,-2.039244312903285,6.509848342490196
1746481546407983000,1.979983154296875,4.998287010720372,-1.8323846464917062,5.830087963229418
1746481546417980000,1.98997998046875,-16.587746894443033,1.966797062460333,-9.804415957337618
1746481546427976200,1.99997607421875,-59.03270337626934,19.14566962876916,-49.16228437619209
1746481546437972000,2.009971923828125,-82.53310667591094,38.328309098017215,-67.92744311425686
1746481546447969000,2.019968994140625,-80.1355381696701,31.502061394727228,-39.298552306532855
1746481546457965000,2.029965087890625,-71.34844865906238,13.618227226275204,-3.998275855928659
1746481546467962000,2.039962158203125,-57.43299789710044,7.235137131738663,8.269066922745107
1746481546477958000,2.0499580078125,-40.21205246808529,4.465006647971272,7.780011486169696
1746481546487954200,2.0599541015625,-22.398476661729813,1.9928912886597214,4.733476675121486
1746481546497951000,2.069950927734375,-8.554590083765984,0.6000432108800858,3.1306305598393083
1746481546507947000,2.079947021484375,0.6358282985538244,-0.374704652111046,2.7623370534121987
1746481546517944000,2.089944091796875,6.102831137654185,-0.7425889566827565,2.5887057028636336
1746481546527940000,2.099940185546875,8.85523541059494,-0.6944615431778133,2.4026672906845805
1746481546537936000,2.109935791015625,9.69762322356999,-0.5404645020995289,1.9139340718008577
1746481546547933200,2.11993310546875,9.435667400619387,-0.38178087410759176,1.1071802475910633
1746481546557929000,2.129928955078125,9.68003379086554,0.3704983960602432,0.8736434405256063
1746481546567926300,2.13992626953125,9.754965405470132,0.8164592256661504,0.8621225140798836
1746481546577922000,2.149922119140625,9.646890815198422,0.9422006977926939,0.8836764665011316
1746481546587918000,2.15991796875,9.62445686507225,1.0850004183564335,0.8772878614425659
1746481546597915100,2.1699150390625,9.599519992214441,1.236198622496426,0.8860975561682134
1746481546607911200,2.1799111328125,9.582610942989588,1.3913276632793248,0.8818465476602315
1746481546617907000,2.189906982421875,9.58993324870169,1.498851195539534,0.9165384332697838
1746481546627904300,2.199904296875,9.650756842976808,1.3712461214981972,0.8968581657659261
1746481546637900000,2.209900146484375,9.624872460135817,0.755754362399876,0.8236858889840543
1746481546647897000,2.21989697265625,8.764293156909941,-0.40900954769700765,0.6135473470322788
1746481546657893000,2.22989306640625,7.036218487459421,-2.136300227162987,-0.02491071550324559
1746481546667889200,2.23988916015625,4.389544287490844,-4.0830192549735305,-0.4407385283803567
1746481546677886000,2.249885986328125,0.4885188454806804,-5.599018276929855,-1.3626090799257158
1746481546687882000,2.259882080078125,-5.291076363351941,-6.105841425386071,-3.028454379956424
1746481546697878800,2.269878662109375,-10.15490112761259,-5.028659352630377,-3.5202839574202893
1746481546707875000,2.279875,-12.46198798341751,-2.7650904437735675,-2.349215686482191
1746481546717870800,2.289870849609375,-11.780968544006347,-0.1253584732914809,-0.5036675339695066
1746481546727868000,2.299867919921875,-8.843256218987703,2.1677355221293864,0.9485452445138245
1746481546737864000,2.309864013671875,-5.211913394787907,3.5431335026100275,1.5765343008093535
1746481546747860000,2.31985986328125,-1.9062872103095054,3.8080116427481174,1.5154165458932518
1746481546757856800,2.329856689453125,0.39754210500419135,3.117167267154157,1.1496287386767565
1746481546767853000,2.33985302734375,1.6895897482335567,1.9747649725995957,0.9119573160246014
1746481546777849900,2.349849853515625,2.2775211541026827,0.8492669049642979,0.7262878832884132
1746481546787846000,2.359845947265625,2.369786765345931,-0.09518741697408259,0.40608525774814186
1746481546797842000,2.369842041015625,2.181453227967024,-0.8145216086670756,0.015530089021846652
1746481546807839000,2.3798388671875,1.792042991492152,-1.2231215526498853,-0.38297169132735576
1746481546817834800,2.389834716796875,1.2464309704363346,-1.2505433741912244,-0.713843119996041
1746481546827832000,2.39983203125,0.5725199017256498,-0.8640482214454561,-0.8489398649670183
1746481546837827800,2.409827880859375,-0.039219665232300756,-0.3429713240461424,-0.7534832025974989
1746481546847824000,2.419823974609375,-0.5087713599145413,0.011981054770760238,-0.43574645571410653
1746481546857821000,2.429821044921875,-0.6640805795699357,0.14973817805740983,-0.028650322156678884
1746481546867817000,2.43981689453125,-0.5329688125818968,0.19159988223109392,0.2976177957013249
1746481546877814000,2.44981396484375,-0.2465478259384632,0.16369005797710268,0.420230614413321
1746481546887810000,2.45981005859375,0.036544308543205256,0.10516177156493067,0.2979814413819462
1746481546897805800,2.469805908203125,0.1184200431972742,0.039321006714925166,0.035292938508931546
1746481546907803000,2.479802978515625,0.07706979567706584,-0.013077581303194164,-0.22603675189996136
1746481546917799000,2.489798828125,0.04820493572056293,-0.0712995417125523,-0.309677468666248
1746481546927796000,2.4997958984375,-0.009956161347031593,-0.15080310387518256,-0.21762681534793227
1746481546937791700,2.509791748046875,-0.03699497492015361,-0.17954137830995023,-0.06587952595781535
1746481546947788000,2.5197880859375,-0.04311082745194435,-0.11421210664603859,0.050696588139515365
1746481546957784800,2.529784912109375,-0.02830722607374191,0.0004969166714698076,0.041098245520517225
1746481546967780900,2.53978076171875,-0.01815758798122406,0.04429455734379589,-0.010311185329779982
1746481546977777000,2.54977685546875,-0.01742985822856426,0.025067988424189388,-0.06873540857927873
1746481546987774000,2.55977392578125,-0.020729484295845032,-0.020256496489234267,-0.10692721033487468
1746481546997769700,2.569769775390625,-0.012646715605258941,-0.07981544112339616,-0.09313296866230666
1746481547007767000,2.57976708984375,-0.028050036442279814,-0.09982095852624624,-0.0792020949980244
1746481547017762800,2.5897626953125,-0.023398411244153976,-0.07574932419564574,-0.05771612977907061
1746481547027758800,2.5997587890625,-0.0075333181142807,-0.05128094563242048,-0.026499098939541724
1746481547037756000,2.609755859375,-0.01846212388575077,-0.03139693571738898,-0.027119495860207826
1746481547047752000,2.619751953125,-0.024009236618876457,-0.021862105054967104,-0.04050983290700242
1746481547057749000,2.6297490234375,-0.028209026396274563,-0.03771558081228286,-0.08068466170597821
1746481547067745000,2.6397451171875,-0.011743629285693167,-0.04970843561869114,-0.10454816971123218
1746481547077740800,2.64974072265625,-0.01637245813012123,-0.07134411150664091,-0.08457304744664579
1746481547087738000,2.659738037109375,-0.015467618244886397,-0.06526033461354673,-0.04842340077683329
1746481547097734000,2.66973388671875,-0.03174596835076809,-0.05869173334557563,-0.011550243871752172
1746481547107731000,2.67973095703125,-0.06493102959394455,-0.10666855939868837,-0.008011493552662431
1746481547117727000,2.68972705078125,0.03551555001735687,-0.05508676765616983,-0.08232954283617436
1746481547127723000,2.699722900390625,0.15298983679711817,-0.1356569726696238,-0.10814516215673647
1746481547137719800,2.7097197265625,0.19981997703313825,-0.331759609680064,-0.16523984470237046
1746481547147716000,2.719716064453125,0.2781669530391693,-0.31719756197277454,-0.35192930466867983
1746481547157712000,2.7297119140625,0.3325760040968656,-0.17716730612237006,-0.5018067815989256
1746481547167709000,2.739708984375,0.38520869313180445,-0.0546329229414463,-0.5417387963516638
1746481547177705000,2.749705078125,0.4730839604616165,0.03063007953073829,-0.43079504385180767
1746481547187702000,2.759701904296875,0.5317874938428402,0.010226283525303005,-0.2320530347811058
1746481547197697800,2.76969775390625,0.5036684838175773,-0.0725160413628444,-0.027467121987789868
1746481547207694000,2.779694091796875,0.3136497698307037,-0.20191669358406214,0.1853360725959763
1746481547217691000,2.78969091796875,-0.00008066402077674865,-0.22223807200305162,0.40993163097798824
1746481547227687000,2.79968701171875,-0.19823416914641856,-0.04660645101536065,0.6555312893461436
1746481547237684000,2.80968408203125,-0.06569207709431647,0.33694442843943834,0.7902651923540979
1746481547247680000,2.819679931640625,0.16566460945308206,0.688326109162718,0.8561396402779966
1746481547257675800,2.82967578125,-0.08919277966916561,0.8635495512083172,1.374110424888134
1746481547267673000,2.839673095703125,0.5822206270068884,0.8817412606548517,2.3112904449746012
1746481547277668900,2.8496689453125,0.27685236330926416,0.7521657633233815,1.9985588129021226
1746481547287666000,2.859666015625,-0.5426397272467612,0.5012108980650082,0.7467597395613789
1746481547297662000,2.869661865234375,-1.3397031283736227,0.009503814469650387,-1.7346053863935171
1746481547307658000,2.879657958984375,-2.407713468158245,-0.40707149230651557,-3.110143652127683
1746481547317654800,2.88965478515625,-2.748897726124525,-0.8970634060144423,-2.8562393259465693
1746481547327651000,2.899651123046875,-3.3647733699738978,-1.372179018434137,-1.8466466883391142
1746481547337647900,2.90964794921875,-3.7927386702924966,-1.206858911569789,-1.684963841998577
1746481547347644000,2.919643798828125,-3.278119168871641,-0.570417668749392,-2.003399969322979
1746481547357640000,2.929639892578125,-1.9285715228319167,-0.4675808695333078,-1.6418141438409686
1746481547367637000,2.939636962890625,-0.6920119580686092,-0.8898051054492593,-0.4469985751558095
1746481547377632800,2.9496328125,-0.3328770328700542,-0.9796100256673991,1.01993940570727
1746481547387629000,2.959629150390625,-0.7280290278673172,-0.39411666060015554,1.78847536213845
1746481547397625900,2.9696259765625,-1.3622913922786712,0.03821253401637077,1.3181681729137897
1746481547407622000,2.979621826171875,-2.3893682486504315,0.13342837336733937,0.413890451606363
1746481547417619000,2.989618896484375,-6.600327654838561,0.9261411780692637,-1.2562133826516568
1746481547427615000,2.999614990234375,-9.028639674389362,2.385169335655868,-1.6629257593221962
1746481547437610800,3.00961083984375,-8.711634748911857,2.605278652001917,0.5066087019879371
1746481547447608000,3.019608154296875,-8.515621762946248,1.7578934691309929,0.9928342488996684
1746481547457603800,3.029603759765625,-7.3031217036843294,1.3598212027728558,-0.21279095615670085
1746481547467601000,3.039600830078125,-6.044603989613056,1.5676809861376881,-0.8066870425838977
1746481547477597000,3.049596923828125,-5.286052982231975,2.023932469742,-0.9717543437309563
1746481547487593000,3.059593017578125,-4.318654641753435,1.694557307513058,-1.0738464985921978
1746481547497589800,3.06958984375,-3.308943930724263,0.9261690889894961,-1.258774319180846
1746481547507586000,3.0795859375,-2.418754502132535,0.19874664871320127,-1.2240941970743238
1746481547517582800,3.089582763671875,-1.9781056613296268,-0.3079457129701972,-0.7576717403285205
1746481547527579000,3.099578857421875,-2.242580773624778,-0.3149778035640716,-0.13179211393501608
1746481547537575000,3.109574951171875,-2.967562104359269,0.12831190713644028,0.3168814086956903
1746481547547572000,3.119572021484375,-3.6939959719896316,0.6835901666820049,0.604885901670903
1746481547557567700,3.129567626953125,-4.321854899099469,0.9845362300232052,0.6356067647576332
1746481547567564000,3.13956396484375,-4.9718864950507875,1.1810162489786744,0.39248810955025254
1746481547577560800,3.149560791015625,-5.6235401392459865,1.284548811906576,0.4371308592772111
1746481547587556900,3.159556884765625,-6.356132529506087,1.5070643126115202,0.6333410117827355
1746481547597554000,3.169553955078125,-7.048961064654589,1.8575214258357882,0.6852356688667088
1746481547607550000,3.179550048828125,-7.04951752949357,2.267299035295844,0.4692551959536969
1746481547617545700,3.189545654296875,-6.36470571206212,2.4806585851207372,0.27170933786500245
1746481547627543000,3.19954296875,-5.431099166548252,2.5505621424302456,0.3642314080873504
1746481547637538800,3.209538818359375,-4.313737643617391,2.6581302444845436,0.5242526413585991
1746481547647536000,3.2195361328125,-3.1895103265702724,2.744986690160632,0.478123635129258
1746481547657532000,3.229531982421875,-2.34975812279582,2.634449509167671,0.2485957531779073
1746481547667528000,3.23952783203125,-1.8406717055827377,2.187538100838661,0.06677346998970024
1746481547677525000,3.24952490234375,-1.637850208646059,1.7298019316345452,-0.03778680115127936
1746481547687521000,3.25952099609375,-1.7428829470038414,1.804478986956179,-0.08579181211926043
1746481547697518600,3.2695185546875,-2.0714204893648622,2.201446653073281,-0.13216313920449466
1746481547707515000,3.279514892578125,-2.5645722553431987,2.514785603389144,-0.27576610244251787
1746481547717510700,3.2895107421875,-3.019116350507736,2.5881287797585126,-0.2207662458848208
1746481547727507700,3.2995078125,-3.2696734120875597,2.344877072755992,-0.17565752261392772
1746481547737503700,3.309503662109375,-3.454485205081105,2.120034590408206,-0.09943024217560886
1746481547747500500,3.31950048828125,-3.5198902819275855,2.0302397531926633,-0.05786328316479921
1746481547757496600,3.32949658203125,-3.260531489732861,2.0386478083148596,-0.21964944374933837
1746481547767492900,3.339492919921875,-2.7658272336155174,2.155355494636297,-0.40713820086717606
1746481547777489700,3.34948974609375,-1.9942472333133219,2.199901615588367,-0.6101901455588639
1746481547787485700,3.359485595703125,-1.07428050609529,2.163982307075709,-0.7687313328728079
1746481547797482800,3.369482666015625,-0.10295184043049811,2.0322667289756238,-0.8733592898219823
1746481547807478800,3.379478759765625,0.8222861051887274,1.7474077309519052,-1.15765100935176
1746481547817474600,3.389474609375,1.7389327480733394,1.3920530549444257,-1.6128196661554275
1746481547827471600,3.3994716796875,2.3220167139112946,1.199644377081096,-2.001035870540142
1746481547837467600,3.409467529296875,2.5737404811829325,0.9415624729543923,-2.2566242042854427
1746481547847464700,3.419464599609375,2.9719366661816835,0.7125884437598288,-2.5548311980515717
1746481547857460700,3.429460693359375,3.542724629548192,0.6181145818825811,-2.824876511694491
1746481547867456800,3.439456787109375,3.9319466499745843,0.6075882924973964,-2.832732778152823
1746481547877453800,3.449453857421875,4.162109742823243,0.5473323420424014,-2.581069216635823
1746481547887449900,3.459449951171875,4.077002771162986,0.49704607000313694,-2.1472725798152386
1746481547897446700,3.46944677734375,3.95640479940474,0.5402981325566768,-1.924865069529414
1746481547907442700,3.479442626953125,3.883030351114273,0.5923102785404771,-1.704762767446041
1746481547917438700,3.489438720703125,3.828907131260633,0.46108584495820104,-1.3802137101992964
1746481547927435500,3.499435546875,3.7328836287885903,0.23545389273315667,-1.1398637159876526
1746481547937431600,3.509431640625,3.482361638522148,0.12601700113229453,-1.0607955861002205
1746481547947427800,3.519427734375,3.2746383410185573,0.12922405354529617,-1.0001122770786284
1746481547957424600,3.529424560546875,3.2675825772881506,0.17389248570278287,-1.0266937022730707
1746481547967420700,3.539420654296875,3.531222407802939,0.285853123627603,-1.1118746159523725
1746481547977417700,3.549417724609375,3.932598391881585,0.356632002466917,-1.1258964193031191
1746481547987413800,3.559413818359375,4.281746760594845,0.39131022487729783,-1.0537108885362745
1746481547997409500,3.569409423828125,4.460108939057588,0.4600406467542052,-0.906590528294444
1746481548007406600,3.579406494140625,4.4757676959604025,0.6448793277546763,-0.7779843143865466
1746481548017402600,3.589402587890625,4.30490025716722,0.8218640803843736,-0.7667366519242524
1746481548027399700,3.599399658203125,2.117367417025566,-0.08803951798081397,-3.0890666695684192
1746481548037395700,3.609395751953125,3.7936873493194576,-0.2916539188608527,-0.6628568829938769
1746481548047391700,3.619391845703125,3.3561703768014906,-0.6966426866091787,-1.3923708887219428
1746481548057388800,3.629388916015625,3.5759611287176605,-0.7719169771715998,-1.387094409623742
1746481548067384800,3.639384765625,4.549559492880106,-0.02798690807819366,0.28538126833215355
1746481548077381600,3.649381591796875,3.3360657464057204,1.4558797765582798,0.8814701155632734
1746481548087377700,3.659377685546875,1.9650006805628537,2.5644939294099807,0.4334416859030723
1746481548097373700,3.669373779296875,2.6468945647209883,3.0301746278777717,-0.004794833061099052
1746481548107370500,3.67937060546875,3.639346682435274,3.272878053347766,0.21900062445178628
1746481548117366800,3.68936669921875,3.379269512838125,3.247372148430347,0.6486049241490661
1746481548127363600,3.699363525390625,3.4284225430637596,2.8695646714657546,0.5650676860235632
1746481548137359600,3.709359619140625,3.2503128780573602,2.093894479240477,0.3771876645658165
1746481548147356000,3.71935595703125,2.6631957111805677,1.0561907226532696,0.22553280269950626
1746481548157352700,3.729352783203125,2.2014818705171346,0.5047887200191616,-0.19098229832202196
1746481548167348700,3.7393486328125,1.9290379712998866,0.1730298775240779,-0.6563013238705694
1746481548177345800,3.749345703125,1.7255711621969938,0.17433599168658256,-0.8931867107115685
1746481548187341600,3.759341552734375,1.5655986269056796,0.6863619694828986,-0.7686410242408513
1746481548197337600,3.769337646484375,1.5876573139786718,1.2527213027521966,-0.4442825941953808
1746481548207334700,3.779334716796875,1.568632295513153,1.4168576797246932,-0.1761819483468309
1746481548217330700,3.78933056640625,1.567974123865366,1.1984393852055073,-0.25218846217393875
1746481548227327500,3.799327392578125,1.553505453529954,0.8428528001382947,-0.5459582772102206
1746481548237323800,3.80932373046875,1.509761588871479,0.6322606692001224,-0.8488435649856925
1746481548247319800,3.81931982421875,1.260700903329253,0.6667872081801295,-1.146320490911603
1746481548257316600,3.829316650390625,1.8169810333937406,0.5914093111127615,-1.2670457423113286
1746481548267312600,3.839312744140625,3.1762995473414657,0.3041571343421936,-0.25546945660598575
1746481548277309700,3.849309814453125,3.022159955987334,0.1080897878408432,0.9702481038864701
1746481548287305500,3.859305419921875,2.1329057624191043,-0.2019070124402642,0.9693059276655316
1746481548297301800,3.8693017578125,1.8408581680655478,0.021178981629014014,0.3373515844682231
1746481548307298600,3.879298583984375,2.045667623949051,0.4466556800022721,0.13698018409740179
1746481548317294600,3.889294677734375,2.121442703640461,0.6115937287464738,0.25009086884018034
1746481548327291600,3.899291748046875,2.1486089429855344,0.50495034032166,0.35922874096184965
1746481548337287700,3.90928759765625,2.080709126713872,0.20184622216373682,0.4264142349516973
1746481548347283700,3.91928369140625,1.63719554412961,-0.05569850634634495,0.4802217399196699
1746481548357280800,3.92928076171875,1.2214771464437246,-0.005132978974282741,0.622954057803005
1746481548367276500,3.939276611328125,1.0004185665488243,0.10534195043742656,0.9857315772876143
1746481548377273900,3.94927392578125,0.9501263031601905,0.08697890301197767,1.1730996306352317
1746481548387269600,3.95926953125,1.0032073204845189,-0.03840045780390501,1.156706860369444
1746481548397265700,3.969265625,1.0474614727526903,-0.11252747802734374,1.1106273193050176
1746481548407262700,3.9792626953125,1.0901420920938252,-0.1674889022707939,0.974529945924133
1746481548417258800,3.9892587890625,1.0250292761921882,-0.19067396302521228,0.8335882012519985
1746481548427255600,3.999255615234375,0.9551941079437732,-0.1174701951265335,0.6900604586746544
1746481548437251800,4.009251953125,0.9243483033031225,0.02721680048853159,0.5077345642127097
1746481548447247600,4.01924755859375,0.90740009111166,0.02908902410119772,0.44023229589127
1746481548457244700,4.02924462890625,1.0208253947615622,0.015385492919385433,0.46409357540681956
1746481548467240400,4.039240478515625,1.2397884636819363,-0.07951601978540421,0.4852971069552004
1746481548477237800,4.04923779296875,1.4005495190024375,-0.22253186731785535,0.525766479987651
1746481548487233500,4.059233642578125,1.5469430262744426,-0.2900207647010684,0.531182659817487
1746481548497229600,4.0692294921875,1.6513298679441213,-0.2521475456416607,0.593593596349284
1746481548507226600,4.0792265625,1.5787959621310232,-0.19184505263119936,0.7121843199383467
1746481548517222700,4.08922265625,1.309771515968442,-0.17017156548351048,0.7656630313433707
1746481548527219700,4.0992197265625,0.9853285494446754,-0.17977262978255748,0.7361277247793973
1746481548537215700,4.1092158203125,0.7584341030031442,-0.2012412420079112,0.6276651581034064
1746481548547211500,4.11921142578125,0.5718260742425918,-0.16390023012906313,0.4914147130526602
1746481548557208800,4.129208740234375,0.4213777386218309,-0.09980068292319774,0.40871414494700725
1746481548567204600,4.13920458984375,0.21486907760500906,-0.02771568992137909,0.4101354829870164
1746481548577201700,4.14920166015625,0.05909867017865181,0.016227496701478956,0.40366256064586337
1746481548587197700,4.15919775390625,-0.08896423161029815,0.051560675889253615,0.3827031400516629
1746481548597193700,4.16919384765625,-0.22239304336905477,0.08993629151284695,0.4017475938700139
1746481548607190500,4.1791904296875,-0.27322891211509703,0.08505085755884646,0.46688685938715935
1746481548617186800,4.189186767578125,-0.21876842313110828,0.04559679904878139,0.5111519714407623
1746481548627183600,4.19918359375,-0.0637047026693821,-0.0017374913170933723,0.5165571914851665
1746481548637179600,4.2091796875,0.14355916062891483,-0.006831015063822269,0.46817251528352494
1746481548647175700,4.21917578125,0.31372809576392174,-0.02049509101808071,0.3715588648986071
1746481548657172700,4.2291728515625,0.349910585257411,-0.05292319641411304,0.2569772308204323
1746481548667168500,4.23916845703125,0.26622341726720333,-0.06056348203420639,0.19820976535752413
1746481548677165800,4.249165771484375,0.12090075409710406,-0.021952304089069365,0.18165515559352932
1746481548687161600,4.25916162109375,0.009853285494446754,0.019034370815753935,0.17965002631619573
1746481548697158400,4.269158447265625,-0.05075637376904487,0.055417351317405696,0.15151903359219432
1746481548707155200,4.2791552734375,-0.06788169609308242,0.023375322629511357,0.11004779004082083
1746481548717151500,4.2891513671875,-0.06185469088852405,0.007908581167459487,0.11642280496545135
1746481548727148300,4.299148193359375,-0.04004851727187633,0.02228928095847368,0.1421602536164224
1746481548737144300,4.309144287109375,0.0008738602250814438,-0.00870674580782652,0.18665296388082206
1746481548747140400,4.319140380859375,0.03385550785064697,0.0003194412127137184,0.22576668452061713
1746481548757137400,4.329137451171875,0.07220131285786628,0.039190439137816425,0.2764691361453384
1746481548767133200,4.33913330078125,0.13617255750894547,0.09405483274757862,0.24363018492609262
1746481548777130200,4.349130126953125,0.19143676409125326,0.06781126120537519,0.21521401858516037
1746481548787126300,4.359126220703125,0.19928338593840597,-0.0048310734182596205,0.2536319389805198
1746481548797122300,4.369122314453125,0.2134732393324375,-0.03090191874206066,0.31318748608119784
1746481548807119400,4.379119384765625,0.1798497866719961,-0.003425590534508228,0.30515264818556603
1746481548817115400,4.389115478515625,0.15874679288864135,0.007705167549848556,0.31346776432730256
1746481548827112200,4.3991123046875,0.1445616156697273,0.029553134481608866,0.29410459994859994
1746481548837108500,4.4091083984375,0.13061843051314354,0.04112608337551355,0.26346388942599297
1746481548847104300,4.419104248046875,0.1099631804972887,0.03447802366316318,0.23488135354220865
1746481548857101300,4.429101318359375,0.15444178917109966,-0.016917232531309126,0.20877346414364872
1746481548867097300,4.439097412109375,0.23528058199286458,-0.06319967575669289,0.22460246304683387
1746481548877094100,4.44909423828125,0.29382863255143166,-0.07849778265357017,0.22559337378032504
1746481548887090200,4.459090087890625,0.325426716864109,-0.08443506374806165,0.20981150195449588
1746481548897086500,4.46908642578125,0.29295652589201926,-0.13523556891977787,0.21448848078958688
1746481548907083300,4.479083251953125,0.1612450394451618,-0.14006108938008546,0.2393696048721671
1746481548917079300,4.489079345703125,-0.012037059274315833,-0.04819353754371404,0.2321623769070953
1746481548927076400,4.499076416015625,-0.10915829385519027,0.09857347921580076,0.21537235095202922
1746481548937072400,4.509072265625,-0.051610944771766656,0.23844722933024168,0.14443104809261859
1746481548947068200,4.519068115234375,-0.03196516405940056,0.2865411058917641,0.01632445426993072
1746481548957065200,4.529065185546875,0.8845078758239746,0.051605391813814634,0.1794838759690523
1746481548967061200,4.539061279296875,0.954649918064475,-0.3441840243041515,0.8720221229340881
1746481548977058300,4.549058349609375,0.42822891969084736,-0.5950327623069286,0.7883789402160793
1746481548987054300,4.559054443359375,-0.03863338977694511,-0.37106969314217564,0.28899003341384233
1746481548997050400,4.56905029296875,-0.2518313192993402,-0.07902356009334326,-0.09853336640112101
