time,seconds_elapsed,z,y,x
1745767233091542800,0.049542724609375,-0.7547159592628478,0.31134850715100765,0.08980791589282452
1745767233101516800,0.059516845703125,-0.6823129863530397,0.3192743317142129,-0.06230886439681053
1745767233111489800,0.06948974609375,-0.6879062763154506,0.2855012414500117,-0.07476845993213355
1745767233121463800,0.0794638671875,-0.609122077935934,0.22826281218528746,-0.034591859301179646
1745767233131436800,0.089436767578125,-0.4916881231665611,0.09542056814283131,0.03643127662278712
1745767233141409500,0.099409423828125,-0.3380325159370899,-0.014886603486537933,0.23427184334173798
1745767233151383600,0.109383544921875,-0.12369009255468845,-0.07694295442700386,0.29604630860090253
1745767233161356800,0.119356689453125,0.08522855221331119,-0.07256079382002353,0.2129735096493736
1745767233171329800,0.129329833984375,0.218505972802639,-0.03617372166514397,0.13254271310660987
1745767233181303800,0.1393037109375,0.27449031035304067,0.035277941869199275,0.12309227279201149
1745767233191276800,0.14927685546875,0.24498072275221347,0.04435644359886646,0.08258165443371981
1745767233201249800,0.159249755859375,0.21197686329483983,0.06265782396495342,-0.02083133723512292
1745767233211223800,0.169223876953125,0.27397768465578554,0.05701689546853304,-0.0817087805893272
1745767233221196500,0.179196533203125,0.3648749301552772,0.01749620146304369,-0.09677176355607807
1745767233231169800,0.189169677734375,0.4971791217982769,-0.025171850657463073,0.015854498670622705
1745767233241143800,0.199143798828125,0.5778390509217978,-0.08822919533401727,0.1124515267143026
1745767233251116800,0.20911669921875,0.6524912640631199,-0.09693360305428504,0.20913612344358115
1745767233261090800,0.2190908203125,0.6702922936916351,-0.1064905359506607,0.26827801170945165
1745767233271063800,0.229063720703125,0.6229822609841823,-0.1663432393670082,0.21912472575549036
1745767233281036800,0.239036865234375,0.4741548045635223,-0.15620967562645674,0.1508566972259432
1745767233291010600,0.249010498046875,0.22089491376578807,-0.05157762702405452,0.08651446383800357
1745767233300983600,0.258983642578125,-0.017190788775682447,0.1039022730231285,0.04055909714251756
1745767233310956800,0.268956787109375,-0.18888941769599912,0.26194617833942174,0.0738250416021794
1745767233320930800,0.278930908203125,-0.2914624879419803,0.4055515161976218,0.13612776851914823
1745767233330903800,0.28890380859375,-0.32082068437337874,0.43414194312691684,0.24662476363219318
1745767233340876800,0.298876708984375,-0.25460487566590306,0.37519437185674903,0.3441149776559323
1745767233350850800,0.308850830078125,-0.12647767744660376,0.26196137590855356,0.28921587805897
1745767233360823600,0.318823486328125,0.11002280173003673,0.13707710513323546,0.1506737784070894
1745767233370797600,0.328797607421875,0.33374212526679037,0.04551642728894949,-0.003389459775201976
1745767233380770600,0.3387705078125,0.4121194964110851,0.07409224117100238,-0.15240436505936086
1745767233390743800,0.348743896484375,0.3483411439836025,0.08812456591576337,-0.25749957419410346
1745767233400717800,0.3587177734375,0.13701017737686633,0.08894581917077303,-0.37872002523224796
1745767233410690800,0.36869091796875,-0.1641957059442997,0.043944647927582264,-0.49667811347357926
1745767233420663800,0.378663818359375,-0.42331192155480385,0.03805179049670696,-0.48757429463956503
1745767233430637800,0.388637939453125,-0.5492284579873085,0.06751373956352472,-0.4165016570180654
1745767233440610600,0.398610595703125,-0.5151397259026765,0.060384326075017446,-0.2790194416826591
1745767233450584600,0.40858447265625,-0.39694706172049044,-0.005894026474654674,-0.11515168905109166
1745767233460557800,0.418557861328125,-0.24045769236981868,-0.12358400183171032,-0.009320603389851748
1745767233470530800,0.42853076171875,-0.11572598180770874,-0.20310557457506656,0.06770991972275078
1745767233480504800,0.4385048828125,-0.03370002502799034,-0.16334756468236444,0.03843848825935274
1745767233490477800,0.448477783203125,-0.020477555361390114,-0.09327741863429546,-0.10766334258969873
1745767233500450800,0.458450927734375,-0.08862754700183868,-0.003953413800895214,-0.27213351809382436
1745767233510424800,0.4684248046875,-0.18778116419315338,0.07641717698723077,-0.37811084382534027
1745767233520397600,0.4783974609375,-0.23980653498470783,0.14098054231256246,-0.4060255634501576
1745767233530371600,0.48837158203125,-0.30534663638770576,0.18885960707962512,-0.3736339176069945
1745767233540344800,0.4983447265625,-0.3061041767567396,0.2202957788288593,-0.30154812088757754
1745767233550317800,0.50831787109375,-0.3606494214147329,0.1653615348532796,-0.22065661149788646
1745767233560291800,0.518291748046875,-0.4426403068810701,0.1413116739630699,-0.03283880508877337
1745767233570264800,0.528264892578125,-0.4415285462468862,0.04955313545912504,0.14569547853786496
1745767233580237600,0.538237548828125,-0.3481733862012625,-0.07680617630481719,0.17593575503341852
1745767233590211600,0.548211669921875,-0.22549334747195243,-0.09878127674758434,0.09731441906541585
1745767233600184600,0.5581845703125,-0.08540273973643779,-0.017268822447955606,-0.04127583057712763
1745767233610158600,0.56815869140625,-0.08458616265654563,0.1379085875213146,-0.19229312519226222
1745767233620131800,0.5781318359375,-0.19073767591118812,0.32631255978792906,-0.2921689191782847
1745767233630104800,0.588104736328125,-0.3443506130427122,0.4416641553252935,-0.33781974996924397
1745767233640078800,0.598078857421875,-0.5154606284201145,0.46328269741535183,-0.3580976180400699
1745767233650051800,0.6080517578125,-0.6391986517697572,0.46796267192512747,-0.24111045719012617
1745767233660024600,0.618024658203125,-0.5875958903044461,0.40033261250555513,-0.07246190002281218
1745767233669998600,0.62799853515625,-0.37358021465837954,0.2600698630735278,0.11407766661141067
1745767233679971600,0.6379716796875,-0.1390554194688797,0.13157061667144299,0.23024203983638433
1745767233689945600,0.647945556640625,0.11645078895092009,0.014156535646319388,0.2660994620939717
1745767233699918800,0.6579189453125,0.3056231152415275,-0.03869418005347252,0.2003149574758485
1745767233709891800,0.667891845703125,0.3135153297960758,-0.03166968824416399,0.09315813963618129
1745767233719865900,0.677865966796875,0.22480711877346038,0.0648868981912732,-0.0060074967864900825
1745767233729838800,0.6878388671875,-0.0001017068088054657,0.23990619596689938,-0.06862433115392923
1745767233739812900,0.697812744140625,-0.19159458500146864,0.4085413456633687,-0.06056571052391082
1745767233749785600,0.70778564453125,-0.2819669298440218,0.4936474405407905,0.0358101125171408
1745767233759758600,0.717758544921875,-0.32287235620617866,0.5344219339996577,0.12118607384450733
1745767233769732600,0.727732666015625,-0.3392459833800793,0.4555526876851916,0.24503672725576905
1745767233779705900,0.737705810546875,-0.3372048329412937,0.32065292659103867,0.2820714131318033
1745767233789678800,0.747678955078125,-0.22505787866413593,0.16606939086169004,0.21925065369009972
1745767233799652900,0.75765283203125,-0.00654079994559288,0.1253282151505351,0.13949775640890003
1745767233809625600,0.76762548828125,0.19937515587508678,0.18669278443455695,0.040480588546209034
1745767233819599600,0.777599609375,0.30744390092790125,0.3090525051683187,-0.14163524336162953
1745767233829572600,0.787572509765625,0.27928397437036034,0.41050300112515686,-0.32040560076646507
1745767233839545600,0.797545654296875,0.18143734812438486,0.476121136200428,-0.40499475909769533
1745767233849519600,0.80751953125,0.1133615907639265,0.5030383692204952,-0.3666664532145485
1745767233859492900,0.817492919921875,0.0897901610404253,0.46908203134387727,-0.26406671415735034
1745767233869467000,0.827466796875,0.14413725277781486,0.4084571745112538,-0.08812624641619622
1745767233879440000,0.83743994140625,0.29621114377379415,0.31455987041294575,0.06676719551254064
1745767233889412600,0.84741259765625,0.43083530279695986,0.25783348232358694,0.16067275598254055
1745767233899386600,0.85738671875,0.47473289671242236,0.2416150457113981,0.13815578548172489
1745767233909359600,0.867359619140625,0.5537883132487535,0.23928221884965895,0.05382204494997859
1745767233919332900,0.877332763671875,0.577193154233694,0.2768354121744633,-0.09521841490054503
1745767233929306600,0.887306640625,0.5417483313649892,0.2781143460690975,-0.21941552539560943
1745767233939280000,0.89727978515625,0.5308791468262672,0.2963026214495301,-0.35830914189890023
1745767233949254400,0.90725439453125,0.5045645558744669,0.2620209971413016,-0.45917084164973343
1745767233959227100,0.91722705078125,0.45326983744502064,0.216241827262938,-0.4641614530112594
1745767233969200000,0.9272001953125,0.34457448492646214,0.18973522087037561,-0.3737556442905217
1745767233979174100,0.937174072265625,0.21950667427778242,0.06998772846162318,-0.22279906688667833
1745767233989147100,0.947147216796875,0.12513503066599369,-0.04019201739579439,-0.1037007043027319
1745767233999121200,0.95712109375,0.07374620421230793,-0.10802139877974987,-0.04489665142279118
1745767234009094100,0.96709423828125,0.05157470441460609,-0.12294511940628289,-0.01537012182031758
1745767234019067400,0.9770673828125,0.06860416514873505,-0.028313655814528462,-0.057868178535625335
1745767234029041400,0.98704150390625,0.10360942755639553,0.0816837192133069,-0.0766761110512074
1745767234039014100,0.99701416015625,0.06278583425879478,0.2091109524697065,-0.05395787322409451
1745767234048988200,1.00698828125,-0.08741817121207714,0.30585809304118156,-0.011134502677712588
1745767234058961200,1.016961181640625,-0.20218729068636893,0.3454483451515436,-0.03616842443551868
1745767234068934100,1.02693408203125,-0.2587614108234644,0.3951800520479679,-0.009227737474627792
1745767234078908200,1.036908203125,-0.2891232313394546,0.39633565182387825,0.1202343078113161
1745767234088881200,1.046881103515625,-0.22982290110886094,0.3269605023026466,0.2487216993788257
1745767234098854400,1.0568544921875,-0.10532207669317721,0.28527707730531693,0.31308154148869216
1745767234108828400,1.066828369140625,0.042514030602574346,0.25227321784794327,0.3214280756819993
1745767234118801200,1.07680126953125,0.16904139240980148,0.19826573332846165,0.24262427755286917
1745767234128775200,1.086775146484375,0.21846973244547843,0.13772300182133912,0.09687651170534081
1745767234138748200,1.096748046875,0.3113923462927341,0.08270604799836874,-0.05530220050513744
1745767234148721200,1.10672119140625,0.3999626101493835,0.052098728288710115,-0.15546645604372022
1745767234158695200,1.116695068359375,0.49937517053782937,0.03666062839925289,-0.2142918439726345
1745767234168668200,1.126668212890625,0.5604542008787393,0.0664537091165781,-0.1424908738102764
1745767234178642200,1.13664208984375,0.5555933168441057,0.05140285497903824,-0.07356969686793163
1745767234188615200,1.146615234375,0.5138268897384405,0.032573943607509134,0.00013506108913570642
1745767234198588200,1.156588134765625,0.46033787613511085,-0.01042728599011898,0.11378913199361414
1745767234208562200,1.166562255859375,0.46180502607822416,-0.08941460572630167,0.1254354749172926
1745767234218535200,1.17653515625,0.5138081850379705,-0.1370700908705592,-0.012679622361017391
1745767234228509200,1.18650927734375,0.5995119535475969,-0.16245763010531664,-0.2316917271880433
1745767234238482200,1.196482177734375,0.6833657102763653,-0.16055881074666975,-0.5224806997826322
1745767234248455200,1.206455078125,0.7218021161764859,-0.18726473910361527,-0.8236891038544476
1745767234258429200,1.21642919921875,0.7667045032203197,-0.1768842148646712,-1.0658718664512037
1745767234268402200,1.226402099609375,0.7816320232391357,-0.14683423677682875,-1.3345751178354024
1745767234278376200,1.236376220703125,0.7359066293746233,-0.08728986865729094,-1.478069688795507
1745767234288349200,1.24634912109375,0.6922095264673233,-0.049472179177403444,-1.5130195677541196
1745767234298322200,1.256322265625,0.6136117905706167,-0.010726268936693668,-1.395401050198078
1745767234308296200,1.266296142578125,0.5789402901619672,0.07909048784971237,-1.1306102230172603
1745767234318269200,1.276269287109375,0.39025370156168937,0.1573733125783503,-0.7002891533527523
1745767234328243200,1.2862431640625,0.14553309105038642,0.11297317596822977,-0.3590127966562286
1745767234338216200,1.29621630859375,-0.1780547199487686,-0.07615238857120275,-0.14984843349885194
1745767234348189200,1.306189208984375,-0.44240766716897484,-0.2871552922673523,-0.10872057829136028
1745767234358163200,1.3161630859375,-0.6531815844148398,-0.38894671061635017,-0.28748414062922817
1745767234368136200,1.32613623046875,-0.7844652008384466,-0.37718057723790405,-0.61686933106184
1745767234378110200,1.336110107421875,-0.7924655519425868,-0.25860928900167346,-0.8314726704027503
1745767234388083200,1.346083251953125,-0.7323410458475351,-0.13972908094674347,-0.879820302529633
1745767234398056200,1.35605615234375,-0.5617313812077045,-0.05550999803692102,-0.78715370927006
1745767234408030200,1.3660302734375,-0.38921792877316475,-0.11885112809091805,-0.636097470884025
1745767234418003200,1.376003173828125,-0.2338561021476984,-0.21813582431599496,-0.4877473861841485
1745767234427977000,1.38597705078125,-0.11547697548270225,-0.37856983963921664,-0.29777532435059545
1745767234437950200,1.3959501953125,-0.06269523336589336,-0.5268848164930939,-0.11272574054580181
1745767234447923200,1.405923095703125,-0.05416472090780735,-0.6316051279008388,0.025269538878276942
1745767234457897200,1.415897216796875,-0.060363575547933576,-0.6912886122301221,0.11543291714526713
1745767234467870200,1.4258701171875,-0.05856792430281639,-0.6597399200171232,0.13179266192428768
1745767234477844200,1.43584423828125,0.005485737934708595,-0.5966144785404205,0.09889865604955703
1745767234487817200,1.445817138671875,0.060274728220701214,-0.5422366994038224,0.03660016691628843
1745767234497790200,1.455790283203125,0.13277999246120453,-0.44851299830675123,0.026432883569225667
1745767234507764200,1.46576416015625,0.2362035420566797,-0.36220088864043354,0.0636143209721893
1745767234517737200,1.4757373046875,0.3886830912441015,-0.30713951115384697,0.12885131124276666
1745767234527711200,1.485711181640625,0.5563175394654274,-0.3113571288488805,0.21995507563240824
1745767234537684200,1.495684326171875,0.6748965726166963,-0.30331162342876195,0.3849533666638657
1745767234547657200,1.5056572265625,0.7140308976531028,-0.30729528623744845,0.6129140175648033
1745767234557631200,1.51563134765625,0.727486591553688,-0.31674262127950786,0.7827148500397801
1745767234567604200,1.525604248046875,0.6745622260957956,-0.34140608402341605,0.87727544035241
1745767234577578200,1.535578125,0.6111667355060577,-0.27600363752543927,0.8905266977220773
1745767234587551200,1.54555126953125,0.5095061039298773,-0.18205065771713852,0.8708367125418036
1745767234597524200,1.555524169921875,0.5000999776810408,-0.07005655591413379,0.8495897802431136
1745767234607498200,1.565498291015625,0.5525707541525363,0.0011339724659919738,0.7637495258722454
1745767234617471200,1.57547119140625,0.6227402689218521,0.08616977858617901,0.6664904171906412
1745767234627445200,1.5854453125,0.6139899762332439,0.14391718028634787,0.5960008036214858
1745767234637418200,1.595418212890625,0.593586655151844,0.20024843157827854,0.6167229083284735
1745767234647392300,1.605392333984375,0.5823614967823029,0.2823309408508241,0.6685875356003642
1745767234657365000,1.615364990234375,0.5991577332824468,0.27309154947102066,0.79452526095137
1745767234667338200,1.625338134765625,0.5837322006136179,0.12788725198358297,0.8217638348802924
1745767234677312300,1.635312255859375,0.5723322701990604,-0.1013220472715795,0.7337772161304951
1745767234687285200,1.64528515625,0.5516928022742271,-0.27948519603088495,0.7114082209993153
1745767234697259300,1.65525927734375,0.4904828390300274,-0.27323607250824566,0.8346949203848838
1745767234707232300,1.665232177734375,0.2537812843233347,-0.4156285274453461,0.7707388733029366
1745767234717205200,1.675205322265625,-0.0018365677773952483,-0.25914763366207477,0.896239814671874
1745767234727179300,1.68517919921875,-0.15407938559949397,0.031787469404935834,0.9232192992731928
1745767234737152000,1.695152099609375,-0.3022580227226019,0.22107859976962208,0.8494222416564822
1745767234747126000,1.7051259765625,-0.3309960414290428,0.3364075450837612,0.7901005763769149
1745767234757099300,1.715099365234375,-0.1544961497068405,0.3508490351513028,0.6626674979016185
1745767234767073300,1.7250732421875,0.08846797252595424,0.2980706540353596,0.4970373752400279
1745767234777046300,1.73504638671875,0.32406887251436706,0.23494126703590154,0.32053748351782557
1745767234787019300,1.745019287109375,0.44043081413805485,0.11034838042259215,0.20903350331932305
1745767234796993300,1.7549931640625,0.3669412150353193,-0.04353884360566735,0.09969400767832994
1745767234806966300,1.76496630859375,0.1777764875292778,-0.2545883629225194,0.0341122590906918
1745767234816940300,1.774940185546875,0.04503156638145447,-0.4646373268947005,-0.01235635435655713
1745767234826913000,1.7849130859375,0.004227262306213378,-0.5483467067167163,-0.03998188177645206
1745767234836888300,1.794888427734375,-0.0834457604497671,-0.557901593786478,0.0059388885296881196
1745767234846862000,1.804862060546875,-0.3235650146454572,-0.5473211630612611,0.04381444567665457
1745767234856835000,1.8148349609375,-0.5798088896900415,-0.47973128952160476,0.06789499396607279
1745767234866809000,1.82480908203125,-0.8301455865174532,-0.35012437413856384,0.09802870481461286
1745767234876782000,1.834781982421875,-1.0110668018132447,-0.16701514727920294,0.13413929811567069
1745767234886756000,1.844756103515625,-1.1399743367552757,-0.002655775205790996,0.14593889537230134
1745767234896729300,1.854729248046875,-1.2275929989755152,0.1313682990323752,0.15166852506548165
1745767234906702300,1.864702392578125,-1.2714280490487813,0.21839915142729877,0.1400781866453588
1745767234916676400,1.87467626953125,-1.2764420778185128,0.23340960048921405,0.022280074738711117
1745767234926649000,1.884649169921875,-1.2591940058976412,0.17604257640875876,-0.09402370695695281
1745767234936623000,1.894623046875,-1.1773457437723875,0.11511048025786876,-0.2024525174938142
1745767234946595600,1.904595703125,-1.0369166978627442,-0.01608048944622278,-0.27528262977451085
1745767234956569600,1.914569580078125,-0.8612667009681463,-0.13502031873390077,-0.37570582851022477
1745767234966542800,1.92454296875,-0.6873422126919031,-0.2057516321044415,-0.3539354568593204
1745767234976515800,1.934515869140625,-0.6555798777282238,-0.24103856099769472,-0.2953751313410699
1745767234986489900,1.94448974609375,-0.7413064425915479,-0.19899046740643678,-0.2516169458962977
1745767234996462600,1.954462646484375,-0.7884650841295718,-0.06948131330944597,-0.16624956973418592
1745767235006436600,1.9644365234375,-0.8060159383893013,0.05678520560450852,-0.08509118956923484
1745767235016409600,1.97440966796875,-0.7974275582641362,0.14087065219730138,-0.1191194236382842
1745767235026382600,1.984382568359375,-0.705632487142086,0.1769306843549013,-0.224923438629508
1745767235036356600,1.994356689453125,-0.5754226374298334,0.25790808192975817,-0.3019045331098139
1745767235046329900,2.004329833984375,-0.42310792341530323,0.27225575623400505,-0.3626536008439958
1745767235056303600,2.0143037109375,-0.27669746500849723,0.2825382999911904,-0.4151024577446282
1745767235066276900,2.02427685546875,-0.09840542917251587,0.23440423754975198,-0.43208281864002346
1745767235076251000,2.0342509765625,0.0941080242395401,0.1488726107366383,-0.5255667196318506
1745767235086223600,2.0442236328125,0.1987637459784746,0.0756626322928816,-0.6245069863334298
1745767235096196600,2.054196533203125,0.21453765369355676,0.03825812672376633,-0.6279951207101345
1745767235106170600,2.064170654296875,0.2067073984593153,0.07277450963594019,-0.6356390595920384
1745767235116143600,2.0741435546875,0.15953005222082137,0.09979819870516657,-0.6089828155957162
1745767235126117600,2.08411767578125,0.06360182681679726,0.10561813703030347,-0.5833404248170554
1745767235136091000,2.0940908203125,-0.0041167876690626146,0.0963047305662185,-0.5765969419062137
1745767235146064600,2.104064697265625,0.004890694651007652,0.0831142634730786,-0.5978961889140307
1745767235156038000,2.114037841796875,0.05188859266936779,0.048186304085329174,-0.6322241365820169
1745767235166010600,2.1240107421875,0.08605565068721771,-0.005967237841337919,-0.6702979927800595
1745767235175984600,2.133984619140625,0.09407412196993828,-0.04026340213157236,-0.6508404281161725
1745767235185957600,2.14395751953125,0.16076748506128788,-0.06242540344856679,-0.7093493157081305
1745767235195931600,2.153931640625,0.15134849933087824,-0.09143836663886905,-0.6833404297046363
1745767235205904600,2.163904541015625,0.08447218088805675,-0.18355507093071938,-0.6185429633624852
1745767235215878700,2.173878662109375,0.0239636439114809,-0.24257066593579946,-0.4847076166294515
1745767235225851600,2.1838515625,-0.10287935971617698,-0.28168003919404,-0.36139658652022477
1745767235235825700,2.19382568359375,-0.19327157830297945,-0.31491617303732783,-0.23240824142694472
1745767235245798700,2.203798583984375,-0.18730127172172067,-0.35369960227683184,-0.09327508054673671
1745767235255771600,2.213771728515625,-0.13951777628362177,-0.4059540691165253,-0.04141279136240482
1745767235265745700,2.22374560546875,-0.04887187519669532,-0.4723003723358735,-0.0523018496453762
1745767235275718700,2.23371875,-0.01578326006531715,-0.49656391250938176,0.013492957171052693
1745767235285692700,2.243692626953125,0.09507833057641983,-0.5617290431201457,0.08876973195150493
1745767235295665700,2.253665771484375,0.2118698957890272,-0.6296794205352664,0.07963190125003457
1745767235305639000,2.263638916015625,0.29961949091255663,-0.6955434931956231,0.13053645131811498
1745767235315612700,2.27361279296875,0.40069910773038864,-0.7492551365736871,0.1721618625178933
1745767235325585700,2.283585693359375,0.414973132276535,-0.8249245639335364,0.14971476064920425
1745767235335559700,2.2935595703125,0.2858411409288645,-0.8894790153000504,0.11212357340157031
1745767235345532700,2.30353271484375,0.15029285279810428,-0.8684283362258225,0.13934870332702995
1745767235355506700,2.313506591796875,-0.02260346147418022,-0.8125892523650079,0.27407383850663897
1745767235365479700,2.323479736328125,-0.14115209948718546,-0.778796507552266,0.4084470915086567
1745767235375453700,2.33345361328125,-0.21095628807544706,-0.7606861927788704,0.5107005744114518
1745767235385426700,2.3434267578125,-0.1881535046368837,-0.7270994919322431,0.5618326496250927
1745767235395400000,2.35339990234375,-0.11662556099593639,-0.7289158206392079,0.5269345008537173
1745767235405373700,2.363373779296875,-0.02402560323178768,-0.7174081920664757,0.43507893171608447
1745767235415346700,2.3733466796875,0.043019057515263553,-0.6549656182873994,0.3457493739247322
1745767235425320700,2.38332080078125,0.03796586577892303,-0.5920632449768484,0.3080155633360147
1745767235435293700,2.393293701171875,-0.19569968223273754,-0.5452510787889361,0.313574658767879
1745767235445267700,2.403267822265625,-0.5204290644824504,-0.5058568607073277,0.41652533015459775
1745767235455240700,2.41324072265625,-0.7686626515507697,-0.49051096914596853,0.5160290759578346
1745767235465214700,2.423214599609375,-0.8980231909573078,-0.48987113687247036,0.6993517994374037
1745767235475187700,2.433187744140625,-0.7798714433073997,-0.5265809381756931,0.8278080834805965
1745767235485160700,2.44316064453125,-0.5233750548064708,-0.6137743607211857,0.8325270748265087
1745767235495134700,2.453134765625,-0.3247475024282932,-0.6663233900606632,0.8595834240563214
1745767235505107700,2.463107666015625,-0.19978432119786738,-0.7076300176348537,0.8896180584445595
1745767235515081700,2.473081787109375,-0.24444471617937086,-0.7258769643999635,0.8976263005942106
1745767235525054700,2.4830546875,-0.3665793959856033,-0.7157381399624049,0.8828251834340393
1745767235535028700,2.49302880859375,-0.5736217254877091,-0.7758507364239543,0.785595520042628
1745767235545001700,2.503001708984375,-0.7951829942077397,-0.8691235519483685,0.7905519734062254
1745767235554975700,2.512975830078125,-0.9515326628267764,-0.8837142412282526,1.161530188872665
1745767235564948700,2.52294873046875,-0.9395365200847386,-1.0344994075879455,1.6440378112398086
1745767235574921700,2.532921630859375,-1.0116922402352093,-1.2151039581499994,2.3082705126315353
1745767235584895500,2.5428955078125,-1.0257371322005986,-1.3134915594048797,2.9705495957374572
1745767235594868700,2.55286865234375,-1.0631628997534512,-1.4424042089134455,3.273633547890186
1745767235604842800,2.5628427734375,-1.2404887209057807,-1.3677519957721234,3.348213280317187
1745767235614815700,2.572815673828125,-1.2830144419461489,-0.9955297715939581,3.1952696207493543
1745767235624789800,2.582789794921875,-1.1187503469407558,-0.5108909824170171,2.72624633385539
1745767235634762800,2.5927626953125,-0.9848398891448974,-0.05648103502616286,2.0807231552392245
1745767235644736800,2.60273681640625,-0.8225316043823957,0.3639601533979177,1.4919270953647792
1745767235654709500,2.61270947265625,-0.43674949527680873,0.8065170197792351,0.9533912963055073
1745767235664682800,2.622682861328125,0.08054068665802479,1.1372611322738229,0.37727088586986063
1745767235674656500,2.632656494140625,0.610910714918375,1.378339002368599,-0.341005102007091
1745767235684629800,2.642629638671875,1.1401467707127333,1.5557950257718562,-1.1408574032001197
1745767235694603800,2.652603759765625,1.367910985726118,1.7605391613341868,-1.4888773524053394
1745767235704576800,2.66257666015625,1.3291495856553315,1.6563129170536994,-1.7873685699403286
1745767235714550800,2.67255078125,1.1880173599123953,1.3049500871613622,-1.9504000544108449
1745767235724523800,2.682523681640625,1.0717477727472782,1.0895137310624121,-1.8479666848964988
1745767235734497800,2.692497802734375,1.0500544118553399,0.9709975340142846,-1.7042174085229633
1745767235744470500,2.702470458984375,1.0651695634007454,0.8146488883085549,-1.4308375436298548
1745767235754443500,2.712443603515625,1.1903817509561776,0.872830297511816,-1.1106152635410427
1745767235764417500,2.72241748046875,1.1541244426608086,1.2649573917299508,-1.037893287809938
1745767235774390800,2.732390869140625,1.0459329480111599,1.231967706928402,-1.3517982014454901
1745767235784364800,2.74236474609375,1.0401409206062555,1.2618562108442186,-1.6101621373839676
1745767235794337800,2.752337890625,1.0210714784771204,1.3291351187385618,-1.6231873309127987
1745767235804311800,2.762311767578125,0.8643494694143533,1.2967471992224453,-1.5467450194843113
1745767235814284800,2.772284912109375,0.6260434021204709,1.2675786801442503,-1.380954591694474
1745767235824258800,2.7822587890625,0.36260055548250675,1.2061170802265404,-1.152922373394668
1745767235834231600,2.7922314453125,0.17295885811448097,1.1447995649546383,-0.9414892615877092
1745767235844204500,2.80220458984375,0.10731763442456721,1.152500933112204,-0.7332039462871849
1745767235854178600,2.812178466796875,0.004328384593129158,1.1858850240588188,-0.577087794163078
1745767235864151800,2.82215185546875,-0.1554939285725355,1.252676002305746,-0.5057989199750125
1745767235874125800,2.832125732421875,-0.3417927452534437,1.344467858557403,-0.45199879459589715
1745767235884098800,2.842098876953125,-0.4585790497690439,1.4734715473502873,-0.4945075645014643
1745767235894072800,2.85207275390625,-0.5288216297745705,1.5581702304705976,-0.5001538998253643
1745767235904045600,2.862045654296875,-0.5323679240792989,1.5758730604216455,-0.4912034083895385
1745767235914019600,2.87201953125,-0.503040707308054,1.5212698019661008,-0.43339872354418035
1745767235923992600,2.88199267578125,-0.4174877454459667,1.4116237245939671,-0.38361353289484973
1745767235933966600,2.891966552734375,-0.13953297385275362,1.2205367968536913,-0.35781580542400476
1745767235943939600,2.901939697265625,0.21405542313456535,1.0384878927022219,-0.3185705673590302
1745767235953914400,2.911914306640625,0.4637725267589092,0.7617055258892476,-0.3037568829782307
1745767235963887400,2.921887451171875,0.4286696491956711,0.4251414750695228,-0.32229528697058557
1745767235973860600,2.931860595703125,0.3265519215017557,0.3074767802841961,-0.2856961795002222
1745767235983834600,2.941834716796875,0.17848843519091606,0.35730347198769447,-0.04650003149881959
1745767235993807600,2.9518076171875,-0.1533902342915535,0.3547944117762148,0.2392725742384791
1745767236003781600,2.96178173828125,-0.45844110260307785,0.4556329133145511,0.7231557227425277
1745767236013754400,2.97175439453125,-0.6282558174729347,0.39367607722580433,1.1673778919875621
1745767236023728400,2.981728271484375,-0.4040338051110506,0.17860943122208117,1.3617952793247996
1745767236033701400,2.991701416015625,0.10718845508694648,-0.06636895344257354,1.1015225871555507
1745767236043675400,3.00167529296875,0.8092512670487165,-0.1488563902541995,0.5470626582555472
1745767236053648400,3.0116484375,1.349542385342717,-0.07562222721725702,-0.21758768891394137
1745767236063622400,3.021622314453125,1.631434496384859,0.02201572471410036,-0.9299771029703319
1745767236073595600,3.031595703125,1.8133879773378372,0.10785071838796138,-1.4159316509209572
1745767236083568400,3.041568359375,1.743390896525979,0.07033581124693154,-1.6875865917176007
1745767236093542400,3.05154248046875,1.3792214842915533,-0.057394788870215416,-1.805994506085664
1745767236103515400,3.061515380859375,0.7940045980781316,-0.12179682615399359,-1.467213363738358
1745767236113489400,3.071489501953125,0.12710136230289934,-0.20018588773608206,-1.0211502428017556
1745767236123462400,3.08146240234375,-0.5414502252012491,-0.3261399796999991,-0.8084541253216564
1745767236133436400,3.0914365234375,-1.0308739105671643,-0.331021760392189,-0.6778685741648077
1745767236143409400,3.101409423828125,-1.3210913668841122,-0.09895634105354546,-0.5281636042572557
1745767236153383400,3.111383544921875,-1.5401707556605337,0.10101517327949404,-0.4339418905101716
1745767236163356400,3.1213564453125,-1.6462246537595986,0.17818915998339652,-0.4545546165585518
1745767236173330400,3.131330322265625,-1.6179817250937223,0.2891004349857569,-0.4599472693823278
1745767236183303400,3.141303466796875,-1.4732272172003984,0.3402617362938821,-0.4296567605368793
1745767236193277400,3.15127734375,-1.3815712622880936,0.3159996939577162,-0.3303520444370806
1745767236203250400,3.16125048828125,-1.2163538120806217,0.3027604192867875,-0.11390051994621753
1745767236213224400,3.171224365234375,-1.0166834726512433,0.25838980103209613,0.13752952507585287
1745767236223197400,3.181197509765625,-0.7848655983328818,0.1793237169712782,0.3523568093657493
1745767236233170400,3.19117041015625,-0.5079296483933925,0.12951938323006032,0.5886952298484742
1745767236243144400,3.20114453125,-0.24732816266119478,0.07134601120278239,0.7075666700750589
1745767236253117400,3.211117431640625,-0.03189443691074848,-0.0007023030504584312,0.7312364456064999
1745767236263091500,3.221091552734375,0.20781214483082294,-0.028557839833945033,0.6243855519108474
1745767236273064400,3.231064453125,0.5612023888975382,-0.06482274691388011,0.4204129852429032
1745767236283038500,3.24103857421875,0.9978519309312105,-0.12748685448914765,0.14442907533124089
1745767236293011500,3.251011474609375,1.423868435269594,-0.16542612452208996,-0.14304010519087315
1745767236302985500,3.2609853515625,1.6854747141301631,-0.16896628134697675,-0.36410891421884295
1745767236312958500,3.27095849609375,1.8007716568708418,-0.13570377095341682,-0.4680060726754367
1745767236322932500,3.280932373046875,1.7791157053798436,-0.14262275656163692,-0.46564548102393744
1745767236332905500,3.290905517578125,1.7116081032961605,-0.20178426284343004,-0.3958054904699325
1745767236342879500,3.30087939453125,1.59644501606822,-0.24724574507474897,-0.2628396200478077
1745767236352852200,3.310852294921875,1.4798434204697608,-0.3899453662648797,-0.2648392694324255
1745767236362826200,3.320826171875,1.366295951744914,-0.4816930911138653,-0.3019248452454805
1745767236372799500,3.330799560546875,1.2517232316255569,-0.5658429081797599,-0.32006080591678615
1745767236382773500,3.3407734375,1.0726146187096834,-0.5701198548465967,-0.2442708209171891
1745767236392746500,3.35074658203125,0.8643097219258546,-0.512705192232132,-0.14146847195997833
1745767236402719500,3.360719482421875,0.47076808473467824,-0.4777126431755721,-0.16460238704904914
1745767236412693500,3.370693603515625,-0.06581658025681972,-0.4022299705594778,-0.3103884299471974
1745767236422666500,3.38066650390625,-0.6672650548249482,-0.30827962109968066,-0.5332238102562725
1745767236432640500,3.390640625,-1.3020102343171833,-0.17494345606043935,-0.5800163949608802
1745767236442613200,3.40061328125,-1.91289932192564,-0.11073518778309226,-0.6598083090782165
1745767236452587300,3.410587158203125,-2.3753210185974836,-0.10783552081882954,-0.6612263591825962
1745767236462560500,3.420560546875,-2.7025211748749016,-0.13389409118294715,-0.5688729235254227
1745767236472534500,3.430534423828125,-2.7819910174310207,-0.08951368218660354,-0.44408071494773027
1745767236482507500,3.440507568359375,-2.5980022312581537,-0.00607829700037837,-0.3187083683945238
1745767236492481500,3.4504814453125,-2.3417753073483705,0.08436930503547191,-0.2552747377514839
1745767236502454500,3.46045458984375,-2.0826199287712575,0.13272884679585695,-0.27843320275992156
1745767236512428500,3.470428466796875,-1.8762363554388284,0.10854308456629513,-0.3342196796506643
1745767236522401300,3.4804013671875,-1.6950398303329943,0.0923953751027584,-0.39943683270961045
1745767236532375300,3.490375244140625,-1.4054764540106057,0.08900412522926926,-0.5380136748813092
1745767236542348300,3.500348388671875,-0.9440063589751719,0.08962152647525072,-0.7373636963151395
1745767236552322300,3.510322265625,-0.38603696064949033,0.0862350989073515,-0.9137282712198793
1745767236562295600,3.520295654296875,0.07693594016432762,0.11972323475033043,-0.9996727166175842
1745767236572269300,3.530269287109375,0.4406032480955124,0.1908518038101494,-0.9636854574352502
1745767236582242600,3.54024267578125,0.785691527763009,0.2109491276822984,-0.881731981369853
1745767236592215600,3.550215576171875,1.0528121861308812,0.143184920489043,-0.7374328160285949
1745767236602189600,3.560189453125,1.2562018383443354,0.05979235153123736,-0.5230626278564333
1745767236612162300,3.570162353515625,1.3049439496815203,0.07256137834191322,-0.20349092063084243
1745767236622136300,3.58013623046875,1.163694819560647,0.22848566115573046,0.2058664175905287
1745767236632109300,3.590109375,0.9790186356455087,0.49867242909595366,0.6410783280365169
1745767236642083300,3.600083251953125,0.7869581866979598,0.7253451956108212,1.1256095651857554
1745767236652056600,3.610056640625,0.6503297021150588,0.8602576700560748,1.599398459046334
1745767236662030300,3.6200302734375,0.47385085318088527,0.8500228378981352,1.9462574016481637
1745767236672003600,3.630003662109375,0.3047247050970793,0.8042597423717379,2.0959495120741427
1745767236681977600,3.6399775390625,0.25942367412447925,0.7744177079461515,2.127292160321027
1745767236691950600,3.64995068359375,0.2839963898450136,0.7580813440427183,1.978959647810459
1745767236701924600,3.659924560546875,0.45841830624938007,0.7906459352999925,1.706741666303575
1745767236711897300,3.6698974609375,0.6768512138158083,0.827575005377084,1.4475602765023707
1745767236721871400,3.679871337890625,0.9224719880372285,0.779090375932306,1.0526984966233373
1745767236731844400,3.68984423828125,1.1104817002892493,0.7363553960554301,0.7274962361648678
1745767236741818400,3.699818359375,1.2005857495844363,0.7446164439223706,0.5949300325848161
1745767236751791400,3.709791259765625,1.1545026283234356,0.7439294845715164,0.5759206500798464
1745767236761765400,3.719765380859375,1.017989294552803,0.6635660541765391,0.6326956996165216
1745767236771738600,3.729738525390625,0.8681038535118103,0.5515785282447934,0.7017630983628332
1745767236781712600,3.739712646484375,0.7855214318931102,0.42136312557458877,0.721917559249699
1745767236791685400,3.749685302734375,0.6482967349827289,0.314020356708765,0.693270287566632
1745767236801659400,3.759659423828125,0.5358130960971117,0.2611401226535439,0.637526334643364
1745767236811632400,3.76963232421875,0.46829672618508333,0.21824396086558698,0.4963413557998836
1745767236821606400,3.7796064453125,0.5167424849241972,0.1916895698085427,0.3213292184174061
1745767236831579400,3.789579345703125,0.5557943923741578,0.16217209116220474,0.13326704532578587
1745767236841553400,3.799553466796875,0.567086770761013,0.0819834328122437,0.0010382570065557955
1745767236851526400,3.8095263671875,0.5271370376884937,0.05024024094045162,-0.14101663653925062
1745767236861500400,3.81950048828125,0.4093137913405895,0.0022089082211256025,-0.21994345825985073
1745767236871473700,3.8294736328125,0.2640495803594589,-0.0687942808933556,-0.3166436909496784
1745767236881446400,3.8394462890625,0.13099661617577074,-0.10288652010932564,-0.3954325655043125
1745767236891420400,3.84942041015625,0.05616086316108703,-0.130612000772357,-0.47644218484833833
1745767236901393400,3.859393310546875,0.03807107971906662,-0.1500350055795163,-0.5276489327333868
1745767236911367400,3.869367431640625,0.034493805754184724,-0.17923918049298226,-0.5246089805155992
1745767236921340400,3.87934033203125,-0.02553893040418625,-0.20949673691689966,-0.5546496062532067
1745767236931314400,3.889314453125,-0.08936229101717472,-0.27451500640287996,-0.5620163356289267
1745767236941287400,3.899287353515625,-0.14788170000314713,-0.3325887174479663,-0.5887833465233445
1745767236951261000,3.909260986328125,-0.1770271304666996,-0.3860947552513331,-0.6464281646318734
1745767236961233700,3.919233642578125,-0.22276772190034388,-0.3868718040384352,-0.6895322700820863
1745767236971207700,3.929207763671875,-0.26464053198993204,-0.3976036259330809,-0.769932233095169
1745767236981180700,3.9391806640625,-0.314852131357789,-0.35859599601626396,-0.7963758572541176
1745767236991154700,3.94915478515625,-0.4528858065634966,-0.2577970227707177,-0.7595050932355225
1745767237001127700,3.959127685546875,-0.6475532231390476,-0.17041282689347861,-0.6691765875346958
1745767237011101700,3.969101806640625,-0.9290127879828214,-0.15970230351518838,-0.6009934242770075
1745767237021074700,3.97907470703125,-1.2314847457170486,-0.16298844904638826,-0.51163639395684
1745767237031048700,3.989048583984375,-1.4627157600581646,-0.20454400988034901,-0.4459175749860704
1745767237041021700,3.999021728515625,-1.5464076042234898,-0.20278171291556207,-0.4110534746147692
1745767237050995700,4.00899560546875,-1.4874930584400892,-0.19259780722726136,-0.4412181651234626
1745767237060968700,4.01896875,-1.3195786242336034,-0.1873864657871425,-0.5340528084263205
1745767237070942700,4.028942626953125,-1.0873965927779674,-0.1876613372057676,-0.6267554959125816
1745767237080915700,4.038915771484375,-0.8314291965872049,-0.19649985616710036,-0.7080227432794869
1745767237090889700,4.0488896484375,-0.6084130528837443,-0.21781850199513136,-0.7107169507995248
1745767237100862700,4.05886279296875,-0.44057811365425587,-0.29422234457675367,-0.6150253106303513
1745767237110836700,4.068836669921875,-0.29950843175351616,-0.32668362159002573,-0.47089098046198485
1745767237120809700,4.078809814453125,-0.1670405739814043,-0.37909726104680447,-0.3470097492493689
1745767237130783700,4.08878369140625,0.02512742699384689,-0.3934227235192433,-0.2699741481028497
1745767237140756500,4.098756591796875,0.14421499418914316,-0.4314889078674838,-0.21718319976627826
1745767237150730500,4.10873046875,0.24514146627187727,-0.47785775073468684,-0.16452844503000377
1745767237160703700,4.118703857421875,0.3417757941186428,-0.5312795808533206,-0.10979790693297982
1745767237170677800,4.128677734375,0.41908933542370796,-0.5752826079046354,-0.13000950483456253
1745767237180650800,4.138650634765625,0.4959487032204866,-0.6474113304503262,-0.13249153090864418
1745767237190624800,4.148624755859375,0.5372510199457406,-0.685771163982898,-0.13288622931465505
1745767237200597800,4.15859765625,0.5857020393818616,-0.7240693304561078,-0.16252981855869292
1745767237210571800,4.16857177734375,0.6232680921882391,-0.7473872238099575,-0.15471929093822837
1745767237220544500,4.17854443359375,0.6233095932424068,-0.7378729610115289,-0.1400309865027666
1745767237230518500,4.1885185546875,0.6130243460714817,-0.7352202545456588,-0.07073723165467381
1745767237240491500,4.198491455078125,0.533311342409253,-0.7253473875679075,-0.002527618781477213
1745767237250465500,4.208465576171875,0.42806817617118353,-0.7145956919290125,0.05204758262336254
1745767237260438800,4.218438720703125,0.27897885394394395,-0.7048844452537596,0.050929684509336944
1745767237270412800,4.228412841796875,0.1527232948154211,-0.7176646510455756,-0.0014747487276792525
1745767237280385800,4.2383857421875,0.05983224515020847,-0.7388343533895909,-0.0748835376791656
1745767237290359800,4.24835986328125,0.021046879681944845,-0.7619321742519736,-0.13152970013916493
1745767237300332800,4.258332763671875,0.05570552060902118,-0.7777261749070137,-0.15364946974962948
1745767237310306800,4.268306884765625,0.043943771144747734,-0.7782902385305612,-0.15095760031715036
1745767237320279600,4.278279541015625,-0.04846738604903221,-0.7299776777170598,0.011824731697887182
1745767237330253600,4.288253662109375,-0.24966040500104425,-0.6548965716391801,0.22096096473932264
1745767237340226600,4.2982265625,-0.45184652664363384,-0.638710575991869,0.4147159426450729
1745767237350200600,4.30820068359375,-0.6335124228268861,-0.5640205515908077,0.5764037574216723
1745767237360173800,4.318173828125,-0.7277046182185412,-0.47426615598350763,0.686253248411417
1745767237370147600,4.328147705078125,-0.8234253383517265,-0.3694492158008739,0.7578802685126662
1745767237380120800,4.338120849609375,-1.0318751965641975,-0.1674362953007221,0.7624624817363918
1745767237390094800,4.3480947265625,-1.2408061162918806,0.01723123038392514,0.7002860115475952
1745767237400067800,4.35806787109375,-1.5911831500172615,0.1390831842586398,0.603621288562566
1745767237410041900,4.368041748046875,-2.013900612810254,0.21448336622305214,0.6226400234177708
1745767237420014600,4.3780146484375,-2.171838427403569,0.290460434759967,0.8390252046741544
1745767237429988600,4.387988525390625,-2.182506536412239,0.4058923655245453,1.0152711216352879
1745767237439961600,4.397961669921875,-2.302135370877385,0.48884358392301946,0.9939712901055813
1745767237449935600,4.407935546875,-2.3317414045900104,0.5304260692965239,0.8723859147451818
1745767237459908600,4.41790869140625,-2.021342160987854,0.6363096523299813,0.7243135144755244
1745767237469882600,4.427882568359375,-1.567087988680601,0.6964068320266902,0.48849166521281
1745767237479855900,4.43785595703125,-1.1231254932850598,0.7049423129208385,0.17314663577154277
1745767237489830000,4.447829833984375,-0.7358347331821918,0.7091528432879597,-0.2159272083558142
1745767237499802600,4.457802734375,-0.3780705118149519,0.6906869930751621,-0.5816919269576668
1745767237509776600,4.467776611328125,-0.00019873744249343872,0.7078908605281263,-0.8197475266218185
1745767237519749600,4.47774951171875,0.2710831322580576,0.7682998095877468,-0.9842900001771747
1745767237529723600,4.4877236328125,0.5204296490043402,0.7695180993363261,-1.1130134107239544
1745767237539696600,4.497696533203125,0.9132792122781276,0.805570824970305,-1.1969415478631853
1745767237549670700,4.507670654296875,1.2094745739609003,0.8676023337304591,-1.3299538877755404
1745767237559643600,4.5176435546875,1.320698568174243,1.0120337471492589,-1.5132539610318838
1745767237569617700,4.52761767578125,1.2058131288439036,1.0869276600919664,-1.717575925659388
1745767237579591000,4.5375908203125,0.9567214636415242,1.1502039812814444,-1.9407723943658173
1745767237589565000,4.54756494140625,0.8305927457630634,1.2709947721980512,-1.884259356766194
1745767237599537700,4.55753759765625,0.9921090033650398,0.73416431575194,-1.7762302130714058
1745767237609511700,4.56751171875,0.9971393987476825,0.20391616030558943,-1.9558518900759516
1745767237619485700,4.577485595703125,0.6958540204495192,0.26420433252975345,-1.865172671241313
1745767237629458700,4.587458740234375,0.16549159097373484,0.3102257867313921,-2.1957385045595466
1745767237639432700,4.5974326171875,-0.2760474766671657,0.6307055487126112,-2.424998364958167
1745767237649405700,4.60740576171875,-0.496624995046854,1.064324198617786,-2.473253277300298
1745767237659379700,4.617379638671875,-0.5212181690335274,1.3155435234986246,-2.3379539954945443
1745767237669352700,4.627352783203125,-0.6050006140917539,1.282575027615577,-2.0867546904884278
1745767237679326700,4.63732666015625,-0.6788146228432655,1.0520584451541304,-1.7786831591814756
1745767237689299500,4.647299560546875,-0.8320803539723157,0.8206979592144489,-1.448204273494333
1745767237699273500,4.6572734375,-1.0670429560571908,0.6485179765179753,-1.0894539636991918
1745767237709246700,4.667246826171875,-1.3245616733431815,0.6106304366722702,-0.7839993368923663
1745767237719220700,4.677220703125,-1.5086042355298994,0.6710214847490191,-0.6262598213501275
1745767237729193700,4.68719384765625,-1.649748736232519,0.7891115653395653,-0.6151540515765548
1745767237739167700,4.697167724609375,-1.7075801629543303,0.8725026729926466,-0.6531793924577534
1745767237749140700,4.707140625,-1.6233920597046614,1.0221246407918632,-0.7018300261192023
1745767237759114800,4.71711474609375,-1.454279355624318,1.1839638467378915,-0.7100773377217352
1745767237769087700,4.727087646484375,-1.2915192354410887,1.234835517449677,-0.7217272973746061
1745767237779061800,4.737061767578125,-1.1742179671406745,1.296413291092962,-0.6567614887282252
1745767237789034500,4.747034423828125,-1.0994348210960625,1.291391517408192,-0.5529179601550102
1745767237799008500,4.757008544921875,-0.9734832133501767,1.2023567047797143,-0.5570661658756435
1745767237808981800,4.766981689453125,-0.7562456530481576,1.0855820907019078,-0.5419486762426793
1745767237818955800,4.776955810546875,-0.5029354933679103,0.9213495598785578,-0.5758928852900862
1745767237828928800,4.7869287109375,-0.2543231361150741,0.7943173172891139,-0.6215767781004309
1745767237838902800,4.79690283203125,-0.07212707857787609,0.656384325978905,-0.7115304591394961
1745767237848875800,4.806875732421875,0.026298808860778806,0.5374824906140565,-0.7586793099358677
1745767237858849800,4.816849853515625,0.1017675990819931,0.37244405023530125,-0.7887693277731538
1745767237868822800,4.82682275390625,0.13633330102860927,0.16635536819621918,-0.8335613863103091
1745767237878796500,4.836796630859375,0.10788403613567352,-0.03685410514473915,-0.7984842277102172
1745767237888769500,4.84676953125,-0.052289574685692786,-0.1411105984330177,-0.6779755416706204
1745767237898743600,4.85674365234375,-0.1900970399200916,-0.13007716324329374,-0.6047649056397378
1745767237908716800,4.866716796875,-0.2578711839854717,-0.008540449330210685,-0.574542931985855
1745767237918690600,4.876690673828125,-0.42103579331636426,0.2096428673893213,-0.6097960316747426
1745767237928664600,4.88666455078125,-0.6652478697836399,0.4616851990908384,-0.7152015488676726
1745767237938637800,4.896637939453125,-0.8962906680762768,0.6732619571521878,-0.8188755660928785
1745767237948612000,4.906612060546875,-1.1033867735922336,0.8419213645070791,-0.9055958181686699
1745767237958585000,4.916585205078125,-1.0887164432048797,1.0049708230257033,-0.9230456962719559
1745767237968559000,4.92655908203125,-0.9220119693100451,1.1008207224965094,-0.98791695850268
1745767237978531800,4.93653173828125,-0.6778717890352011,1.1788614090323448,-0.9948752532079815
1745767237988505900,4.946505859375,-0.37416006037294863,1.2210077753663062,-0.9568437748469412
1745767237998478800,4.956478759765625,0.0028238252490758895,1.2279092253178356,-0.9225126123085617
1745767238008452900,4.966452880859375,0.3362888871401548,1.1666393485799431,-0.8244847842767834
1745767238018425900,4.97642578125,0.6180775378078222,1.0939479141175745,-0.8110117008499801
1745767238028399900,4.98639990234375,0.8657587516903876,0.9744210787221789,-0.8139940776616335
1745767238038373000,4.996373046875,0.9829548060506582,0.9037684566110372,-0.7953124658063053
1745767238048347000,5.006346923828125,0.9393483040362596,0.933181890361011,-0.6898875132605433
1745767238058320100,5.016320068359375,0.6992208665341139,0.9741121589034795,-0.6283612506087869
1745767238068294100,5.026294189453125,0.37129239598214625,1.0341875651597976,-0.567979554882273
1745767238078267000,5.036266845703125,0.08533844232857227,1.124613686016202,-0.6296946181043982
1745767238088241000,5.046240966796875,-0.21983634462356566,1.3018252331390976,-0.6957932301729917
1745767238098214000,5.0562138671875,-0.4639291786253452,1.3783514234587548,-0.7709389989849179
1745767238108188000,5.06618798828125,-0.46053369096815583,1.2791060363307594,-0.7223562429279089
1745767238118161000,5.076160888671875,-0.2727501886874437,1.1333946661040186,-0.607093933109194
1745767238128135000,5.086135009765625,-0.038869536620378495,0.9945765625223517,-0.4436845552369952
1745767238138109000,5.09610888671875,0.1783294452369213,0.8602738905385137,-0.377470646225661
1745767238148082000,5.10608203125,0.37695641309320926,0.6861036108076572,-0.33863311217874287
1745767238158056000,5.116055908203125,0.44471009889245033,0.52107349986583,-0.2694833689112216
1745767238168029000,5.12602880859375,0.4130214136868715,0.45738720963597296,-0.13617672222740948
1745767238178003000,5.1360029296875,0.26042788273096085,0.4670075631573796,-0.03626636838465929
1745767238187976000,5.145975830078125,0.021329203754663465,0.4855091422706842,0.056815089286118746
1745767238197950000,5.155949951171875,-0.2235468895792961,0.5596729873731732,0.06911131095327437
1745767238207923000,5.1659228515625,-0.4610118298739195,0.6877291661828756,0.1107261276938021
1745767238217897000,5.17589697265625,-0.6183750594496726,0.8998127047225832,0.1273326868407428
1745767238227870000,5.185869873046875,-0.621516864606738,0.9600129064023494,0.15929960446581243
1745767238237844000,5.195843994140625,-0.5467372256934643,1.0608280270650983,0.19083551026247442
1745767238247817000,5.20581689453125,-0.4654670557171106,1.0934721132993697,0.20376381928808987
1745767238257791000,5.215791015625,-0.31032267123460766,1.0714335922315716,0.20211247188448905
1745767238267764000,5.225763916015625,-0.08506839321553707,1.0634753267034887,0.12395495403595268
1745767238277737700,5.23573779296875,0.21143968767821789,1.079376075668633,0.04328274995274842
1745767238287711000,5.2457109375,0.4105985704541206,0.9844774855732917,-0.03164214265011251
1745767238297685000,5.25568505859375,0.5721656814604997,0.7940712335735559,-0.09211480459570884
1745767238307659000,5.265658935546875,0.6446148315995931,0.6086892394766211,-0.10363602330237627
1745767238317632000,5.275632080078125,0.6274515153527259,0.4639157346218824,-0.15193492091670632
1745767238327606000,5.28560595703125,0.5533253719121217,0.357723012574017,-0.1887630879025906
1745767238337579000,5.2955791015625,0.43003509232997894,0.3636483109697699,-0.21116160138919948
1745767238347553000,5.305552978515625,0.226997322294116,0.4861643913090229,-0.25513247973658143
1745767238357526000,5.315526123046875,0.048964229655265805,0.6247729437932372,-0.30893019396290183
1745767238367499800,5.325499755859375,-0.09800210906863212,0.7596689054951071,-0.38168892150782047
1745767238377472800,5.33547265625,-0.1930734253823757,0.9688897480800748,-0.4884726682513952
1745767238387446800,5.34544677734375,-0.32812837703824044,1.1963146481364966,-0.631904622304067
1745767238397420000,5.355419921875,-0.3749748838871717,1.428577635873854,-0.7340813136436045
1745767238407394000,5.36539404296875,-0.44177112283110614,1.523223127990961,-0.8518331021904945
1745767238417367000,5.375366943359375,-0.19832184742987155,1.421699566797912,-0.9750412564471364
1745767238427341000,5.385341064453125,0.3982686657130718,1.1408394291520119,-1.0812351475387811
1745767238437314000,5.39531396484375,1.0042045148283243,0.9778317639485001,-1.1441709116622805
1745767238447288000,5.4052880859375,1.305804365903139,0.9418824986889958,-1.1979197452455759
1745767238457262000,5.415261962890625,1.122194349914789,0.9081351273879408,-1.3268512455850838
1745767238467234800,5.42523486328125,0.5781272202134132,0.8897080748155712,-1.457947084351629
1745767238477208800,5.435208740234375,-0.04359714966416359,0.9545482112556696,-1.4732200568072498
1745767238487181800,5.445181884765625,-0.606665916955471,0.9984005047246813,-1.5412601583324372
1745767238497155800,5.45515576171875,-0.9947194781243801,1.050699431760609,-1.7128044734738765
1745767238507128800,5.46512890625,-1.1434645169585942,1.0687243332728742,-1.9909044987566769
1745767238517102800,5.475102783203125,-1.1018179168403148,1.034208900208771,-2.236656205881387
1745767238527076000,5.485076171875,-1.0405191062688828,1.007769221572578,-2.4128164903856812
1745767238537050000,5.495050048828125,-0.9971469975322484,0.8693319340020418,-2.573070619097352
1745767238547023000,5.505023193359375,-0.9538210660248995,0.8515893565624952,-2.710825477361679
1745767238556997000,5.5149970703125,-1.0643448030143976,1.0401371212139725,-2.7653999481141565
1745767238566969900,5.524969970703125,-1.303514209139347,1.2388295555219053,-2.7133067727833984
1745767238576943900,5.53494384765625,-1.6275585317343473,1.3291925480142235,-2.635042506624758
1745767238586916900,5.544916748046875,-1.867010846453905,1.3836770023956895,-2.483272274750471
1745767238596891000,5.554890869140625,-1.9564859501957892,1.3352201377406716,-2.462376201716065
1745767238606865000,5.564864990234375,-1.5332114380419253,1.538658013010025,-2.4002657825008034
1745767238616838000,5.574837890625,-0.5964806230276822,1.8502514348328112,-2.344403171633929
1745767238626812000,5.58481201171875,0.5036129542380571,2.1465184004470705,-2.584801681162417
1745767238636785200,5.59478515625,1.1006447814077138,2.345323355218768,-2.7331352165862914
1745767238646759000,5.604759033203125,0.8192991983324289,2.2777108314558863,-2.577240598258376
1745767238656732000,5.61473193359375,-0.22181027504503725,2.045331523862481,-2.066044641545415
1745767238666706000,5.624705810546875,-1.4466560211390256,1.797185030555725,-1.3687312160678207
1745767238676679000,5.634678955078125,-2.385189501661062,1.5972475646227597,-0.7309408236607908
1745767238686653000,5.64465283203125,-2.855523871153593,1.504711319744587,-0.23728519981354473
1745767238696626000,5.6546259765625,-2.8081682457387447,1.4770236868739128,0.055412675142288204
1745767238706600000,5.664599853515625,-2.42290402302742,1.3671584137931465,-0.07366554019153118
1745767238716573000,5.674572998046875,-1.8219383635401725,1.2762933169975876,-0.5757726199112833
1745767238726547000,5.684546875,-1.2085410925030708,1.3228379182904957,-1.0635596439860762
1745767238736521000,5.69452099609375,-0.824869691941142,1.4133914649188517,-1.5319469710640607
1745767238746494000,5.704493896484375,-0.592777092334628,1.5974869263365863,-1.9441928703337907
1745767238756468000,5.714468017578125,-0.4190297141909599,1.737012593665719,-2.07925775886178
1745767238766441000,5.72444091796875,-0.3314829481631517,1.8611869626060127,-1.9811280778907239
1745767238776415000,5.7344150390625,-0.35004327172636984,1.968894180870056,-1.681035124247521
1745767238786388000,5.744387939453125,-0.31535540470480916,2.015506294441223,-1.2869712167479097
1745767238796362000,5.754362060546875,-0.286698050019145,2.0242726614817976,-0.8131618646211922
1745767238806335000,5.7643349609375,-0.21634265728890895,1.9785040129974483,-0.4828437224537134
1745767238816309000,5.77430908203125,-0.07125146478712559,1.9041846850723028,-0.3023306495673954
1745767238826282000,5.784281982421875,0.05912029748857021,1.9395155261725185,-0.18961217901259658
1745767238836256000,5.794256103515625,0.1436433317810297,1.9311136085301637,-0.21683774732947347
1745767238846228700,5.804228759765625,0.15828034442067146,1.9292483991801737,-0.3031513183005154
1745767238856202800,5.81420263671875,0.0816074391067028,1.920581400860846,-0.31104543255120515
1745767238866176800,5.8241767578125,-0.04462357010245323,1.973508396667242,-0.310138400708884
1745767238876150000,5.83414990234375,-0.1717027205735445,2.091182589933276,-0.34450974912717935
1745767238886123800,5.844123779296875,-0.33430092819333074,2.2258757225394246,-0.36339886625334616
1745767238896097000,5.854096923828125,-0.5349813214480876,2.55717483856827,-0.2783215590789914
1745767238906071000,5.864071044921875,-0.5373462970137596,3.0548879211127757,-0.4903703185662627
1745767238916044000,5.8740439453125,-0.7789572510719299,3.6507384295433756,-0.9440553126834332
1745767238926018000,5.88401806640625,-0.9339601812571287,4.360520437580347,-1.8009655720077453
1745767238935991000,5.893990966796875,-1.3620803798764942,4.474087487788498,-2.583303843820095
1745767238945965000,5.903965087890625,-1.9435662628680466,3.8376363811612126,-2.8179601564347743
1745767238955937800,5.913937744140625,-1.8307336644142864,2.8829072603806853,-2.0228756541654467
1745767238965911800,5.923911865234375,-1.2017103697001934,2.5187454469308257,-0.8114420550912618
1745767238975884800,5.933884765625,-0.6211433551192284,2.621780289469659,0.13424421979486942
1745767238985858800,5.94385888671875,-0.2666448575496673,2.5093612402528525,0.3256622791856527
1745767238995831800,5.953831787109375,0.1303314302653074,2.2471222164466975,0.2897632828086614
1745767239005805800,5.963805908203125,0.5045224702984095,1.886933106020093,0.07464812148809433
1745767239015779800,5.97377978515625,0.6093816056549549,1.6511051192775368,-0.07799070991426706
1745767239025752800,5.9837529296875,0.5812041434407234,1.4633534734398126,0.021765841606259346
1745767239035726800,5.993726806640625,0.3836047650665045,1.157708146366477,0.39548984864950176
1745767239045699800,6.003699951171875,0.13075287054777143,0.6885489581331611,0.7441171160981058
1745767239055673900,6.013673828125,-0.020875614768266677,0.29090953023433685,1.057230587095022
1745767239065646800,6.023646728515625,-0.03569090658426285,0.03312017931342125,1.185104687336087
1745767239075620900,6.033620849609375,0.12262158654034137,-0.20078823754340408,1.2342211849436162
1745767239085593900,6.04359375,0.37945699773728847,-0.4659767588049173,1.2663780721828342
1745767239095567600,6.053567626953125,0.5778495723158121,-0.7234381929457188,1.1992138767093419
1745767239105540900,6.063540771484375,0.6681447602689266,-0.8605214355587959,1.0666460656940937
1745767239115515000,6.073514892578125,0.3633779695957899,-0.8598226396396755,0.9940849796131253
1745767239125488600,6.083488525390625,-0.2560638423025608,-0.7573740725561976,1.1167936599150299
1745767239135462000,6.0934619140625,-0.7429635621488094,-0.7119806871250272,1.298393212863803
1745767239145436000,6.103435791015625,-0.9437176051616668,-0.7513900297105311,1.589658132407069
1745767239155409000,6.113408935546875,-0.9636825348258018,-0.9591513211369513,1.7296341738522052
1745767239165383000,6.1233828125,-0.7442161925584078,-1.1286799125418066,1.6985256266221402
1745767239175356000,6.13335595703125,-0.4269499857962131,-1.195774549910426,1.675210217486322
1745767239185330000,6.143329833984375,-0.26581366742253304,-1.2224360546037554,1.6593921783685683
1745767239195302700,6.153302734375,-0.23415420831143854,-1.2236758255317806,1.5678779700145125
1745767239205276700,6.163276611328125,-0.37290567639768124,-1.1661784530699253,1.5276289617344736
1745767239215249700,6.173249755859375,-0.5167413158804178,-1.1270096412420272,1.3405501005917786
1745767239225223700,6.1832236328125,-0.5946107375025749,-1.0708949553102254,1.1032008956313133
1745767239235197000,6.193197021484375,-0.6265384921610355,-0.9204723386526107,0.8738295376822351
1745767239245171000,6.2031708984375,-0.48194648135304446,-0.7850140668928622,0.6827481628999114
1745767239255145000,6.21314501953125,-0.3275216433167457,-0.7171797170728444,0.5323346063315868
1745767239265118000,6.223117919921875,-0.24442893408834931,-0.72703534065485,0.4952499073013663
1745767239275092000,6.233092041015625,-0.20074761327207089,-0.7933373663410543,0.5871303186193109
1745767239285065000,6.24306494140625,-0.2726443902254104,-0.9854583133041858,0.6224988613814115
1745767239295039000,6.2530390625,-0.3933376390516758,-1.2097595283821225,0.5250561397612095
1745767239305011700,6.26301171875,-0.503258733972907,-1.3140841184705494,0.3676297818213701
1745767239314985700,6.27298583984375,-0.6544950051009655,-1.4695672333881258,0.10186638328135013
1745767239324958700,6.282958740234375,-0.8338836040019989,-1.7205100794151424,-0.08177402784526347
1745767239334932700,6.2929326171875,-1.0061129787981509,-1.6429890328392385,0.09681348380595445
1745767239344905700,6.30290576171875,-1.2311416313678025,-1.064129406698048,0.7106289802551269
1745767239354879700,6.312879638671875,-2.0024597658634185,-0.44798137564808127,1.4538967860475183
1745767239364853000,6.32285302734375,-4.179357814744114,0.028812545247375962,2.073511908686161
1745767239374827000,6.332826904296875,-4.721584869536757,0.3220344440773129,1.9530378555685282
1745767239384801000,6.342801025390625,-3.4691941139131783,0.49055239713490006,1.3625056195512413
1745767239394773800,6.352773681640625,-2.65923674442172,0.8933446777522563,1.306796884071827
1745767239404747800,6.362747802734375,-1.8751736946433781,1.3702549185037611,1.2405688004046678
1745767239414720800,6.372720703125,-1.0100228457182645,1.6139529079690575,0.8785197413250804
1745767239424694800,6.38269482421875,-0.30684125885963437,1.6602154774501918,0.465461648889631
1745767239434667800,6.392667724609375,0.19153847090005874,1.5094105834767222,0.13701777616143226
1745767239444641800,6.402641845703125,0.6099532680630684,1.1704735199153422,-0.10797887481227517
1745767239454614800,6.41261474609375,0.8339473168879747,0.854226719328761,-0.245861889500916
1745767239464588800,6.4225888671875,0.9247609757572411,0.6715533996686339,-0.17855317099019885
1745767239474562000,6.43256201171875,0.9674690676271915,0.5817316744461656,-0.061158086926490066
1745767239484535800,6.442535888671875,0.8843179062098264,0.5364253827765584,0.011881576451659203
1745767239494509800,6.452509765625,0.775585144290328,0.5572928142383694,0.09121347184181212
1745767239504482800,6.46248291015625,0.628557430768013,0.5262754524230957,-0.16342705965936183
1745767239514456800,6.472456787109375,0.4490022431284189,0.7547814257144928,-0.36934929909035563
1745767239524429800,6.482429931640625,0.42108781576454635,1.119976966126263,-0.5115465237163007
1745767239534403800,6.49240380859375,0.6437894866913557,1.3520984995663166,-0.6048654434047639
1745767239544376800,6.502376953125,0.9393453814268111,1.476418998979032,-0.5804324284158646
1745767239554350800,6.512350830078125,1.2785948719382285,1.4697463893473148,-0.49079322015345095
1745767239564323800,6.52232373046875,1.3927479053407907,1.3556880484908818,-0.4496962167419493
1745767239574297900,6.5322978515625,1.2437567827910183,1.131308507479727,-0.4558281436257064
1745767239584270600,6.5422705078125,1.0342460173487662,0.8889771301925182,-0.35267274344712496
1745767239594244600,6.55224462890625,0.7534452086746692,0.579500262132287,-0.10888692956790327
1745767239604218600,6.562218505859375,0.4170961157798767,0.36573242376744747,0.13141308802217244
1745767239614191900,6.57219189453125,0.045214521732926366,0.31843232793211934,0.22209522946625945
1745767239624166000,6.582165771484375,-0.19840075788497924,0.41911183951646086,0.15750176126360893
1745767239634139000,6.592138916015625,-0.40262861448824405,0.6248547768577933,-0.016076251662522554
1745767239644113000,6.60211279296875,-0.3618336627632379,0.7370861945480108,-0.09808496504649519
1745767239654086000,6.6120859375,-0.14161094917058945,0.754905928876996,-0.005229278955608606
1745767239664060000,6.622059814453125,0.17593173644542692,0.6709165630698204,0.1715663808427751
1745767239674033000,6.632032958984375,0.4141197303175926,0.43924131209254264,0.11477920247688889
1745767239684007000,6.6420068359375,0.6342144336163997,0.23902210660874842,-0.21021964436396956
1745767239693979600,6.651979736328125,0.6864806274265051,0.1474453544124961,-0.46787017133608455
1745767239703953700,6.66195361328125,0.7245856094151735,0.19499767144322394,-0.5576464499816298
1745767239713927700,6.671927734375,0.6334826122105122,0.20515549284219742,-0.5956184532403945
1745767239723900700,6.681900634765625,0.5650625714570283,0.15892711789160965,-0.6062003452703356
1745767239733874700,6.691874755859375,0.6599170301496983,0.062495911401510236,-0.6617584202326834
1745767239743848000,6.701847900390625,0.8491834644645452,-0.024596096596121785,-0.7354786132209002
1745767239753822000,6.711822021484375,1.0607990932315587,-0.10634031382501125,-0.7823362259857356
1745767239763795000,6.721794921875,0.9262941766738891,-0.15441665472984312,-0.653974634488672
1745767239773769000,6.73176904296875,0.7371586752623319,-0.2718625921979546,-0.5697982216767966
1745767239783741700,6.74174169921875,0.6009007775574923,-0.3997685488820076,-0.43590383823290463
1745767239793715700,6.7517158203125,0.2941156327992678,-0.4588490988820791,-0.4132207356512546
1745767239803688700,6.761688720703125,-0.12156301739811896,-0.49254795486629005,-0.5328282350674272
1745767239813662700,6.771662841796875,-0.44224692364931106,-0.4680611638635397,-0.5703571707338094
1745767239823636700,6.78163671875,-0.7668599860429763,-0.48287645567953585,-0.561738103209436
1745767239833609700,6.791609619140625,-0.4833060792684555,-0.4785267360374331,-0.3655133741892874
1745767239843583700,6.801583740234375,-0.4652098660856485,-0.3279845846533775,-0.10233253948837519
1745767239853557000,6.811556884765625,-0.9086118049889802,-0.1333785428762436,0.38053120284006
1745767239863530800,6.82153076171875,-0.4679389987885952,-0.04223258331269025,0.5704676453709602
1745767239873504000,6.83150390625,-0.2752653863787651,-0.1846253305107355,0.7582033629871905
1745767239883478000,6.84147802734375,-1.0035258849143982,-0.6446092786416411,0.6966071769043802
1745767239893450800,6.85145068359375,-1.409899531149864,-0.9476941075772046,0.032294103752821685
1745767239903424800,6.8614248046875,-2.2198300126343966,-0.8638356746733188,-1.1698270387053489
1745767239913398800,6.871398681640625,-2.243447035065293,-0.31656857988685366,-2.277410241074115
1745767239923371800,6.881371826171875,0.44350013858079906,0.33473844282776116,-3.357836556448042
1745767239933345800,6.891345703125,2.023184573984146,-0.0847188491255045,-3.4491315690934656
1745767239943318800,6.90131884765625,1.7548165459036826,-1.3379790810599923,-3.037934448224306
1745767239953293800,6.9112939453125,1.6632891858071088,-2.140002734942734,-2.219681544074416
1745767239963266600,6.9212666015625,1.3344202195346355,-2.0528052207440135,-1.3645005927607416
1745767239973240600,6.931240478515625,1.0902391227275132,-1.726807133732736,-0.6454076624777167
1745767239983213600,6.941213623046875,1.4463777887195348,-1.4804095299199223,-0.3305812866156921
1745767239993187600,6.9511875,2.607622877040505,-1.0408309486970304,-0.4078165385201573
1745767240003160800,6.961160888671875,4.332063573902845,-0.09593903905898332,-0.9145693251539021
1745767240013134600,6.971134521484375,6.338668184486031,1.866576254428923,-1.2872247531175613
1745767240023108600,6.981108642578125,5.6826575141251086,1.9821248338431119,-4.326349287909269
1745767240033081900,6.991081787109375,4.24469800966084,1.0661524369582533,-5.8828451554268595
1745767240043055900,7.001055908203125,-1.058672602596879,-1.1394465134888887,-9.168938371917605
1745767240053028600,7.011028564453125,-4.252683163195848,-5.3463066676646465,-4.376853440482914
1745767240063002600,7.021002685546875,-0.5411673166066407,-1.4279428451016545,0.999438031078875
1745767240072975600,7.0309755859375,-2.2091560584068297,2.3343466186523436,2.804431397297978
1745767240082949600,7.04094970703125,-1.344581548064947,3.7879803698495027,4.065753647395968
1745767240092922600,7.050922607421875,6.025272097155451,4.0880002582564945,1.487032747451961
1745767240102896600,7.060896728515625,7.146634672421216,2.843467814917862,0.08834142353683709
1745767240112870700,7.07087060546875,8.26701232830286,2.424186756314337,0.37938364024013277
1745767240122843600,7.08084375,8.044812177157402,3.0995489006161687,0.9380041959509253
1745767240132817700,7.090817626953125,5.539349113386869,1.690678420253098,-0.3103739630304277
1745767240142791000,7.100791015625,-5.56081275717616,-5.6135927457273,-6.497461739125847
1745767240152764700,7.1107646484375,-5.762018635609746,-5.417166502785682,-5.247639957207441
1745767240162737700,7.120737548828125,-1.63057466468513,-2.5638819349914788,0.0006518880374729633
1745767240172711700,7.130711669921875,-2.3872464341908692,-3.358573346289992,1.065471615087241
1745767240182684700,7.1406845703125,-6.642116878297925,-3.3561557637542485,-1.6781278584986925
1745767240192658700,7.15065869140625,-3.194468241238594,2.9267905335098505,-3.260224908001721
1745767240202632700,7.1606328125,2.06299519084692,8.469033614772558,-3.0735715787947178
1745767240212605700,7.170605712890625,0.2468611296713352,9.145863785800337,-5.706517697662115
1745767240222579700,7.180579833984375,-1.6990566647589205,4.969094818505645,-7.644786438643932
1745767240232552700,7.190552734375,-0.5666057092458009,1.343511288484931,-2.1716341370031236
1745767240242526700,7.200526611328125,-1.8930606489896773,2.782057652926445,-2.6933845132172105
1745767240252499500,7.21049951171875,-4.419988817854225,4.98682219837606,-5.114332726001739
1745767240262473500,7.220473388671875,-6.9337646596789355,6.995126014092564,-4.968545367929339
1745767240272446700,7.23044677734375,-9.704859604564309,8.028206494793295,-6.477647031587362
1745767240282420700,7.240420654296875,-10.060068296229838,9.28019568387866,-6.388183618283271
1745767240292394800,7.250394775390625,-4.453609640166163,7.488719094097614,-6.133087744230032
1745767240302367700,7.26036767578125,-4.428004658788442,5.475898677739501,-6.713390554916859
1745767240312341800,7.270341796875,-4.7648809904277325,5.340897502097487,-6.9107017639994615
1745767240322314800,7.280314697265625,-7.99104668470025,6.968295874834061,-3.646593292562663
1745767240332288800,7.290288818359375,-13.268022626507282,6.946653951868415,5.6147050908833736
1745767240342261800,7.30026171875,-15.248646992659568,5.865837906524539,12.506111202782392
1745767240352235800,7.31023583984375,-13.45353818385601,5.650974674138427,12.518466826486586
1745767240362208500,7.32020849609375,-13.43682670302987,4.927132576566934,7.5089160789519545
1745767240372182500,7.3301826171875,-16.468258929753304,4.59604593424499,2.273897410647571
1745767240382156500,7.340156494140625,-18.233356046652794,6.624186084809899,-0.18983071713410316
1745767240392129500,7.350129638671875,-17.38166556780338,8.853936602956056,-0.7238396864186972
1745767240402103600,7.360103515625,-14.842027847230433,10.191604426109791,-0.8650020881041884
1745767240412076800,7.370076904296875,-11.671323927938937,8.8439138061136,1.2186812321148812
1745767240422050800,7.38005078125,-8.650235400575399,6.787192288708686,3.420375722469389
1745767240432023800,7.39002392578125,-2.678006911343336,6.252862124645709,4.725387184429168
1745767240441997800,7.399997802734375,3.3114287332773205,6.110806938838959,5.8623009645700455
1745767240451971800,7.409971923828125,4.945238726621866,4.260910016532242,7.780092150190472
1745767240461944600,7.419944580078125,2.908262358650565,2.0241239006608724,9.813487737065554
1745767240471918600,7.429918701171875,0.7521767961740493,1.6538827672973275,11.277380724209547
1745767240481891600,7.4398916015625,-0.8590262285649776,3.6302410004377363,12.119829911983013
1745767240491865600,7.449865478515625,-2.5235890875697136,6.736752141281962,11.94944762635827
1745767240501838600,7.459838623046875,-3.6362253355443475,7.097951013273001,12.369944490492344
1745767240511812600,7.4698125,-0.5266285036444663,5.427491497445106,14.996456192398071
1745767240521786600,7.47978662109375,8.19938548375368,5.156495458948612,16.74430523737669
1745767240531759600,7.489759521484375,18.496056550490856,4.894418639966845,15.966531058609485
1745767240541733600,7.499733642578125,24.866931306576728,3.937862596020102,14.324749355733394
1745767240551707000,7.509706787109375,22.659409571373462,3.6375980852022765,10.38063997427821
1745767240561681000,7.519680908203125,16.35714365661144,5.031387900811433,6.571837473413348
1745767240571653600,7.529653564453125,11.265157202452421,7.997357767543196,5.677125598961115
1745767240581627600,7.539627685546875,7.942776867049932,10.291779787564277,5.564851218912005
1745767240591600600,7.5496005859375,5.877657523655891,10.831370648634433,2.9536595434740183
1745767240601574700,7.55957470703125,3.095986239698529,8.130972457262873,-0.5642062468886375
1745767240611548700,7.569548583984375,1.1773919210016728,6.046324237534403,-0.8513923726856708
1745767240621521700,7.579521728515625,2.4698247641563413,6.708693921533227,2.0238474218070506
1745767240631495700,7.58949560546875,5.383770429140329,7.189101941272616,4.2996714166030285
1745767240641468700,7.59946875,10.001032754415274,8.115203810244799,2.34389215337187
1745767240651442700,7.609442626953125,16.371901665282248,9.990700745493173,-2.3531124016597866
1745767240661415700,7.619415771484375,21.66977894082069,13.042476672065257,-5.418696196570992
1745767240671389700,7.6293896484375,22.254747405230997,16.073063680136205,-3.5642101929083463
1745767240681363500,7.639363525390625,15.487594864988326,15.910063905978202,1.1539002785161137
1745767240691336700,7.649336669921875,5.813017585963011,12.12817103934884,6.828691004788875
1745767240701310700,7.659310791015625,-1.5798884335428476,4.238168315631151,8.115710006201267
1745767240711283700,7.66928369140625,-5.549004245960712,-4.09441626277864,5.451615884876251
1745767240721257700,7.6792578125,-5.308323266229033,-8.009636818879843,2.0907263705983756
1745767240731230700,7.689230712890625,-2.789299294617772,-8.94641381112337,-0.06898702698647975
1745767240741204700,7.699204833984375,-0.8543091369152068,-8.717343774208427,-1.3691376049116253
1745767240751178800,7.7091787109375,0.9521411501139402,-7.11384124084413,0.8015373316705227
1745767240761151700,7.71915185546875,1.5676488374337554,-3.997815837201476,4.491532543586194
1745767240771125800,7.729125732421875,-0.4304267219960689,-0.042808629634976385,7.2549798963278525
1745767240781098500,7.739098388671875,-4.699395834082365,1.1068763692736625,6.395823319381475
1745767240791072500,7.749072509765625,-8.594410052978992,1.1496242086321116,1.65671302228719
1745767240801045800,7.759045654296875,-12.301265506541728,-0.9057710286051034,-6.366500194263458
1745767240811019800,7.769019775390625,-20.012434927153585,-24.418811106979845,-40.152959643125534
1745767240820992800,7.77899267578125,-18.19386107161045,-29.609105959677695,-20.3488904030323
1745767240830966800,7.788966796875,-6.71389207469821,-10.771908405840396,8.607769885289668
1745767240840940800,7.79894091796875,-10.830420216041803,1.254843409472704,7.533084890046715
1745767240850913800,7.808913818359375,-11.961263151836395,9.59674409776032,13.419358850878476
1745767240860887800,7.8188876953125,-14.22188168645501,7.756154809764027,9.714645670041442
1745767240870860500,7.828860595703125,-14.472419458812475,6.468360147804021,2.8865105455696582
1745767240880834600,7.83883447265625,-11.162837814706563,8.02994778550267,-1.2086521516621112
1745767240890807600,7.8488076171875,-5.832907112303376,9.920147784364223,-2.0902660596102476
1745767240900781600,7.858781494140625,-1.3152519932061433,9.331828840482235,-2.4976982749879357
1745767240910755600,7.868755615234375,0.04264847063720226,7.311054250249266,-1.4477999304771423
1745767240920728600,7.878728515625,-0.24114856071081012,5.556140089190006,-0.27472353458702564
1745767240930702600,7.88870263671875,-0.7604051108151674,4.310988052648305,0.09879530527293681
1745767240940675800,7.89867578125,-0.9216530728697776,3.7379315598279237,1.5371253966152667
1745767240950649900,7.90864990234375,-0.7205903292339295,4.193309767729044,3.6405110500395295
1745767240960623400,7.918623291015625,-0.46287630857154727,4.6486593340575695,4.702952649781108
1745767240970596400,7.928596435546875,-0.14401158057153224,5.0116439204216,4.505412892639637
1745767240980570000,7.938570068359375,0.08763619787693024,4.667595505195856,3.3534564416676758
1745767240990543000,7.948543212890625,-0.0617699352145195,4.709940901233256,2.117276231610775
1745767241000517000,7.95851708984375,-0.707038554547727,5.722382790791988,0.669078241726756
1745767241010490000,7.968489990234375,-1.8162255388513207,6.5214347353875635,-0.021027005937695502
1745767241020464000,7.978464111328125,-2.6687124287754296,6.129753631371259,0.5791255836009979
1745767241030438100,7.988438232421875,-2.9504139856815335,5.604314045250415,1.7139561277270317
1745767241040411100,7.9984111328125,-2.6644103476673364,4.778281739270687,2.7835014219939707
1745767241050385200,8.00838525390625,-1.8820774826824664,3.8070635482430455,3.7588200340777633
1745767241060358400,8.0183583984375,-0.7762059065371751,3.1373458395689724,4.037899425786733
1745767241070332400,8.02833251953125,0.34573008470237254,2.4968130165860054,3.0199890416890383
1745767241080305200,8.03830517578125,1.2794874368637799,1.7074600437059997,1.927522890561819
1745767241090279200,8.048279052734374,1.9081798921883104,2.0944395459026097,0.9403156877636909
1745767241100253200,8.058253173828126,1.914973205590248,3.014758155298233,0.8705857334554195
1745767241110226200,8.06822607421875,1.667492482715845,3.209928260698914,1.1730436626642942
1745767241120200200,8.0782001953125,1.6399860516309737,2.747606809531152,1.3961293644726276
1745767241130173200,8.088173095703125,1.7968460078597068,2.021769446489215,1.9878356127053498
1745767241140147200,8.098147216796875,1.7137538831532,2.194525767768919,2.3710440719306467
1745767241150120200,8.1081201171875,0.8021896580994129,4.630680609774589,2.2586837671637534
1745767241160094200,8.11809423828125,-1.7055945420950651,8.178804468017816,1.7082698987841605
1745767241170068200,8.128068115234376,-5.1669700912117955,10.1924426304996,1.2374921694383025
1745767241180041200,8.138041259765625,-9.932596931570767,9.379573757475614,-0.08824117803275584
1745767241190015000,8.148014892578125,-10.652081418454646,6.765409495967626,0.26744302219003435
1745767241199988200,8.15798828125,-8.800785443004965,5.08712030942738,2.101161109242588
1745767241209962200,8.167962158203125,-5.591247642928361,4.595777638697624,4.6579859653294085
1745767241219936300,8.177936279296874,-1.956445033663511,4.986607094320655,6.298975056523084
1745767241229909200,8.1879091796875,-1.3156103051245212,7.330237089625,6.169164435261488
1745767241239883300,8.19788330078125,-25.17517541797161,16.310985132026673,-2.26979158276394
1745767241249856300,8.207856201171875,-52.04856929631233,31.51119864090681,-13.003871339339018
1745767241259830300,8.217830322265625,-14.129130922043323,19.395288532716034,-5.429627340430021
1745767241269803300,8.22780322265625,5.921593696016073,1.5104598002687095,-7.232142041575909
1745767241279777300,8.23777734375,6.3108496187120675,1.5965952381938695,-1.675301110640168
1745767241289751300,8.247751220703124,6.225965349891782,3.0063252579957247,2.626348035776615
1745767241299724000,8.25772412109375,6.839459651562571,2.472794135355949,3.4099110270783304
1745767241309698000,8.267697998046875,7.127924711254239,0.7540221317797898,3.3493963526219126
1745767241319671000,8.277671142578125,5.691189195626974,-1.2977940779268742,2.6068723509341476
1745767241329645000,8.28764501953125,2.4100591545015573,-2.6273110355898734,1.474789790342003
1745767241339619000,8.297619140625,-0.8735831617057322,-3.0516137217476964,0.4856508888289332
1745767241349592300,8.30759228515625,-2.461910337769985,-2.7524720774799585,-0.2740836292482912
1745767241359566300,8.31756640625,-2.2511159622579813,-2.191984851114452,-0.592298807298392
1745767241369539300,8.327539306640626,-1.3198270460367203,-1.773917259953916,-1.046747479264438
1745767241379513300,8.337513427734375,-0.511464836782217,-1.4173717667266725,-1.7737023020289837
1745767241389486300,8.347486328125,-0.039756840848922725,-0.8065788329690694,-2.1593651686690745
1745767241399460000,8.357460205078125,-0.06339549058973788,-0.07136340072900056,-2.4974250110045073
1745767241409434000,8.36743408203125,-0.6573258446127176,0.4105559003561735,-2.5670667025074363
1745767241419407000,8.377406982421874,-1.399091721409559,0.6205094411298632,-2.1196163649961353
1745767241429381000,8.387381103515626,-1.7052753931432962,0.6334153921931982,-1.0865662063684314
1745767241439354000,8.39735400390625,-1.2036726096838712,0.5987775017932057,-0.26932781302332875
1745767241449328000,8.407328125,-0.2558797179073095,0.615597411429882,0.04916260177157819
1745767241459302100,8.41730224609375,0.39960371370911596,0.723773416249454,0.45135589358247813
1745767241469275100,8.427275146484375,0.7043757650792598,0.8336942189097404,0.5809486343096941
1745767241479249200,8.437249267578125,0.7868155633568763,0.8153288333967328,0.2848902699448168
1745767241489222400,8.447222412109374,0.63822366925776,0.5311401358500123,-0.1400437729191035
1745767241499196400,8.457196533203126,0.3757476218253374,0.09954495459645986,-0.38415092770718035
1745767241509169200,8.467169189453125,0.19117723637223244,-0.28353315624743697,-0.11500570470914244
1745767241519143200,8.47714306640625,0.2302221295595169,-0.4190919657722115,0.1318739104669541
1745767241529117200,8.4871171875,0.21071254244744778,-0.4423296334967017,0.08635565654709934
1745767241539090200,8.497090087890625,-0.0695733024418354,-0.5577171771302819,0.07818864363916218
1745767241549064200,8.507064208984374,-0.5716705914199351,-0.7458873406410217,-0.007535108212567866
1745767241559037200,8.517037109375,-0.8127028688073158,-0.6321294440358877,0.052013789951615035
1745767241569011200,8.52701123046875,-0.679837536150217,-0.2914624879419803,0.3852482579572126
1745767241578985200,8.536985107421875,-0.3105500502496958,-0.12116378894746303,0.8584944597758353
1745767241588958200,8.546958251953125,0.45389235325753685,-0.19338439102768898,1.138343812943995
1745767241598932200,8.55693212890625,1.0753343990623951,-0.3998936365664005,1.313022772849351
1745767241608905000,8.566905029296874,1.0437211171805858,-0.5255702267631888,1.3967406282387673
1745767241618879000,8.57687890625,0.1990823104083538,-0.37015111699253317,1.173778041353449
1745767241628853000,8.58685302734375,-1.0008487746596335,-0.142644968393445,0.7113190083459019
1745767241638826200,8.596826171875,-1.6552502562582492,0.004421908095479011,0.3198861434696242
1745767241648800300,8.60680029296875,-1.425306943640113,-0.059093117220699785,-0.037502851377055044
1745767241658773200,8.616773193359375,-0.592894581234455,-0.2901455601245165,-0.3059361267134547
1745767241668747300,8.626747314453125,0.16929799751937388,-0.5988277706757188,-0.43993601635843516
1745767241678720300,8.63672021484375,0.6030769525527954,-0.8257716092169284,-0.5215513465106487
1745767241688694300,8.6466943359375,0.6713812579721212,-0.8737003583446145,-0.5400677578669041
1745767241698668300,8.656668212890626,0.5219885688841343,-0.7081517764866352,-0.6546779604524373
1745767241708641300,8.666641357421875,0.25905425629019735,-0.3204997818559408,-0.7103075662810355
1745767241718615300,8.676615234375,0.09117021722197532,0.03814677530378103,-0.7574787019744516
1745767241728588000,8.686588134765625,0.19400749136209486,0.3248264128834009,-0.8188954398371279
1745767241738562000,8.69656201171875,0.42374446775317187,0.6158011173084378,-0.845216533594951
1745767241748536000,8.7065361328125,0.5329997922420502,0.9283096081495285,-0.831575473190099
1745767241758509000,8.716509033203126,0.4362701873272657,1.228542847046256,-0.7074405594773591
1745767241768483000,8.726483154296876,0.18076807056069372,1.3774509674876927,-0.5327030012525618
1745767241778456300,8.736456298828125,-0.02110065569579601,1.2807856599807739,-0.3176408487608656
1745767241788430300,8.746430419921875,-0.1476332782000303,0.7782835895940661,-0.055561983952485024
1745767241798404000,8.756404052734375,-0.18617022186517715,0.01380523799061775,0.06737465988639742
1745767241808377300,8.76637744140625,-0.2743687297999859,-0.5379752425670623,-0.005818988477066159
1745767241818351400,8.776351318359374,-0.4116840276032686,-0.7824439241439104,-0.010881276835314929
1745767241828324000,8.786323974609376,-0.40531332352757454,-0.7726274635285139,0.12081515817288309
1745767241838298000,8.796298095703126,-0.4430021259307861,-0.6824371972545981,0.3227215860912576
1745767241848271000,8.80627099609375,-0.3950216466158628,-0.6166378603935241,0.6050409095695242
1745767241858245000,8.8162451171875,-0.13653613012433052,-0.5440288435176015,0.8933706889763474
1745767241868219100,8.82621923828125,0.14752221904098986,-0.43934389568418264,0.9995195718824863
1745767241878192000,8.836192138671874,0.4424006529062986,-0.36054976043254133,0.8669291837092489
1745767241888166100,8.846166259765624,0.5364572392195462,-0.26507541627585884,0.5497425815219059
1745767241898139100,8.85613916015625,0.40866204943358897,-0.09085311409682036,0.1698961460756138
1745767241908113200,8.866113037109375,0.17845687100887297,0.15608488020300865,-0.21816201820317654
1745767241918087200,8.876087158203125,-0.05761632266640663,0.3991694139450788,-0.5077042056070641
1745767241928060400,8.886060302734375,-0.21849194427728652,0.6582303922370076,-0.7308291799798607
1745767241938034200,8.8960341796875,-0.23067571854591368,0.7658277203857898,-0.8286892502292991
1745767241948007200,8.906007080078124,-0.020234394255280494,0.6699602852582931,-0.792052148836106
1745767241957981200,8.915981201171874,0.2963964372128248,0.3849769302025437,-0.6685876817308366
1745767241967955200,8.925955078125,0.5164093074470758,0.12831336844116448,-0.4817446386380121
1745767241977928200,8.93592822265625,0.4386369164586067,0.016252046620845794,-0.27169304431732744
1745767241987902200,8.945902099609375,0.10484978300631045,0.0020008184283971785,-0.13496139162089674
1745767241997875200,8.955875244140625,-0.13811317018270491,-0.002022153477370739,-0.24043339817877857
1745767242007849200,8.96584912109375,-0.1947077485859394,0.027596447455883025,-0.343555517142266
1745767242017823200,8.9758232421875,-0.21176059019565582,0.03037731034606695,-0.24292028309106825
1745767242027796200,8.985796142578126,-0.22949206171929834,-0.02831336355358362,-0.09951784739382565
1745767242037770200,8.995770263671876,-0.078082187590003,-0.08197773372381925,0.0404793647035025
1745767242047743000,9.005742919921875,0.08318623273074627,-0.13562632180303336,0.1138689740304835
1745767242057717000,9.015717041015625,0.13416998551487921,-0.21093787563592195,0.15523856557197868
1745767242067691000,9.02569091796875,0.11210486870110034,-0.21202888574302195,0.17481060519469901
1745767242077664300,9.035664306640625,0.025664602610468865,-0.16954028184264897,0.31554142879620195
1745767242087638000,9.045637939453124,-0.17738719595074653,-0.15757628780454397,0.4397263921957463
1745767242097611300,9.055611328125,-0.2947410712212324,-0.08086158917546271,0.37472193203940984
1745767242107585300,9.065585205078126,-0.1591191333323717,-0.17662001097053287,0.3032535913649015
1745767242117559300,9.075559326171875,0.12954641736745834,-0.3247629922583699,0.3335143443929031
1745767242127532300,9.0855322265625,0.24412556722760198,-0.4301131260022521,0.24771456816289572
1745767242137506300,9.09550634765625,0.0383639251857996,-0.42474663053303957,0.10024754990786314
1745767242147479300,9.105479248046874,-0.29236440521776674,-0.221788355474174,-0.00393529362231493
1745767242157453300,9.115453369140624,-0.4212421295434236,-0.0821934223011136,0.020106128233112395
1745767242167426000,9.125426025390626,-0.21929098570048808,-0.11105448286533355,0.028831724871881303
1745767242177400000,9.135400146484375,0.09284954861104487,-0.21562632571309803,-0.08669168356843292
1745767242187374000,9.1453740234375,0.24577859513163566,-0.24032851303219793,-0.24186492881923913
1745767242197347000,9.15534716796875,0.2121440365552902,-0.15718319683372972,-0.42271939902175215
1745767242207321000,9.165321044921875,0.10265490331053734,-0.0006698620855808258,-0.6471553098626435
1745767242217294300,9.17529443359375,0.03204758164584637,0.14826923801600933,-0.7469391877815127
1745767242227268000,9.18526806640625,0.039841596522927285,0.2674459447994828,-0.6442038396459072
1745767242237242000,9.1952421875,0.04943418525457382,0.3012076368868351,-0.4169875043062493
1745767242247215400,9.20521533203125,0.021885668593645095,0.2069356542572379,-0.12480123213436453
1745767242257189400,9.215189453125,-0.07863514529764652,0.00981558383256197,0.07727839692644775
1745767242267162000,9.225162109375,-0.012969956210255621,-0.18016075231730938,0.11054543736465275
1745767242277136100,9.23513623046875,0.11715455330610275,-0.22204233023524284,0.08106164179220796
1745767242287110100,9.245110107421874,0.07208908465504646,-0.13627864823192357,-0.034656120176427066
1745767242297083100,9.255083251953126,-0.05682371098399162,-0.08064736190289258,-0.06988273371718824
1745767242307057200,9.26505712890625,-0.11114508375823497,-0.035592414645850654,-0.10104385138470678
1745767242317030100,9.275030029296875,-0.08385083411931991,-0.03526157525628805,-0.13210892479922623
1745767242327004200,9.285004150390625,-0.0017214169651269913,-0.07876841628849506,-0.12983944549728185
1745767242336978200,9.294978271484375,0.020869185027480124,-0.0645277094900608,-0.13716573326475917
1745767242346951200,9.304951171875,0.008372691547870636,-0.072119772054255,-0.06807283475100993
1745767242356925200,9.31492529296875,0.017740823873877525,-0.10094313095659017,-0.021497692189365623
1745767242366898200,9.324898193359376,0.0414747506827116,-0.08529723353534936,-0.03350589069537818
1745767242376872200,9.3348720703125,0.024628829821944236,-0.05376724602282047,-0.043564653900358824
1745767242386846200,9.34484619140625,-0.004551671954989433,-0.023946108254790304,-0.04371599027086049
1745767242396819200,9.354819091796875,0.006052724167704582,-0.007849836717545985,-0.027076405637152492
1745767242406793200,9.364793212890625,0.014881342789530754,-0.048991117662191386,0.008921795064304024
1745767242416766200,9.37476611328125,0.018798223972320557,-0.08757569986134767,0.0035041721960529684
1745767242426740200,9.384740234375,0.012501169654726982,-0.11867167987078428,-0.013090641714166849
1745767242436714200,9.39471435546875,-0.02063186914026737,-0.1813598989740014,-0.05639545736825093
1745767242446687200,9.404687255859375,-0.030531331863999363,-0.19847353086024522,-0.05444348305026069
1745767242456661200,9.4146611328125,-0.037592356291413304,-0.17049919000267982,-0.04751835996219888
1745767242466634200,9.42463427734375,-0.052204819011688226,-0.15053192225098608,-0.08076603811280801
1745767242476608300,9.434608154296875,-0.0751022949963808,-0.1351324008062482,-0.06280141542041674
1745767242486582300,9.444582275390625,-0.04160685262978077,-0.1406128780439496,-0.0634806481225416
1745767242496555000,9.454554931640626,0.005799626189470291,-0.11655483384728431,-0.007870020989049226
1745767242506529000,9.464529052734376,0.038725159713625903,-0.1130631923392415,0.004453983734175562
1745767242516502000,9.474501953125,0.02408230185508728,-0.08025748580247163,-0.03091022991267964
1745767242526476000,9.48447607421875,-0.012416413980722426,-0.05763765771538019,-0.018598189621884375
1745767242536450000,9.494449951171875,-0.012075053197145462,-0.055180035430192946,-0.08560438152207062
1745767242546423300,9.50442333984375,-0.04663900157809257,-0.07605389663279057,-0.09575602890858426
1745767242556397300,9.514397216796874,-0.06514321103990077,-0.07782879735082388,-0.10297651821402833
1745767242566370300,9.524370361328126,-0.011726678150892258,-0.0785579884082079,-0.12474822330549358
1745767242576344300,9.53434423828125,0.0005149637848138809,-0.07268997315764426,-0.1377957017313689
1745767242586318300,9.544318359375,-0.16046236463487148,-0.024546119974553585,-0.14878739840490743
1745767242596291300,9.554291259765625,-0.16895137603878974,0.04364274237155914,-0.09816796715483068
1745767242606265300,9.564265380859375,0.013779519027471541,0.0715425566881895,-0.09864882774064317
1745767242616238000,9.574238037109374,0.22374913415312767,-0.052908291105926035,-0.06306616730382665
1745767242626212000,9.584212158203124,0.27665596395432945,-0.22823504739552736,0.07796575813610106
1745767242636186000,9.59418603515625,0.09759411278963089,-0.31242315064519643,0.28942038765512407
1745767242646159000,9.6041591796875,-0.18019173197746277,-0.39119478180408473,0.4745539234163239
1745767242656133000,9.614133056640625,-0.3270966959029436,-0.41872050211131573,0.5733463791450485
1745767242666106000,9.624106201171875,-0.2592009712845087,-0.3542176348015666,0.48577005822919306
1745767242676080000,9.634080078125,-0.09501169508099555,-0.2508589671358466,0.06304850378297269
1745767242686054100,9.64405419921875,-0.049914077726006506,-0.22654548687338827,-0.16071049417704342
1745767242696027400,9.65402734375,-0.011600421422719954,-0.1605158483877778,-0.14462985860034822
1745767242706001400,9.66400146484375,0.09317395825982093,-0.10622370170801877,-0.19330043907128272
1745767242715974100,9.67397412109375,0.1479559342831373,-0.0437099623888731,-0.2255565489012748
1745767242725948200,9.6839482421875,0.1725122833907604,-0.007472820098698139,-0.26734496864303947
1745767242735922200,9.693922119140625,0.17509587014317513,0.00980243209004402,-0.2960912437211722
1745767242745895200,9.703895263671875,0.09775719439685344,0.03840075006484985,-0.275803584908694
1745767242755869200,9.713869140625,0.0024380408018827436,0.0892670139491558,-0.18353687768690288
1745767242765842200,9.72384228515625,-0.031086043137311933,0.09843845465928315,-0.05006342306882143
1745767242775816200,9.733816162109376,-0.04573123908340931,0.03437631685435772,0.009912760596722364
1745767242785790200,9.743790283203126,-0.030071897658705708,-0.022781156128644942,-0.023474837481230495
1745767242795763200,9.75376318359375,-0.003561491873860359,-0.01208645137399435,-0.04523863326087594
1745767242805737200,9.7637373046875,0.0010936404556035994,-0.004626783017814159,-0.0820483147419989
1745767242815710200,9.773710205078125,0.05755611691176891,-0.021389701770246027,-0.13794117461666464
1745767242825684200,9.783684326171874,0.06448737747967243,-0.0850321528583765,-0.14693017143197357
1745767242835658200,9.793658203125,0.042539749565720555,-0.14444851068407297,-0.101303854027763
1745767242845631200,9.80363134765625,0.03221826203763485,-0.14858049592226744,-0.05238930873312056
1745767242855605200,9.813605224609375,-0.02270283019542694,-0.12609130847752092,0.027632614747807382
1745767242865579000,9.8235791015625,-0.07247837623357772,-0.07983107708394527,0.05711736016832292
1745767242875552300,9.83355224609375,-0.08084989873766898,-0.05875877069979906,0.056799526390805835
1745767242885526300,9.8435263671875,-0.09383739060461521,-0.08572510355859994,0.018751169960200785
1745767242895499300,9.853499267578124,-0.06851531782150268,-0.12618132484853267,-0.017136428239941597
1745767242905473300,9.863473388671874,-0.0011216975063085555,-0.1384451786160469,-0.01997493960149586
1745767242915447300,9.873447265625,0.030433132186532017,-0.17915654371082781,-0.055538712674751876
1745767242925420300,9.883420166015625,-0.014800094246864319,-0.24861118820905684,0.04898534550853073
1745767242935394300,9.893394287109375,-0.1884901892453432,-0.3796870071008801,0.2448276510823518
1745767242945367000,9.903366943359375,-0.37360944075286384,-0.26612317176312206,0.18800781255587934
1745767242955341000,9.913341064453125,-0.3104641255319118,0.11019172855615615,-0.21733634450137615
1745767242965315000,9.923315185546874,-0.09460077619254588,0.39053573337346315,-0.5468845252096652
1745767242975287800,9.933287841796876,-0.0237894563883543,0.33388562539070843,-0.2682970086708665
1745767242985261800,9.94326171875,0.011561258456110954,-0.010992226396501064,-0.23958463586233555
1745767242995235000,9.953235107421875,0.24647300713658332,-0.3122229518979788,-0.1518685776822269
1745767243005209000,9.963208984375,0.35397184334695336,-0.4277846830546856,0.07318652450293302
1745767243015182800,9.973182861328125,0.24592764821350574,-0.34055355884730815,0.23020715118609367
1745767243025156000,9.983156005859374,0.08960545212328433,-0.20981384004205464,0.21753135561682282
1745767243035130000,9.993130126953124,-0.070745268830657,-0.11848667869269847,0.04316803753189742
1745767243045103000,10.00310302734375,-0.1366448511958122,-0.10158522825241088,-0.05970255435593426
1745767243055077000,10.0130771484375,-0.09877484700679778,-0.13398206172734498,0.07648622363545
1745767243065051100,10.023051025390625,-0.04139467118382454,-0.1542605873852968,0.2174615783162415
1745767243075024000,10.03302392578125,-0.06863222219944,-0.15279577552974224,0.26716676253192123
1745767243084998000,10.042997802734375,-0.08657236803770064,-0.13163695990592242,0.22314736886769532
1745767243094972000,10.052971923828125,-0.0708060591071844,-0.1537266266390681,0.17324907323271035
1745767243104945000,10.06294482421875,-0.014817045381665228,-0.2539928812474012,0.14835793921276927
1745767243114919000,10.0729189453125,-0.011324527090787887,-0.26138474506437775,0.08504822721034287
1745767243124892000,10.082891845703125,-0.04395604610443115,-0.1696659540489316,0.052400779975205654
1745767243134866000,10.092865966796875,-0.0724012193441391,-0.1143438797995448,0.018787410317361353
1745767243144840000,10.10283984375,-0.06750175686478614,-0.005923252569139004,0.02560308168157935
1745767243154813000,10.11281298828125,-0.05203238505423069,0.028963059633970258,-0.014245675234496593
1745767243164787000,10.122786865234374,0.005358896684646606,-0.008116378699243068,-0.12998743913322686
1745767243174760200,10.13276025390625,0.09859189165532588,-0.14020546628683805,-0.208320240483433
1745767243184734000,10.14273388671875,0.1836789895713329,-0.27279285878539083,-0.27663156016543505
1745767243194708000,10.1527080078125,0.16208090574741363,-0.30257044967263935,-0.2999111673355102
1745767243204681000,10.162680908203125,0.12763853791952132,-0.22197072630375622,-0.29494726131781934
1745767243214655000,10.172655029296875,0.11851532026529311,-0.06208528477400541,-0.2534825936377048
1745767243224629000,10.18262890625,0.1002379052966833,0.02641805132627487,-0.2121371684230864
1745767243234602000,10.19260205078125,0.0017675941944122313,0.09608750761896372,-0.14600509247630833
1745767243244576000,10.202575927734374,-0.11939327214360236,0.1388172267988324,-0.030736499047279355
1745767243254549000,10.212549072265626,-0.18757658153176307,0.09134645057171582,0.11399404344856738
1745767243264523000,10.22252294921875,-0.17532792533338068,-0.01718815842717886,0.19208061495274303
1745767243274497000,10.2324970703125,-0.1397965932250023,-0.13995295283049344,0.21759631061181425
1745767243284470000,10.242469970703125,-0.13181786943078042,-0.24394319639801978,0.21878800461441278
1745767243294444000,10.252444091796875,-0.17817454693615437,-0.19371026198118924,0.20453063894212245
1745767243304416800,10.262416748046874,-0.22551322121620176,-0.09606880291849375,0.21097440825402736
1745767243314390800,10.272390869140626,-0.16685352697670458,-0.07145984684079885,0.1998020029850304
1745767243324364800,10.28236474609375,-0.08636194015741348,-0.08342588670551776,0.1050134491354227
1745767243334338000,10.292338134765625,0.022410569250583646,-0.13437719852477312,0.06590206658318638
1745767243344312000,10.30231201171875,0.08288929561078548,-0.22624533488303422,0.021041618984937668
1745767243354286000,10.3122861328125,-0.038871290186047555,-0.17214081972986459,-0.06587897796854376
1745767243364259000,10.322259033203125,-0.1932178022891283,-0.12245850493311881,-0.024237200155854222
1745767243374233000,10.332233154296874,-0.41147184615731236,0.006828092454373836,0.09640037296041845
1745767243384206000,10.3422060546875,-0.643798254519701,0.08731821796894072,0.2863603424973786
1745767243394180000,10.35218017578125,-0.7510054143071174,0.012242518718540667,0.3293817381002009
1745767243404154000,10.362154052734375,-0.9413713342964649,0.050634793215990063,0.5066369782343506
1745767243414126800,10.372126953125,-1.079989531391859,0.11645984904021024,0.6065411215320229
1745767243424100900,10.382100830078125,-0.9301455914050341,0.15219839415848255,0.5696861396044492
1745767243434073900,10.392073974609374,-0.6468576420903206,0.03318593802601099,0.5585664874359965
1745767243444048000,10.4020478515625,-0.3128741092830896,-0.2241200132921338,0.6958139807000756
1745767243454022000,10.41202197265625,-0.008245265775918961,-0.51696109611094,0.7501271701678633
1745767243463995000,10.421994873046875,0.11687281375527381,-0.5956675530791282,0.5467258275166154
1745767243473969000,10.431968994140625,0.0835462982147932,-0.5452583853125572,0.3956701736524701
1745767243483943000,10.44194287109375,0.050910103026032445,-0.39676089149862526,0.22216537209302187
1745767243493916200,10.451916259765625,-0.012561959931254385,-0.020856617806851864,-0.06528437307626009
1745767243503890000,10.461889892578125,0.05656009161174297,0.21045301472842692,-0.2042433464333415
1745767243513863200,10.47186328125,0.33735330150127407,0.15931202555596827,-0.07826572746336459
1745767243523837200,10.481837158203126,0.46088615766763685,0.017835224159061906,0.162317052590847
1745767243533811200,10.491811279296876,0.6567489215075969,-0.0956675286412239,-0.036436756515502926
1745767243543784000,10.501783935546875,0.6921417219281196,-0.20557985573410986,-0.19324527481794357
1745767243553758000,10.511758056640625,0.367754869505763,-0.1758984186977148,-0.29777006365358827
1745767243563732000,10.52173193359375,0.2787310166627168,-0.17891718199700116,-0.27064123370945453
1745767243573705000,10.531705078125,0.49333179872035976,-0.2785354940906167,-0.11490472855269908
1745767243583679000,10.541678955078124,0.4406394884526729,-0.31800854956209657,0.06785539260804653
1745767243593652000,10.55165185546875,0.36193361600637436,-0.29757600238621235,0.1527449221253395
1745767243603626000,10.5616259765625,0.4729956976562738,-0.196784262599051,0.08232055581212043
1745767243613600000,10.57160009765625,0.4151099103987217,-0.06661854428946971,-0.12416472432911395
1745767243623573000,10.581572998046875,0.22653964165449142,-0.035623686566948885,-0.3028407910466194
1745767243633547000,10.591547119140625,-0.04678630109429359,-0.03920475992411375,-0.3036895168304443
1745767243643520000,10.60152001953125,-0.18554945961833,-0.027612229546904562,-0.19377602069377897
1745767243653493800,10.61149365234375,-0.043946693754196166,-0.07337094115912914,-0.07065934411287307
1745767243663467800,10.6214677734375,0.05087152458131313,-0.16284779846668243,0.0034960254222154616
1745767243673441000,10.63144091796875,-0.023756138640642164,-0.20150106198787687,-0.005189385336637497
1745767243683415000,10.6414150390625,-0.15214169553518295,-0.22016426140367984,-0.07252864511609076
1745767243693389000,10.65138916015625,-0.45996612021327016,-0.1618783689126372,-0.04092705367207527
1745767243703362000,10.661362060546875,-0.6506658022016286,-0.06900076325088739,0.15105097768902778
1745767243713336000,10.671336181640624,-0.7679033576160669,-0.011870178274810314,0.23675649976432322
1745767243723309000,10.68130908203125,-0.9302367768198251,-0.04960720373392105,0.3237012082457542
1745767243733283000,10.691282958984376,-0.8191022144556045,-0.09885375746190547,0.33639527012407777
1745767243743257000,10.701257080078125,-0.49304538299441336,-0.10788608196228743,0.30403964544236656
1745767243753230000,10.71122998046875,-0.013472645035386085,-0.10019465067684649,0.15865326938629148
1745767243763204000,10.7212041015625,0.4367372203171253,-0.1374824710637331,0.014976619857549667
1745767243773178000,10.73117822265625,0.3752256437778473,-0.16650632097423076,-0.07688333319425582
1745767243783150800,10.74115087890625,0.196651868391037,-0.1702040064483881,-0.14162731578350066
1745767243793124900,10.751124755859376,0.1181587619125843,-0.12304945656359195,-0.05168284096419811
1745767243803097900,10.761097900390626,0.13820201750993727,-0.08329261571466923,0.11537059249877929
1745767243813072000,10.77107177734375,0.26740824313759803,-0.1279921736627817,0.19022972638905047
1745767243823046000,10.7810458984375,0.39321255136728284,-0.13975596895366907,0.11547639096081257
1745767243833019100,10.79101904296875,0.4921943191230297,-0.15739245567023752,-0.05860182657241821
1745767243842993000,10.800992919921875,0.6639882251113652,-0.17517507285922765,-0.14948796615600585
1745767243852967000,10.810966796875,0.7785773118436337,-0.16323066030442715,-0.21073007810413835
1745767243862940200,10.820940185546876,0.9384808735519647,-0.17832652262747287,-0.2121352687269449
1745767243872914200,10.8309140625,0.9306143779605627,-0.25960458364933725,-0.13586334542930126
1745767243882887000,10.840886962890625,0.668020841628313,-0.27662206168472764,-0.1336345634639263
1745767243892861000,10.85086083984375,0.463170469212532,-0.24048253455013036,-0.17451485538482664
1745767243902835000,10.8608349609375,0.18148995509445667,-0.15057751495838165,-0.17427929306328296
1745767243912808000,10.870807861328124,-0.023178046491742134,-0.1029462874725461,-0.12320669295191763
1745767243922782000,10.880781982421874,-0.20992752954959867,-0.12239070039391517,-0.026877485531568525
1745767243932756000,10.890755859375,-0.3088181118905544,-0.06075023677796125,0.09533025951087475
1745767243942729000,10.90072900390625,-0.36800679844021794,-0.04948708448559046,0.1496907952517271
1745767243952703000,10.910702880859375,-0.35072248616218565,0.007921148388087749,0.020242577561736107
1745767243962676700,10.9206767578125,-0.33773791690468785,0.01805558891147375,-0.0002951835542917251
1745767243972650800,10.930650634765625,-0.45955169419348235,-0.013970365424454212,0.04675590595602989
1745767243982624800,10.940624755859375,-0.4379308140158653,-0.03283171776086092,0.021740707165002822
1745767243992597500,10.950597412109374,-0.35636955213844773,-0.029928689795732495,0.03334989641606807
1745767244002571500,10.960571533203124,-0.2778361136496067,-0.07422346633523702,0.04764730183780193
1745767244012545500,10.970545654296876,-0.19392507377564905,-0.12765548905432222,0.020195231288671494
1745767244022518500,10.9805185546875,-0.03083645229041576,-0.16772621815800665,0.04299392307400703
1745767244032492500,10.990492431640625,0.14723521879315377,-0.15988894866108894,-0.030548282998800275
1745767244042466600,11.000466552734375,0.2367664366364479,-0.12173311326801776,-0.079480948472023
1745767244052439800,11.010439697265625,0.21626842300891874,-0.076213471108675,-0.20545009187459945
1745767244062413600,11.02041357421875,0.3519710249185562,-0.06840513544529676,-0.3139922996580601
1745767244072386800,11.03038671875,0.6303232713967561,-0.21003917323052881,-0.287912101984024
1745767244082360800,11.04036083984375,0.9271060775786638,-0.35332302404940125,-0.19226035543382167
1745767244092334800,11.0503349609375,0.9767325705349444,-0.4495458484858274,-0.0811585262954235
1745767244102307800,11.060307861328125,0.8305559208840131,-0.36521541415601966,-0.06271335354447365
1745767244112281900,11.07028173828125,0.3896890534162521,-0.15551029518544673,-0.10475509046018124
1745767244122256000,11.080255859375,0.07096446453928947,-0.09772270760536193,-0.12684241910576818
1745767244132228600,11.090228515625,-0.08677695069909096,-0.07829758390635251,-0.10476385828852652
1745767244142202600,11.10020263671875,-0.1656079108297825,-0.03720189566910267,-0.08277706740796566
1745767244152175600,11.110175537109376,-0.29987258889079094,-0.037003742748498915,-0.026961656683683395
1745767244162149600,11.120149658203125,-0.3937280996739864,0.0042602877929806705,0.04335983377695083
1745767244172123600,11.13012353515625,-0.513930350112915,0.021660335405170917,0.13023907580673694
1745767244182096600,11.1400966796875,-0.6759189014017581,-0.024260288770496845,0.22081308070123196
1745767244192070700,11.150070556640625,-0.7355810506820678,-0.031328619721531864,0.16887305010557174
1745767244202044700,11.160044677734374,-0.6133434950232506,-0.04944382986575365,0.17251111434698105
1745767244212017700,11.170017578125,-0.4791828618586063,-0.04498714271783828,0.14513035546839237
1745767244221991700,11.17999169921875,-0.34022330397963524,-0.05915799915045499,0.017075053441524504
1745767244231965700,11.189965576171875,-0.09133739048242569,-0.07597147904634476,-0.06579612199068069
1745767244241938700,11.199938720703125,0.15537760871648787,-0.10750058977603912,-0.1327028355717659
1745767244251912700,11.20991259765625,0.33708909760713573,-0.14595774620324373,-0.14371522797346115
1745767244261885700,11.2198857421875,0.44464229435324665,-0.2425654783040285,-0.08465922789275646
1745767244271859700,11.229859619140624,0.49520577589869497,-0.27837942674607036,-0.057343350943923
1745767244281833700,11.239833740234374,0.3910533275067806,-0.18184885153472422,-0.08171966730952263
1745767244291806700,11.249806640625,0.2893020950376987,-0.12599486236572266,-0.1416430978745222
1745767244301780700,11.25978076171875,0.16440204217135906,-0.1222787644520402,-0.1291781685769558
1745767244311754800,11.269754638671875,0.09302373613417148,-0.14787263991385696,-0.10367723209559916
1745767244321727700,11.279727783203125,0.02535188339948654,-0.1474932852074504,-0.07418108849823475
1745767244331701800,11.28970166015625,-0.009799509480595587,-0.10956921274363994,-0.01520867504775524
1745767244341674800,11.2996748046875,-0.08025836258530616,-0.06486351731568575,-0.03272328895032406
1745767244351648800,11.309648681640626,-0.11622633254528045,-0.0934039676234126,-0.03836860136091709
1745767244361622800,11.319622802734376,-0.10606851114630698,-0.13788783699423074,0.046288872966170305
1745767244371595500,11.329595458984375,-0.18615560881793497,-0.09723609313219785,0.003663198682665825
1745767244381569500,11.339569580078125,-0.17648294058740138,-0.06350742653161287,0.021994974187016486
1745767244391543600,11.34954345703125,-0.16333412067890166,-0.11213994001448153,0.04954933606684207
1745767244401516800,11.359516845703125,-0.13080138586461543,-0.12170651752203702,0.002823240727186203
1745767244411490600,11.369490478515624,-0.013768413111567497,-0.09272036927342414,-0.05766776059269905
1745767244421464600,11.379464599609374,0.07413900292217732,-0.10828121875971555,-0.05498012894392013
1745767244431437800,11.389437744140626,0.1461924317419529,-0.14762918654680252,-0.029696050083637234
1745767244441411800,11.399411865234375,0.10847264967858791,-0.15085253250747918,-0.06809446206092834
1745767244451384800,11.409384765625,0.09712532623410225,-0.11571399910897016,-0.09246668677330017
1745767244461358800,11.41935888671875,0.12031740125119686,-0.14687866044044492,-0.051097150030732154
1745767244471332900,11.429332763671875,0.09072890319526195,-0.18178367734402417,0.0016349077254533767
1745767244481305600,11.4393056640625,0.048421208819746965,-0.14616992764919995,-0.04636661437749862
1745767244491279600,11.449279541015626,0.025155484044551847,-0.08790273985862732,-0.10959843883812427
1745767244501253600,11.459253662109376,0.07493103008270263,-0.08928162699639797,-0.11741466554701327
1745767244511226600,11.4692265625,0.13254267657399177,-0.1395268363729119,-0.09395195689499378
1745767244521200600,11.47920068359375,0.21807751825749871,-0.15956395449042318,-0.12100889064669608
1745767244531174700,11.489174560546875,0.2821580685019493,-0.2000645994439721,-0.13574994818270206
1745767244541147600,11.499147705078125,0.3097673754394054,-0.17801234211176634,-0.12439385690987109
1745767244551121700,11.50912158203125,0.2677846752345562,-0.15590426293909548,-0.10972586461007594
1745767244561094700,11.5190947265625,0.19333646023273468,-0.13375848210453986,-0.12280980258882045
1745767244571068700,11.529068603515626,0.16349661776423452,-0.13353519474267958,-0.08417933542132378
1745767244581042700,11.539042724609375,0.029334815555810925,-0.14996464375704527,0.0009574468553066253
1745767244591015700,11.549015625,-0.06358195307254791,-0.15822101544886827,0.050884384062886236
1745767244600989700,11.55898974609375,-0.25912498343884943,-0.09433043481856584,0.08345511280000209
1745767244610963500,11.56896337890625,-0.4283580990284681,0.007998889799416065,0.0653904637992382
1745767244620936700,11.578936767578124,-0.44179859535992144,-0.0008484335228800773,0.04025952967405319
1745767244630910700,11.58891064453125,-0.3482616490066051,-0.09383885190933942,0.061063248249888416
1745767244640884700,11.598884765625,-0.26905542582273484,-0.15057166973948477,0.005516133072972297
1745767244650857700,11.608857666015625,-0.2164326736599207,-0.10440671541392803,-0.06024784021377563
1745767244660831700,11.618831787109375,-0.18510756106972692,-0.07935323043912648,-0.08319850769042968
1745767244670804700,11.6288046875,-0.17631985898017882,-0.08819178593307733,-0.060794952702522276
1745767244680778800,11.63877880859375,-0.12447042927742004,-0.1165621403709054,-0.02429799043238163
1745767244690752800,11.648752685546874,-0.0786357298195362,-0.13570435547530652,0.050018707144260405
1745767244700725800,11.658725830078126,-0.017098434317111968,-0.1847711687222123,0.11402093145549297
1745767244710699800,11.66869970703125,0.0457622187435627,-0.2137412426188588,0.11405950990021228
1745767244720673800,11.678673828125,0.09063128803968429,-0.18423194727897643,0.02369008766710758
1745767244730646500,11.688646484375,0.15472645133137702,-0.14393471594303844,-0.1045867481559515
1745767244740620500,11.69862060546875,0.21838030059635638,-0.15221242268383503,-0.17359481793045997
1745767244750594600,11.708594482421875,0.23779753324985503,-0.1649228511750698,-0.10867664781808853
1745767244760567600,11.718567626953124,0.10971300512850284,-0.1507967106670141,-0.09077683399021624
1745767244770541600,11.72854150390625,0.040831776604056354,-0.11265022762417792,-0.05884440315663814
1745767244780515600,11.738515625,0.012988660910725593,-0.13171353227347135,0.026834815433621404
1745767244790488800,11.74848876953125,-0.029518355429172513,-0.1635652990862727,0.06812251911163329
1745767244800462800,11.758462890625,-0.07152385198771953,-0.1689680349126458,0.037814474609494206
1745767244810435800,11.768435791015625,-0.11758183880746365,-0.1333376263439655,-0.07971943340301513
1745767244820409900,11.778409912109375,-0.1663087525755167,-0.11230974362343549,-0.1159013383746147
1745767244830383900,11.7883837890625,-0.2331938388466835,-0.09975158308446407,-0.02118131971657276
1745767244840356600,11.798356689453126,-0.28206162239015103,-0.10323767163455486,0.07082125667631625
1745767244850330600,11.80833056640625,-0.22602526239156723,-0.14731909768432377,0.05011106160283088
1745767244860304600,11.8183046875,-0.10554711762070655,-0.19576544094532727,0.09004735067188739
1745767244870277600,11.828277587890625,-0.03216273245811462,-0.1905857002198696,0.1878758567392826
1745767244880251600,11.838251708984375,-0.06426818177103996,-0.08369330547004937,0.1481394741564989
1745767244890225700,11.8482255859375,0.03632277474701404,0.025046762973070142,0.01938976012468338
1745767244900198700,11.85819873046875,0.19200316580235957,0.027274960416555402,-0.1371814422905445
1745767244910172700,11.868172607421876,0.24325287604629992,-0.08365735737383365,-0.19365853179395198
1745767244920146700,11.878146728515626,0.34928865396678443,-0.19352584532499312,-0.043838557204604146
1745767244930119700,11.88811962890625,0.3507259932935238,-0.2668549931690097,0.04493102861642837
1745767244940093700,11.89809375,0.2763537661373615,-0.2207958373054862,-0.095728903439641
1745767244950066700,11.908066650390625,0.25249358260035515,-0.1610810810551047,-0.12384557537734507
1745767244960040200,11.918040283203124,0.3104746469259262,-0.22074410711824893,-0.07183072597980499
1745767244970014200,11.92801416015625,0.311730199944973,-0.26308979541659355,-0.09839140064716338
1745767244979987200,11.9379873046875,0.30164485926032064,-0.2651230548098683,-0.13354863874614237
1745767244989961200,11.947961181640625,0.33475042552649975,-0.27415888644158837,-0.15964754112064838
1745767244999935200,11.957935302734375,0.22130174100100994,-0.08545973062068224,-0.24204992999732494
1745767245009908000,11.967907958984375,0.10672785183787345,0.06483107635080813,-0.34832711545825
1745767245019882000,11.977882080078125,0.15256430486142633,-0.026778993593156337,-0.2814332613587379
1745767245029856000,11.98785595703125,0.09894961905181407,-0.1742486056640744,-0.17606325387060642
1745767245039829000,11.9978291015625,0.003799392282962799,-0.2704784443631768,-0.07287818920612335
1745767245049803000,12.007802978515626,0.03442015599608421,-0.2909928246036172,0.17787819433808325
1745767245059776000,12.01777587890625,0.2519762807279825,-0.36370910124629735,0.30190672506690025
1745767245069750000,12.02775,0.4193476940989494,-0.3686477266922593,0.1489496214956045
1745767245079724000,12.03772412109375,0.6700409492790699,-0.3656181497380137,-0.23156068468689917
1745767245089697000,12.047697021484375,0.632305969646573,-0.2589166013851762,-0.5774760628283023
1745767245099671000,12.057671142578124,0.7787339637100696,-0.26604601487368346,-0.4584440252125263
1745767245109645000,12.06764501953125,0.7249602879464626,-0.12265695011466742,-0.24402269137501714
1745767245119618300,12.077618408203126,0.46185704852640624,0.13362199624329804,0.0018237082958221435
1745767245129592000,12.087592041015625,0.1987467948436737,0.21556758126318454,0.0793330644339323
1745767245139566000,12.097566162109375,0.15546937865316868,0.12697481331378221,0.04851531684398651
1745767245149539000,12.1075390625,-0.02220481754541397,0.1448220201715827,-0.07597966235280036
1745767245159513000,12.11751318359375,0.02430149756371975,0.19382044435739515,-0.30535306612849233
1745767245169487000,12.127487060546875,-0.06496610090732574,0.13356997379511593,-0.4794061492204666
1745767245179460000,12.137460205078124,-0.4257201517403125,-0.7770385579690336,0.1453998200595379
1745767245189434000,12.14743408203125,0.7045680727809667,-0.9473507009670138,1.9965747994780538
1745767245199407000,12.157406982421875,-0.625368279337883,-1.221043723462522,0.43521804792582985
1745767245209381000,12.167381103515625,0.17309096006155014,0.41611207317858934,-0.9804834475010633
1745767245219355100,12.177355224609375,-0.09273264423310756,0.09224895236939192,-0.27619828331470486
1745767245229328100,12.187328125,-1.1132084949046372,0.6070593001872301,-1.0387491739869117
1745767245239302100,12.19730224609375,-1.0135358222752808,0.6359060399651527,-0.8580044843018054
1745767245249276200,12.207276123046874,-0.8029507055997848,0.272606104041636,0.3591881166905164
1745767245259249000,12.217248779296876,-0.9193921422004699,-0.029155951857566833,0.22930384567081927
1745767245269223000,12.227222900390625,-1.2183090378016233,-0.21626520813852548,0.5414800358176232
1745767245279197000,12.237197021484375,-1.2125871530234813,-0.2656505858153105,0.8948030598670244
1745767245289170000,12.247169921875,-0.6547194615066051,-0.23214316074997185,0.7838537909418344
1745767245299144000,12.25714404296875,0.22624270453453063,-0.2882283283263445,0.2221563120037317
1745767245309118000,12.267117919921875,0.2544517309308052,-0.08745587287396192,-0.1918365770637989
1745767245319091200,12.27709130859375,0.5215946011304855,0.08711217400282621,-0.3855588217437267
1745767245329065000,12.28706494140625,0.6115022510707379,-0.10765227320641278,-0.23250585658252237
1745767245339039000,12.2970390625,0.42453591039180755,-0.17343991962969302,-0.19259645552039145
1745767245349012200,12.30701220703125,0.2883785504519939,-0.1438160579994321,-0.21590718848109244
1745767245358986200,12.316986328125,0.20020809956789015,-0.23121289416253565,-0.018199673557281495
1745767245368959200,12.326959228515625,0.05713058497607708,-0.31809067488759757,0.21345862628519532
1745767245378933000,12.33693310546875,0.060844052541255945,-0.28463819487988945,0.23074235404133794
1745767245388907000,12.346906982421874,0.10457388867437839,-0.1762596532255411,-0.032166824111342425
1745767245398880000,12.3568798828125,-0.03162555684149265,-0.018327683851122854,-0.2332505374699831
1745767245408854000,12.36685400390625,-0.25216858842968937,0.16023644692450761,-0.21859131299853324
1745767245418828000,12.376828125,-0.28358079478144643,0.1230842356160283,-0.1636509315431118
1745767245428801000,12.386801025390625,-0.06701251204311848,-0.1413642809331417,-0.034411972689628596
