time,seconds_elapsed,z,y,x
1746409983583327700,0.02932763671875,3.1586677368000147,0.3015004823535681,-1.124219718262553
1746409983593300700,0.03930078125,3.2610213190764186,0.3657423606395721,-0.5816425348579883
1746409983603274000,0.04927392578125,2.999899316601455,0.4811819267213344,0.25582594189345836
1746409983613247000,0.0592470703125,2.1697806180909276,0.5978554185122251,1.0251830054491757
1746409983623220000,0.069219970703125,1.2275488675728439,0.6191267545998096,1.5105980396956205
1746409983633192700,0.079192626953125,0.13647358628213405,0.5702496187061071,1.5759984403669833
1746409983643166000,0.089166015625,-0.7663694260470568,0.7267512630164623,1.2517384291946887
1746409983653139000,0.099138916015625,-1.3545936773829161,0.7022019281715154,0.9202975666075944
1746409983663112000,0.10911181640625,-1.5883732071630656,0.6062012220531702,0.5644651900857687
1746409983673085000,0.1190849609375,-1.3328197986006736,0.4371043000638485,0.4163151945352554
1746409983683057700,0.1290576171875,-1.1962028583250939,0.11962182020246982,0.7879840226143598
1746409983693031000,0.139031005859375,-1.2854752791017292,-0.040216859576106066,1.0688146419048308
1746409983703004000,0.14900390625,-1.415485222327709,-0.3847919290244579,1.066837788873911
1746409983712978000,0.15897802734375,-1.196110357736051,-0.543414218750596,1.0689619414210318
1746409983722951000,0.168950927734375,-0.5847951536700129,-0.24610826547741887,0.6202572199344635
1746409983732923000,0.1789228515625,0.05529430945962667,0.10721242048442363,-0.021185995891690252
1746409983742897000,0.18889697265625,0.43054158054739233,0.27415771739780903,-0.44823418136537074
1746409983752870000,0.198869873046875,0.2753112713471055,0.23386720806360242,-0.5258744704067707
1746409983762843000,0.2088427734375,-0.40988574600964783,-0.0187701669216156,-0.41893735973238944
1746409983772815000,0.218815185546875,-1.311215723427385,-0.2241220591187477,-0.009251227948069572
1746409983782788900,0.228788818359375,-1.6052292110264301,-0.19843875180780887,0.5077466930419207
1746409983792761900,0.238761962890625,-1.5559820727765559,-0.09916589215099811,0.6154904439240694
1746409983802734800,0.24873486328125,-1.1167921986103058,-0.0417184963107109,0.6167845753878355
1746409983812707800,0.258707763671875,-0.45397214049547907,0.14932780715823174,0.6706389151722192
1746409983822680800,0.268680908203125,0.25418548121005297,0.5580062232047319,0.6355564958751201
1746409983832653800,0.27865380859375,0.5698877996563911,0.27418694349229333,0.6133639532893895
1746409983842626800,0.288626708984375,0.4126581333324313,-0.3018962036728859,0.5705167452096939
1746409983852599800,0.298599853515625,0.24284137263596056,-0.44919981152713295,0.3966051164150238
1746409983862572800,0.30857275390625,0.3062953154146671,-0.21663842536509037,0.10242693977355956
1746409983872546000,0.318546142578125,0.4118550002560019,0.04728606730997562,-0.3431768930882215
1746409983882518800,0.328518798828125,0.30211890651285644,0.22983751415610312,-0.7120815171509981
1746409983892491800,0.33849169921875,0.12635726593732832,0.5537362908005714,-0.830552413752675
1746409983902464800,0.34846484375,-0.13319880239516496,0.6595137100458145,-0.6876596080780029
1746409983912438000,0.35843798828125,-0.28520401206910606,0.4704916058808565,-0.4971656777948141
1746409983922411000,0.368410888671875,-0.24849779096245764,0.3422989412099123,0.004712415474653244
1746409983932383700,0.3783837890625,-0.25488807652145623,0.5793512090504169,0.5553422646924853
1746409983942356700,0.388356689453125,-0.3034627223372459,0.7087181781977415,0.9517053890451789
1746409983952330000,0.398330078125,-0.43523149192929267,0.18106091602742672,1.0618743212476371
1746409983962303000,0.408302978515625,-0.18741496122926474,-0.010340776750445365,0.3470592874795198
1746409983972276000,0.41827587890625,0.31547201682180165,-0.4391711694657802,-0.7385667884945869
1746409983982249000,0.4282490234375,1.2176350840628147,-0.32391748134493825,-1.487021349275112
1746409983992222000,0.438221923828125,1.815311054354906,0.4538438379406929,-1.5909905500546098
1746409984002195000,0.44819482421875,1.4433511343747376,0.6830243494927882,-1.5497411325603723
1746409984012168000,0.45816796875,0.5894342116475105,0.6302484525948763,-1.5646584234461187
1746409984022141000,0.468140869140625,-0.37508009782731533,0.3341927916437387,-1.2168988787427544
1746409984032114000,0.478114013671875,-1.1372405278772115,-0.00538227756023407,-0.5728080710172653
1746409984042087000,0.4880869140625,-1.4172639224380255,-0.19762977351248262,0.1687330571129918
1746409984052060000,0.498059814453125,-1.0535188730955123,-0.31124913842976093,0.9506529573827981
1746409984062033000,0.508032958984375,-0.3606389000207186,-0.6007359423846006,1.415261642704904
1746409984072006000,0.518005859375,1.196927227076888,-0.27970190752148627,1.2909136707633733
1746409984081979000,0.527978759765625,3.1147172436535357,0.6414660121798514,0.12385638903230428
1746409984091951900,0.537951904296875,3.135477707609534,0.5421732787787914,-1.3886466075018047
1746409984101924900,0.5479248046875,1.6391612912446258,0.3904512699604034,-1.552244347552955
1746409984111897900,0.55789794921875,0.7766971971854567,0.08113339185416699,-0.7329945413202047
1746409984121871000,0.56787109375,-0.00381371306926012,-0.1607540410578251,0.02569353644400835
1746409984131843800,0.57784375,-0.40536768406331536,-0.35038989320695396,0.6385904567435383
1746409984141816800,0.58781689453125,-0.2881935492739081,-0.6383084249317645,0.9073784638017416
1746409984151789800,0.597789794921875,-0.12407850735038518,-0.67369596465528,1.0364628166154026
1746409984161763000,0.60776318359375,0.03688654610961675,-0.4938455934613943,0.9767793322861194
1746409984171736000,0.617736083984375,0.22998890532553196,-0.41219139260351656,0.5478966248616576
1746409984181708800,0.627708740234375,0.5311679006397724,-0.3043780836164951,0.0946048678457737
1746409984191681800,0.637681884765625,1.199034428489208,-0.005110474881529808,-0.381350848659873
1746409984201654800,0.64765478515625,1.7611551012754438,0.13860533761382102,-0.42188481136113404
1746409984211628000,0.6576279296875,1.5563567513078451,0.41359950583577154,-0.05142886620312929
1746409984221601000,0.66760107421875,1.0928995741084218,0.3179857532083988,0.027775018893182277
1746409984231573800,0.67757373046875,0.711656277476251,0.20977321577072142,-0.036008594231307506
1746409984241546800,0.687546630859375,0.2949602669298649,0.2132645650178194,-0.19333032275289297
1746409984251520000,0.69752001953125,-0.1304790220424533,0.2578887196421623,-0.32624387846589087
1746409984261493000,0.707492919921875,-0.48521454323828217,0.4618161319941282,-0.5077706584393978
1746409984271466000,0.717466064453125,-0.7927206957474351,0.4846691843152046,-0.7635919241577387
1746409984281438700,0.727438720703125,-1.0623264489293098,0.36027006670832634,-0.8560393217086791
1746409984291412000,0.737411865234375,-1.2210481073766946,0.32268004850447174,-0.6463885632738471
1746409984301385000,0.747385009765625,-0.9958879373818635,0.3165390615314245,-0.43496553446948527
1746409984311358000,0.75735791015625,-0.6016700083643197,0.25752514702677726,-0.25342647953629494
1746409984321331000,0.7673310546875,-0.41481414232254027,0.08669979380965233,0.06918605668991804
1746409984331304000,0.777303955078125,-0.41113749963641166,0.2150286520808935,0.39584494569748635
1746409984341277000,0.78727685546875,-0.574155101712048,0.43801615421175955,0.3611760756373405
1746409984351250000,0.79725,-0.5854693996697664,0.23122458460032938,-0.018396657434105873
1746409984361223000,0.807222900390625,-0.4046010836049914,0.023121347868442534,-0.26111528047323224
1746409984371196000,0.81719580078125,-0.21326894893199205,-0.06594108341932296,-0.27762451672554017
1746409984381169000,0.8271689453125,0.07587707876116037,-0.04171557370126247,-0.2507841483339667
1746409984391142000,0.837141845703125,0.36571021193563935,0.07470949628651141,-0.36095541862398384
1746409984401115000,0.847114990234375,0.398620840151608,-0.05597206259071827,-0.5145858914121985
1746409984411088000,0.857087890625,0.33112872789800163,-0.23615093508660792,-0.5074287131339311
1746409984421060900,0.867060791015625,0.35735593282729383,-0.1573497855722904,-0.17827508470118045
1746409984431035000,0.877034912109375,0.2249152553230524,-0.01280278294980526,0.2580330965489149
1746409984441007900,0.8870078125,0.08937690406441688,-0.09277531433105468,0.5400108400478959
1746409984450980900,0.89698095703125,-0.053370940181612966,-0.29639000747203825,0.6260951323077082
1746409984460953900,0.906953857421875,-0.18911562766730786,-0.419512529271841,0.5224012413382529
1746409984470927000,0.916927001953125,-0.08445639879703522,-0.21820786663889882,0.4366597711667418
1746409984480899800,0.92689990234375,0.09680442371666431,-0.05202946244478225,0.3350266121193766
1746409984490872800,0.936872802734375,0.14094634778201579,-0.1170212823152542,0.22250760965943336
1746409984500845800,0.946845703125,0.035305414398014545,-0.035388124245405196,0.13602788834124802
1746409984510819000,0.956819091796875,-0.15297756183743477,0.1325724871903658,0.05198153164982795
1746409984520792000,0.9667919921875,-0.31209523386508226,0.14171850119829177,-0.014782850851118563
1746409984530764800,0.976764892578125,-0.4274064973920583,-0.08215922777056693,-0.03713087625950574
1746409984540737800,0.98673779296875,-0.45845103947520255,-0.06388882706463336,0.032737609736621376
1746409984550711000,0.9967109375,-0.3715858259707689,-0.010514379751682281,0.19456834011524915
1746409984560684000,1.00668408203125,-0.22507219945043325,-0.024058920979499816,0.32086978421211243
1746409984570657000,1.016656982421875,-0.11157675317376851,-0.039890111839771265,0.3674842358708381
1746409984580629800,1.026629638671875,-0.0025926468417048452,-0.0740916566491127,0.2954305147901177
1746409984590602800,1.036602783203125,0.02866933738440275,-0.05705576617419719,0.19596563969254494
1746409984600576000,1.046575927734375,0.013225392276048659,-0.03672667937278747,0.19430238265544175
1746409984610549000,1.056549072265625,-0.012466975124180317,0.007525134807825088,0.11607961755096911
1746409984620522000,1.06652197265625,-0.11180325540602207,-0.0014805939465761184,0.0684472210213542
1746409984630494700,1.07649462890625,-0.18794336901754138,0.1384007549524307,0.09839870717078447
1746409984640468000,1.086468017578125,-0.2098237769141793,0.2498503746151924,0.2022755534917116
1746409984650441000,1.09644091796875,-0.22582623268812893,0.17342121492922305,0.21152327430844306
1746409984660414000,1.1064140625,-0.24186229847073554,0.05372925209999084,0.14598755681961775
1746409984670387000,1.116386962890625,-0.23203093254715204,0.11466507457792759,0.17790975852012633
1746409984680360000,1.12635986328125,-0.2136433352023363,0.22045652234852312,0.08249474333524703
1746409984690333000,1.1363330078125,-0.20111878467202185,0.10942308227121829,-0.12969517818838358
1746409984700306000,1.146305908203125,-0.1624763348057866,0.0735118109345436,-0.24735855779945848
1746409984710279000,1.15627880859375,-0.10237024115025997,0.09009469694495201,-0.26895722614526746
1746409984720252000,1.166251953125,-0.04949176066070795,-0.03286240516006946,-0.14956950695961713
1746409984730225000,1.176224853515625,0.03319587489813566,0.0009925181686878204,0.12082505851238966
1746409984740198000,1.186197998046875,0.1097255723491311,0.06798223385810852,0.2624742938667536
1746409984750171000,1.1961708984375,0.16383359463363886,0.04988952780663967,0.212856860999763
1746409984760144000,1.206143798828125,0.30521336539685723,0.10555296283960341,0.07796177608072757
1746409984770116900,1.216116943359375,0.4472840410336852,0.10828384910821914,-0.06644084963500499
1746409984780089900,1.22608984375,0.5178808413043617,0.025121581774950025,-0.07653232779949903
1746409984790062800,1.236062744140625,0.5188529012069106,-0.06626140141487122,0.010111644169688225
1746409984800035800,1.246035888671875,0.4576704104915261,-0.057870005166530604,0.10238690002411603
1746409984810009000,1.256009033203125,0.3615504619076848,-0.09455810609459876,0.15781301916986704
1746409984819981800,1.26598193359375,0.3567211420550942,-0.17126432915627957,0.15083938076496123
1746409984829954800,1.275954833984375,0.49413376275300974,-0.06049626201689243,0.2094336085528135
1746409984839927800,1.285927734375,0.8127505073413253,0.05856675525903701,0.26661709275990725
1746409984849901000,1.295901123046875,0.7432827111005783,0.0016845920860767364,0.07582564083486795
1746409984859874000,1.3058740234375,0.5168322090342641,-0.00810498052239418,-0.03693389238268137
1746409984869846800,1.3158466796875,0.3681631580457091,-0.02435235096812248,-0.12723814042508602
1746409984879819800,1.32581982421875,0.18208324481248855,0.07587854006588458,-0.14729747037440538
1746409984889793000,1.33579296875,0.009946224474906921,0.1990735425800085,-0.17839315812289713
1746409984899766000,1.34576611328125,-0.16142536444813013,0.16590601699352264,-0.24356471847444772
1746409984909739000,1.355739013671875,-0.38887364538013935,0.04671323585808277,-0.18246756795495747
1746409984919711700,1.365711669921875,-0.5176730437725782,0.11444003365039825,-0.06082827045023441
1746409984929685000,1.37568505859375,-0.6893047449365258,0.18270926775634289,-0.0014215572357177734
1746409984939658000,1.385657958984375,-0.8271347142636776,0.15666472591757774,0.02752688935101032
1746409984949631000,1.395630859375,-0.7574471377924085,0.19400223066508768,0.03912117329388857
1746409984959604000,1.40560400390625,-0.6013719022005796,0.19973639040291308,-0.05707914704978466
1746409984969577700,1.41557763671875,-0.41427988931536674,0.17939093698859213,-0.09728519297093152
1746409984979550700,1.42555078125,-0.20125600118562578,0.1376122349232435,-0.10242226359844207
1746409984989523700,1.435523681640625,-0.027242227190732955,0.13198679625689982,-0.16660890456587074
1746409984999496700,1.44549658203125,0.02263970183134079,0.051344402790069577,-0.17583675163835286
1746409985009469700,1.4554697265625,-0.003421060489863157,0.09469897587001323,-0.1617728627115488
1746409985019442700,1.465442626953125,-0.004521130686253309,0.051043958538770674,-0.23402473671287297
1746409985029416000,1.475416015625,0.0832769797541201,-0.007371405550837516,-0.21728256848752497
1746409985039388700,1.485388671875,0.1937802584774792,-0.09911328518092631,-0.2809787955895066
1746409985049361700,1.495361572265625,0.3959769015140831,-0.24167583598792552,-0.43560178654640913
1746409985059334700,1.505334716796875,0.6842924697324633,-0.11483692401349543,-0.42230683616548775
1746409985069308000,1.515307861328125,0.8031865601822733,0.13434417303800583,-0.2725339155882597
1746409985079281000,1.525281005859375,0.5707625366643071,0.199949156370759,-0.21124328832328318
1746409985089253600,1.535253662109375,0.21517741290181874,0.19159107787013052,-0.26833997102975843
1746409985099226600,1.5452265625,-0.11195932275056839,0.24067981068789956,-0.35056203490346666
1746409985109200000,1.555199951171875,-0.27933512003570793,0.4125508735656738,-0.42690965378582474
1746409985119172900,1.5651728515625,-0.30134090787768364,0.5314046320050955,-0.6189253868088126
1746409985129145900,1.575145751953125,-0.24119243638515472,0.5538584558755159,-0.8159633319079875
1746409985139118600,1.58511865234375,-0.19748422756195066,0.4538555283784866,-0.985415058684349
1746409985149091800,1.595091796875,-0.14557108497321605,0.3877957870155573,-1.0712897998467088
1746409985159064800,1.60506494140625,-0.04973638307154178,0.31969489521384237,-1.091942711775005
1746409985169037800,1.615037841796875,0.05931640458256006,0.33194355141222476,-1.0444669671118259
1746409985179010800,1.6250107421875,0.08995411943048238,0.38859775104820726,-0.8905711213856935
1746409985188983600,1.634983642578125,-0.018604747226834296,0.40796997551620007,-0.6923492271989583
1746409985198956800,1.644956787109375,-0.18637071287333964,0.4044429704338312,-0.5072019186407327
1746409985208929800,1.6549296875,-0.33831220966130493,0.3392962522625923,-0.3716162211090326
1746409985218902800,1.66490283203125,-0.4271282649725675,0.26136194871067997,-0.23269465715289114
1746409985228875500,1.67487548828125,-0.4174485824793577,0.22634733395278453,-0.15430325748324394
1746409985238848800,1.684848876953125,-0.4354775756448507,0.09904489611983298,-0.09272095379531382
1746409985248821800,1.69482177734375,-0.2911817713044584,-0.08535130181014537,0.05393880319744348
1746409985258794800,1.704794677734375,-0.10589710010215639,-0.12492927896082401,0.16493191126435994
1746409985268767700,1.714767822265625,0.09820815303474664,-0.11047171454131603,0.13433248260021208
1746409985278740700,1.72474072265625,0.22247604547739028,0.004622983625531196,0.04346563223898411
1746409985288713700,1.734713623046875,0.2513268769085407,0.08234685929715634,-0.11267477754354477
1746409985298686700,1.744686767578125,0.26112872447669505,0.10694880111217499,-0.17915157527476547
1746409985308659700,1.75465966796875,0.21381898403018712,0.13727496579289436,-0.05931026710271835
1746409985318633000,1.764633056640625,0.10365268217623233,0.18289748380482196,0.047942485392093656
1746409985328605700,1.774605712890625,-0.08590075238645076,0.2095610343247652,0.0627346885934472
1746409985338578700,1.78457861328125,-0.30846725262627006,0.18734686442911624,-0.03774462424367666
1746409985348551700,1.7945517578125,-0.33073359110057354,0.1668652174144983,-0.09815086988955736
1746409985358524700,1.804524658203125,-0.31024405304044483,0.16373451817333698,-0.055258069102466105
1746409985368498000,1.814497802734375,-0.24893676690161226,0.14109130921065807,0.013498948520421982
1746409985378470700,1.824470703125,-0.17569266699254513,0.07170037759840488,0.04008884928226471
1746409985388443600,1.834443603515625,-0.009378653720021248,0.03223638221621513,0.06840192057490349
1746409985398416600,1.844416748046875,0.17603665812462568,0.008421206864714622,0.058873044729232785
1746409985408390000,1.854389892578125,0.3355010977633297,-0.021459552136063573,0.07194821487963199
1746409985418363000,1.86436279296875,0.4230874651491642,-0.01605389370024204,0.10486907222867012
1746409985428335600,1.874335693359375,0.4281114307910204,0.02016834328174591,0.07945376820415258
1746409985438308600,1.88430859375,0.3365612743407488,0.0056780456364154816,0.04386106129735708
1746409985448281900,1.89428173828125,0.24153847334384917,0.016400515180826185,0.013216916708648205
1746409985458254800,1.9042548828125,0.11232377214878797,0.00021335048973560332,-0.07773498158752917
1746409985468227800,1.914227783203125,0.041430327019095416,-0.04457037861049175,-0.1664896621003747
1746409985478200600,1.92420068359375,0.05686228942871093,-0.015271803411841391,-0.26144465855807064
1746409985488174600,1.934174560546875,0.11991422727778553,0.08455167586505413,-0.43684301877915854
1746409985498147800,1.94414794921875,0.21470248886644838,0.13268588443696497,-0.7235562663674354
1746409985508120800,1.954120849609375,0.31949440420567987,0.10369944392740726,-0.9048571286305784
1746409985518093800,1.96409375,0.43514322912395,0.13459493292868135,-0.9678267950236796
1746409985528066600,1.974066650390625,0.5739581178352237,0.1537292569875717,-1.0163304214298725
1746409985538039800,1.984039794921875,0.6961854443609714,0.15362988826632498,-1.0220201575040817
1746409985548012800,1.9940126953125,0.7742671935595572,0.1871861209094524,-0.9136509681999683
1746409985557985800,2.00398583984375,0.8152937620833516,0.28357202695310113,-0.7482201675027609
1746409985567958800,2.013958740234375,0.8267951070457696,0.34755028586685655,-0.5946446397721767
1746409985577931500,2.023931640625,0.7836071227043867,0.2648766788333654,-0.48134150119721886
1746409985587904800,2.03390478515625,0.591369271363318,0.2038531780719757,-0.23627806859761474
1746409985597877800,2.043877685546875,0.3673480422705412,0.2582856100052595,-0.047240182341635226
1746409985607850800,2.053850830078125,0.05755933178216219,0.2688385682016611,0.10173808072656393
1746409985617823700,2.06382373046875,-0.20684739145189524,0.13597791171967982,0.242364987295866
1746409985627796700,2.073796630859375,-0.2821364411920309,0.05844809731543064,0.5134849444329739
1746409985637769700,2.083769775390625,-0.2778936890557408,0.14493746324479578,0.7598428007572889
1746409985647742700,2.09374267578125,-0.2709540990509093,0.10261574034392833,0.7651277554228901
1746409985657715700,2.1037158203125,-0.25901158619225023,0.07445230665504932,0.6696475660473108
1746409985667689000,2.11368896484375,-0.1339220021031797,0.1687175672829151,0.5569444391921162
1746409985677661700,2.12366162109375,0.03081950115561485,0.15610241585969925,0.450859561432898
1746409985687634700,2.133634765625,0.14245602169260382,0.04253565791249275,0.35701720239222046
1746409985697607700,2.143607666015625,0.21307591057792305,0.027774142110347746,0.30283231547921896
1746409985707581000,2.153580810546875,0.2544968852467835,0.12159750418961048,0.2669859260722995
1746409985717554000,2.163553955078125,0.36982875317037106,0.18026129008233546,0.05535042356103658
1746409985727526700,2.173526611328125,0.3908949220746755,0.11818740348517894,-0.11311667609214782
1746409985737499600,2.183499755859375,0.3182487880587578,0.14082476722896098,-0.11774053650051354
1746409985747472600,2.19347265625,0.17863938796892762,0.16983517313599586,-0.05594429780095815
1746409985757446000,2.20344580078125,0.026776509375125167,0.12551438537240028,0.015351298388838768
1746409985767419000,2.2134189453125,-0.09407266066521405,0.0975233856409788,0.08843874643146991
1746409985777391600,2.2233916015625,-0.11661021729633211,0.04717676171660423,0.12562164513915777
1746409985787364600,2.233364501953125,-0.0783177499115467,0.025267127725481984,0.18695815737247465
1746409985797337900,2.243337890625,0.044051323172450065,-0.00580839401781559,0.1881970515176654
1746409985807310800,2.253310791015625,0.16891177468076346,-0.020754618737101552,0.13780162001550197
1746409985817283600,2.26328369140625,0.28563451244086024,0.0428209045946598,0.04452770851254463
1746409985827256600,2.273256591796875,0.360307037717849,0.030731238350272177,-0.01228343525081873
1746409985837229800,2.283229736328125,0.35933088616207237,0.04568330828845501,0.02528875503540039
1746409985847202800,2.293202880859375,0.3816805190056562,0.048774260041117665,0.03807254102379083
1746409985857175800,2.30317578125,0.37034605504274365,0.01243804129064083,0.0434115639641881
1746409985867148500,2.3131484375,0.2991195785664022,-0.013997545692324637,0.058337914939224716
1746409985877121800,2.323121826171875,0.220178874450922,-0.04557166460752487,0.08154957143962382
1746409985887094800,2.3330947265625,0.13312325294092298,-0.06822773305177689,0.12735153767168522
1746409985897067800,2.34306787109375,0.07793503420427442,-0.09207564162909984,0.15886574309319257
1746409985907040800,2.353040771484375,0.05596227184906601,-0.08169219478070736,0.1580254928767681
1746409985917013800,2.363013671875,0.06634221156612038,-0.07104863569140434,0.13297522277235985
1746409985926986800,2.37298681640625,0.03472352285683155,-0.031417467048764226,0.08915098635405301
1746409985936959700,2.382959716796875,-0.03274360108599066,0.07732523174285888,0.1741951219111681
1746409985946933800,2.392933837890625,-0.109543932171911,0.12678513596057892,0.3482628180503845
1746409985956906800,2.40290673828125,-0.1853090749911964,0.17983342005908487,0.5500292529761791
1746409985966879500,2.41287939453125,-0.23562603442966937,0.25528935079872606,0.647910366013646
1746409985976852500,2.4228525390625,-0.3187209356151521,0.28488252502977846,0.6169289522945881
1746409985986825500,2.432825439453125,-0.4628302774727344,0.34495793128609653,0.6193851132750511
1746409985996798500,2.442798583984375,-0.7101607782214879,0.39124329712092876,0.7299252168774605
1746409986006771500,2.452771484375,-1.0149369212448596,0.4285445615112781,0.9645897127985954
1746409986016744700,2.46274462890625,-1.1536918964624405,0.4388841692179441,1.1889672079831362
1746409986026717400,2.472717529296875,-1.1668787102937697,0.3662795362561941,1.2370511476725339
1746409986036690400,2.4826904296875,-1.1059025558054447,0.30945640979409217,1.194618365612626
1746409986046663400,2.492663330078125,-1.0499234789520502,0.15579671091139316,1.1056991421878337
1746409986056636700,2.50263671875,-0.9621721302628516,-0.057524552729725835,1.0443354496866464
1746409986066609400,2.512609375,-0.8509550041817128,-0.17153496279120445,0.9652250880926847
1746409986076582400,2.52258251953125,-0.769266462662816,-0.32924189123809333,0.8912877452224492
1746409986086555400,2.532555419921875,-0.7387760473310947,-0.42384149838685986,0.810714325338602
1746409986096528600,2.542528564453125,-0.7985780434735119,-0.414630017927289,0.7681383354157209
1746409986106501600,2.552501708984375,-0.9616688569158315,-0.4733499179214239,0.830796743902564
1746409986116474400,2.562474365234375,-1.109619968893379,-0.6065080960452556,0.9656792616009712
1746409986126447400,2.572447265625,-1.16331181159243,-0.7319669518381356,1.0522036988437176
1746409986136420600,2.582420654296875,-1.0408195505201816,-0.6645791767418384,1.1834779629170893
1746409986146393600,2.5923935546875,-0.8710789237998425,-0.7050485497742891,1.2968465679436922
1746409986156366600,2.60236669921875,-0.6622549715779721,-0.45919513584077354,1.4317974747031925
1746409986166339300,2.61233935546875,-0.4923509709894657,-0.3098509620696306,1.3355179516434668
1746409986176312300,2.622312255859375,-0.4530739495467394,-0.23544717073142526,1.1494710638970136
1746409986186285600,2.63228564453125,-0.3013226415686309,0.1421580616593361,1.129792549958825
1746409986196258600,2.642258544921875,-0.029282135520502923,0.5352332503825425,1.2656132252901793
1746409986206231600,2.6522314453125,-0.09437325104698538,0.7936965550422668,0.9337012380599975
1746409986216204300,2.662204345703125,-0.3205598414801061,0.24944880807697772,0.14447335286438465
1746409986226177500,2.672177490234375,-0.35370698186568916,0.19812077189981936,0.9289356310933827
1746409986236150500,2.682150634765625,-0.5127957931250333,0.2622849087744951,2.1008032357156274
1746409986246123500,2.69212353515625,-0.6345744260352104,-0.3142202631950378,2.5761697541564703
1746409986256096500,2.702096435546875,-0.7726244678538292,-0.8818243358284235,2.805500487834215
1746409986266069500,2.712069580078125,-0.7777291705816983,-1.1279027906894683,2.9490117176681756
1746409986276042500,2.72204248046875,-0.9946423212349415,-1.190548924216628,2.9171874233841892
1746409986286015500,2.732015380859375,-0.9535206217736005,-1.5079367115318774,2.3566823691010472
1746409986295988500,2.741988525390625,-0.9797054488658904,-1.7240327005833387,1.7452701344013213
1746409986305961700,2.751961669921875,-0.9166337834030389,-1.4045552475124596,1.767749677234888
1746409986315934500,2.7619345703125,-0.8243219949305057,-1.1270166555047034,1.9303812026023863
1746409986325907500,2.771907470703125,-0.7356324886083603,-0.5750602338582277,1.7971172260165214
1746409986335880400,2.78188037109375,-0.6716214964687823,-0.13873100982010364,0.9688350952833891
1746409986345853400,2.791853515625,-0.7102899575591087,0.06588555383980274,-0.028808745855093
1746409986355826700,2.80182666015625,-0.7577426136076449,0.25499942794144154,-0.7479524564772844
1746409986365799400,2.81179931640625,-0.8754501976866275,0.24665830057561397,-1.1934978371500968
1746409986375773400,2.8217734375,-1.011885790045932,0.24675299312174317,-1.4622761995971203
1746409986385746400,2.831746337890625,-1.1557248635947703,0.23613223038613795,-1.4993015696555376
1746409986395719400,2.841719482421875,-1.24244803828001,0.15545827273726462,-1.3447300166249274
1746409986405692700,2.851692626953125,-1.38659464340806,0.010205752193927765,-1.2680302233040333
1746409986415665400,2.86166552734375,-1.5087351684331893,-0.09636895490884781,-1.2158294959455729
1746409986425638400,2.871638427734375,-1.6820669515132902,-0.16171382600069045,-1.154679153934121
1746409986435611400,2.881611328125,-1.8501450518488882,-0.13634674503207206,-1.1675117475003003
1746409986445584600,2.891584716796875,-2.039572229683399,-0.03661445116996765,-1.3272288467258213
1746409986455557600,2.9015576171875,-2.197875954979658,-0.11212357340157031,-1.6276795277655123
1746409986465530400,2.9115302734375,-2.3466776924371717,-0.28216391372084615,-1.808885989743471
1746409986475503400,2.92150341796875,-2.4849966143250466,-0.5185878205299377,-1.7845856612235307
1746409986485476600,2.9314765625,-2.59155612385869,-0.6816676741868257,-1.6522919909745455
1746409986495449600,2.94144970703125,-2.6892449291944502,-0.7925093910843134,-1.46820734321177
1746409986505422600,2.951422607421875,-2.7761984055042266,-0.9294447496592998,-1.3481272578477859
1746409986515395300,2.961395263671875,-2.8387948546707626,-1.0870955640047788,-1.1736848831772804
1746409986525368600,2.97136865234375,-2.873449988466501,-1.0668827970594168,-0.9183359111458063
1746409986535341600,2.981341552734375,-2.856504698884487,-0.9564093289524316,-0.9018523938566446
1746409986545314600,2.991314453125,-2.76968332452178,-1.0017980382084846,-1.0860592066943644
1746409986555287600,3.00128759765625,-2.716865634308755,-1.0169792407274245,-1.115978544139862
1746409986565260300,3.01126025390625,-2.735661520193517,-0.9560942716538906,-0.947977016171813
1746409986575233500,3.021233642578125,-2.7334730702385306,-0.9741326171696185,-0.69409928573668
1746409986585206500,3.03120654296875,-2.7116508222699163,-0.9753794023603201,-0.37800153823196886
1746409986595179500,3.041179443359375,-2.752371831975877,-0.8459732702463865,0.009608955344557761
1746409986605152500,3.051152587890625,-2.7841771292984485,-0.6823679314106702,0.39934506277292964
1746409986615125500,3.06112548828125,-2.7389538397371767,-0.5693424407333135,0.7786983078747988
1746409986625098500,3.071098388671875,-2.5233318979382515,-0.3885661868661642,1.2125383454456924
1746409986635071500,3.081071533203125,-2.4127146374464035,-0.20921441284418105,1.4542249950885773
1746409986645044500,3.09104443359375,-2.297814292807877,-0.22252514531612394,1.6123095246762036
1746409986655017700,3.101017822265625,-2.2911682789221404,-0.3447685461938381,1.683505459883809
1746409986664990500,3.110990478515625,-2.457923313960433,-0.563192685931921,1.6968375274047254
1746409986674963500,3.12096337890625,-2.591747847038507,-0.771623839443922,1.8588970981031656
1746409986684936400,3.1309365234375,-2.5094334287062288,-0.7606640540122985,2.1574738019645214
1746409986694909700,3.14090966796875,-2.3316499269142748,-0.8374246376097202,2.341675354105234
1746409986704882400,3.15088232421875,-2.0123253263175487,-0.8528501702785491,2.573049868570268
1746409986714855400,3.16085546875,-1.735589575125277,-1.3979220931082963,2.345463348211348
1746409986724828400,3.170828369140625,-1.7223241430997847,-1.7828963929623365,2.0864856642886993
1746409986734801400,3.180801513671875,-1.9494994523093103,-1.749015750670433,1.9317799634844064
1746409986744774700,3.190774658203125,-2.382170153839886,-2.0688649596631525,1.7676893253497779
1746409986754747400,3.200747314453125,-3.0177886090353128,-2.455955813279748,1.9458536431528626
1746409986764721400,3.210721435546875,-3.915229616190493,-2.6856805147111413,2.357884876758605
1746409986774694400,3.2206943359375,-4.96733190048635,-2.705532631650567,2.6895743072792886
1746409986784667400,3.23066748046875,-6.11718115004599,-2.7586113108873365,2.2961561503373087
1746409986794640600,3.240640625,-6.15802520160973,-3.262989988800883,1.4220418043643235
1746409986804613600,3.250613525390625,-5.443289955079555,-3.278465790352225,1.3381558989316225
1746409986814586400,3.26058642578125,-4.382787506707013,-2.638763280713558,2.42006909186244
1746409986824559400,3.270559326171875,-3.6105654091089963,-1.59129771630764,3.428787576983869
1746409986834532600,3.28053271484375,-3.5526585790634155,-0.6573837122797965,3.38767201500237
1746409986844505600,3.290505615234375,-4.133199290159345,0.07802081279158592,2.777043039634824
1746409986854478600,3.300478515625,-5.282855062973499,0.5240589454174042,2.29980400532037
1746409986864451300,3.310451416015625,-6.7298752412497995,0.1539309170395136,2.4300047949433323
1746409986874424600,3.320424560546875,-8.043897400400041,-0.781836605900526,3.3202424465909597
1746409986884397600,3.3303974609375,-8.99503609547317,-1.7861662084132433,4.448745833522081
1746409986894370600,3.34037060546875,-9.112560066613554,-2.0853835482656953,6.304627383196354
1746409986904343600,3.350343505859375,-8.49163181554973,-1.5828209798634052,7.904108990481495
1746409986914316300,3.36031640625,-7.477927066448331,-0.9521756369054317,8.707541926640271
1746409986924289500,3.37028955078125,-6.546812337750196,-1.2125421448379754,8.667249663740396
1746409986934262500,3.380262451171875,-5.706821064522862,-1.5266040026009082,8.015271609896422
1746409986944235500,3.390235595703125,-6.040505906644463,-0.21778233470320701,7.491040230521559
1746409986954208500,3.40020849609375,-8.332421496802567,2.0148101288706064,7.449352713871002
1746409986964181200,3.41018115234375,-12.220790870857238,2.8425428090274334,7.55193162933588
1746409986974154200,3.420154296875,-15.501589488071202,1.6875035896092652,7.635975355678796
1746409986984127200,3.430127197265625,-15.982405504089593,0.08720043680816889,7.996127348965406
1746409986994100200,3.440100341796875,-12.868219006311893,-0.03563683830946684,8.699604119378328
1746409987004073200,3.4500732421875,-8.649407717579603,2.396080021248758,9.705538234478235
1746409987014046200,3.460046142578125,-5.550906280189753,5.526395523789525,10.11717491580844
1746409987024019200,3.470019287109375,-4.42771064427793,8.362379412692786,9.3926723085016
1746409987033992200,3.4799921875,-5.8536582239091395,11.38549038579464,8.086750453698635
1746409987043965400,3.48996533203125,-8.864466180276871,13.505062619388102,6.371841555291414
1746409987053938200,3.499938232421875,-12.386983303576708,13.046117074394225,3.812430335973203
1746409987063911200,3.5099111328125,-15.011574266552925,11.253380255419016,1.6129603898003697
1746409987073884200,3.51988427734375,-15.087129566013813,8.900452270415425,0.6340612888813019
1746409987083857400,3.529857421875,-11.980716040325165,6.432449460989236,-0.05559300014525652
1746409987093830400,3.539830322265625,-7.107382858484983,5.302427193927764,1.3886355015859007
1746409987103803100,3.54980322265625,-2.5794308017790315,6.543585192397236,3.9539597443401813
1746409987113776000,3.559776123046875,-0.29004209975004197,7.435316589733958,5.68517154277265
1746409987123750100,3.569750244140625,-1.3633704196870327,8.167244963127374,5.982590893292427
1746409987133723100,3.57972314453125,-5.86557428715229,8.073765884441137,4.519460707214474
1746409987143696400,3.5896962890625,-10.387291833382845,6.768876879817247,3.16307853897959
1746409987153669400,3.59966943359375,-10.010832848417758,7.869492435130477,3.567407527644932
1746409987163642000,3.60964208984375,-4.792216741120815,11.355836421287059,4.603680959168076
1746409987173615000,3.619614990234375,1.1524199768304824,12.431362543529271,4.111775978380441
1746409987183588400,3.62958837890625,6.063914254760742,10.975880826377868,4.580075919435918
1746409987193561300,3.639561279296875,7.163043370908499,7.4955731977760784,5.759488240349293
1746409987203534300,3.649534423828125,2.85062440867424,4.419981219069659,5.473527272433042
1746409987213507000,3.659507080078125,-3.352174585163593,6.862377001291513,2.628090203268826
1746409987223480300,3.669480224609375,-9.902519773215054,12.191740132939815,-2.1500743393629786
1746409987233453300,3.679453369140625,-14.529820677423476,12.802544464874266,-5.4989978137761355
1746409987243426300,3.68942626953125,-13.680983834439516,10.59135193220377,-3.515698967717588
1746409987253399000,3.69939892578125,-9.480287463590502,9.577499883586167,0.6484937188595533
1746409987263372300,3.709372314453125,-3.700798637741804,9.496997775372861,3.3665491474747657
1746409987273345300,3.71934521484375,1.8241086933165787,10.970856276214121,3.6519068888008595
1746409987283318300,3.729318359375,6.8960419550061225,14.272307220834493,1.3863544049113987
1746409987293291300,3.739291259765625,11.046343771135806,18.941365199798344,-2.858370200495422
1746409987303264300,3.74926416015625,13.366121766209602,18.7455866071105,-9.360680256435275
1746409987313237200,3.7592373046875,12.761893305534123,13.602134169608354,-9.776047940987349
1746409987323210200,3.769210205078125,9.971990199804305,10.173263298255204,-2.6647508316680786
1746409987333183200,3.779183349609375,8.482610889226198,7.966246005442738,5.36450341861248
1746409987343156200,3.78915625,9.857602773123979,6.450157551637291,8.087014657592773
1746409987353129200,3.799129150390625,12.363063498806953,8.827100033956766,7.3484478690981865
1746409987363102200,3.809102294921875,10.765724164247512,8.6182304890275,6.331786608278751
1746409987373075200,3.8190751953125,15.85016444081068,0.2706349500991404,1.0038549707382918
1746409987383048200,3.829048095703125,25.682727465224264,18.30242549122572,8.693438582485914
1746409987393021400,3.839021484375,46.11253440248966,21.555065350925922,13.952256936311722
1746409987402994200,3.848994140625,26.791081505835056,3.846435189166665,11.341396392524242
1746409987412967200,3.85896728515625,7.395330031782389,0.4306782125391066,13.369344819909333
1746409987422940200,3.868940185546875,0.8265338257610797,4.568423767825961,14.075580533641576
1746409987432913400,3.878913330078125,-5.93305032505393,4.880942487800121,7.883769966807961
1746409987442886400,3.888886474609375,-16.189546033269167,5.213169532328844,0.9932420990481972
1746409987452859100,3.898859130859375,-20.739082145273684,2.1612347619332373,-7.701907086747885
1746409987462832000,3.90883203125,-21.055236006879806,5.437515463331342,-9.141443046748638
1746409987472806100,3.91880615234375,-16.351593036746976,5.089931275194883,-9.040918141204118
1746409987482779400,3.928779296875,-1.440920692357421,3.566439851656556,-9.16670958995223
1746409987492752400,3.93875244140625,14.368303250777721,0.6226615045972168,-11.569483848142623
1746409987502725400,3.948725341796875,18.19328356398344,-4.007193029616773,-10.339025522863864
1746409987512698000,3.958697998046875,20.26492967879772,-0.2676216666925698,-9.298943638968467
1746409987522671000,3.968671142578125,8.939380843746662,3.044674277873337,-6.006589023995399
1746409987532644400,3.978644287109375,-5.664376007503271,1.07448143549487,-2.256958404675871
1746409987542617300,3.988617431640625,-0.864820009535551,-1.6026481084920465,3.7405470030233263
1746409987552590000,3.998590087890625,8.448689914923905,-0.37594299826696514,3.093752781558037
1746409987562563000,4.00856298828125,0.63643327870965,0.10389529529307037,-0.6056852353550494
1746409987572536300,4.018536376953125,-1.1523767222106456,1.6962309398137032,1.0249760847002267
1746409987582509300,4.02850927734375,0.6431833374917507,2.527595985123515,1.5608116848900913
1746409987592482300,4.038482421875,-0.7756552869170904,1.0182285832013935,-0.5628115045946092
1746409987602455000,4.048455078125,-0.7936877872139215,-0.020020349645800888,-0.6438975501757115
1746409987612428300,4.05842822265625,-0.17812135544419289,-1.0814337388508022,-0.6874450154792517
1746409987622401300,4.0684013671875,0.7692319758713245,-1.2801640209510923,-1.0383488495577127
1746409987632374300,4.078374267578125,0.7345663206815719,-0.9388030912436545,-1.1289159863200038
1746409987642347300,4.08834716796875,0.6210258662194014,0.8810051284000276,0.47703795878440136
1746409987652320300,4.0983203125,0.23748832117021082,0.9811883809000254,1.3806868806689976
1746409987662293200,4.108293212890625,-0.9487404017597436,-1.176268835255876,-0.25676088465601205
1746409987672266200,4.118266357421875,0.5745195511102676,0.9340792775921523,0.9099124392587691
1746409987682239200,4.1282392578125,0.17372691987752914,0.49675574528705324,0.37384964271690696
1746409987692212200,4.138212158203125,0.034306758749485015,0.08924138631755485,0.025479907393059692
1746409987702185200,4.148185302734375,-0.020579262170195577,-0.03620268289814703,-0.029754461173410525
1746409987712158200,4.158158203125,-0.056169046467542644,-0.11776944293458945,0.045848549886723045
1746409987722131200,4.168131103515625,-0.028910452663898467,0.014439371175691485,0.09519817583011463
1746409987732104200,4.178104248046875,-0.04128478106856346,0.04510689663998783,0.09502492902190424
1746409987742077400,4.188077392578125,0.027789339679479597,-0.019276554674329236,0.06646387431756592
1746409987752050200,4.19805029296875,0.034651626664400095,-0.1122154438029509,0.05388664375194348
1746409987762023200,4.208023193359375,-0.014877251136302947,-0.13557281065066346,0.12766049402300267
1746409987771996200,4.21799609375,-0.021471827095746993,-0.13485718232775107,0.24630090197268872
1746409987781969400,4.227969482421875,-0.08330021449923515,-0.2076661970214918,0.21899105290584264
1746409987791942400,4.2379423828125,-0.10513678325414658,-0.32133261595088985,0.06071666330192238
1746409987801915100,4.2479150390625,-0.1158358719229698,-0.22779439095593987,0.06902105712024495
1746409987811889200,4.25788916015625,-0.024579145461320874,-0.0913255082483869,-0.001522588191088289
1746409987821862100,4.267862060546875,0.01210953998863697,-0.195078445061855,0.08335439237188548
1746409987831835400,4.27783544921875,0.17198153751492498,-0.053468400073563675,0.1491501490363851
1746409987841808400,4.287808349609375,0.2001765353858471,0.07044852350694127,0.11967813523327932
1746409987851781400,4.297781494140625,0.04882394440174102,-0.0037047088699880986,0.2082112088846974
1746409987861754000,4.307754150390625,0.045534839728474615,-0.008347456641914322,0.25139135697949677
1746409987871727000,4.31772705078125,-0.0760953976869583,-0.11268025743626058,0.1807364881123416
1746409987881700400,4.327700439453125,-0.02614800221323967,-0.17633984232228248,0.22329074112745
1746409987891673300,4.33767333984375,0.03291793473958969,-0.13847508056396618,0.30313299719253556
1746409987901646000,4.34764599609375,-0.029524785169959065,-0.15199127248013392,0.12281524594891816
1746409987911619000,4.357619140625,-0.02490998485088348,-0.13466147709256038,0.11785126686599105
1746409987921592300,4.36759228515625,-0.05203063148856163,-0.1487543911844492,0.14138218191601334
1746409987931565300,4.3775654296875,-0.05103460618853569,-0.18420367103256285,0.05353431404978037
1746409987941538300,4.387538330078125,-0.09454173948168754,-0.2309226242453791,0.018733670836128292
1746409987951511000,4.397510986328125,-0.13217793491482735,-0.2245854205804877,-0.03907777254357934
1746409987961484300,4.407484375,-0.11528408325910568,-0.322042773514241,-0.05571817916119471
1746409987971457500,4.41745751953125,-0.10248422291874885,-0.24755736830718814,-0.00022354309018701314
1746409987981430300,4.42743017578125,0.006080196696519852,-0.0325085684874095,0.011441120941471308
1746409987991403300,4.4374033203125,0.0663794748365879,-0.08401367826452479,0.1734567246340215
1746409988001376500,4.44737646484375,0.03739069623947144,-0.01750027484996244,0.18234154868880287
1746409988011349500,4.457349609375,-0.0034299744486808773,-0.05876518217427656,0.08406776480562984
1746409988021322500,4.467322509765625,0.002713350611925125,-0.13125638135680928,0.026466292648483065
1746409988031295200,4.477295166015625,-0.04326455670893192,-0.14993576472243295,0.0059220287264324725
1746409988041268200,4.487268310546875,-0.06174187816381454,-0.16239179832749068,0.0001530351372435689
1746409988051241500,4.497241455078125,-0.034867899763584134,-0.14984431444616056,0.01887925331927836
1746409988061214500,4.50721435546875,-0.026826047605276106,-0.15663834936730564,0.038066202614549544
1746409988071187200,4.517187255859375,0.01326630880832672,-0.15357276951791718,0.08372097892826423
1746409988081160200,4.52716015625,0.044862055033445356,-0.0965177705287002,0.12871422259332613
1746409988091133400,4.537133544921875,0.04893032738566398,-0.0924959494004026,0.1137227156938985
1746409988101106400,4.5471064453125,0.025750527328252792,-0.09886730193006806,0.08104591450011357
1746409988111079400,4.557079345703125,0.08512567636072635,-0.11084984540501609,0.06524745686566456
1746409988121052200,4.56705224609375,0.10737316400408745,-0.021139270673133433,0.0628288148839958
1746409988131025400,4.577025390625,-0.000976151555776596,-0.013047478425875305,0.07637887253714724
1746409988140999400,4.58699951171875,-0.006930091524124145,-0.06339004722964019,0.11113976826230064
1746409988150972400,4.596972412109375,0.06929623906612396,-0.08794369292352348,0.14841876602191478
1746409988160945400,4.6069453125,0.03810030581355095,-0.10031544577861204,0.2261538389409892
1746409988170918400,4.61691845703125,0.0010240823507308959,-0.05986945362174883,0.1792061367399059
1746409988180891400,4.626891357421875,-0.023565584504604338,-0.07033918138095177,0.05943394828131422
1746409988190864400,4.636864501953125,-0.01856441521644592,-0.17481500737518071,-0.09712563676135615
1746409988200837400,4.64683740234375,-0.04809504560530185,-0.23467565663596615,-0.10769129917570389
1746409988210810400,4.656810302734375,-0.09537468317449092,-0.21100809132792053,-0.03515978624909185
1746409988220783400,4.666783447265625,-0.165192900288105,-0.22214590020757166,0.027775521216681226
1746409988230756400,4.67675634765625,-0.10971768130362033,-0.20549802266955375,0.061518271141545844
1746409988240729300,4.686729248046875,-0.01904606125354767,-0.14454828126411884,0.15565381357567384
1746409988250702300,4.696702392578125,-0.021284780091047287,-0.15222888976144602,0.13585637683239765
1746409988260675300,4.70667529296875,-0.0167921448469162,-0.14300822134842164,0.052287318796524776
1746409988270648600,4.716648681640625,-0.02967617633938789,-0.1391648985921871,-0.04037467135316692
1746409988280621300,4.726621337890625,-0.0657610506772995,-0.18159295881120488,-0.0509687287449371
1746409988290594300,4.73659423828125,-0.06861819367408752,-0.1798207432406023,0.019338650991953907
1746409988300567300,4.7465673828125,-0.041837738776206966,-0.13914193784170784,0.06427594495238736
1746409988310540500,4.75654052734375,-0.03299859876036644,-0.13990901322406715,0.04837094907038845
1746409988320513500,4.766513427734375,0.001737199056148529,-0.1255305145232938,0.07627446231460198
1746409988330486300,4.776486328125,-0.0010755202770233153,-0.11526681246389635,0.11791963766077533
1746409988340459300,4.786459228515625,-0.027384850531816482,-0.12336307995687239,0.05215012968238443
1746409988350432500,4.7964326171875,-0.11097966406345366,-0.29784554004259406,0.06273235050588846
1746409988360405500,4.806405517578125,-0.0954804816365242,0.015959114389144814,0.11665594700104556
1746409988370378200,4.816378173828125,-0.043747956311702724,-0.24400851671919224,0.007769455824559554
1746409988380351200,4.826351318359375,-0.12336159125268459,-0.17532562377844005,0.02539473616052419
1746409988390324500,4.836324462890625,-0.10625029745399951,-0.25007976292427625,0.10335094101699069
1746409988400297500,4.84629736328125,-0.02972761426568031,0.0014587976732989773,0.2668480702378787
1746409988410270500,4.8562705078125,-0.1603565661728382,-0.24092890834445133,0.10210265798894688
1746409988420243200,4.8662431640625,-0.18286884223222732,-0.2344409162983298,-0.089329119399935
1746409988430216200,4.87621630859375,0.02138648689985275,-0.19444708835575727,-0.0702071798985824
1746409988440189400,4.886189453125,0.04348725954890251,-0.12371323596825823,-0.005251691716816276
1746409988450163500,4.89616357421875,0.10764204407334327,-0.08660266271126456,0.06003814298585057
1746409988460136400,4.906136474609375,0.08712181861400604,-0.0008390537731815129,0.21654407987883315
1746409988470109400,4.916109375,0.10310264707803726,0.00857997762300074,0.19153852569898588
1746409988480082200,4.926082275390625,0.12415011128187178,-0.037753611267730594,0.13088166629290207
1746409988490055400,4.936055419921875,0.07964461460113526,-0.1022644426882267,0.10020882533267139
1746409988500028400,4.9460283203125,0.004755670094490051,-0.11660023475843481,0.04738859610268846
1746409988510001400,4.95600146484375,-0.029887773263454435,-0.1118519625191111,0.021357973191421478
1746409988519974400,4.965974365234375,-0.05196867216825485,-0.18952830012142657,0.003873343435162678
1746409988529947400,4.975947509765625,-0.04098082968592644,-0.1696060040226206,0.003904505758406594
1746409988539920400,4.98592041015625,-0.04868365914821624,-0.17372695641014724,0.05009645768874325
1746409988549893400,4.995893310546875,-0.04273790248632431,-0.13945190797317772,0.09588316241959109
1746409988559866400,5.005866455078125,-0.041241526448726654,-0.1314301578879822,0.14357650448936038
1746409988569839400,5.01583935546875,-0.049583822858333584,-0.1411020680666901,0.12647277294262313
1746409988579812400,5.025812255859375,-0.04819382980465889,-0.16614972608890383,0.06406059430181048
1746409988589785300,5.035785400390625,-0.058626376491785044,-0.20278372220955787,0.029742227312922476
1746409988599758300,5.04575830078125,-0.01146247425675392,-0.14732266874774358,0.0568853232444264
1746409988609731300,5.0557314453125,0.021171382844448087,-0.21576054655201732,0.012798490367177872
1746409988619704600,5.06570458984375,0.002484218031167984,-0.1601945440115407,0.03559140086569823
1746409988629677300,5.07567724609375,-0.01273907006382942,-0.10308816189495847,0.09706065436690114
1746409988639650300,5.085650390625,-0.019382161340117453,-0.1175316064575687,0.18200517460759727
1746409988649623300,5.095623291015625,-0.028992285728454588,-0.1513529837097507,0.17283137754360212
1746409988659596500,5.105596435546875,0.027086744368076322,-0.15821290520764886,0.09721002710917964
1746409988669569500,5.115569580078125,0.017447978407144547,-0.1825818054517731,0.05614128167778253
1746409988679542300,5.125542236328125,0.004179331511259079,-0.12969925157530232,-0.011514898563735186
1746409988689515300,5.135515380859375,-0.026623803031444546,-0.08105728527749888,-0.0077464676746167235
1746409988699488500,5.145488525390625,-0.0203168118417263,-0.10011904642367735,0.05130332186101004
1746409988709461500,5.15546142578125,-0.02596446233987808,-0.07876591380415483,0.10359254948683082
1746409988719434200,5.165434326171875,-0.033791794964671135,-0.039392829842120405,0.24227139072827994
1746409988729407200,5.1754072265625,-0.14119593862891197,-0.053464472817117345,0.2954626634940505
1746409988739380500,5.18538037109375,-0.1448445242643356,-0.035723758541094136,0.16505398500775917
1746409988749353500,5.195353515625,-0.043751463443040844,-0.18285203722789883,-0.029555399503931403
1746409988759327500,5.205327392578125,-0.12715338475108146,-0.21415807979144155,-0.0771974223784171
1746409988769300500,5.215300537109375,-0.16410218244194982,-0.18135491227163,-0.05175614366242662
1746409988779273200,5.225273193359375,-0.1211211188495159,-0.20453460273118687,0.10614040733873843
1746409988789246200,5.23524609375,-0.11868775422275066,-0.1715189980370924,0.17684925314914435
1746409988799219500,5.245219482421875,0.053743865147233005,-0.21919654888268558,0.08353058918900787
1746409988809192400,5.2551923828125,-0.021066168904304503,-0.2440849246899597,-0.013571666696760803
1746409988819165400,5.26516552734375,-0.28343817144036293,-0.21540555910188702,-0.01708864357545972
1746409988829138200,5.27513818359375,-0.07057751104831696,-0.12775988101055843,0.011509674399346113
1746409988839111400,5.285111328125,0.27099370040893556,0.05121989049441181,0.11210906995218246
1746409988849084400,5.29508447265625,0.44669279714226723,0.2507448757695034,0.27371600151229647
1746409988859057400,5.305057373046875,0.08692191212773323,-0.06471515835355966,0.18566935967095194
1746409988869030400,5.315030517578125,-0.054795420026779174,-0.17464069198789073,0.11566847946681082
1746409988879003400,5.32500341796875,0.06699205377697945,-0.20414730218034235,0.028598683300986884
1746409988888976400,5.334976318359375,0.011404022067785262,-0.23610402720496057,-0.05164963281434029
1746409988898949400,5.344949462890625,-0.030651158851385116,-0.19339900407493113,-0.08322042726129293
1746409988908922400,5.35492236328125,0.1294037940263748,0.03558877965034917,-0.005514196844212711
1746409988918895400,5.364895263671875,0.05925999822020531,-0.03925073622399941,0.1398655302753672
1746409988928868400,5.374868408203125,0.04557517173886299,-0.11168306309245526,0.22408914322983473
1746409988938841300,5.38484130859375,0.003679565295577049,-0.18422078656414523,0.2357511586466804
1746409988948814300,5.394814453125,0.05016951379179954,-0.19886680449414998,0.1950148417737335
1746409988958787300,5.404787353515625,0.031843583506345745,-0.12671957817738874,0.10198785423655063
1746409988968760600,5.414760498046875,0.07525836234092712,-0.10627853716779499,0.0028799393504858016
1746409988978733600,5.424733642578125,0.15359832408428192,-0.049741917763184755,0.04746661150865256
1746409988988706600,5.43470654296875,0.22055998272299765,0.04234040020187385,0.17708656903635708
1746409988998679300,5.44467919921875,0.17980477848649024,0.09034035140224732,0.3065065470125526
1746409989008652500,5.454652587890625,0.0988134254515171,0.0904883633045014,0.41671500750780105
1746409989018625500,5.46462548828125,0.03915419878065586,0.1318776550603099,0.4686465260034427
1746409989028598500,5.4745986328125,-0.03224456552267074,0.07417842161711305,0.32140199139267206
1746409989038571500,5.484571533203125,-0.09173895702064037,-0.015078317533200606,0.002829688734281808
1746409989048544500,5.49454443359375,-0.11551613844931125,-0.1253034643017687,-0.3123921344524249
1746409989058517500,5.504517578125,-0.11075403861403464,-0.28155652241222556,-0.5524770845197141
1746409989068491500,5.514491455078125,-0.11079495514631271,-0.3841403332479298,-0.5852226583670824
1746409989078464500,5.524464599609375,-0.14120587550103664,-0.4967945063948631,-0.4308996002048254
1746409989088437500,5.5344375,-0.32856326132416724,-0.2631288487853482,0.1304221224897541
1746409989098410500,5.544410400390625,0.26410335637331006,0.3442047748312354,0.5266196627508849
1746409989108383500,5.554383544921875,-0.02018354085087776,-0.16178785935128107,0.31576551987566054
1746409989118356500,5.5643564453125,-0.10219546910524367,-0.08208784303478896,0.41640922949425874
1746409989128329500,5.57432958984375,0.13793781361579893,-0.2316930788949132,0.18883706645425408
1746409989138302500,5.584302490234375,0.0191448454529047,-0.4093636583643034,-0.059063918525679035
1746409989148275700,5.594275634765625,0.02105798559784889,-0.4097363276015967,-0.5505773518456146
1746409989158248400,5.60424853515625,0.16004560052752495,-0.3575616114672273,-0.829281517034024
1746409989168221400,5.614221435546875,0.2981780599325895,-0.2702111717291176,-0.6973468893557786
1746409989178194400,5.6241943359375,0.47664019163846966,-0.08054055879386142,-0.34846345518901944
1746409989188167700,5.634167724609375,0.6499105999201535,0.11850938371485098,-0.08080867167813703
1746409989198140400,5.644140380859375,0.9100497288376093,0.16548833957072345,0.20209639753252268
1746409989208113400,5.654113525390625,1.5327835680186748,0.39089557966180144,0.627510113672167
1746409989218086400,5.66408642578125,2.925957005295157,1.0549585505098105,0.9058872753959148
1746409989228059600,5.6740595703125,4.806956045091152,1.7634307911224663,0.896831423889473
1746409989238032600,5.68403271484375,6.4202165868818755,2.752192383755743,1.1323843200176953
1746409989248005400,5.69400537109375,7.603669999879598,4.310291302555799,2.3036033976033328
1746409989257978400,5.703978271484375,7.72118111153841,6.244125860482454,3.492053595975041
1746409989267951600,5.71395166015625,5.8362301192462445,6.63168257804513,3.8511332838550207
1746409989277924600,5.723924560546875,4.542191009938716,4.587773488201201,3.9882583197832107
1746409989287897600,5.733897705078125,4.902725865063071,2.5985005361691114,4.199723726424574
1746409989297870300,5.743870361328125,6.212374046912789,3.367277461749315,6.249393571752309
1746409989307843300,5.75384326171875,8.067515591874718,5.030708101853728,7.970109695133567
1746409989317816600,5.763816650390625,8.853521007892489,4.195720043741166,6.131289754897356
1746409989327789600,5.77378955078125,7.5638184664845465,1.5021195496857165,2.2583735321708023
1746409989337762600,5.783762451171875,5.370737344565987,0.14644786780774594,-0.8511031804807484
1746409989347735300,5.7937353515625,3.0715058784365654,0.523887680503726,-2.789801398921013
1746409989357708500,5.80370849609375,0.665182403331995,1.6474565336421132,-3.7932644477322697
1746409989367681500,5.813681640625,-1.6367524765372274,2.8789763506725428,-4.2311096292912955
1746409989377655600,5.823655517578125,-3.6026948218643664,3.559629002597928,-4.39190166427195
1746409989387628500,5.833628662109375,-5.036432324719429,3.3537595162674783,-4.566213690561056
1746409989397601500,5.8436015625,-5.854876367527246,2.493546416005492,-4.643204868043959
1746409989407574500,5.853574462890625,-6.1898617708534,1.6727224923238158,-4.357868169505894
1746409989417547500,5.863547607421875,-5.942386308676004,1.5167764360696077,-3.572566225582361
1746409989427520500,5.8735205078125,-5.416717005452513,1.7033984933555124,-2.7028198655605316
1746409989437493500,5.883493408203125,-4.770130581519007,1.9080758472919463,-1.9869874714434146
1746409989447466500,5.893466552734375,-3.934608562660217,2.1554028409093617,-1.5073035281948743
1746409989457439500,5.903439453125,-3.1021640515506266,2.094724500323832,-1.3884996002465486
1746409989467412500,5.91341259765625,-2.38523100271523,1.5419395188987255,-1.20345107588768
1746409989477385500,5.923385498046875,-1.6274106476962567,0.8427037470564246,-0.8148331588342785
1746409989487358500,5.9333583984375,-0.8708008375108242,0.18796032015234232,-0.4725858016811311
1746409989497331500,5.94333154296875,-0.2523053665518761,0.0537552633240819,-0.07880816377699375
1746409989507304400,5.953304443359375,0.1776069761812687,1.2131968093544243,-0.09099895230829715
1746409989517277400,5.96327734375,0.5684849471211433,3.306846373923123,-0.5221400331187993
1746409989527250400,5.97325048828125,0.9914005628347397,5.3195940173059695,-0.9836627351243048
1746409989537223700,5.9832236328125,2.0889549770116806,6.584401186910271,-0.7298671300146728
1746409989547196400,5.993196533203125,4.750815055674314,7.52807846006155,0.02342577417511493
1746409989557169400,6.00316943359375,5.6999137693524355,6.941788976180553,-0.17977220965744928
1746409989567142400,6.013142333984375,2.8396722220271826,5.155968220204115,-1.8192358265832065
1746409989577115600,6.02311572265625,-0.13162030103206634,3.76747066578418,-2.8060940698131915
1746409989587088600,6.033088623046875,-1.1326876868784428,2.82606279886961,-2.6928601970821617
1746409989597061400,6.043061279296875,-0.8052870395928621,2.4578482028976083,-2.1983364120982585
1746409989607034400,6.053034423828125,0.2004816558122635,3.0921289797484874,-1.220752631561458
1746409989617007600,6.063007568359375,0.8986533055543899,4.318200175984203,-0.2027428056772798
1746409989626980600,6.072980712890625,0.6130547412097453,4.905193131959438,0.21910919939279555
1746409989636953600,6.08295361328125,-0.45935704840421676,4.342332162199914,0.20272534308582543
1746409989646926300,6.09292626953125,-1.64271576885581,3.4213121265366673,0.07470701206848025
1746409989656899300,6.1028994140625,-2.3480822985380887,2.7321140568450093,0.14029329070076346
1746409989666872600,6.11287255859375,-2.6310405775070187,2.2366972685441375,0.3750118548966944
1746409989676846600,6.1228466796875,-2.675428000766039,1.9894994542643427,0.7342123926773667
1746409989686819600,6.132819580078125,-2.740604529553652,1.9067068970263004,1.1318269783958792
1746409989696792600,6.14279248046875,-3.0351205598473547,1.7727194284714758,1.5140852972894907
1746409989706765300,6.152765380859375,-3.6183097396254538,1.734443473830074,1.796347995209694
1746409989716738600,6.162738525390625,-4.313164812165499,1.707098663047701,1.8528961041226981
1746409989726711600,6.172711669921875,-5.006460964825749,1.4461995095431803,1.8082079443514345
1746409989736684500,6.1826845703125,-5.522957950556278,0.9235530612722038,1.877727178518474
1746409989746657500,6.192657470703125,-5.77743423140645,0.28358693226128817,1.8841794233977793
1746409989756630500,6.202630615234375,-5.822080597862601,-0.33600290980562564,1.8279928412735462
1746409989766603500,6.212603515625,-5.705972923260926,-0.7001124085463583,1.861895110875368
1746409989776576500,6.222576416015625,-5.562767398375272,-0.8775545495547353,1.9303300569370387
1746409989786549500,6.232549560546875,-5.545999218925833,-1.0649253793813287,1.948858816318214
1746409989796522500,6.2425224609375,-5.6645367510229345,-1.3606599916845559,2.036099877397716
1746409989806495500,6.25249560546875,-5.762608418196439,-1.686062158629298,2.292422662897408
1746409989816468500,6.262468505859375,-5.675523424461484,-2.0128962580733,2.50451672283113
1746409989826441500,6.27244140625,-5.35741550617814,-2.403498480811715,2.354186314501613
1746409989836414500,6.28241455078125,-4.921911042526364,-2.746583019441366,1.8027587390348314
1746409989846387500,6.292387451171875,-4.476616421744227,-2.935614183695614,0.9725897716417908
1746409989856360400,6.3023603515625,-4.355914989611506,-2.98057823779881,0.1424437467329204
1746409989866333400,6.31233349609375,-4.683018699777126,-2.938095479117334,-0.5027124982669949
1746409989876306400,6.322306396484375,-5.457505527436733,-2.8834365449517962,-0.9219017869338393
1746409989886279700,6.33227978515625,-6.455936719560623,-2.8982161809325215,-0.9645080989297479
1746409989896252400,6.34225244140625,-7.321475106498599,-3.0476676144704222,-0.7039435111418366
1746409989906225400,6.352225341796875,-8.02144416105151,-3.319522315622866,-0.33102826319821177
1746409989916198400,6.362198486328125,-8.461431323075294,-3.674876845499873,0.16653996751550584
1746409989926171600,6.372171630859375,-8.629125392529367,-3.976666373927891,0.7621909713186323
1746409989936144600,6.38214453125,-8.629055249902606,-4.168873830130696,1.3456234583333133
1746409989946117400,6.392117431640625,-8.553964645344019,-4.284242669063806,1.9221539108745753
1746409989956090400,6.40209033203125,-8.443456105923651,-4.245733490188419,2.40878124352023
1746409989966063600,6.412063720703125,-8.248337438449264,-4.158824145281314,2.8141595951080323
1746409989976036900,6.422036865234375,-8.029009043347836,-3.9042864896327254,2.9916493746504185
1746409989986009900,6.432009765625,-7.744533345553278,-3.4357062703311443,3.052376230552792
1746409989995982600,6.441982666015625,-7.271580317994951,-2.633779939343035,3.356111632351577
1746409990005955600,6.45195556640625,-6.428765804040432,-1.614481608018279,4.046947824639082
1746409990015928800,6.4619287109375,-5.487797205325961,-0.6190913910254836,4.670471060632169
1746409990025901800,6.47190185546875,-4.690798686128854,0.35627789179962127,4.948246676266193
1746409990035874800,6.481874755859375,-4.215499387705326,1.1021816355861722,5.340980504205823
1746409990045847600,6.49184765625,-4.11642292740345,1.4719976754054427,6.09506342626214
1746409990055820800,6.50182080078125,-4.157561577999592,1.4116190484188496,7.243969257491827
1746409990065793800,6.511793701171875,-4.037284508758783,1.0418255126923321,8.144919734072685
1746409990075766800,6.521766845703125,-3.379706735211611,0.6296889190159738,8.973003711885214
1746409990085739800,6.53173974609375,-2.2803496555268765,0.9264924757249653,9.610193361920118
1746409990095712800,6.541712646484375,-0.9489093285858631,1.3420892928577959,10.056591560029982
1746409990105685800,6.551685791015625,0.20220891799628735,1.3007945749171077,9.983723892217874
1746409990115658800,6.56165869140625,0.7931079414993524,0.9965101609334349,9.357614439123868
1746409990125631700,6.5716318359375,0.9073334556162357,0.6944514601752162,8.433883975458144
1746409990135604700,6.581604736328125,0.6388333255887031,0.6870324160903691,7.412752291226386
1746409990145577700,6.59157763671875,0.21278233445882797,0.6241697172030806,6.765269210714101
1746409990155550700,6.60155078125,0.004324877461791038,0.3243126181423664,6.56122197137475
1746409990165523700,6.611523681640625,0.1456815596103668,0.060896074989438054,6.349273165130615
1746409990175496700,6.62149658203125,0.36092297765910625,-0.0891866421893239,5.922339545947313
1746409990185470000,6.631469970703125,0.4770855973184108,-0.20397505088597534,5.547215608978271
1746409990195442700,6.641442626953125,0.3768237266242504,-0.1858931584894657,5.193749377065897
1746409990205415700,6.651415771484375,0.22924363991618155,-0.11545856304317711,4.7688344042286275
1746409990215388700,6.661388671875,0.24938860232234,-0.17544629101604223,4.28018842523694
1746409990225362000,6.67136181640625,0.44734044739603995,-0.27431173891574145,3.6224072380721566
1746409990235334700,6.681334716796875,0.9122773417592048,-0.2850719101220369,2.873518962049484
1746409990245307600,6.6913076171875,1.6505898632317781,-0.16534283015280962,2.075063229781389
1746409990255280600,6.70128076171875,2.3892186110466715,-0.036492578355967996,1.5189181242734193
1746409990265254700,6.711254638671875,2.9993969200372694,0.2826590037614107,1.3111544947594402
1746409990275228000,6.721227783203125,3.411596495947242,0.9122878631532192,1.3037526940703392
1746409990285201000,6.731200927734375,3.5915976737886663,1.9533684026971458,1.4827490787833928
1746409990295173600,6.741173583984375,3.691410631671548,3.2171637649103997,1.7508710231482982
1746409990305146600,6.751146728515625,4.007517731526494,4.720594981716573,2.0033938318431375
1746409990315119600,6.76111962890625,4.365212394788861,6.3727165845602745,2.124450653284788
1746409990325092900,6.7710927734375,4.363593269154429,7.5323571602940556,2.076568373647332
1746409990335065900,6.78106591796875,3.903533625438809,8.023240396818519,1.9903800364911555
1746409990345038600,6.79103857421875,3.2781028022587297,8.60605139093399,1.8248703253388403
1746409990355011600,6.801011474609375,2.7001246351271866,9.658240476730466,1.368031981757283
1746409990364984800,6.81098486328125,2.2460013957232237,10.898577806466816,0.5144798006892204
1746409990374957800,6.820957763671875,1.7940882335841655,11.769750399899483,-0.6685796445548534
1746409990384930800,6.830930908203125,1.19069447016716,11.768142964702843,-1.9724667786598205
1746409990394903600,6.840903564453125,0.441473016667366,11.150456472039222,-3.0631629975050685
1746409990404876800,6.850876708984375,-0.2203916404187679,10.32707789543867,-3.6491385931313034
1746409990414849800,6.860849853515625,-0.7562304554790258,9.475055408155917,-3.901609379377961
1746409990424822800,6.87082275390625,-1.0917343297213316,8.673553732320666,-4.018829399135709
1746409990434795800,6.880795654296875,-1.179620118445158,8.050896465507149,-4.173943388479948
1746409990444768800,6.890768798828125,-1.0652321072429418,7.43312989334464,-4.216887627193332
1746409990454741800,6.90074169921875,-0.8380483224660158,6.817564046096801,-4.08833489703834
1746409990464714800,6.91071484375,-0.44660804146826266,6.339861778184771,-3.8317619361698627
1746409990474687700,6.920687744140625,0.13765022884607314,5.971943827071786,-3.2936744653999805
1746409990484660700,6.93066064453125,0.9837135154634713,5.69373186584711,-2.5357114870399236
1746409990494633700,6.9406337890625,1.9152409166157245,5.620949538230896,-1.9577900185316799
1746409990504606700,6.950606689453125,2.4979040266931056,5.42203790821433,-1.6616911029607058
1746409990514579700,6.960579833984375,2.7522476210743188,5.14866695728004,-1.6329790954783558
1746409990524552700,6.970552734375,2.9455799896538255,4.916394909453392,-1.6992431272417305
1746409990534526700,6.980526611328125,3.355048679295182,4.550233446618915,-1.5500640809044242
1746409990544499700,6.990499755859375,3.9340684644341466,4.233574558100104,-1.2392653165906666
1746409990554472700,7.00047265625,4.467391497281193,3.808239606285095,-0.6603542525231838
1746409990564445700,7.01044580078125,4.7412844262629745,3.389982630032301,-0.010717208847403526
1746409990574418700,7.020418701171875,4.541884135946631,3.152182174172997,0.6427282872006297
1746409990584392000,7.030391845703125,3.4931706173062325,3.3072219292372464,1.432619020219147
1746409990594364700,7.04036474609375,1.8854414061576128,3.2053374257773157,2.038264946477115
1746409990604337700,7.050337646484375,0.5230810402959585,2.5477964771091934,2.5204087039679286
1746409990614310700,7.060310546875,-0.25956103676855563,1.7130518723636865,3.1819752548903226
1746409990624284000,7.070283935546875,-0.5069453135311603,0.8030652718901634,4.181821282248198
1746409990634257000,7.0802568359375,-0.3740174370318651,-0.006958148574829101,5.153935253071785
1746409990644229600,7.090229736328125,-0.21724749717414377,-0.7240297290980815,5.8026078356295825
1746409990654202600,7.10020263671875,-0.2339870350509882,-1.3752747924923896,5.888249060297012
1746409990664175900,7.11017578125,-0.6420400126755237,-2.048451117187738,5.4178094768643374
1746409990674148900,7.12014892578125,-1.4498627082258462,-2.5967291425824164,4.64251220960468
1746409990684121900,7.130121826171875,-2.5325299343943595,-2.776290759962797,3.7922681301712986
1746409990694094600,7.140094482421875,-3.6807816856294866,-2.6747423565894364,3.0455542755782603
1746409990704067600,7.150067626953125,-4.790469020670652,-2.497770755702257,2.282722522138059
1746409990714040800,7.160040771484375,-5.883147353243827,-2.343712412890792,1.4142419442683458
1746409990724013800,7.170013916015625,-6.885576090571284,-2.2781118134722114,0.4597112686693668
1746409990733986800,7.17998681640625,-7.705027849116921,-2.2972692261457444,-0.43411154798865315
1746409990743959600,7.18995947265625,-8.364207797163724,-2.34012549431473,-1.2161954066485166
1746409990753932800,7.199932861328125,-8.903478924760222,-2.3446210521683097,-1.8643617932498453
1746409990763905800,7.20990576171875,-9.371874435144662,-2.3286063214346764,-2.389557341481745
1746409990773878800,7.219878662109375,-9.700041975149512,-2.1717016492813825,-2.8402999985367057
1746409990783851800,7.229851806640625,-9.917788654017448,-1.8753899677425623,-3.1570623474299904
1746409990793824800,7.23982470703125,-10.116422051614522,-1.529506153783202,-3.371108418214321
1746409990803798800,7.249798828125,-10.232754767143726,-1.2948770214363932,-3.459807276886701
1746409990813771800,7.259771728515625,-10.25040966629982,-1.2143525552608072,-3.397973628786206
1746409990823744800,7.269744873046875,-10.244821637034416,-1.1638773365207016,-3.3408681782513856
1746409990833717800,7.2797177734375,-10.204089813673496,-0.9320809433817863,-3.208707194471359
1746409990843690800,7.289690673828125,-10.083333436483144,-0.4549447849199176,-2.9335324089854953
1746409990853663700,7.299663818359375,-9.875321969687938,0.11929171146526932,-2.533904145357013
1746409990863636700,7.30963671875,-9.214779501116276,0.6464550526387989,-2.129237887561321
1746409990873609700,7.319609619140625,-7.881648152348399,1.1353669890902935,-1.7723586323350666
1746409990883582700,7.329582763671875,-5.941526476976275,1.7083482247173785,-1.4239590361624956
1746409990893555700,7.3395556640625,-4.12358448959589,2.0818834311902523,-0.725403355538845
1746409990903528700,7.34952880859375,-2.8852263509780167,2.278108306340873,0.5571434688955546
1746409990913501700,7.359501708984375,-2.4552988106757403,2.120534064362943,1.7688152606397867
1746409990923474700,7.369474609375,-2.5740216362118717,1.4639309810668228,2.630744224908948
1746409990933448000,7.379447998046875,-3.229697960051894,0.7367354814141989,3.59683206731081
1746409990943420700,7.389420654296875,-3.9007951403856276,0.37389761004447936,4.812151275646686
1746409990953393700,7.3993935546875,-3.8741368505626914,0.3317825156316161,5.812878469753265
1746409990963366700,7.40936669921875,-2.9266596006065604,0.23022943608313798,6.16339637325406
1746409990973340200,7.419340087890625,-1.6849188338130712,-0.12445347814261913,6.010394846019149
1746409990983313400,7.4293134765625,-0.4528144948929548,-0.42205256914347405,5.966307867011428
1746409990993286400,7.439286376953125,0.946913770854473,-0.14443214407116173,6.063962770077586
1746409991003259400,7.44925927734375,2.019270030888915,0.33992899720817804,6.052941025325656
1746409991013232400,7.459232421875,2.5137545067757365,0.5286354595527053,5.710871216696501
1746409991023205400,7.469205322265625,2.6554204010039566,0.4736106146842241,5.097167071667314
1746409991033178400,7.479178466796875,2.5230928284853698,0.3011307722583413,4.457022078958153
1746409991043151400,7.4891513671875,2.448967269566655,0.09715455232858657,3.448296871834993
1746409991053124400,7.499124267578125,2.4429724130660295,-0.11036182442605495,2.0437807872891427
1746409991063097600,7.50909765625,2.206031204384565,-0.07256137834191322,0.6634370209693908
1746409991073070300,7.5190703125,1.6754174304962157,-0.0005891980648040771,-0.25607845534980295
1746409991083044400,7.52904443359375,0.8281412609577179,-0.07025543948709964,-0.55123979780972
1746409991093017300,7.539017333984375,-0.1311468383014202,-0.00944470469355583,-0.21433716268539427
1746409991102990300,7.548990234375,-0.9286123904883861,0.16246902828216553,0.5285685317963361
1746409991112963300,7.55896337890625,-1.420582837727666,0.46345630041658875,1.3831371964305639
1746409991122936600,7.5689365234375,-1.2647305972367524,1.0136170708179473,2.013539378282428
1746409991132909300,7.578909423828125,-0.7720984712183475,1.3173194471299647,2.3321838876605034
1746409991142882300,7.58888232421875,0.10936755269169807,1.619810109564662,2.4714514885753394
1746409991152855300,7.598855224609375,1.3286428051769732,2.0340268705159423,2.550630239230394
1746409991162828500,7.60882861328125,2.612007375735044,2.1655115624696015,2.6379361822396517
1746409991172801300,7.61880126953125,3.774733058002591,2.0920441751986742,2.7516686521425844
1746409991182774300,7.628774169921875,4.726747659127414,1.8557804273873566,2.758570102094114
1746409991192747300,7.638747314453125,5.341083964580297,1.4607038357138633,2.5808357001408933
1746409991202720500,7.648720458984375,5.491653880754113,1.077072767162323,2.07039874510169
1746409991212693500,7.658693603515625,5.049938287502527,0.6218091255515813,1.3647168658599256
1746409991222666200,7.668666259765625,4.177568300978839,0.06459902116060257,0.6189794550836086
1746409991232639200,7.67863916015625,3.0979657230779525,-1.0588958899587393,-0.014684943434596061
1746409991242612500,7.688612548828125,1.89436121019423,-2.7960288951337335,-0.49467561454474923
1746409991252585500,7.69858544921875,1.0771078384757042,-4.361490743917226,-0.540299593861401
1746409991262558500,7.708558349609375,0.39614509768784045,-5.210583022966981,-0.32173312304317947
1746409991272531200,7.71853125,-0.2006587659448385,-5.418211627924442,0.10777005436718463
1746409991282504400,7.72850439453125,-0.7206891864985228,-4.414858176967502,0.8984235884517431
1746409991292477400,7.7384775390625,-0.9584276830375194,-2.136780558025837,1.9155238252103328
1746409991302450400,7.748450439453125,-1.3083178100287913,0.12499649897813796,2.0062349004879594
1746409991312423400,7.75842333984375,-1.8525445142060517,1.161652500078082,0.9880407310128212
1746409991322396200,7.768396240234375,-2.546391871008277,1.5255220525830984,-0.13348697168678045
1746409991332369400,7.778369384765625,-3.081855423015356,1.5965022992134092,-1.1239891243770719
1746409991342342400,7.78834228515625,-3.588062485399842,1.33036480666399,-1.827918606993556
1746409991352316400,7.79831640625,-3.88089100099802,1.779870323139429,-1.8133517369806766
1746409991362289400,7.808289306640625,-3.8112189143568274,3.0849171486735343,-1.0432663591504097
1746409991372262400,7.818262451171875,-3.451318265482783,4.811285014206171,-0.21698446232378482
1746409991382235400,7.8282353515625,-2.8703976151585575,6.335524041241407,-0.10984919872879981
1746409991392208400,7.83820849609375,-2.3439053051143883,7.524856575405598,-0.504236054572463
1746409991402181400,7.848181396484375,-2.118624723610282,7.976810069555044,-1.261723232114315
1746409991412154400,7.858154296875,-2.4376415734320878,7.469186126109958,-1.951256817370653
1746409991422127400,7.86812744140625,-3.0205460910499093,6.620325902250409,-2.059984903115034
1746409991432100400,7.878100341796875,-3.2963661887019873,6.216562146252393,-1.5587474458366632
1746409991442073300,7.8880732421875,-2.9557559312313795,6.449867044258117,-0.870642432078719
1746409991452046300,7.89804638671875,-1.9547031584322452,7.345674897253513,-0.3950631476700306
1746409991462019300,7.908019287109375,-1.0801870997905731,8.735518313324452,-0.14813596702516077
1746409991471992600,7.91799267578125,-0.6069850659072399,9.412803242382406,-0.5495452688515186
1746409991481965300,7.92796533203125,-0.40261750857233997,9.009902825215459,-1.3944921186596155
1746409991491938300,7.937938232421875,-0.22767595220804213,8.082678674215078,-2.2676918340057135
1746409991501911300,7.947911376953125,0.4407943867534399,7.3672589525520795,-2.9650474911898375
1746409991511884500,7.957884521484375,1.2986463108420372,7.072623679792881,-3.498025656121969
1746409991521857300,7.967857177734375,2.1424977666288614,7.26602619099915,-3.848777368378639
1746409991531830300,7.977830322265625,2.586002581384778,7.409606394416094,-3.9599253747463226
1746409991541803300,7.98780322265625,2.717007965388894,7.14384825657308,-3.6971091355741024
1746409991551776500,7.997776611328125,3.0421073499947786,5.6948149849086995,-3.313585619050264
1746409991561749500,8.00774951171875,3.9131957722753286,3.867112651014328,-3.080238050946593
1746409991571722200,8.01772216796875,5.396762012660503,2.6266777061223983,-3.1913433872163295
1746409991581695200,8.0276953125,7.070789450103044,1.8980343457490205,-3.333112741819024
1746409991591668500,8.03766845703125,8.256480997416377,1.3639356523543595,-3.444939962622523
1746409991601641500,8.047641357421876,8.6287495449543,1.1499018565297126,-3.3251632441192864
1746409991611614500,8.057614501953125,8.008796860924363,0.6356377444177865,-3.122348176923394
1746409991621588500,8.06758837890625,6.355530471959709,-0.19104513442516327,-2.9685438088729974
1746409991631561200,8.077561279296875,4.440218828195333,-1.0053735586076975,-2.9891482054844496
1746409991641534200,8.0875341796875,2.83279532199502,-2.0035037219583987,-3.082666447137296
1746409991651507500,8.097507568359376,1.8758856423050163,-3.112127227160334,-2.9956816989064214
1746409991661480400,8.10748046875,1.8457827649861573,-3.664349021744728,-2.4681802118197083
1746409991671453400,8.117453369140625,2.333083759109676,-3.611308336430788,-1.4015434984758495
1746409991681426200,8.12742626953125,2.7199925341576336,-3.4361288796573874,-0.2387716389790177
1746409991691399400,8.1373994140625,2.7464626079320906,-3.3353006072521207,0.8670604819387197
1746409991701372400,8.147372314453126,2.1128730282157657,-3.358213865327835,1.4788652230873702
1746409991711345400,8.157345458984375,1.0245713032916188,-3.6455993130892512,1.4335095393180846
1746409991721318400,8.167318359375,0.1063812303572893,-3.946646790978312,1.4353782557994126
1746409991731291400,8.17729150390625,-0.252249544711411,-4.3729234075576064,1.9437600318744777
1746409991741264400,8.187264404296876,-0.1435354874923825,-5.249427425146102,2.9881282147869466
1746409991751237400,8.1972373046875,0.605114303599298,-5.9008653807640075,4.630957965411246
1746409991761210400,8.20721044921875,1.728015632739663,-5.875097317779064,6.5587728246569625
1746409991771183600,8.21718359375,2.5868629976063966,-5.767960885140299,8.27316617475748
1746409991781156400,8.22715625,2.936108981475234,-5.7431415011823175,9.367003029716015
1746409991791129300,8.23712939453125,2.699741481028497,-5.813623735162615,9.863037657654285
1746409991801102300,8.247102294921875,1.9632816016852854,-5.842078845274448,9.796083597800134
1746409991811075300,8.257075439453125,0.9718301854461431,-5.807511389762163,9.340835738280415
1746409991821048300,8.26704833984375,0.013057049971818923,-5.71633708088696,9.481016362386942
1746409991831021300,8.277021240234374,-0.7357368257656693,-5.185539767125249,10.009773694753646
1746409991840994300,8.286994384765626,-1.0585454690858722,-4.105994472369551,10.185988339793681
1746409991850967300,8.29696728515625,-1.104627713564038,-2.8519290615320205,9.733832016548513
1746409991860940500,8.3069404296875,-1.1753823347449301,-1.7386603608727453,8.880237749904394
1746409991870913300,8.316913330078124,-1.2520628388434647,-0.7365215464025735,8.036785522568225
1746409991880886300,8.32688623046875,-1.343369249665737,0.10452888048887252,7.277166009172797
1746409991890860300,8.3368603515625,-1.4948130260646342,0.7322942840963602,6.622758682355284
1746409991900833300,8.346833251953125,-1.7235878794252872,1.3495961613565683,6.073344930928945
1746409991910806500,8.356806640625,-1.8745406574368475,2.2761364217460156,5.585923817557096
1746409991920779500,8.366779541015624,-1.8394120609104632,3.2056121510654685,4.944302322554588
1746409991930752300,8.376752197265626,-1.3705746519774198,3.6767367941528555,3.793300980350375
1746409991940725200,8.386725341796875,-0.9290919906988739,3.7019910623967647,2.619434310865402
1746409991950698500,8.396698486328125,-0.5535545044928789,4.381927967268228,2.109398337842524
1746409991960671500,8.40667138671875,-0.4460632670670748,5.227110379397868,1.9122098783567547
1746409991970644200,8.416644287109374,-0.6724293057203292,5.917548804539441,1.5044903704702852
1746409991980617200,8.4266171875,-1.2998258760154247,6.468621429088711,0.9015548722147941
1746409991990590200,8.436590087890625,-2.0820313152283427,7.19094084713757,0.4270674746960401
1746409992000563200,8.446563232421875,-2.9368220981806514,7.787801409393548,-0.07425006208121776
1746409992010536200,8.4565361328125,-3.6748441122740503,8.00495947471857,-0.8230845620900392
1746409992020509200,8.46650927734375,-4.307515408101677,7.801465777608752,-1.6176251667410135
1746409992030482200,8.476482177734376,-4.757653961783647,7.4195304070591925,-2.499566406947374
1746409992040455200,8.486455078125,-4.965528065934777,6.90031714810729,-3.30439868851006
1746409992050428200,8.49642822265625,-4.991075179645419,6.336214946115017,-3.841617559751868
1746409992060401200,8.506401123046874,-4.860754270774126,5.771487305700779,-3.9179929434239864
1746409992070374100,8.5163740234375,-4.477320186099409,5.43938359529078,-3.9342975970149037
1746409992080347100,8.52634716796875,-4.03376627150476,5.210097869798541,-4.140280188331007
1746409992090320100,8.536320068359375,-3.6580700876057146,4.817894495473801,-4.524403424313665
1746409992100293000,8.546293212890625,-3.356234674209356,4.173630669268966,-4.976158765542507
1746409992110266000,8.55626611328125,-2.95776844009757,3.5347649027153847,-5.3523477013945575
1746409992120239400,8.5662392578125,-2.368662437491119,2.9245757800698278,-5.667989521825313
1746409992130212000,8.576212158203125,-1.723231905594468,2.3401857000693678,-5.866951420724392
1746409992140185000,8.58618505859375,-1.023181602498889,2.00912419218868,-5.8450435402989385
1746409992150158000,8.596157958984374,-0.3263356484025717,1.7745242859363555,-5.648747061216831
1746409992160132000,8.606132080078124,0.3748769764706492,1.5228510798081756,-5.422426030749082
1746409992170105300,8.616105224609376,0.9150339469909667,1.2195882639572024,-5.176655034402012
1746409992180078300,8.626078369140625,1.2793915752738714,0.925294644242525,-5.022544669142365
1746409992190051000,8.636051025390625,1.589781466525793,0.7614125342920423,-5.07372949745655
1746409992200024000,8.646024169921875,1.9907193514481185,0.5998316870212554,-5.333759905302524
1746409992209997000,8.6559970703125,2.3424434158682823,0.3447930961132049,-5.6536196356892585
1746409992219970300,8.66597021484375,2.5202915073290466,0.10990297474265098,-6.013631343722343
1746409992229943300,8.675943359375,2.6065669382467864,-0.033790041399002074,-6.198626092067361
1746409992239916000,8.685916015625,2.406373159465194,-0.043050913958251474,-6.090021340441703
1746409992249889000,8.695888916015624,2.0075284474298356,0.00791588769108057,-5.834864091590046
1746409992259862300,8.7058623046875,1.490263107675314,-0.1798281593620777,-5.50471502237916
1746409992269835300,8.715835205078125,1.0379796509191392,-0.49842766055464743,-5.142029711222649
1746409992279808300,8.725808349609375,0.7981094030484557,-0.6802794346988201,-4.669247948578
1746409992289781000,8.735781005859375,0.8081170023217796,-0.6880950768858194,-4.151545094189047
1746409992299754200,8.745754150390624,0.9674725747585297,-0.6403864002496004,-3.6911201242923735
1746409992309727200,8.755727294921876,1.1813593633279205,-0.6037462301164865,-3.3637837744146584
1746409992319700200,8.7657001953125,1.4095263139232992,-0.5948737723529338,-3.152622903677821
1746409992329673000,8.7756728515625,1.4224290501162409,-0.5912707794249057,-2.9135587114930153
1746409992339646200,8.785646240234374,1.2130196992218494,-0.3229834153652191,-2.4941496425956484
1746409992349619200,8.795619140625,0.6952791431710124,0.06780979990065097,-1.9539672453731298
1746409992359592200,8.80559228515625,0.14714607920497655,0.2507552145004272,-1.6481196737259625
1746409992369565200,8.815565185546875,-0.25876316438913344,0.12970657636523247,-1.5221446851044893
1746409992379538200,8.8255380859375,-0.45833968805521724,-0.05936170502901077,-1.2270838804095983
1746409992389511200,8.83551123046875,-0.31963878111243244,-0.2279945166379213,-0.8157470588088035
1746409992399484200,8.845484130859376,0.12598346418887377,-0.354254167419672,-0.4969242702543735
1746409992409457200,8.85545703125,0.7155369183018803,-0.3057721683233976,-0.3783037360489368
1746409992419430100,8.86543017578125,1.2395698524951935,-0.03296060483753681,-0.4096311867266893
1746409992429403100,8.875403076171875,1.6482465149760246,0.29413784463107584,-0.4424228647381067
1746409992439376100,8.885376220703124,1.8707018099263308,0.6979653135150671,-0.44205052429437636
1746409992449350100,8.89535009765625,1.9173571781173346,1.1006664087176323,-0.5294073207080364
1746409992459323100,8.9053232421875,1.7525496238850056,1.307563192269206,-0.7379664845138788
1746409992469296000,8.915296142578125,1.473216988067329,1.4412123687803744,-0.9764081608861684
1746409992479269400,8.925269287109375,1.2410498619198798,1.7136410704284906,-1.0640227314531803
1746409992489242000,8.9352421875,1.049326974363625,1.968131379804015,-1.1132745458781719
1746409992499215000,8.945215087890626,0.8687667013347148,2.0725328345209357,-1.1721966904461383
1746409992509188000,8.95518798828125,0.6994809787750244,2.159018693318963,-1.0516548327893018
1746409992519161300,8.965161376953125,0.49399786141365765,2.206785237622261,-0.7762590980291366
1746409992529134300,8.97513427734375,0.25499182915687557,2.2200690820872784,-0.40382162366509433
1746409992539107000,8.985107177734376,-0.023587796336412427,2.2531384079962966,0.005394552519917488
1746409992549080000,8.995080078125,-0.3395683472022414,2.1971908953249453,0.26958850978612897
1746409992559053000,9.005052978515625,-0.5705027166843414,2.0470722300499675,0.3664432023853063
1746409992569026300,9.0150263671875,-0.6843328017428517,1.8297925841718912,0.3571908053934574
1746409992578999300,9.024999267578124,-0.5905170384481548,1.6655863568335771,0.28690789337754247
1746409992588972000,9.034971923828126,-0.2742573783800006,1.5171329944223164,0.14827274514734745
1746409992598945000,9.044945068359375,-0.02169628350138664,1.2058324180662632,0.04158697888553142
1746409992608918300,9.054918212890625,0.1828587592296302,1.0455150148600338,0.012822072172164916
1746409992618891300,9.064891357421875,0.4318693220198154,0.9727636669039725,0.046964580270648
1746409992628864000,9.074864013671874,0.6091372755050659,0.8518599901974201,0.047779111523926256
1746409992638837000,9.0848369140625,0.6843710879266262,0.6820090349704027,0.10578998646587133
1746409992648810200,9.094810302734375,0.586972351578623,0.687771251758933,0.45486704350858925
1746409992658783200,9.104783203125,-0.9556256312288344,0.6883534355610609,1.0444944396406413
1746409992668756200,9.114756103515624,-0.3311982860028744,0.6401876628071069,1.3510405149459839
1746409992678729000,9.12472900390625,0.2844622537910938,0.4598848716706037,1.4613015093460677
1746409992688702200,9.1347021484375,-0.04449965146183967,0.5778998411983252,2.2113722731515764
1746409992698675200,9.14467529296875,-0.0909304171167314,0.8064590059816836,2.918325487503409
1746409992708648200,9.154648193359375,-0.09285597835183143,0.927249285441637,3.3365897702798244
1746409992718622200,9.164622314453124,0.006853080765157938,1.062879991158843,3.6358857283264396
1746409992728594200,9.17459423828125,-0.05886135429143905,1.1728607073128223,3.8967300829038023
1746409992738568200,9.184568115234375,-0.1829296325087547,1.189195171520114,4.002786319090426
1746409992748541200,9.194541259765625,-0.29762685579061504,1.0634212584286928,3.923550869812071
1746409992758514200,9.20451416015625,-0.3155436938185245,0.9802958159744739,3.821968271908164
1746409992768487200,9.214487060546874,-0.33560105100646614,0.896935395720601,3.800622701540589
1746409992778460200,9.224460205078126,-0.3158464030921459,0.8352315114796162,3.6819738180235024
1746409992788433200,9.23443310546875,-0.3350174058996141,0.7047299853444099,3.577390284737944
1746409992798406100,9.24440625,-0.3088134357154369,0.479858569163084,3.732600427933037
1746409992808379100,9.254379150390625,-0.30924247478246686,0.29180092611610886,4.011940224143863
1746409992818352000,9.26435205078125,-0.29323373539820313,0.2029471691429615,4.21073494978249
1746409992828325400,9.274325439453126,-0.25235548930391666,0.2045364841610193,4.250904463085532
1746409992838298000,9.284298095703125,-0.30187969092950223,0.16732523614168165,4.177800648429989
1746409992848271000,9.29427099609375,-0.4296855482399463,0.06815232972800732,4.130268205143511
1746409992858244000,9.304244140625,-0.5185561102174222,0.023632220000028608,4.123577767594158
1746409992868217300,9.31421728515625,-0.56099371458292,0.14228899456262586,4.095106290869414
1746409992878190300,9.3241904296875,-0.6120004098512232,0.20101883142888544,4.051356288731098
1746409992888163000,9.3341630859375,-0.6487713667571544,0.1901981622070074,3.9300951768890022
1746409992898136000,9.344135986328125,-0.6401416317082941,0.1373772571235895,3.7078906418293713
1746409992908109300,9.354109375,-0.6561492020487785,0.09536766891181468,3.4360689661636945
1746409992918082300,9.364082275390626,-0.7009187564931809,0.09227730168104172,3.170549605512619
1746409992928055000,9.374054931640625,-0.7862916856132447,0.033086277043819425,2.9470418788999315
1746409992938028000,9.384028076171875,-0.810206960338354,-0.12958499581217764,2.661692028619349
1746409992948001000,9.3940009765625,-0.7596528311431407,-0.361014747595787,2.3865096443489193
1746409992957974300,9.403974365234374,-0.5982581540942191,-0.5036778361678124,2.111676804168522
1746409992967947300,9.413947265625,-0.37865094205141064,-0.6172615452498197,1.8105992234021424
1746409992977921000,9.423921142578125,-0.15343122388906777,-0.7461445302724837,1.500529650145769
1746409992987893800,9.433893798828125,-0.0073801003139466045,-0.8704846111685037,1.2519210922852158
1746409992997866800,9.44386669921875,0.07461889539361,-1.0122101266294716,1.0856415658041834
1746409993007840800,9.4538408203125,0.09528755288030952,-1.0511334392637013,1.0927931911244988
1746409993017814000,9.46381396484375,0.12273206117749214,-0.9815040227204561,1.2243638077959418
1746409993027787000,9.473787109375,0.15977438237071037,-0.9015034342885017,1.4654332023233174
1746409993037760000,9.483760009765625,0.2505938499262556,-0.797655521801114,1.8130460320323705
1746409993047732700,9.493732666015624,0.41138880751635876,-0.6062620123296976,2.140494025591016
1746409993057706000,9.5037060546875,0.5468377634584903,-0.3532441135942936,2.4654028560608623
1746409993067679000,9.513678955078126,0.7537304553568362,-0.03061608753800392,2.8612147762715816
1746409993077652000,9.52365185546875,0.9870026201367378,0.3977531174063682,3.3200580299347635
1746409993087625000,9.533625,1.0688456215649842,0.7100438738435506,3.664538406836986
1746409993097598000,9.543597900390624,1.038392615634203,0.8345581422626972,3.825432733148336
1746409993107571000,9.553571044921876,0.8398083178758621,0.8253712117224932,3.8449347214758394
1746409993117544000,9.5635439453125,0.49200029438827186,0.709368166539073,3.694709088695049
1746409993127517000,9.573516845703125,0.23211017179582266,0.6301350553482771,3.3948335771948095
1746409993137490000,9.583489990234375,0.12428352840319275,0.6694061585068702,3.040278965523839
1746409993147463000,9.593462890625,0.1633330247003585,0.8071469882458447,2.7158745774447914
1746409993157436000,9.603435791015626,0.23943726328089832,0.9515805936217308,2.3557103091984986
1746409993167409000,9.613408935546875,0.24679405578449368,1.0788473756194115,2.043216139143705
1746409993177382000,9.6233818359375,0.25968159440830346,1.324967331534624,1.7514274879872798
1746409993187355000,9.63335498046875,0.2166752502441406,1.5829221021503208,1.4848305612325667
1746409993197328000,9.643327880859376,0.10520400327146052,1.7091209626555441,1.2429302688390016
1746409993207300900,9.65330078125,-0.0077519293010234825,1.8172072433650492,1.0460603737831116
1746409993217273900,9.66327392578125,-0.10677490584999322,1.8888550139933824,0.7137485735803842
1746409993227247000,9.6732470703125,-0.09612170214951038,1.873928078496456,0.17087679114341736
1746409993237219800,9.6832197265625,0.0552343959659338,1.8587334319740532,-0.26718027960062024
1746409993247192800,9.69319287109375,0.3268830531522631,1.8126526488006114,-0.5081926832437514
1746409993257165800,9.703165771484375,0.5843658223420382,1.838228404083848,-0.5394768793016672
1746409993267139000,9.71313916015625,0.8497145026013254,1.869034461236,-0.6237012229084968
1746409993277112000,9.723112060546875,1.03350221324414,2.007929137185216,-0.7620785969853401
1746409993287084800,9.733084716796874,1.0299448130235076,2.4112790516853333,-0.8640326585501432
1746409993297058800,9.743058837890626,1.0295619511857628,2.3646014716625214,-1.1665659910827875
1746409993307031800,9.75303173828125,1.2732687084794043,1.8668571171969175,-1.8911352338850498
1746409993317004800,9.7630048828125,1.8293474707528947,1.358418057976663,-2.792798242649436
1746409993326978000,9.77297802734375,2.559559980139136,1.02453155580312,-3.426872391012311
1746409993336951000,9.782950927734374,3.4106244360446927,0.9763573074817656,-3.553423133695125
1746409993346923800,9.792923828125,4.289649496543407,1.2224451146930455,-3.323060134360194
1746409993356896800,9.802896728515625,4.927490303963422,1.5266969415813683,-2.8188942224144933
1746409993366870000,9.8128701171875,5.387305617529154,1.7085776495590805,-2.338302078279853
1746409993376843000,9.822843017578125,5.758098247295618,1.591797482523322,-2.0844348692387342
1746409993386816000,9.83281591796875,5.965559094470739,1.3169228490278124,-2.0938468407064676
1746409993396788700,9.842788818359375,5.942531270104646,1.1774945045933127,-2.2068454433768987
1746409993406762000,9.852761962890625,5.772762147942185,1.0130866172030568,-2.394197568503022
1746409993416735000,9.86273486328125,5.634152134153246,0.8121314986601471,-2.5619874995470044
1746409993426708000,9.8727080078125,5.502576841306686,0.7383329797387123,-2.6334283494263886
1746409993436681000,9.882680908203126,5.181664386996626,0.7753086654365062,-2.528473937001824
1746409993446654000,9.892654052734375,4.722106263062358,0.8571744632184505,-2.2772908524781466
1746409993456627000,9.902626953125,4.2210330564349885,0.9291554113239049,-2.006455557501316
1746409993466600000,9.912599853515625,3.6674826435953376,1.0369944392740726,-1.691957646408677
1746409993476573000,9.922572998046874,2.998590279829502,1.159582123544812,-1.3802484892517328
1746409993486546000,9.9325458984375,2.347429387587309,1.187660217037797,-1.164741113743186
1746409993496519000,9.942518798828125,1.7972902444958685,1.0841752926439046,-1.075616138613224
1746409993506492000,9.952491943359375,1.3065139754772186,0.9267410436585545,-0.998740404203534
1746409993516465000,9.96246484375,0.9730822313338517,0.9019003246515989,-0.8667530234247446
1746409993526438000,9.97243798828125,0.8318348547786474,0.8674196706399321,-0.7204378420859575
1746409993536411000,9.982410888671875,0.7163719078212976,0.7913716192260384,-0.590211041238904
1746409993546384000,9.9923837890625,0.7154951249867677,0.7195216040238738,-0.6146826346725225
1746409993556356900,10.00235693359375,1.1058452726602555,0.5805839657157659,-0.8355348783403634
1746409993566329900,10.012329833984374,1.2140543029665947,1.1967182605013251,-0.6932903074413538
1746409993576303000,10.02230322265625,1.0052607458829879,1.3109209782645106,-0.6734925510376691
1746409993586275800,10.03227587890625,0.8252063765496015,0.9875833426341414,-0.6027776773452759
1746409993596249900,10.042249755859375,0.7914397160261869,0.9034007923424243,-0.4021539827138185
1746409993606222800,10.052222900390625,0.7394032393187284,0.9258250978574156,-0.23044892405271528
1746409993616195800,10.06219580078125,0.6558300530970096,0.884231104709208,-0.13266951782405376
1746409993626169000,10.072169189453126,0.4149129265218973,0.748941759775579,0.09387070835232735
1746409993636142000,10.08214208984375,0.19962416220009327,0.4037146561592817,0.36436055089235303
1746409993646114800,10.09211474609375,0.08306874383091926,0.0450561163008213,0.4157715891778469
1746409993656087800,10.102087890625,-0.19948621503412722,-0.052749301151931285,0.606695727571845
1746409993666060800,10.112060791015624,-0.5086240603983402,0.4027916960954666,1.0604133087843657
1746409993676034000,10.122033935546876,-0.8161129695117473,0.7084186107292771,1.1645493905633688
1746409993686007000,10.132007080078125,-1.0030144282609224,0.5283680407881737,0.738521780309081
1746409993695979800,10.141979736328125,-0.9885621245384216,0.367549702322483,0.15774141523838042
1746409993705952800,10.151952880859374,-0.7117021624445915,0.28825375502854583,-0.1938800655901432
1746409993715926000,10.161926025390626,-0.47285541240274903,0.17241145336478947,-0.19465280352830885
1746409993725899000,10.17189892578125,-0.5950462063103914,0.1688882476747036,-0.037141105392575265
1746409993735872000,10.1818720703125,-0.857667799693346,0.14626432793438435,-0.06406710624098777
1746409993745844700,10.1918447265625,-1.04762981505692,-0.1448760884463787,-0.4184071983784437
1746409993755818000,10.20181787109375,-1.0995949800938367,-0.561704493200779,-0.7290297293424606
1746409993765791000,10.211791015625,-0.9475947388559579,-0.8808148665249347,-0.8482160807371139
1746409993775764000,10.221763916015625,-0.6845043589174747,-1.1072449103251099,-0.9341752853125334
1746409993785736700,10.23173681640625,-0.37012042959332464,-1.2688926853522657,-0.9684943190217018
1746409993795710000,10.2417099609375,-0.26169863331913945,-1.2816557208135724,-0.8110521789908408
1746409993805683000,10.251682861328124,-0.46183659026026724,-0.8966583323448896,-0.6345084481269121
1746409993815656000,10.261656005859376,-0.6963695687562227,-0.4109489913269877,-0.5339888032793998
1746409993825629000,10.27162890625,-0.8277385253757238,-0.011486439654231071,-0.40476738008260726
1746409993835602000,10.281601806640625,-1.0012801518142223,0.13289222066402434,-0.3624403964847326
1746409993845575000,10.291574951171874,-1.0369570298731325,0.061115855219960206,-0.4722457560718059
1746409993855548000,10.3015478515625,-0.8279436925590038,0.0027349779218435286,-0.51298868534863
1746409993865521000,10.31152099609375,-0.6072428400605917,0.02234159566760063,-0.35418987001180646
1746409993875494000,10.321493896484375,-0.5026268658101558,0.05405892244577407,-0.21055004536211488
1746409993885468000,10.331468017578125,-0.5201210214465857,-0.014289514376223087,-0.19410452199578285
1746409993895441000,10.34144091796875,-0.5063596225976944,-0.15881284386217592,-0.22424247062802313
1746409993905414000,10.351413818359376,-0.31279461430609223,-0.3306000278487801,-0.22979192144870755
1746409993915387000,10.361386962890625,0.01542962432205677,-0.408154684433341,-0.14115619114041328
1746409993925359900,10.37135986328125,0.35238252832889555,-0.40436581354439255,-0.026387071666121482
1746409993935333000,10.3813330078125,0.5757213281154632,-0.3833262403860688,0.1927683049559593
1746409993945305900,10.391305908203124,0.6713491092681885,-0.2930176084294915,0.26912849105894565
1746409993955278800,10.40127880859375,0.49085284138619895,-0.29401246468573805,0.23151801458895205
1746409993965251800,10.411251953125,0.06264554900527,-0.440876219817996,0.21046178255677223
1746409993975224300,10.421224365234375,-0.3630769408226013,-0.5092313786417245,0.41042321388721464
1746409993985197000,10.431197021484374,-0.5311456888079643,-0.44923342153578993,0.6478986755758523
1746409993995170000,10.441170166015626,-0.4938450089395046,-0.37859424342811104,0.7854898677110671
1746409994005143000,10.45114306640625,-0.37975218129158017,-0.3713780284389853,0.9580851532101631
1746409994015116300,10.4611162109375,-0.2983820580720901,-0.35931963411569595,0.9977858799576759
1746409994025089300,10.47108935546875,-0.31403555427789687,-0.3904205825611949,0.8084130626589059
1746409994035062000,10.48106201171875,-0.18361703025102613,-0.3595499357402325,0.46671968612670894
1746409994045035000,10.491034912109376,0.02631049929857254,-0.18929449136555193,0.11238310112059116
1746409994055008300,10.50100830078125,0.12402151646614074,0.13022300145477056,-0.14720307008922098
1746409994064981200,10.510981201171875,0.0898246478319168,0.2240180142223835,-0.4144306959629059
1746409994074954200,10.520954345703124,-0.006145663148164749,0.10993541570752859,-0.6540607053369283
1746409994084927000,10.530927001953126,-0.07683774048686028,0.006830722802877426,-0.6682780312597751
1746409994094900200,10.540900146484375,-0.057849546900391575,-0.06344400590658188,-0.4219833032995462
1746409994104873200,10.550873291015625,-0.08884732723236083,-0.01420008252710104,-0.14092939664721488
1746409994114846200,10.56084619140625,-0.07946691994667053,0.13423837457597254,0.014543489137291907
1746409994124819200,10.570819091796874,-0.18149813840091228,0.3680287180110812,0.19850947895646093
1746409994134792200,10.580792236328126,-0.5317161821722984,0.4815767712578177,0.2664367677569389
1746409994144765200,10.59076513671875,-0.8293880461484193,0.43915655641853807,-0.036333296141028405
1746409994154738200,10.60073828125,-0.8536240772604942,0.21309885306209325,-0.37069910626411434
1746409994164711200,10.610711181640625,-0.5802151324033736,0.10103402411043644,-0.4922404963523149
1746409994174684200,10.62068408203125,-0.17092530646026133,0.07039747830629349,-0.4852086980193853
1746409994184657200,10.6306572265625,0.066910805234313,-0.06079992113858461,-0.26678280471563337
1746409994194631200,10.640631103515625,0.10642273141145706,-0.2843707761153579,0.17447569241821764
1746409994204604200,10.650604248046875,-0.06526362254917621,-0.6263476457640529,0.5548515585660934
1746409994214577200,10.6605771484375,0.06297755743861198,-0.6007943945735693,0.6704074445039033
1746409994224550100,10.670550048828124,0.32013504019677635,-0.41505116594880814,0.7242746437698602
1746409994234523100,10.680523193359376,0.4867383918046951,-0.4007888318404555,0.6967132676273584
1746409994244496100,10.69049609375,0.5535433985769749,-0.3351221814483404,0.51231706969738
1746409994254469000,10.70046923828125,0.5537105718374252,-0.015495967556536197,0.23908289688527581
1746409994264442000,10.710442138671874,0.40135611033439633,0.2646554372981191,-0.23716800317466258
1746409994274415400,10.720415283203126,0.19243921913206577,0.27496406534463164,-0.8016226718664169
1746409994284388000,10.73038818359375,-0.04282207363843918,0.324800109398365,-0.9662719667971134
1746409994294361000,10.740361083984375,-0.2037567319601774,0.506725825561583,-0.6636001025766134
1746409994304334000,10.750333984375,-0.3920306481063366,0.47685704925954336,-0.2618880184113979
