time,seconds_elapsed,z,y,x
1746409796154487300,0.0874873046875,1.821440935412049,1.6591928564041851,2.7979034568339585
1746409796164460500,0.09746044921875,2.702004457524419,1.622146735818684,2.577147659277916
1746409796174433500,0.10743359375,3.6060184133291244,1.5438468138247727,2.7234429668724536
1746409796184406500,0.117406494140625,5.617294522854685,1.301926939947903,2.961127687397599
1746409796194379300,0.127379150390625,6.691387397423386,1.778637858735025,3.2178222288191316
1746409796204352300,0.137352294921875,5.596425922349095,2.2991613235026596,3.170802995751798
1746409796214325500,0.147325439453125,4.570148107400536,2.925347933486104,3.460701595377922
1746409796224298500,0.157298583984375,4.4221004031807185,3.3868817414075134,5.330320578503608
1746409796234271500,0.167271484375,5.0577802331745625,1.9335063488855957,5.061817525866627
1746409796244244200,0.177244140625,7.305863695868849,0.9179176857337356,5.116168124735355
1746409796254218200,0.18721826171875,9.413057509404421,0.28467765010744334,5.813155533128977
1746409796264191500,0.19719140625,9.38127705426216,1.07264881324023,3.095710345366597
1746409796274164500,0.20716455078125,4.263742901870608,-0.6994216498032212,-7.818406975537538
1746409796284137500,0.217137451171875,0.3059107000112533,-6.597413228696585,-23.59318562823534
1746409796294110500,0.2271103515625,0.10439210236668586,-5.2302299727231265,-19.802544807004928
1746409796304083500,0.23708349609375,-5.463602090746164,-0.030644144588708875,-7.015666113296151
1746409796314056400,0.247056396484375,-0.7698392941147089,4.3172886140972375,1.8935177451074123
1746409796324029400,0.257029541015625,0.36397593548893925,5.105507614511251,4.395234023565053
1746409796334002400,0.26700244140625,-1.6616490173846483,6.773942346513271,4.2960313065350055
1746409796343975400,0.276975341796875,-5.932981351470947,6.936154185163974,2.3161931223243473
1746409796353948400,0.286948486328125,-12.585151421749591,3.4121006460770964,0.865008883171156
1746409796363921400,0.29692138671875,-12.409306194543838,-0.5312362897008657,-1.300200992938131
1746409796373894400,0.306894287109375,-5.52219047331512,-4.005450862124562,-5.265791115447879
1746409796383867400,0.316867431640625,-5.271937363117933,-3.541306871704757,-4.649678740233183
1746409796393840600,0.326840576171875,-6.386755046784877,-2.5687369738072157,-1.6133527501188218
1746409796403813400,0.3368134765625,-8.042827140820027,-2.3215602023154496,-0.11218551445556804
1746409796413786400,0.346786376953125,-9.030077598237991,-1.9857672819986938,-0.867134058631584
1746409796423759400,0.35675927734375,-7.660520014348625,-2.9594740749716757,-1.3805755292490123
1746409796433732600,0.366732666015625,-6.133711429086327,-3.4993805778622624,-0.7380591312333941
1746409796443705300,0.376705322265625,-5.127402635455131,-2.828816189230978,0.7634588723625987
1746409796453678300,0.38667822265625,-3.690029990968108,-1.8495333496913313,1.792597118243575
1746409796463651300,0.3966513671875,-1.7662889570325613,-1.0064470330581068,1.540815775565803
1746409796473624600,0.40662451171875,0.2400081950366497,-0.22495675637722015,0.7736532994449138
1746409796483597600,0.41659765625,1.5970850675374269,0.41817952710241074,0.5781237861473113
1746409796493571600,0.426571533203125,2.1055051297962666,1.4676821502938866,1.0826567778397351
1746409796503544300,0.43654443359375,2.7033587947428224,2.346914423802495,1.5401877067953347
1746409796513517300,0.446517333984375,3.12050927105844,2.800381537385285,0.6909193405263125
1746409796523490300,0.456490234375,4.115442099672555,3.8232401915401217,-0.7294822223503142
1746409796533463600,0.466463623046875,4.627179323655366,4.759647181427479,-1.0622688735231756
1746409796543436500,0.4764365234375,4.089747686445713,4.823330549047887,0.01567833838611841
1746409796553409300,0.4864091796875,4.749342060512304,4.544574105682969,0.0035249592557549474
1746409796563382300,0.49638232421875,6.548250261598825,4.561760218283534,-0.9527927458904683
1746409796573355500,0.50635546875,7.253054481223225,4.610813587526977,-1.9009154541432856
1746409796583328500,0.51632861328125,7.564173271271586,4.897613636615872,-1.8318996394537388
1746409796593301500,0.526301513671875,8.290134845215082,5.266378559947014,-0.3326211584128439
1746409796603274200,0.536274169921875,8.165498411720991,5.250272643798589,1.3041750111356376
1746409796613247500,0.54624755859375,6.726524761778116,4.372359928455949,2.882856699237227
1746409796623220500,0.556220458984375,5.774511621958017,2.874772469241917,5.471190938439965
1746409796633193500,0.566193359375,5.8155789608836175,2.3207068003565072,5.123200507590174
1746409796643166500,0.57616650390625,3.8025972164839503,2.921850446759164,4.217006869658827
1746409796653139500,0.586139404296875,2.286937801745534,2.6826421699285508,2.6974095309495922
1746409796663112400,0.596112548828125,1.8846125541180372,1.553473597086966,1.1442699881225824
1746409796673085400,0.60608544921875,2.541141695395112,0.2759776263013482,0.28312457544654607
1746409796683058400,0.616058349609375,3.9213276408046482,-0.04889700963795185,0.1672080395027995
1746409796693031400,0.626031494140625,4.600994496563077,0.9272092456921934,-0.19081717088818548
1746409796703004400,0.63600439453125,4.865303604641556,2.0310878944545983,-1.2106436177402735
1746409796712977400,0.645977294921875,6.870330590644478,2.706134689196944,-2.5753110915005206
1746409796722951400,0.655951416015625,9.241846956261991,3.1159909168511626,-3.7260964528664946
1746409796732924400,0.66592431640625,8.593977506780623,4.133932865130901,-3.9635082016691565
1746409796742897400,0.6758974609375,9.338312941804528,4.046300758907199,-3.9711622235536574
1746409796752870400,0.685870361328125,9.553099017301202,3.8607518838107584,-3.150742496758699
1746409796762843400,0.695843505859375,9.725024440714716,3.5536095961779353,-1.874037968611717
1746409796772816400,0.70581640625,9.369560897505282,3.06398132815063,-0.4812450550854206
1746409796782790100,0.7157900390625,4.587918741890788,3.566354511460662,0.7637491605460643
1746409796792763100,0.72576318359375,-2.7314555929362774,3.9003473966181277,2.3677491220384836
1746409796802736400,0.735736328125,-2.807621133249998,4.899305242964625,3.4119121377676724
1746409796812709000,0.745709228515625,-3.6797324688374995,7.415330032759904,4.610006655058265
1746409796822682000,0.75568212890625,-6.52593613846004,7.980478528934717,4.588182361263036
1746409796832655000,0.765655029296875,-7.61677731873393,6.795126588839292,3.0864176163643595
1746409796842628400,0.77562841796875,-8.153963456749915,5.696414236798883,3.7142829732149836
1746409796852601300,0.785601318359375,-8.504460317462682,4.427260562422871,5.4597915925472975
1746409796862574000,0.795573974609375,-10.256631317293643,4.786595978629589,8.656789060002565
1746409796872547000,0.805547119140625,-14.0695319011271,5.6586827642977235,12.371871074640751
1746409796882520300,0.815520263671875,-20.218542021632192,6.674989804852008,15.11434373615384
1746409796892493300,0.825493408203125,-25.31706226147413,6.495373242413997,14.159081823670864
1746409796902466300,0.83546630859375,-27.711369135570525,5.489937139964104,10.368547385424375
1746409796912439000,0.84543896484375,-28.090015401446816,4.641332352170348,7.614905679643154
1746409796922413000,0.8554130859375,-25.727275047481058,4.297692517745495,6.123440210440754
1746409796932386000,0.865385986328125,-21.84645886528492,4.163149607264995,4.5094396639376875
1746409796942359300,0.875359375,-17.3215767175436,3.7959927036523817,2.905612136402726
1746409796952332300,0.885332275390625,-12.783484375095366,3.224772778609395,1.4614438404262065
1746409796962305000,0.895304931640625,-8.336625962755084,2.6769278839349746,0.18591186318993566
1746409796972278000,0.905278076171875,-4.037520071080327,2.8048429007083175,-0.4308586836725473
1746409796982251300,0.915251220703125,-0.26698972546458244,3.121950702038407,-1.3219640580654144
1746409796992224300,0.925224365234375,2.582335291048884,2.8362089298307893,-2.5678479160130023
1746409797002197200,0.935197265625,4.534863443529606,2.097849938867986,-3.294326207306981
1746409797012170000,0.945169921875,6.412465826624632,1.0739777237564325,-3.4960400352627037
1746409797022143200,0.955143310546875,6.971444109731912,-0.19037088842540978,-3.2402994335651396
1746409797032116200,0.9651162109375,5.882252450230717,-0.9338055752173066,-2.8729321020722387
1746409797042089200,0.975089111328125,5.771778982123732,-1.5384014079004524,-2.8034371255636215
1746409797052062200,0.985062255859375,5.860007300674915,-1.448732827413082,-2.6935131080329415
1746409797062035200,0.99503515625,5.732489174264669,-0.9931599737226963,-2.8302041364580393
1746409797072008200,1.00500830078125,5.523396341973543,-0.757505882242322,-3.2399528120845553
1746409797081981200,1.014981201171875,5.367510199213028,-0.48372722728997464,-3.624558863148093
1746409797091954200,1.0249541015625,5.109042218378186,-0.04704465976953506,-3.5635803705722093
1746409797101927200,1.03492724609375,4.664748883593083,0.20559651460796594,-3.083774408379197
1746409797111900200,1.044900146484375,4.196023702862859,0.3662567399024963,-2.718388021570444
1746409797121873200,1.054873046875,3.8059295757770535,0.59341685154289,-2.7423434821754693
1746409797131847200,1.06484716796875,3.54906903013885,0.916070304301381,-2.9136504814296957
1746409797141820200,1.074820068359375,3.3870436539709567,1.264739072804153,-2.91125569524765
1746409797151793200,1.084793212890625,3.1902170135349035,1.534696708163619,-2.9981103873580692
1746409797161766400,1.094766357421875,2.9217659833461043,1.6883651748746633,-2.904442508101463
1746409797171739100,1.1047392578125,2.688734641584754,1.748441165652871,-2.691624517807364
1746409797181712100,1.114712158203125,2.4545482845693827,1.669127974963188,-2.6007109056949615
1746409797191685000,1.12468505859375,2.434123920699954,1.5981728627741336,-2.4561568888098
1746409797201658400,1.134658447265625,2.5239374626159665,1.4720739555120468,-2.328432426172495
1746409797211631400,1.14463134765625,2.5737925036311147,1.2584230215251444,-2.258818791720271
1746409797221604000,1.15460400390625,2.171054583549499,1.0186854601234197,-2.044109873113036
1746409797231577000,1.1645771484375,1.5066390729367731,0.9337047451913356,-1.8398393464118241
1746409797241550000,1.174550048828125,1.4436884035050868,0.9635638768821955,-1.837892303997278
1746409797251523300,1.1845234375,1.3951204796910286,0.8832973309904336,-1.486885155674815
1746409797261496300,1.194496337890625,1.7404320467203855,0.8904144695192575,-1.3291782272279262
1746409797271469000,1.204468994140625,1.8992383147113023,1.3178864333629607,-1.3432839094698428
1746409797281442000,1.214442138671875,1.7665023075222968,1.941976363328099,-1.0079039538681507
1746409797291415300,1.224415283203125,1.221060382336378,2.3575550602823494,-0.30421850914061066
1746409797301388300,1.23438818359375,0.345831791511178,2.609840553089976,0.615588059079647
1746409797311361000,1.244361083984375,-0.5954314062356949,2.6869489272117613,1.4216542663514613
1746409797321334000,1.254333984375,-1.5336299557149409,2.5386931331992146,1.9505805255442856
1746409797331308000,1.26430810546875,-2.28657247556448,2.2217823157459495,2.260291786882281
1746409797341281300,1.27428125,-2.6268670912146566,1.771333965462446,2.352036004599929
1746409797351254300,1.284254150390625,-2.608206814408302,1.3968547561377287,2.3300217411905524
1746409797361227300,1.294227294921875,-2.3952900399148462,1.155755258733034,2.2668431082218885
1746409797371200000,1.304199951171875,-2.0769874758422375,1.0544190368056297,2.1479747367352244
1746409797381173200,1.31417333984375,-1.5708885500073433,1.0021639489114285,1.9432991363644598
1746409797391146200,1.324146240234375,-1.1096107626736162,0.823629336491227,1.8292361193329094
1746409797401119200,1.334119140625,-0.9052280077695846,0.8076455854177474,2.0117308675557375
1746409797411092200,1.34409228515625,-0.9259060541391372,0.6442173567146062,2.2483570189386604
1746409797421065200,1.354065185546875,-1.0277239221036434,0.3074199355304241,2.4501205312550067
1746409797431038200,1.3640380859375,-1.0179963088154793,-0.0078068743586540215,2.65519009937942
1746409797441011200,1.37401123046875,-0.8390577917695045,-0.4285673578649759,2.5265099434524774
1746409797450984200,1.383984130859375,-0.41958267189860343,-0.7441565713256597,2.4039415484040974
1746409797460957200,1.393957275390625,0.22735271160304546,-0.8768436248064041,2.426611645373702
1746409797470930200,1.40393017578125,0.7863625588923693,-0.897297214770317,2.280046873188019
1746409797480903200,1.413903076171875,1.1548054106622934,-1.004781437933445,1.9334616329610346
1746409797490876200,1.423876220703125,1.3651537959724664,-1.1446171941250562,1.6737351764976978
1746409797500849200,1.43384912109375,1.4927818124979733,-1.3061276065081358,1.5781728617966173
1746409797510822400,1.443822509765625,1.5003028556525706,-1.4285580543905496,1.554116863426566
1746409797520796400,1.45379638671875,1.32316583507061,-1.591476580005884,1.3773954379081725
1746409797530769200,1.46376904296875,1.195572889858484,-1.6049603309571743,1.3860656510978937
1746409797540742100,1.4737421875,1.0113841971993445,-1.4545938284009694,1.5976456240296364
1746409797550715100,1.483715087890625,0.7077975562214851,-1.2084563368290662,1.6832886022627354
1746409797560688400,1.4936884765625,0.4220142098944634,-0.992808091545105,1.5042776045024393
1746409797570661000,1.5036611328125,0.3087550565917045,-0.7769096708923577,1.1699269919484854
1746409797580634000,1.513634033203125,0.32878421059846874,-0.5775210710138082,0.943418914476037
1746409797590607000,1.523607177734375,0.20663681744113563,-0.46109833911359305,0.8126350642681122
1746409797600580000,1.533580078125,-0.08316460542082786,-0.4287865535736084,0.8073433876007795
1746409797610553300,1.54355322265625,-0.3528431315779686,-0.4199842384368181,0.7595861956477165
1746409797620526000,1.553526123046875,-0.627432810652256,-0.45697745979130266,0.6958873381972313
1746409797630499000,1.5634990234375,-0.8577753517210484,-0.4127653930991888,0.7362164259761571
1746409797640472000,1.57347216796875,-1.0226699997149407,-0.37472587756216524,0.6641653352439403
1746409797650445300,1.5834453125,-1.0506732744060456,-0.3764741825342178,0.47957449152469633
1746409797660418300,1.593418212890625,-0.8696294556438923,-0.3058861500918865,0.48174365225732324
1746409797670391000,1.60339111328125,-0.616349106580019,-0.14309914190173148,0.6100391927808523
1746409797680364000,1.613364013671875,-0.48393275979943573,-0.09157470636963844,0.6086603056430816
1746409797690337300,1.623337158203125,-0.33705504920706153,-0.16938684484660624,0.5743436100214719
1746409797700310300,1.633310302734375,-0.12731588183641432,-0.31466449983119965,0.6623468876451254
1746409797710284300,1.6432841796875,0.0317149886906147,-0.4422492617368698,0.6306096871227026
1746409797720257300,1.65325732421875,0.13905775755643843,-0.5496019674748182,0.5770300726264714
1746409797730230000,1.66322998046875,0.23047347397208212,-0.6212625975847244,0.5649357302069664
1746409797740203300,1.673203369140625,0.27124855195283887,-0.663022594949603,0.6049918462634086
1746409797750176300,1.68317626953125,0.22473354208059607,-0.6471504875570535,0.5860422311216592
1746409797760149200,1.693149169921875,0.17355163637585938,-0.5947995380729436,0.5360924975603819
1746409797770122200,1.703122314453125,0.22599599976446477,-0.4602642263770103,0.46667760055065155
1746409797780095000,1.713094970703125,0.32860647941138593,-0.3905634981632232,0.3343336614191532
1746409797790068000,1.72306787109375,0.4333457877805456,-0.30243337928950786,0.3309603855937719
1746409797800041000,1.733041015625,0.5918833218326792,-0.24733868405520915,0.38155367775559423
1746409797810014000,1.743013916015625,0.7055518231213093,-0.19226093995571136,0.4467424815028906
1746409797819987000,1.752987060546875,0.617790537559986,-0.12506605708301066,0.5169792162895203
1746409797829960000,1.7629599609375,0.4902291565299034,-0.1100941134005785,0.64922729383111
1746409797839933000,1.772932861328125,0.41965047643780706,-0.13211188394129275,0.7254752517312765
1746409797849906000,1.782906005859375,0.301010068488121,-0.20028525645732878,0.6980757881522178
1746409797859879000,1.79287890625,0.2397422375768423,-0.290483998298645,0.7184983984559774
1746409797869852000,1.802851806640625,0.29902152501940726,-0.30744623901546,0.805147338861227
1746409797879825000,1.812824951171875,0.41603053237497806,-0.27040800947546956,0.7559691741943358
1746409797889799000,1.822798828125,0.5974754792839289,-0.32102877416610714,0.6098422089040278
1746409797899772000,1.83277197265625,0.91832889688313,-0.33564766662716866,0.5916577329158783
1746409797909745000,1.842744873046875,1.2179670194309205,-0.336872239986062,0.559572741869092
1746409797919718100,1.85271826171875,1.340555361288786,-0.4967886611759662,0.5371878915816545
1746409797929691000,1.86269091796875,1.4404349546670914,-0.5883955162495375,0.6646323682337999
1746409797939664000,1.872663818359375,1.4637363352775572,-0.6224146902292966,0.8642728970468043
1746409797949636900,1.882636962890625,1.412699391001463,-0.6922860988348722,1.0691209313750267
1746409797959610000,1.892610107421875,1.3047738538116216,-0.6554203032523394,1.324810679668188
1746409797969583000,1.9025830078125,1.1784843193482606,-0.7027548858791589,1.4285171378582715
1746409797979555800,1.912555908203125,1.1683891148567198,-0.7839052288681269,1.3398667945027352
1746409797989528800,1.92252880859375,1.3549964129649101,-0.7503408129185438,1.2047656656175851
1746409797999501800,1.932501708984375,1.5046277331143616,-0.7562772172302007,1.1182955889105797
1746409798009475000,1.94247509765625,1.5630302377223968,-0.8359381984442472,1.0508446854501963
1746409798019448000,1.952447998046875,1.6739666471660135,-0.9710252988040446,1.075282376614213
1746409798029420800,1.9624208984375,1.7268879438839853,-1.0756032791316508,1.0667623855501414
1746409798039393800,1.972393798828125,1.6764204700589178,-1.1371978577792643,1.092908634197712
1746409798049367000,1.982366943359375,1.5942625574626028,-1.2765262489706277,1.1385083558559417
1746409798059341000,1.992341064453125,1.5013655164480209,-1.3889187024414538,1.17700555203259
1746409798069314000,2.00231396484375,1.4273651913441716,-1.442559691736102,1.2786363729923962
1746409798079287000,2.012287109375,1.4278842467822133,-1.3116402324497698,1.3322300160139797
1746409798089259800,2.022259765625,1.5306833808690308,-0.9671610245913267,1.2461731962829827
1746409798099233000,2.03223291015625,1.651695778647065,-0.6266144800066947,0.9433651384621858
1746409798109206000,2.0422060546875,1.6154267799139022,-0.4333142601311207,0.7435340555131434
1746409798119179000,2.052178955078125,1.483665462975949,-0.36782267404496666,0.6922334918648004
1746409798129151700,2.06215185546875,1.3731710982114076,-0.4461275644749403,0.7013023489832878
1746409798139125000,2.072125,1.2403088342942297,-0.5878887357711792,0.8295178100079298
1746409798149098000,2.082097900390625,1.0096626341037451,-0.7130237664371728,1.042667224213481
1746409798159071000,2.092071044921875,0.7278050098530948,-0.8380769640386104,1.187501811605692
1746409798169044000,2.1020439453125,0.4619620432708412,-1.0091840568065642,1.24947925209105
1746409798179016700,2.1120166015625,0.24815701470077037,-1.0277426268041134,1.430241477432847
1746409798188990000,2.121989990234375,0.09550152442455291,-0.7267378190129995,1.6852262923270462
1746409798198963000,2.131962890625,-0.06599427491128444,-0.38441082075238225,1.6676894665926694
1746409798208936000,2.14193603515625,-0.2139133843153715,-0.31527474068403244,1.3103572069019078
1746409798218910000,2.151909912109375,-0.31740824558138847,-0.4014104708701372,0.9774193837553262
1746409798228883000,2.161883056640625,-0.3103443716097623,-0.5364385345190763,0.6845639801502227
1746409798238856000,2.17185595703125,-0.2795522699177265,-0.8122802594810724,0.5213853422939777
1746409798248829000,2.181828857421875,-0.32835809414088724,-1.102028344720602,0.5751128408282995
1746409798258802000,2.191802001953125,-0.35333054976873096,-1.3015759345531464,0.7350789463788271
1746409798268775000,2.20177490234375,-0.3283597746413201,-1.3306623283058405,0.8816559935241937
1746409798278748200,2.211748046875,-0.21233276406042276,-1.2625433163255453,0.9182464792966842
1746409798288721000,2.221720947265625,-0.053735608775541184,-1.0980132638603448,0.8181231402903795
1746409798298694000,2.23169384765625,0.161162621858716,-0.856026462227106,0.7193243278861046
1746409798308667000,2.2416669921875,0.2844114003866911,-0.5703904884815215,0.5332131427317858
1746409798318639900,2.251639892578125,0.15442235381826758,-0.5754372504770755,0.19451310279667378
1746409798328613000,2.261613037109375,0.022547931894659996,-0.6062310326695441,0.016937106275558472
1746409798338585900,2.2715859375,0.060731239816546434,-0.4680032961964607,0.27324235611855985
1746409798348558800,2.281558837890625,0.016245763010531662,-0.3103244248002767,0.7618173157006501
1746409798358531800,2.29153173828125,-0.10381101454310118,-0.5083516731977462,0.8980278671324252
1746409798368505000,2.301505126953125,0.06135214819386601,-0.7553267846375703,0.9774205527991056
1746409798378478000,2.31147802734375,0.48896666231341657,-0.8426759822666644,1.0652151561081409
1746409798388452000,2.3214521484375,0.8264714280493557,-0.7960141843348741,1.028092170894146
1746409798398424800,2.3314248046875,1.017863768476993,-0.6140338153749704,0.9461427864819765
1746409798408397800,2.341397705078125,1.0550088193923235,-0.40937458161711693,0.7826064212292433
1746409798418371000,2.35137109375,0.8927404282487928,-0.4068441863566637,0.6365811627477407
1746409798428344000,2.361343994140625,0.7716507274508476,-0.47107671229243275,0.9765665663182734
1746409798438316800,2.37131689453125,0.6575514700621367,-0.545724833780527,1.4664724822431803
1746409798448289800,2.381289794921875,0.47810851062536236,-0.6580073971360921,1.8959084396362305
1746409798458263000,2.391262939453125,0.2957160537332296,-0.9630985974580049,2.0888614535093306
1746409798468236000,2.401236083984375,0.1496544087640941,-1.313499596580863,2.2859330086171625
1746409798478209000,2.411208984375,0.14018471575975416,-1.361092537882924,2.565626732832193
1746409798488181800,2.421181640625,0.2135866365790367,-1.4683499665528534,2.839189991468191
1746409798498154800,2.43115478515625,0.35227314967028794,-1.6940063956320284,3.2359263330474493
1746409798508128000,2.4411279296875,0.8693728505343198,-1.6131605885475873,3.7312194949686526
1746409798518101000,2.45110107421875,1.5078303285479544,-1.586010131293535,3.7337273861363527
1746409798528074000,2.461073974609375,1.9947832398861645,-1.9074001399874687,3.190464266294241
1746409798538048000,2.471048095703125,2.1657652449697253,-2.518481535297632,3.1599919711410998
1746409798548020700,2.481020751953125,2.360107667374611,-3.2818145162582395,2.7273931658029555
1746409798557994000,2.490993896484375,2.5530057361900806,-3.7748382719427345,1.6705299507156013
1746409798567967000,2.500967041015625,2.2086967703320086,-4.4707916611135,1.3003788337230682
1746409798577940000,2.51093994140625,1.2758008573055266,-5.232509023571014,1.3697531064614652
1746409798587913000,2.520912841796875,0.27377704751715065,-6.032193420851231,1.132219192583859
1746409798597886000,2.530885986328125,-0.26606281987801195,-6.871956730541586,0.668114072869718
1746409798607859000,2.54085888671875,-0.5687202171817421,-7.757523760029673,0.3080503423884511
1746409798617832000,2.55083203125,-0.4671851116813719,-8.377061433517932,-0.2504261286765337
1746409798627805000,2.560804931640625,-0.11417115358114242,-8.826932276174425,-1.0484209654346108
1746409798637778000,2.57077783203125,0.2512998427711427,-8.768749551796912,-1.721193385504186
1746409798647751000,2.5807509765625,0.4241301060698926,-8.054436330071091,-2.5824691465616225
1746409798657724000,2.590723876953125,-0.44758097815364595,-6.674287209540605,-3.4694030804887412
1746409798667697000,2.60069677734375,-2.7410844220250845,-4.941369191712141,-3.919600670881569
1746409798677670000,2.610669921875,-2.4443957238674163,-3.9094747059255837,-4.049284743154049
1746409798687644000,2.620643798828125,-4.1048903105199335,-2.450354340010881,-4.523690307608247
1746409798697617200,2.6306171875,-5.214545496857166,-1.4322083935916423,-5.129178412955999
1746409798707590000,2.64058984375,-5.555179135203361,-1.5748720666855573,-6.010284371381998
1746409798717563000,2.65056298828125,-5.31679591102004,-1.6899521518051623,-7.15988870626986
1746409798727535900,2.660535888671875,-4.962421332091092,-1.2376415147811173,-7.988449653944373
1746409798737509000,2.670509033203125,-4.509918095104396,-0.6027110418498516,-8.479288466805219
1746409798747481900,2.68048193359375,-4.446300193935633,0.04876607673466205,-8.190797103628515
1746409798757454800,2.690454833984375,-4.645101933836937,1.3815373600184917,-7.433133400475978
1746409798767427800,2.700427734375,-4.712963463924825,3.374018168181181,-7.062364736106991
1746409798777401000,2.710401123046875,-4.356759916003048,6.190467335531115,-6.476913456615805
1746409798787373600,2.72037353515625,-4.086562042146921,8.631033271977305,-5.0413008075386285
1746409798797346600,2.7303466796875,-3.9650598150253296,9.050614774832129,-3.167765527752042
1746409798807319600,2.740319580078125,-3.299875073605776,7.472516147315502,-1.2190128021568059
1746409798817292800,2.750292724609375,-2.4811095437586306,5.469851214268803,0.6267290462970734
1746409798827266800,2.760266845703125,-1.6937059513807295,3.886198459756374,2.1265847427040336
1746409798837239600,2.770239501953125,-0.5767822353452444,3.038889556992054,3.3989594249531625
1746409798847212500,2.780212646484375,-0.2051472730031237,2.4266128144174814,3.6029914667233824
1746409798857185500,2.790185546875,-0.08849128033630549,1.7145324663102626,2.7014251963317393
1746409798867158500,2.800158447265625,0.7839818012356757,1.086406997218728,1.5784940565750003
1746409798877131800,2.8101318359375,1.979690884694457,0.7847492784768343,1.6370049899935721
1746409798887104500,2.8201044921875,3.24108210837543,-0.13301380121707915,2.2301418555513024
1746409798897077500,2.830077392578125,3.972605992621183,-2.1075749218076467,1.1095531872674822
1746409798907050500,2.840050537109375,3.7839749336004256,-3.564818972456455,0.1951967011466622
1746409798917023700,2.850023681640625,2.822971847116947,-3.8987370388120413,0.6985065807849168
1746409798926996700,2.859996826171875,1.0803108723007142,-3.6579356475710867,1.33472884709239
1746409798936969500,2.869969482421875,-1.3462217164874075,-3.0291140129089356,1.193365150681138
1746409798946942500,2.8799423828125,-4.433426099315286,-2.7068928140878676,0.5533040368631482
1746409798956916500,2.88991650390625,-7.668354361236095,-2.807376218578219,0.1883773765206337
1746409798966889700,2.8998896484375,-10.641026940476893,-3.400553123885393,-0.5867877887919545
1746409798976862700,2.90986279296875,-12.756804457962513,-4.666811661341786,-2.962957825434208
1746409798986835700,2.919835693359375,-13.432715176057815,-6.251474469679594,-6.23988106251955
1746409798996808400,2.929808349609375,-14.216851291072368,-6.6515609984695905,-7.851776161175966
1746409799006781700,2.93978173828125,-14.419564651459455,-5.002704242640734,-8.20266932772994
1746409799016754700,2.949754638671875,-14.749749376505612,-1.8701725253552197,-10.019617043375968
1746409799026727700,2.959727783203125,-15.221864199674128,1.0057798013210295,-12.985705568051337
1746409799036700400,2.969700439453125,-14.137711703383921,3.213056621852517,-14.60763924564123
1746409799046673700,2.979673583984375,-11.677519859969616,4.527427740570903,-14.622753812664746
1746409799056646700,2.989646728515625,-9.035625880014896,4.672221995952725,-13.249865038526057
1746409799066619600,2.99961962890625,-7.013735437494516,4.224068478608131,-10.213713382065295
1746409799076592600,3.009592529296875,-6.232851602274179,3.8763767384439705,-6.097240770301222
1746409799086566700,3.019566650390625,-5.425478404057025,4.717178743532299,-0.1056844802647829
1746409799096539400,3.029539306640625,-3.4271234431639312,9.59761854250729,6.401274570524692
1746409799106512600,3.0395126953125,-3.0394635574877262,19.106990646284817,10.141184736949205
1746409799116485600,3.049485595703125,-6.506500785627961,28.25243532989025,9.543279049554467
1746409799126458600,3.059458740234375,-12.933226023751496,31.747974429893492,7.240258712536096
1746409799136431600,3.069431640625,-16.93201392085552,30.597188776266574,12.690201695764063
1746409799146404600,3.079404541015625,-15.259136822491884,27.018486239886283,24.922047044599054
1746409799156377600,3.089377685546875,15.915152753549814,17.95316197170019,50.587732189607614
1746409799166350600,3.0993505859375,73.31403678412437,-0.6055243457049131,79.65022601127625
1746409799176323600,3.109323486328125,34.87837439584732,-6.778319246423244,42.546226068258285
1746409799186296600,3.119296630859375,-14.019173002243042,-17.214745989853142,2.1389204926639795
1746409799196269600,3.12926953125,2.759390186305344,-5.739477717977762,12.578506576907634
1746409799206242600,3.13924267578125,18.781425982254742,1.5135124658375978,14.444997198879719
1746409799216216600,3.149216552734375,16.000235759812593,3.2514111946880817,2.996203092432022
1746409799226189600,3.159189453125,8.767276556634902,-3.055409314638376,-8.458381287854909
1746409799236162600,3.16916259765625,5.212041405081749,-7.130569672805071,-13.753501958161591
1746409799246135800,3.1791357421875,5.068872120553255,-1.80104550537616,-12.078964817631244
1746409799256108500,3.189108642578125,6.692955669653415,2.5064213874086736,-11.281188299798965
1746409799266081500,3.19908154296875,3.4138042351245876,-0.03712736912816763,-16.1762084127903
1746409799276054500,3.209054443359375,-0.5126709977015853,-3.8048482102811336,-18.75481503870487
1746409799286027800,3.21902783203125,0.5684793941631913,-4.145887506818771,-16.111653815293312
1746409799296000800,3.229000732421875,2.368181083714962,-2.0870696016564962,-12.559700169628858
1746409799305973500,3.238973388671875,2.808053679448366,0.9242661779776215,-10.572803883600235
1746409799315946500,3.248946533203125,1.9203844169840216,4.367919607920944,-9.602547231081127
1746409799325919700,3.258919677734375,-1.0965613114863633,5.405242256236076,-9.040123191434144
1746409799335893500,3.2688935546875,-4.991393159553408,4.122892123417556,-7.38260674380958
1746409799345866800,3.27886669921875,-7.881600806075334,3.2818580631390213,-4.869252634528279
1746409799355839500,3.288839599609375,-9.598899229967593,2.501883159457147,-2.6549340787917375
1746409799365812500,3.2988125,-10.626911905884743,1.1455810707211493,-0.20970131957828997
1746409799375785500,3.308785400390625,-10.530033247888088,-0.2653127321630716,1.7194430347055196
1746409799385758700,3.3187587890625,-8.616776783087849,-2.403020634166896,2.9960137073397632
1746409799395731700,3.328731689453125,2.2696774548649787,-5.128695013353228,10.227620326864718
1746409799405704400,3.338704345703125,27.310674704015252,-7.511435952818394,17.474625591051577
1746409799415677400,3.348677490234375,36.099202138471604,-8.188955859676003,3.427603335635364
1746409799425650700,3.358650634765625,28.574712642812727,-11.854709487521648,-2.694862184554338
1746409799435623700,3.368623779296875,10.980664553523063,-8.4837442771703,2.9649761795192955
1746409799445596700,3.3785966796875,-1.7536773127406835,-1.7855793484359979,3.8943125003680583
1746409799455569400,3.3885693359375,2.8857974288642403,3.7338887141779065,6.50980216526091
1746409799465543400,3.39854345703125,-3.7210979139268394,7.540246452239155,9.355531787630914
1746409799475516700,3.4085166015625,-8.420718788936734,7.1075476936578745,8.349372047081589
1746409799485489700,3.41848974609375,-7.102251925337314,3.5055668652817604,1.6662771155767142
1746409799495462700,3.428462646484375,-5.452511372411251,0.1091409043289721,-2.5305741241514683
1746409799505435600,3.438435546875,-5.813968018555641,-1.4481816232711076,-2.8255370214298368
1746409799515408600,3.44840869140625,-2.366052254992723,-1.4397180385693906,-4.046799063818156
1746409799525381600,3.458381591796875,2.481860069864988,-0.3579455692835152,-6.413965709793567
1746409799535354600,3.468354736328125,4.219693916785717,0.000771788090094924,-7.3841954743057485
1746409799545327600,3.47832763671875,4.141438710716367,0.2503432726986706,-6.979408220478892
1746409799555300600,3.488300537109375,4.185165039718151,1.0123062804803251,-4.668125374288857
1746409799565273600,3.498273681640625,4.161376167851686,1.8300705243304372,-1.58264386973083
1746409799575246600,3.50824658203125,3.0616847416460513,1.8262290464714168,1.0295175275221466
1746409799585219600,3.518219482421875,0.9825497323811053,0.8651132933937012,1.9759875001318752
1746409799595193600,3.528193603515625,-0.4069301110744476,0.3821514975182712,2.4932380807086822
1746409799605166600,3.53816650390625,-1.6879618547707795,0.21077406337633728,2.8959394681721924
1746409799615139600,3.5481396484375,-3.0699989810049533,-1.25743371822685,1.7162625049732625
1746409799625112600,3.558112548828125,-3.2107728948295113,-3.439828318697214,-0.6388647436402738
1746409799635085600,3.56808544921875,-2.3395219754636285,-4.468336669176817,-3.0662104023769494
1746409799645058600,3.57805859375,-1.9689830281972884,-3.198892487421632,-3.788229376174509
1746409799655031800,3.58803173828125,-2.8611025480687617,-0.30792978474870325,-3.567595743693411
1746409799665004500,3.598004638671875,-3.75895681219995,1.688045587531477,-3.97043887771517
1746409799674977500,3.6079775390625,-3.6295430813014504,2.5908511904597282,-4.3854947198390954
1746409799684950500,3.617950439453125,-2.1639000356197355,2.547773388494551,-3.758008133172989
1746409799694923500,3.627923583984375,0.5546189188539982,1.984289902922511,-1.942397365219146
1746409799704896800,3.637896728515625,4.089851731342077,1.4307641861326992,-0.21087971570789812
1746409799714870800,3.647870849609375,6.178115803480148,1.1571736010983587,-0.04465864141583442
1746409799724843500,3.657843505859375,5.831216090476513,0.5830974829066544,-0.8482976215407252
1746409799734816500,3.66781640625,4.387391493371129,0.09953538305051624,-1.3093025832824408
1746409799744789500,3.67778955078125,1.7674954102128744,0.12313311625905335,-1.2421417488098143
1746409799754762800,3.6877626953125,-0.4086427602112293,0.7954644414976239,-1.0549627882935106
1746409799764735700,3.69773583984375,-1.366316410011053,1.202291822849959,-1.2018217211201787
1746409799774708500,3.70770849609375,-1.535099443745613,1.3844940178669989,-1.3956782597042618
1746409799784681700,3.717681640625,-1.3538555723667145,0.9657320877667516,-2.345908607760817
1746409799794654700,3.72765478515625,-0.8430559214949608,0.9469991841156035,-2.817574664248526
1746409799804628000,3.7376279296875,0.7354115393340587,1.5950307653561233,-1.722676025277376
1746409799814600700,3.7476005859375,0.8354571369290351,0.3910123379092663,-0.9024369157463311
1746409799824574700,3.75757470703125,0.10956102943718432,-1.432206201634556,-0.956441331525892
1746409799834547700,3.767547607421875,-0.6916974852919578,-2.6165444346427917,-1.3394504687868058
1746409799844520700,3.777520751953125,-1.063234211423993,-3.2244863628834484,-0.8355477378219366
1746409799854494000,3.787493896484375,-1.2981383613198996,-3.7927667273432015,-0.23149434145241973
1746409799864467000,3.797467041015625,-1.9681623594641684,-3.837879542267322,0.1997464734055102
1746409799874439700,3.807439697265625,-2.3398896397322413,-3.3759336464136838,0.5334047197811306
1746409799884412700,3.81741259765625,-2.173325451090932,-2.0241259464874863,0.28413419088050723
1746409799894386000,3.827385986328125,-1.4046370805770159,-0.491566104222089,-0.2346034133836627
1746409799904359000,3.83735888671875,-0.10655717144608497,0.4948589352224022,-0.8035228063993155
1746409799914332000,3.847331787109375,1.5256816270589828,0.7213463352330028,-1.0855177932940423
1746409799924304600,3.8573046875,2.8037855006098744,0.10537665642462671,-0.9251336084619164
1746409799934278700,3.867278564453125,2.971143469977379,-0.6394812681034207,-0.23276158490926027
1746409799944251600,3.877251708984375,1.9428987388700245,-0.8336340131551027,0.5104144509464502
1746409799954225000,3.887224853515625,0.47199674974679945,-0.6569554038651287,0.9550662437804043
1746409799964198000,3.897197998046875,-0.736673522093892,-0.3518712908711284,1.1837297457210718
1746409799974171000,3.9071708984375,-1.371737850537896,-0.07788509411532431,1.1455476068429649
1746409799984143600,3.9171435546875,-1.3084113335311411,0.11305709139201789,1.006183705946803
1746409799994116900,3.927116943359375,-0.7342308051168919,0.21788473563175648,0.8127600058220327
1746409800004089900,3.93708984375,-0.05110708690285683,0.2858050467021763,0.5595113670706748
1746409800014062800,3.947062744140625,0.34947745453715323,0.367139696749486,0.41143721323534843
1746409800024035800,3.957035888671875,0.49081718555092807,0.4988412463242188,0.39181203691959376
1746409800034008800,3.9670087890625,0.46694180444478983,0.5459116981221362,0.4130936021402478
1746409800043981800,3.97698193359375,0.3354056745648384,0.4482607771113515,0.46225393888950345
1746409800053955800,3.986955810546875,0.19646014521121977,0.2889247496252879,0.4109738335072994
1746409800063928800,3.9969287109375,-0.009609539866447449,0.13993348094504326,0.1449563140757382
1746409800073901800,4.00690185546875,-0.2404863339424133,-0.008526603467948734,-0.2304645600132644
1746409800083874800,4.016874755859375,-0.36511224604249,-0.1909070776613429,-0.47840763970240946
1746409800093847800,4.026847900390625,-0.3511959488928318,-0.3251604306107387,-0.6432176781527698
1746409800103820800,4.03682080078125,-0.25101240413188936,-0.38530009774230417,-0.7025194696880876
1746409800113793800,4.046793701171875,-0.061060325640439984,-0.39701881178244947,-0.6656273706205189
1746409800123766800,4.056766845703125,0.0565454785645008,-0.35984694592542943,-0.5110219153203069
1746409800133739800,4.06673974609375,0.10993453892469406,-0.2366444176919758,-0.2238029101669788
1746409800143712800,4.076712646484375,0.16455460238456726,-0.09831873726975172,0.08993249212056398
1746409800153686800,4.086686767578125,0.2862520598173141,-0.009031447717547415,0.24683657975196838
1746409800163659800,4.09665966796875,0.36260698522329327,0.045659671684540805,0.2115153832629323
1746409800173632800,4.1066328125,0.2763549351811409,0.055959203109145164,0.13454393339380621
1746409800183606000,4.11660595703125,0.17341127805709838,0.06829192086178809,0.09127952281534671
1746409800193578800,4.126578857421875,0.1288373923152685,0.07292155342381447,0.14873992426767946
1746409800203551700,4.1365517578125,0.08475801209211349,0.0695435648906976,0.1296979546673596
1746409800213524700,4.146524658203125,-0.02445347325503826,0.07120740644969045,0.06842047914490103
1746409800223498000,4.156498046875,-0.15898527781963348,0.04951251118779182,0.03550269053578377
1746409800233471000,4.166470947265625,-0.2376946573972702,-0.011440445088036358,0.022096096473932264
1746409800243443700,4.176443603515625,-0.23331658844351766,-0.10858911566510795,-0.09564560907036065
1746409800253416700,4.186416748046875,-0.13878361679017542,-0.10257471421379595,-0.21125717071816325
1746409800263390700,4.196390625,-0.06870470291376113,-0.07010470590479671,-0.22924174022004007
1746409800273363700,4.20636376953125,-0.03998831151723861,-0.054641179313138125,-0.2503634387038648
1746409800283337000,4.2163369140625,-0.00016015899777412413,-0.07453092484921217,-0.22026216882020233
1746409800293310000,4.22631005859375,0.09442191249430179,-0.07650317477025091,-0.1359669519342482
1746409800303282700,4.23628271484375,0.16461130100786686,-0.04678359768055379,-0.06983779859691858
1746409800313255700,4.246255615234375,0.148269822537899,-0.0514087001979351,-0.030421149487793443
1746409800323229000,4.25622900390625,0.03098550537228584,-0.03659136255532503,0.011214344714581966
1746409800333202000,4.266201904296875,-0.09879998144805431,-0.04490947437174618,0.03273191064819694
1746409800343174700,4.276174560546875,-0.16275661305189132,-0.06522836857270449,0.022654607139527796
1746409800353147600,4.286147705078125,-0.17059738968014715,-0.058546625786460936,0.026889614360779523
1746409800363121000,4.296120849609375,-0.13588497273921965,-0.023795082411542535,0.006208060859888792
1746409800373095000,4.306094970703125,-0.03279284705519676,-0.03224368873983621,0.04159107053875923
1746409800383068000,4.31606787109375,0.07134265020191669,0.0004472323108464479,0.12578677257299423
1746409800393041000,4.326041015625,0.14312544538676739,0.03026727410033345,0.1865595134437084
1746409800403013600,4.336013671875,0.16797931613624095,0.02348689324520528,0.2417478783108294
1746409800412987000,4.34598681640625,0.11163900475502013,0.06882631999943405,0.3286712517432868
1746409800422959900,4.3559599609375,0.07054243973493575,0.08180515363588929,0.5056878608159721
1746409800432932900,4.365932861328125,0.05859948848485946,0.0406747594114393,0.882393221757561
1746409800442905900,4.37590576171875,0.2971902179390192,-0.04302154173329472,1.4198266125328838
1746409800452878600,4.385878662109375,0.6443944668471813,-0.15069091220498085,2.2298354199506343
1746409800462851800,4.395851806640625,0.692062811473012,0.4575022143177688,2.8937422503888603
1746409800472825900,4.405825927734375,0.3021457945197821,1.6223111326001585,2.311521769512445
1746409800482798800,4.415798828125,0.4786521159827709,1.5562052140079439,2.4018451606467366
1746409800492771800,4.425771728515625,1.3579513172477482,1.0320186236228792,1.3342406251840293
1746409800502744800,4.435744873046875,1.2783528798758983,0.29566085294727235,-1.8531120849609375
1746409800512717800,4.4457177734375,-0.839299199309945,-1.8615598875716328,-3.691126261772215
1746409800522690800,4.45569091796875,-2.8399790960192677,-3.129130676670372,-3.9574262514069676
1746409800532663800,4.465663818359375,-1.9119675940334795,-1.826103666526079,-3.0557737640365956
1746409800542636800,4.47563671875,-0.41141105588078497,-0.10787535963887349,-2.3134157665655017
1746409800552610000,4.485610107421875,-0.09889935016930103,0.13351373182954265,-1.6748960369706154
1746409800562582800,4.495582763671875,0.04416998111605644,-0.3936447322394699,-0.5479343265235423
1746409800572555800,4.5055556640625,0.6092763917148113,-1.1515510119762271,-0.061650985009968275
1746409800582529800,4.51552978515625,0.6841220816016197,-0.5692367884017526,0.0508969512835145
1746409800592502800,4.525502685546875,0.2958867341250181,0.2878844467921182,-0.03399842345267534
1746409800602475800,4.535475830078125,0.04017652756571769,0.5369410406811163,-0.01144552312195301
1746409800612449000,4.545448974609375,0.006812602624297142,0.5392850830566138,-0.009034808718413114
1746409800622421800,4.555421875,0.12231003637313842,0.3442415631776675,-0.06081321901157498
1746409800632394800,4.565394775390625,0.28043489797115323,0.07616921184184029,-0.027228783187270164
1746409800642367700,4.57536767578125,0.3396352749586105,-0.152856346610561,0.06581073503792285
1746409800652341000,4.585341064453125,0.24185411516427993,-0.2931884349517524,0.16393077139779924
1746409800662313700,4.595313720703125,0.09543138179779052,-0.3637109644098207,0.1603321623839438
1746409800672286700,4.60528662109375,-0.0476531470566988,-0.38703360700402406,0.1095797341376543
1746409800682260700,4.6152607421875,-0.09574819266200064,-0.34048812892828134,0.09725713592022657
1746409800692233700,4.625233642578125,-0.06522212149500846,-0.2953539058899507,0.0645060821801424
1746409800702207000,4.63520703125,-0.09333996247649193,-0.218599204044044,-0.08745324252545833
1746409800712180000,4.645179931640625,-0.1182850186407566,-0.18149064921420066,-0.1164163021594286
1746409800722152700,4.655152587890625,-0.08192658805847168,-0.1937363097378984,-0.01821370208263397
1746409800732125700,4.665125732421875,-0.029788404542207717,-0.17709175666812807,0.055015784779191015
1746409800742098700,4.6750986328125,0.009723521634936332,-0.21455666892128064,-0.08440759121924639
1746409800752072000,4.685072021484375,0.005979074409604072,-0.1879561919664964,-0.1087757242783904
1746409800762045000,4.695044921875,0.039433015722036356,-0.09369202731717377,0.08673486512303352
1746409800772017700,4.705017578125,0.08824877681732177,-0.009626545800175516,0.08764905735850334
1746409800781991700,4.71499169921875,0.04033727108538151,0.007503266610956052,-0.11306845303624868
1746409800791965200,4.724965087890625,-0.012356792747974394,0.0959706763062626,-0.2832674910485744
1746409800801938200,4.734938232421875,-0.00497661936879158,0.2367046782455407,-0.24521628507375715
1746409800811911400,4.744911376953125,-0.00673252312541008,0.27134353675991296,-0.1025803767696023
1746409800821884400,4.754884521484375,-0.038407764327526094,0.2097526844393462,0.038166064526140686
1746409800831857200,4.764857177734375,-0.006116437053680419,0.1484020706154406,0.09432634316533803
1746409800841830100,4.774830078125,0.05731587841510773,0.12230428248578681,0.10839198565781116
1746409800851803400,4.784803466796875,0.13264789051413536,0.11099449630640447,0.07821253597140311
1746409800861776400,4.7947763671875,0.1547925023049116,0.08955542070278898,0.03890811506509781
1746409800871749400,4.804749267578125,0.16796236500144004,0.08052798244007862,0.0653296735227108
1746409800881723400,4.814723388671875,0.11308394286632537,0.04519610929340124,0.08689443959891796
1746409800891696000,4.824696044921875,0.04195873480737209,0.0012357569066109135,0.0716951169013977
1746409800901669400,4.83466943359375,-0.03842646902799606,-0.02234474203933496,0.11042319922447204
1746409800911642400,4.844642333984375,-0.18239245689213274,-0.035258406051667406,0.10696896711736917
1746409800921615400,4.854615478515625,-0.2456710431039333,-0.04421659217018168,0.06994768871217966
1746409800931588400,4.86458837890625,-0.24588848524689674,-0.10772518317899667,0.027080899149179456
1746409800941561300,4.874561279296875,-0.23970950435101984,-0.14764381786035374,0.02143500221669674
1746409800951534300,4.884534423828125,-0.2132546281456947,-0.1921683845677413,-0.023401918375492093
1746409800961507300,4.89450732421875,-0.18231880713403223,-0.23748499670196324,-0.08984539835900068
1746409800971481300,4.9044814453125,-0.17468085960149765,-0.22558080655969678,-0.11155892525613308
1746409800981454300,4.914454345703125,-0.15808979028463363,-0.15092588087148032,-0.04488017521202564
1746409800991427300,4.92442724609375,-0.12713117291927337,-0.08065057677328587,0.0029372224956750867
1746409801001400300,4.934400390625,-0.04743979656696319,-0.059616967564867805,-0.0002557283267378807
1746409801011373300,4.944373291015625,0.04835632688999176,-0.04293500509415753,-0.03144844670891762
1746409801021346300,4.95434619140625,0.11610358294844626,-0.023762449650419876,-0.03356149334013462
1746409801031319300,4.9643193359375,0.13687339925467967,-0.05742217006748542,-0.05057663328796625
1746409801041292500,4.97429248046875,0.09471241987347602,-0.09031571928448974,-0.08264467319995164
1746409801051265300,4.984265380859375,0.015647650986909865,-0.12431964089618995,-0.12984306222647427
1746409801061238300,4.99423828125,-0.06603869857490062,-0.13588245198857038,-0.15206833803802727
1746409801071212300,5.00421240234375,-0.12090718383789062,-0.12218375224550254,-0.0837771843612194
1746409801081185300,5.014185302734375,-0.12073767248988151,-0.06860184532748535,0.011889321366697549
1746409801091158300,5.024158203125,-0.045474633973836893,-0.0006166340610012412,0.13255802027359603
1746409801101131300,5.03413134765625,0.09251929374337196,0.03960840425498318,0.19245222474411128
1746409801111104300,5.044104248046875,0.14892916322946548,0.005590266888262704,0.10419453396797179
1746409801121077200,5.0540771484375,0.03811667242646217,-0.08394580066008493,-0.02415273674279451
1746409801131050200,5.06405029296875,-0.024888942062854764,-0.11149568729419261,-0.005420125352591276
1746409801141023500,5.0740234375,0.01090659393966198,-0.08268915166249498,0.12380363593176007
1746409801150996200,5.083996337890625,0.05376666150093078,-0.07470524023650213,0.12719678550139069
1746409801160970200,5.09397021484375,0.09783259772062301,-0.05824252827335149,-0.012261515679955481
1746409801170943200,5.103943115234375,0.12512860092520714,-0.027889352288120426,-0.10025456417053938
1746409801180916200,5.113916259765625,0.1535726051211357,0.035490559423284135,-0.06359218220561742
1746409801190889500,5.123889404296875,0.10330664521753788,0.07819718313864432,-0.06185819801986217
1746409801200862500,5.133862548828125,0.026574118670821188,0.08236222126306965,-0.06757949827611447
1746409801210835200,5.143835205078125,-0.020016367590427398,0.07784710019249469,-0.07941124423667788
1746409801220808200,5.15380810546875,-0.00317453838288784,0.017554895680607297,-0.06380027199834584
1746409801230781400,5.163781494140625,-0.0024620061993598937,-0.019028201369871385,-0.06806260561794042
1746409801240754400,5.17375439453125,-0.015722469788789748,-0.012383621389395557,-0.04933905431702733
1746409801250728400,5.183728515625,-0.0259504338145256,-0.011363890986796467,-0.010856763448566198
1746409801260701400,5.193701416015625,-0.03127425918579101,-0.0006350419339491054,0.0360119552321732
1746409801270674200,5.203674072265625,-0.029918168401718136,-0.01956630400167778,0.046453415878117084
1746409801280647200,5.213647216796875,-0.03190320473909378,-0.05210418534853961,0.034076895516365766
1746409801290620400,5.223620361328125,-0.02016834328174591,-0.06819470756500959,0.047616322177648544
1746409801300593400,5.233593505859375,-0.015997195076942444,-0.07256590381998103,0.02376008416339755
1746409801310566400,5.24356640625,-0.013220716100931167,-0.08221580766285769,-0.014567454534769058
1746409801320539100,5.2535390625,-0.02796703433394432,-0.07389781914402264,-0.005092500833421945
1746409801330512400,5.263512451171875,-0.04349076668024063,-0.04486767192347906,0.027556407706439492
1746409801340486400,5.273486328125,-0.05480827950835228,-0.035461723771155806,0.024109335992485284
1746409801350459400,5.28345947265625,-0.08493687579035758,-0.024302155150845644,-0.012835516175627708
1746409801360432400,5.293432373046875,-0.05160100789964199,-0.045683002327778374,0.014087123671919107
1746409801370405000,5.303405029296875,-0.01424713653922081,-0.02817599634293001,0.06866627059951425
1746409801380378400,5.31337841796875,-0.012367314141988753,-0.043690947161149234,0.01874006404429674
1746409801390351400,5.323351318359375,-0.01910334439873695,-0.0240829685753677,-0.02722936770915985
1746409801400324400,5.333324462890625,0.024245967984199524,-0.016015306122368202,0.008689064020663499
1746409801410297300,5.34329736328125,0.03857844471931457,0.009811277550202793,-0.015475363159924744
1746409801420270000,5.35327001953125,-0.00042260932624340057,-0.016098723789234645,-0.03474091238304972
1746409801430244000,5.363244140625,-0.010415011030435562,-0.03596808869098313,-0.019608371311426162
1746409801440217300,5.37321728515625,-0.014347674304246901,-0.03377093940631021,-0.004897708913683891
1746409801450190300,5.3831904296875,-0.060930561780929565,-0.03960008395120967,-0.02685468917787075
1746409801460163300,5.393163330078125,-0.026338556349277495,-0.03521864943001419,0.007621580919623374
1746409801470136300,5.40313623046875,0.1294832890033722,0.06927674434778745,0.15472469776570796
1746409801480109300,5.413109375,0.37168928634524345,0.2937358031688258,0.3978920874856412
1746409801490082300,5.423082275390625,0.6716963152706623,0.45043293351866304,0.47206864593923087
1746409801500055300,5.43305517578125,0.8047095319658517,0.4371099626196548,0.1667469978623092
1746409801510028300,5.4430283203125,0.7234153965920209,0.13906134688616728,-0.23772169153466818
1746409801520002300,5.453002197265625,0.7614853072673082,0.0007502338454127311,-0.2963613658994436
1746409801529975300,5.462975341796875,0.7405494867444038,0.1095034540310502,0.09690203887224197
1746409801539948300,5.4729482421875,0.8020528799772262,0.34816976947207,0.5115341026261448
1746409801549921300,5.48292138671875,0.9617495209366083,0.7687748797535896,0.6570066956609487
1746409801559894300,5.492894287109375,1.2704092273950576,1.0842306760929523,0.27451719835996624
1746409801569867300,5.5028671875,1.90652101906538,1.1507903298020363,-0.7523647199615836
1746409801579840500,5.512840576171875,2.1984879493981597,0.5800029874900355,-2.009428435832262
1746409801589813200,5.522813232421875,2.2294120799720285,-0.14831826478950677,-2.8252652187511322
1746409801599786200,5.5327861328125,2.009475197583437,-0.4890574824020266,-2.869285270002484
1746409801609760300,5.54276025390625,1.7433306907713413,-0.17094324397575109,-2.3166753528833386
1746409801619733200,5.552733154296875,1.6962258252471685,0.3296608473025262,-1.006877533429861
1746409801629706500,5.56270654296875,1.40343588809371,0.6901289938662201,0.1343529408663511
1746409801639679200,5.57267919921875,0.9427636654376983,0.9723477795794606,0.24354075307697057
1746409801649652200,5.58265234375,0.53708443120718,0.9384450715862214,-0.6443836531922221
1746409801659625200,5.592625244140625,0.10405307967066764,0.46862603120468554,-1.9144579495444893
1746409801669598500,5.602598388671875,-0.042300680112838746,0.3116322925284505,-2.633607797646522
1746409801679571500,5.612571533203125,-0.17690964156687258,0.5141097983330488,-2.5386343887493013
1746409801689544200,5.622544189453125,-0.03880523921251297,0.5617353997956961,-1.894092914646864
1746409801699518200,5.632518310546875,0.5438029258072375,0.4834007718145847,-0.9082052700147032
1746409801709491200,5.6424912109375,1.0514227775990963,0.4222726416349411,-0.10821721361279486
1746409801719464200,5.652464111328125,1.6150082622408866,0.50600876333341,0.3459147936195135
1746409801729437400,5.6624375,2.0460674369215965,0.6692822398662567,0.1224281097948551
1746409801739410400,5.672410400390625,2.7709131585776805,0.45980917608588934,-0.3426218895539641
1746409801749383200,5.682383056640625,3.4824779583781957,0.16571560898795723,-0.9803726806029677
1746409801759356200,5.692356201171875,4.693104040461779,-0.5051110838413239,-0.980232395349443
1746409801769329400,5.702329345703125,5.79934678800702,-1.2856249167054892,0.08495528822988271
1746409801779302400,5.712302490234375,6.776767340806126,-1.8147914143949746,0.6313228038281202
1746409801789275600,5.722275634765625,7.083107079884409,-2.1737623812034723,0.795760794095695
1746409801799248400,5.732248291015625,6.891324278834462,-2.235009315457195,0.6445835596784949
1746409801809221600,5.7422216796875,6.2942480280011885,-2.4689661015003916,0.3077083970829844
1746409801819194600,5.752194580078125,5.157304437243938,-3.104819242234528,-0.07284925537258387
1746409801829167600,5.762167724609375,3.6917858947247266,-3.6276296488955615,-0.20816870318353176
1746409801839140600,5.772140625,2.3631541954636575,-3.5377021252110596,-0.08395926292985677
1746409801849113300,5.78211328125,1.2471265514850616,-2.9016739201709627,0.3702756201550364
1746409801859086600,5.792086669921875,0.2282137123465538,-2.0897434970408675,1.386264680801332
1746409801869059600,5.8020595703125,-0.3630535599470138,-1.4782947297230362,2.618275788480043
1746409801879033600,5.81203369140625,-0.4048556428879499,-1.2834281373135745,3.4069700051903724
1746409801889006600,5.822006591796875,-0.4885515787065029,-1.4180997887402773,3.5766721995964645
1746409801898979600,5.8319794921875,-0.728053577786684,-1.8672279963359235,3.2404002635911104
1746409801908952600,5.84195263671875,-1.0481786811113356,-2.261616313484311,2.941880842874944
1746409801918925600,5.851925537109375,-1.4544962132453918,-2.293168512828648,3.0097955644547936
1746409801928898600,5.861898681640625,-1.6677970186203717,-1.9260873048007487,3.299027809126675
1746409801938871600,5.87187158203125,-1.783538782519102,-1.3150225683644414,3.455238946057856
1746409801948844500,5.881844482421875,-1.9256991822659968,-0.7723302341476083,3.6242502355903383
1746409801958818600,5.891818603515625,-1.7878923015534878,-0.3165544052310288,4.159071690301597
1746409801968791600,5.90179150390625,-1.2678957832694053,-0.2173205624103546,4.376961577032506
1746409801978764500,5.9117646484375,-0.9343360288321971,-0.580535450398922,3.8635572966203093
1746409801988737500,5.921737548828125,-0.7479407660394907,-0.8213562769927084,3.027992315402627
1746409801998710500,5.93171044921875,-0.5241343487411737,-0.6693786859780549,2.252232106806338
1746409802008683500,5.94168359375,-0.6529226412177086,-0.26816812159419057,2.0029180310249326
1746409802018656500,5.951656494140625,-1.0612146882951259,0.16738924128860233,2.1096198716387153
1746409802028629500,5.96162939453125,-1.3085288224309681,0.5726200010992586,2.2305101043418047
1746409802038602500,5.9716025390625,-1.5271943697094916,0.9663111297637224,2.329015486757457
1746409802048576500,5.981576416015625,-1.8519605768382548,1.045936162881553,2.482689798687398
1746409802058549800,5.9915498046875,-2.0652444310784337,0.6650459174707531,2.6441461427956816
1746409802068522500,6.0015224609375,-2.0501754567623136,0.11350421410501002,2.1876994288802147
1746409802078495500,6.01149560546875,-1.572017261776328,-0.42785073402822016,0.9993947764590382
1746409802088468500,6.021468505859375,-0.7156377483278512,-0.8518456694111227,0.15238018046617507
1746409802098441700,6.031441650390625,-0.07000292603075504,-0.9229252847626804,-0.11100509076565504
1746409802108414700,6.041414794921875,0.09084288496375083,-0.645819823475182,-0.05290010779947042
1746409802118387500,6.051387451171875,-0.25643209109306336,-0.10778612871915101,0.20640578516423702
1746409802128360400,6.0613603515625,-1.0625789623856543,0.36039632343649863,0.2789282928004861
1746409802138334500,6.07133447265625,-2.0489941380232572,0.5322182864755391,0.5697103972628712
1746409802148307500,6.081307373046875,-2.9953239715099333,0.45203912660628554,1.580926252157986
1746409802158280700,6.09128076171875,-3.7825522073209283,0.49681847179234023,2.5746008974045513
1746409802168253700,6.101253662109375,-4.11121834449768,0.6430810461610555,2.8620591181412336
1746409802178226400,6.111226318359375,-3.6515000615656374,0.7589613417476415,2.04361770568192
1746409802188199400,6.121199462890625,-2.3637562530100342,0.9942755337491631,0.7843769380331039
1746409802198172700,6.131172607421875,-1.1809095737338065,1.4325383561983704,0.07017945164144039
1746409802208145700,6.141145751953125,-0.6741629976451396,1.8725290253534912,-0.2978817073345184
1746409802218119700,6.15111962890625,-0.7805822219252586,2.040732505634427,-0.6285156374529004
1746409802228092700,6.1610927734375,-1.3726152178943156,1.761658374622464,-1.3152405950292945
1746409802238065400,6.1710654296875,-2.2037714427590367,1.558581733880937,-1.5032517685860394
1746409802248038700,6.18103857421875,-2.905261423268914,1.761067422991991,-1.0787965222150087
1746409802258011600,6.19101171875,-3.285836611381173,1.8979653721660374,-0.8229995141550898
1746409802267984600,6.200984619140625,-3.2383260876655577,2.0011749867498874,-1.0831874506503343
1746409802277957600,6.21095751953125,-2.667003286769986,2.0304361525475976,-1.3879644704565406
1746409802287930400,6.220930419921875,-1.962193221926689,1.8465964194566011,-1.4276552603319286
1746409802297903600,6.230903564453125,-1.5588310324668884,1.6831217212632297,-1.5509472934797406
1746409802307877600,6.240877685546875,-1.4843120903164146,1.5613360010251403,-1.701890719141066
1746409802317850600,6.2508505859375,-1.6453233210057019,1.484395384685695,-1.8007354165136813
1746409802327823600,6.26082373046875,-1.9543243882477281,1.5628125033184885,-1.831191345053911
1746409802337796400,6.27079638671875,-2.4572768327504395,1.5679115800231693,-1.995140675021708
1746409802347769600,6.28076953125,-3.1094214753329754,1.3760557137370109,-1.9850334147661923
1746409802357742600,6.29074267578125,-3.7268566235840317,1.1838874205008147,-1.637049998179078
1746409802367715600,6.300715576171875,-4.382985367366671,1.283601301923394,-1.068840360867977
1746409802377688600,6.3106884765625,-5.001619370013475,1.6144053279116748,-0.6315910993754863
1746409802387662600,6.32066259765625,-5.4227451797008515,2.00498402364403,-0.4312427145540714
1746409802397635600,6.330635498046875,-5.567375184431672,2.2503543302357194,-0.32960721741914745
1746409802407608600,6.340608642578125,-5.446449880415201,2.2996704420685767,-0.5158598568707704
1746409802417581600,6.35058154296875,-4.777805353930592,2.3004548704445362,-1.0572621512770652
1746409802427554600,6.360554443359375,-3.642150049418211,2.226419912418723,-1.294608725889027
1746409802437527600,6.370527587890625,-2.6758073554724455,1.8649644353181123,-0.7124865908205509
1746409802447500500,6.38050048828125,-2.1484142971962688,1.2478756162866949,-0.07655892354547977
1746409802457473500,6.3904736328125,-1.947538089108467,0.5562547033622861,0.0028460370808839797
1746409802467447600,6.400447509765625,-2.0103823755562304,-0.008780103304982185,0.045645314365625377
1746409802477420500,6.410420654296875,-2.1779916893362996,-0.4330905343778431,0.24540976181924343
1746409802487393500,6.4203935546875,-2.3377952978014944,-0.4074241782017052,0.27184242619276044
1746409802497366800,6.43036669921875,-2.504453594467044,0.08773732016384601,0.6818453688412904
1746409802507339500,6.440339599609375,-2.490944709074497,0.6626693975977599,1.600512703898549
1746409802517312500,6.4503125,-2.0164543889462947,1.210954729516059,2.0005454566746947
1746409802527285500,6.460285400390625,-1.3518150064498184,1.3032443061567842,1.9439993935883044
1746409802537258800,6.4702587890625,-0.7056880167216062,0.9133123108301311,1.7583043880194424
1746409802547232500,6.480232421875,-0.33579964231848713,0.40044600975215433,1.5485101294606922
1746409802557205800,6.490205810546875,-0.3245347364604473,0.1363383425299078,1.3966519270420075
1746409802567178500,6.500178466796875,-0.6016325989633798,-0.20202267470918595,0.9760212073951959
1746409802577151500,6.5101513671875,-1.2111691029191016,-0.9999217229425906,0.925753493925929
1746409802587124500,6.52012451171875,-2.1001918258190155,-1.9699007275640963,1.0294798258602618
1746409802597097700,6.53009765625,-2.9214263761281964,-2.712977686959505,0.899078252968192
1746409802607070500,6.540070556640625,-3.5040205126225947,-3.003038199149072,0.9417688091814518
1746409802617043500,6.55004345703125,-3.8999107587665316,-2.7360248005479573,1.2588912235587835
1746409802627017500,6.560017578125,-4.231938481330872,-2.1840698402062055,1.6314333273410797
1746409802636990500,6.569990478515625,-4.5371021623671055,-1.6707107141099868,2.1587299395054576
1746409802646963700,6.579963623046875,-4.828551790827513,-1.436995481737703,2.7352561542630194
1746409802656936700,6.589936767578125,-5.107014511942864,-1.334568395833671,2.9668478186100717
1746409802666909400,6.599909423828125,-5.245083258461952,-1.1903827738694845,2.7500176700651644
1746409802676882400,6.60988232421875,-5.234779306590557,-1.0541656465664506,2.0830629963636396
1746409802686855700,6.619855712890625,-5.0496150468975305,-0.9698466834787279,1.3620458930850028
1746409802696828700,6.62982861328125,-4.809158523571491,-0.8241189466390758,0.43753100104331966
1746409802706801700,6.6398017578125,-4.78387152210176,-0.7813568595595657,-0.9598726211488247
1746409802716775700,6.649775634765625,-4.900201315021515,-0.8988285159908235,-2.35520411324203
1746409802726748400,6.65974853515625,-4.926661451923847,-0.9836604701019823,-3.34175548247993
1746409802736721400,6.669721435546875,-4.5927737807065245,-0.8138631447583436,-3.795226979976892
1746409802746694700,6.679694580078125,-4.176632189172506,-0.4081080688126385,-3.875999137303233
1746409802756667600,6.689667724609375,-3.886427592337131,-0.012493717000633477,-3.801820386892557
1746409802766640600,6.699640625,-3.836496271215379,0.49962958369031546,-3.7710447248786685
1746409802776613400,6.70961328125,-4.342146868760883,1.2774649911254643,-3.747759710881114
1746409802786588200,6.719588134765625,-5.1690165023475885,2.4824565744534133,-3.4648458555758
1746409802796561000,6.729560791015625,-5.5696857994616025,4.033549413883686,-3.0525492490321398
1746409802806534100,6.7395341796875,-5.323037435758113,5.466627576047181,-2.2994378023564814
1746409802816507100,6.749507080078125,-4.966051213026047,6.046029053980112,-2.4163866039574144
1746409802826480000,6.759480224609375,-4.658210421735048,5.849933650428056,-2.738157136401534
1746409802836453000,6.769453125,-4.109285915130377,5.489935970920324,-1.7357213848114013
1746409802846426000,6.779426025390625,-3.009518501079082,5.05487515938282,-0.7128525015234947
1746409802856399000,6.789399169921875,-1.5771102010011673,5.399504589366913,-0.16848960374593733
1746409802866373000,6.799373046875,-0.26929504326488823,6.301880714836717,0.16138181756734848
1746409802876346000,6.80934619140625,0.5371849689722061,7.196359949576855,0.48357379029393194
1746409802886319000,6.819319091796875,0.8607441383987665,7.955748576825857,0.7828758858203887
1746409802896292000,6.8292919921875,1.0081611434996127,8.612747089180349,1.0975473999142646
1746409802906265000,6.83926513671875,1.1311527323961257,9.08043298999071,0.9492138644903898
1746409802916238000,6.849238037109375,1.1409908203214407,9.078525110542774,0.8273895658075809
1746409802926211000,6.859211181640625,1.1992553777635098,8.970866699856519,1.130949318778515
1746409802936184000,6.86918408203125,1.1537573629140854,8.724189694580435,1.7437556381851433
1746409802946158000,6.879157958984375,1.7257973721683024,8.572766960969567,3.6283991719633337
1746409802956131300,6.88913134765625,11.87233165345192,10.657021797466278,18.98010847969055
1746409802966104000,6.89910400390625,14.406848962271212,21.98702001314163,37.36200089086294
1746409802976077000,6.9090771484375,-5.374916091555357,24.813578486573693,19.551478626859186
1746409802986050000,6.919050048828125,-7.700140661597252,-3.952841553965211,-3.374828900042176
1746409802996023300,6.929023193359375,-0.05024900876879692,-8.87960763530731,-2.976341038620472
1746409803005996000,6.93899609375,5.21588171389699,1.2154106860116123,-0.7884124771595
1746409803015969000,6.948968994140625,7.175525251340866,4.926248779469728,1.657180932059884
1746409803025943000,6.958943115234375,7.457741187509894,6.706143652528524,5.818367714819312
1746409803035916000,6.968916015625,5.347994766882062,9.053200115150213,9.813011936247348
1746409803045889000,6.978888916015625,1.176923134446144,11.200928768169879,10.745752220320702
1746409803055862300,6.9888623046875,-1.1871148581147193,6.833715554952621,9.644787120917439
1746409803065835000,6.9988349609375,1.1042325767666101,-3.852571499964595,11.73478663854599
1746409803075808000,7.00880810546875,3.6373125462591647,-14.221857136535643,15.85521704802513
1746409803085781000,7.018781005859375,8.486491530051827,-15.216802240109443,14.25713186353445
1746409803095754200,7.028754150390625,10.070103368031978,-1.6578996017232537,9.251478123438357
1746409803105728300,7.038728271484375,9.641809566411375,6.199157422465086,-3.2287592178970574
1746409803115701200,7.048701171875,7.974159262785315,0.13982260444909334,-10.120581509381532
1746409803125674000,7.058674072265625,5.140206002926826,-4.058245463722944,-10.543706383931637
1746409803135647000,7.06864697265625,4.121336418408156,-3.926103769165277,-6.177276430046558
1746409803145620200,7.0786201171875,6.095312432587146,-2.9055905090928076,0.381531758184731
1746409803155593200,7.08859326171875,7.704480152106284,-1.9503329805240035,6.607518443125486
1746409803165566200,7.098566162109375,7.975741563540697,-0.5707040844753384,12.913372153246401
1746409803175540200,7.108540283203125,8.690905264616012,2.6501272630318997,20.986346595048904
1746409803185513000,7.118512939453125,8.691175313729048,6.570615238142013,26.991324676716324
1746409803195486000,7.12848583984375,5.247877857616543,8.507696815165877,26.459636551594734
1746409803205459200,7.138459228515625,-0.513913398978114,6.853562411195039,18.909062182086704
1746409803215432200,7.14843212890625,-6.516148319417238,5.350986934435367,9.975527726280689
1746409803225405200,7.1584052734375,-4.50040938526392,8.074009045547246,5.383997808155417
1746409803235378000,7.1683779296875,-0.8047919495522975,12.523203791880606,2.602304312366247
1746409803245351200,7.17835107421875,-1.4050123436301947,13.968717072725296,-0.40870661922767754
1746409803255325200,7.1883251953125,-9.826714298385381,10.169290887492895,-3.2718811512649055
1746409803265298200,7.198298095703125,-9.94654596194625,10.226964493304491,0.15292232451885937
1746409803275271200,7.208271240234375,-0.27690964645445343,11.577231101268529,2.331279924558103
1746409803285244000,7.218243896484375,2.1963234648406504,12.52729895223975,5.500711631956696
1746409803295217200,7.228217041015625,2.623102770245075,11.32450020278096,7.3153019708216185
1746409803305190100,7.238190185546875,1.6197797144263981,10.036692096817493,7.476178176954388
1746409803315163100,7.2481630859375,-2.053628812086582,8.471703126242756,7.19832686573565
1746409803325137200,7.25813720703125,-5.587881381365657,7.746661589753628,6.128022277534008
1746409803335110100,7.268110107421875,-6.760736243459582,6.956227251377701,5.133386386039853
1746409803345083000,7.278082763671875,-4.7962677700772876,6.14498977894783,7.600911056560277
1746409803355056000,7.28805615234375,-3.330756534081697,6.601420126250386,9.48171135891378
1746409803365029000,7.298029052734375,-2.089250452826917,7.023840067401528,9.940320803821086
1746409803375002000,7.308002197265625,-1.833923692627251,6.274920227196812,10.364950237715243
1746409803384975000,7.31797509765625,-4.12855380244106,1.8665292004168033,9.190210292527079
1746409803394949000,7.32794921875,-7.482861600241065,1.4728513696253298,9.296460589981079
1746409803404922000,7.337922119140625,-3.3441131515219804,1.7762603159487247,7.5226014899551865
1746409803414895000,7.34789501953125,0.23231325661987065,1.2693909902632237,4.504125775438547
1746409803424868000,7.3578681640625,1.3752826835379004,0.7533230435997247,4.559358417838812
1746409803434841000,7.367841064453125,3.6576369568854568,-0.4816220717042684,5.296729859068989
1746409803444814000,7.37781396484375,5.862725327461957,-1.6320231099277733,5.218210449105501
1746409803454787000,7.387787109375,6.942527811849117,-2.250990874573588,5.134742476823925
1746409803464760000,7.397760009765625,6.617552345883846,-2.089208074989915,4.074507447215915
1746409803474734000,7.407734130859375,5.493164869838953,-1.2763906398922205,2.6065689840734003
1746409803484707000,7.41770703125,4.475780847702921,-0.15187573807537555,1.218083996874094
1746409803494680000,7.42768017578125,1.601638054666668,1.1702905645638704,-0.13830021718740462
1746409803504653300,7.4376533203125,-2.969917435313761,2.6457582541674376,-1.0075240146398543
1746409803514626000,7.4476259765625,-8.423115913206338,3.04415668374002,-2.2232740156084296
1746409803524599000,7.45759912109375,-15.213427210718393,2.3350912995398043,-4.492289791694283
1746409803534572000,7.467572021484375,-24.69622285773754,-1.612318292504549,-9.673668347486853
1746409803544545300,7.477545166015625,-30.726856774187087,-6.70833385604918,-9.333174994394183
1746409803554519300,7.487519287109375,-28.08906146172285,-7.748585835814476,-1.580693320184946
1746409803564492000,7.497491943359375,-19.464196649247405,-4.563652900162339,5.2073377574354405
1746409803574465000,7.507465087890625,-12.060779172599315,-0.8448843059659004,6.783650086057186
1746409803584438000,7.51743798828125,-9.111663994556665,1.8067741121560335,3.710407008564472
1746409803594411000,7.527410888671875,-9.985963780099153,1.5256184986948966,-1.292417645585537
1746409803604384300,7.53738427734375,-12.530207533162832,-1.4561147543579338,-6.8602014108180995
1746409803614357000,7.54735693359375,-13.86264622349143,-4.014311044928431,-8.867686895889044
1746409803624331000,7.5573310546875,-11.988644495236873,-3.0519466069638725,-7.918802117222547
1746409803634304000,7.567303955078125,-9.264106134343146,-0.7042284655630588,-5.187837522673607
1746409803644277000,7.577277099609375,-6.866174055486917,1.3685539598047733,-1.9067320314675569
1746409803654250200,7.587250244140625,-5.310900423240661,4.0473429614365095,1.1572504657268523
1746409803664223200,7.59722314453125,-4.316305740539729,6.4476435229897495,4.541940250048041
1746409803674196000,7.607196044921875,-4.504077844643593,7.673416320800781,5.520956547605991
1746409803684169000,7.6171689453125,-5.154190104615688,7.4967498403400175,4.274749449053407
1746409803694143000,7.62714306640625,-5.560872962930798,6.982573406511545,2.955491727337241
1746409803704116200,7.6371162109375,-5.533614953649043,7.117669859221577,2.6262141802638768
1746409803714089200,7.647089111328125,-4.446074568486213,8.488176706659793,3.2375562723368403
1746409803724062200,7.657062255859375,-1.3949709882177412,10.925852766883372,4.959589323535561
1746409803734035000,7.667034912109375,5.638368875065446,13.4714596249938,9.791415021467209
1746409803744008200,7.67700830078125,13.82103527920842,13.194552901148795,14.813973134613036
1746409803753981200,7.686981201171875,17.029975113391874,5.5870297329723835,13.439714241164921
1746409803763954200,7.6969541015625,12.714468706536293,-5.3553556510388844,9.875333660125731
1746409803773928200,7.70692822265625,10.149263998508452,-12.376678182661532,10.009918656182288
1746409803783901200,7.716901123046875,14.086605785524844,-13.665485821056365,10.854827512067557
1746409803793873700,7.726873779296875,15.642337682932615,-10.97503677676916,10.629779570275545
1746409803803846700,7.7368466796875,15.388962641322612,-7.686462849378585,8.50795108218789
1746409803813819600,7.746819580078125,13.975025232958792,-5.6236967911124225,6.976370460218191
1746409803823792600,7.756792724609375,13.429653450399636,-4.325365245307982,6.965594214659929
1746409803833765600,7.766765625,13.49303900411725,-1.2698311352461575,8.034619868966937
1746409803843739600,7.77673974609375,10.753100829517841,3.152665866036713,8.883203029450774
1746409803853713000,7.786712890625,7.053380634662509,4.1650913889825345,8.336825284719467
1746409803863685600,7.796685546875,3.9081063401818272,4.369694800899922,7.721537669891118
1746409803873658600,7.80665869140625,2.106266761818528,5.373637742182612,8.049858354631066
1746409803883631600,7.816631591796875,1.6653189380690454,6.613294688439368,8.436879065620898
1746409803893604900,7.82660498046875,1.7543576962202787,7.842045040756464,8.297184179204702
1746409803903577900,7.836577880859375,1.9105495439290998,9.168208304077387,8.146194576314091
1746409803913551600,7.846551513671875,2.0040277458325026,10.391496883857249,8.438430386716126
1746409803923524600,7.856524658203125,1.7608568489812313,11.284571512496472,9.196596194171905
1746409803933497600,7.86649755859375,1.7624983325779437,12.322198404455184,9.157920134297013
1746409803943470600,7.876470703125,1.2683470341682432,13.749265343505144,7.399026548212766
1746409803953443800,7.88644384765625,-1.390964529055357,15.575591128349304,5.432517216652632
1746409803963416600,7.89641650390625,-5.354228692835569,18.285909240710733,3.8981694680571555
1746409803973389600,7.9063896484375,-9.418706328946351,20.603992122304437,2.547478497201204
1746409803983363600,7.916363525390625,-11.573007346093654,19.844777682578563,0.5290916788876057
1746409803993336600,7.926336669921875,-12.288186244738101,15.809308698809145,-1.6103461156487464
1746409804003309800,7.936309814453125,-11.982481296432018,10.310658675557374,-3.66932447206974
1746409804013282800,7.94628271484375,-10.560996541428565,5.840898111057281,-4.754324525099992
1746409804023255600,7.956255615234375,-9.650180504393576,4.507258520506322,-4.206459172159433
1746409804033228500,7.966228515625,-9.682215226557851,7.179642039009928,-2.0132471173375843
1746409804043201800,7.976201904296875,-11.901977434653043,12.342446242713928,-4.743404487156868
1746409804053175800,7.98617578125,-16.931546303343772,20.148457847058772,-20.863272004044056
1746409804063148800,7.996148681640625,-11.773757881975174,27.020504009449482,-25.871789901399612
1746409804073121800,8.006121826171874,-6.557163051372766,13.848459877228736,-9.840914673173428
1746409804083094500,8.016094482421876,-4.342914053741097,-1.126819671627879,-2.843922865208983
1746409804093067500,8.026067626953125,-0.8303180204749107,-2.877321861463785,-1.4509090024083853
1746409804103040800,8.036040771484375,1.0893325292766094,-2.488117961215973,1.8149618025258183
1746409804113013800,8.046013671875,2.1375351757854224,-2.266187566922605,4.681816338250041
1746409804122987800,8.05598779296875,2.5818185736984014,-2.1834026084691285,4.666109358291328
1746409804132960800,8.065960693359376,3.01343888939321,-2.9681705916464325,4.295571580068767
1746409804142933500,8.07593359375,3.284471752768755,-3.921024273943901,3.9549215751096605
1746409804152906800,8.08590673828125,3.5307279022842644,-4.308436614599824,3.3205358765795827
1746409804162879700,8.095879638671875,3.7982927972882985,-4.487628814145922,3.0315824488490817
1746409804172852700,8.105852783203124,3.2862738337546586,-4.208904227223992,3.0274446183919905
1746409804182825700,8.11582568359375,0.9333242214411497,-2.859100560596585,1.8757091166943312
1746409804192799500,8.125799560546875,-3.4514112044632435,0.5586217247545718,-0.5775331998430192
1746409804202772700,8.135772705078125,-6.345408306396007,5.706430603900552,-2.6180425642460583
1746409804212745700,8.145745849609375,-4.178081803458928,7.736558713412284,-2.3375410307794806
1746409804222718700,8.15571875,-0.786152131012082,4.717008063140511,-1.796323445290327
1746409804232691700,8.165691650390626,1.4377064064860343,0.7253302903026342,-1.645978716174513
1746409804242664400,8.17566455078125,1.846954731374979,-0.5076783039808273,-1.471188550979644
1746409804252637700,8.1856376953125,1.5713783793509006,0.29209523288756606,-0.8702801015723496
1746409804262611700,8.19561181640625,-0.3153244250446558,1.6379755885913967,-0.7303761755153536
1746409804272584700,8.205584716796874,-3.655862932950258,2.1471260109514,0.14850143933668733
1746409804282557700,8.2155576171875,-3.908708982250094,1.7558236771196125,1.4965397037267685
1746409804292530700,8.22553076171875,-1.173756779369712,0.7448799171641468,1.3243112057134507
1746409804302503700,8.235503662109375,0.7258791563570499,-0.5710612273499369,1.1978086130212993
1746409804312476700,8.2454765625,1.263959028342366,-1.4014093507021665,1.179143952300772
1746409804322449700,8.25544970703125,0.8956763355702161,-1.575424439871311,1.1763025183297693
1746409804332423700,8.265423583984376,-0.24218495455384254,-1.1930205750271676,1.1033679227612911
1746409804342396700,8.275396728515625,-0.5991898819863796,-0.333653277939558,1.0881281949881463
1746409804352369700,8.28536962890625,-0.2443780806839466,0.05546002141535282,0.8443480801973492
1746409804362342700,8.2953427734375,-0.18236089271008968,-0.18849661898612974,0.32942013388182967
1746409804372315600,8.305315673828124,-0.08551321437358855,-0.13844868574738503,-0.02999499649759382
1746409804382288600,8.31528857421875,-0.08223755370378494,0.10789221944212912,-0.2581870815342292
1746409804392261600,8.32526171875,-0.04797404957413673,0.30682810711711644,-0.38712822648491707
1746409804402235600,8.335235595703125,0.07021276938915252,0.42928047457039353,-0.43588484127148985
1746409804412209000,8.345208984375,0.2320563592493534,0.4315975193411112,-0.35161417430490255
1746409804422181600,8.355181640625,0.314852131357789,0.2574403913527727,-0.27622294283192605
1746409804432154600,8.365154541015626,0.26064357130825516,0.046130467534065245,-0.23238215713761745
1746409804442127600,8.375127685546875,0.16867606622874737,-0.012860942877829074,-0.11990699381940066
1746409804452100900,8.385100830078125,0.04713233805298805,-0.05286386744230985,-0.016108400366455316
1746409804462073900,8.395073974609375,-0.03839782745540142,-0.07832973261028528,0.11538476715460419
1746409804472047600,8.405047607421874,-0.08875847990512847,-0.14935089577287436,0.18259733181446788
1746409804482020600,8.4150205078125,-0.04562894775271415,-0.2003089295938611,0.2718833427250385
1746409804491993600,8.42499365234375,-0.03711947808265686,-0.19940175162106752,0.30494528904519974
1746409804501966600,8.434966552734375,-0.12760989634692668,-0.10573796401768921,0.2973759497694671
1746409804511939800,8.44493994140625,-0.18106793029010296,0.05777531262040138,0.2433951340612024
1746409804521912600,8.45491259765625,-0.09324702349603176,0.07871843966692686,0.17371552170068025
1746409804531885600,8.464885498046876,0.05168225644230842,0.013416238673031329,0.11797303008213639
1746409804541859600,8.474859619140625,0.12660744130611418,-0.01939005238562822,0.1794176788650453
1746409804551832600,8.48483251953125,0.10201835897266864,0.0032411738783121105,0.2691713803526014
1746409804561805800,8.494805908203125,0.10919102708101272,0.017638532543182373,0.36660350751355286
1746409804571778800,8.50477880859375,0.12683598936498164,0.016371289086341858,0.35915794074796137
1746409804581751600,8.51475146484375,0.08570610659718512,0.055521980735659594,0.2625145528119057
1746409804591724500,8.524724609375,-0.0027361469656229016,0.15477876604050397,0.20087109352126717
1746409804601697800,8.53469775390625,-0.034763270345330236,0.15546587152183056,0.16312530023381114
1746409804611671800,8.544671875,0.037416415202617646,0.05604395878314972,0.2171720938503742
1746409804621644800,8.554644775390624,0.06705752022862434,0.047482758925855156,0.3080613752391189
1746409804631617800,8.56461767578125,-0.038054713106155394,0.24743600694984197,0.3740766929384321
1746409804641590500,8.574590576171875,-0.37314416132867334,0.45903410006016493,0.3317879955243319
1746409804651563500,8.5845634765625,-0.4147989447534084,-0.07222177112400531,0.34539442300722
1746409804661536800,8.594536865234375,-0.0926525647342205,-0.5449366060122848,0.3725022101633251
1746409804671509800,8.604509765625,-0.000024549919366836548,-0.2952218404754996,0.227747994530946
1746409804681483800,8.61448388671875,-0.1479477509766817,-0.08716127384155989,0.6385718251083046
1746409804691456800,8.624456787109375,-0.24999124439060685,0.0162649061024189,1.1042794846482575
1746409804701429500,8.634429443359375,-0.2738566886246204,0.18050912736356256,1.3785089521080254
1746409804711402800,8.64440283203125,-0.2421563129812479,0.2798059524178505,1.5041948946550487
1746409804721375700,8.654375732421874,-0.24362697005569933,0.30483517973423,1.3693126692175865
1746409804731348700,8.6643486328125,-0.2676964124292135,0.08518149820119142,0.7628308766573667
1746409804741321700,8.67432177734375,-0.12757248694598675,-0.37929888456612826,0.261802093693614
1746409804751295700,8.684295654296875,0.27706571379899975,-0.5792927568614482,0.05310819759219885
1746409804761268700,8.694268798828125,0.6788420953720807,-0.45589609429538247,-0.02654591548964381
1746409804771241700,8.70424169921875,0.8178887470126152,-0.2867816366493702,-0.13699161880686878
1746409804781214700,8.714214599609376,0.7877437841176986,-0.09594108488559722,-0.3344870253499597
1746409804791187700,8.724187744140625,0.6392635336995125,0.09149638043642043,-0.5976030511863529
1746409804801160700,8.73416064453125,0.4627157111823558,0.17491233026981354,-0.7906219699025153
1746409804811134700,8.744134765625,0.28286124833524223,0.10718757830411195,-0.9872573255501687
1746409804821108000,8.75410791015625,-0.006720832687616348,-0.02624123345464468,-1.2266831906542182
1746409804831081000,8.7640810546875,-0.5072995337963104,0.01926174983084202,-1.3795569998562336
1746409804841053700,8.7740537109375,-0.7337158413320779,-0.01621376043707132,-1.093845111330226
1746409804851026700,8.784026611328125,-0.3521311839163303,-0.24418548072129487,-0.25110103226341307
1746409804861000000,8.794,0.006366027900576591,-0.6789426331371069,0.35853790915347633
1746409804870973000,8.803972900390624,0.012552023059129714,-0.9757914902925491,0.6320982451800257
1746409804880947000,8.813947021484376,-0.30389819114506245,-0.8986620733827352,0.7049146942615508
1746409804890920000,8.823919921875,-0.6821826379716396,-0.7654206008896232,0.4756843522183597
1746409804900892700,8.833892578125,-0.9782324537038802,-0.7110565580174326,0.218682717609033
1746409804910865700,8.84386572265625,-0.9778992762267589,-0.6687021018907428,0.11303568327780812
1746409804920839000,8.8538388671875,-0.7877116354137659,-0.6035819794654845,0.08188179906867445
1746409804930812000,8.86381201171875,-0.5087894800931215,-0.5047030875623226,0.06458345826528966
1746409804940784600,8.87378466796875,-0.2714303382605314,-0.4010287780761719,0.1821040501384996
1746409804950758700,8.883758544921875,0.11037117677628994,-0.32251053715646266,0.2615450867252424
1746409804960731600,8.893731689453125,0.24979309147000311,-0.09517653025388717,0.3453241707826033
1746409804970705000,8.903704833984374,0.4003998325228691,0.1857926207244396,0.24844311989946288
1746409804980678000,8.913677978515626,0.4717664481222629,0.4248609045624733,0.19657630067048593
1746409804990651000,8.92365087890625,0.5234299998641013,0.688151775509119,0.14972567476886323
1746409805000623600,8.93362353515625,0.5523679250568151,0.852089707300067,-0.03520589041314088
1746409805010597600,8.94359765625,0.5077601370453835,0.745897862035036,-0.19746639964431523
1746409805020571000,8.95357080078125,0.5556137751102447,0.523937949386239,-0.19796373644089324
1746409805030544000,8.9635439453125,0.6579857698261737,0.3240793939083814,-0.1262189351788722
1746409805040516900,8.973516845703125,0.7200666706860065,0.23668577261567114,-0.006353049687994643
1746409805050489900,8.98348974609375,0.6880494841784238,0.25546938354074955,0.09896395810442045
1746409805060462600,8.993462646484375,0.6096750356435775,0.3392261096358299,0.17236333990674466
1746409805070435800,9.003435791015624,0.5378057312190533,0.36865561773777006,0.21586283788271246
1746409805080409900,9.013409912109376,0.4464478824704885,0.33532910219728945,0.27717027015201745
1746409805090382800,9.0233828125,0.370990782687068,0.23541209941804409,0.31935525146331634
1746409805100355800,9.03335595703125,0.2809112833112478,0.14096622152626515,0.3780461810912937
1746409805110328800,9.043328857421875,0.041133389899134634,0.13195523207485674,0.38232137419246137
1746409805120301800,9.0533017578125,-0.20119301895201205,0.1778676729440689,0.36959567506685853
1746409805130274800,9.06327490234375,-0.40482466322779653,0.19757365941107272,0.3296823284819722
1746409805140247800,9.073247802734375,-0.43574119501709935,0.18575667262822387,0.29056378553658724
1746409805150221800,9.083221923828125,-0.38808980152606964,0.18512889611870048,0.32588417830802496
1746409805160194800,9.09319482421875,-0.5428589229553937,0.3102905225306749,0.3569011017318815
1746409805170167800,9.103167724609374,-0.7309715110599995,0.41876843290627,0.5127265272811055
1746409805180140800,9.113140869140626,-0.4950578918606043,0.118243225325644,0.5876326421182603
1746409805190113800,9.12311376953125,-0.22645137884914873,-0.2356774723559618,0.591913753503561
1746409805200086800,9.133086669921875,-0.23696342051327227,-0.3398486254483461,0.6499990819212049
1746409805210059800,9.143059814453125,-0.37110008828043933,-0.3267892373889684,0.6501964311242103
1746409805220033800,9.15303369140625,-0.5301584313362836,-0.2004778564199805,0.5941816253703087
1746409805230006800,9.1630068359375,-0.5090039996266364,-0.08614391349256038,0.5059704040843993
1746409805239979800,9.172979736328125,-0.372342781817913,-0.1536994463711977,0.4198560089472681
1746409805249952800,9.182952880859375,-0.14848434207141398,-0.33380817624032494,0.33398017180636524
1746409805259925800,9.19292578125,0.06970189725756645,-0.4950263276785612,0.25350162713173774
1746409805269899000,9.20289892578125,0.2958703675121069,-0.534484477841854,0.1983817243909463
1746409805279872800,9.212872802734376,0.47867958851158615,-0.47094928652048107,0.11587733644451945
1746409805289845800,9.222845703125,0.5436480275064707,-0.32556115689873694,-0.04925762311127037
1746409805299818800,9.23281884765625,0.5409387685477733,-0.13761632657647133,-0.19026614940930156
1746409805309791700,9.242791748046875,0.5524778151720762,0.005340776506066322,-0.41232371374629434
1746409805319764700,9.2527646484375,0.5321323617577552,0.058010874941945074,-0.6645793228723108
1746409805329738000,9.262738037109376,0.4967682029098272,0.05983575228154659,-0.7924462627202272
1746409805339710700,9.272710693359375,0.45625499073565,0.02519406248927116,-0.7209075784895569
1746409805349684700,9.282684814453125,0.47713703524470324,-0.03769932379722595,-0.5370486657740547
1746409805359657700,9.29265771484375,0.47265725948214526,-0.08771393928825855,-0.318212839962542
1746409805369630700,9.302630615234374,0.3418161261290312,-0.07259352704584598,-0.1685460101082921
1746409805379604000,9.31260400390625,0.14881810407042503,0.030209260302782058,-0.07250175710916519
1746409805389577000,9.322576904296875,-0.14568915839493274,0.287041164368391,-0.026928631196916103
1746409805399549700,9.3325498046875,-0.5737836380511522,0.5326227756232023,0.07161416061967611
1746409805409522700,9.342522705078125,-0.8567173671007156,0.538199698972702,0.2803624172568321
1746409805419496700,9.35249658203125,-0.739115070027113,0.16349603324234485,0.5115713658966123
1746409805429469700,9.3624697265625,-0.43925241800844667,-0.21068565444052217,0.6886545373994857
1746409805439443000,9.37244287109375,-0.5042074129998684,-0.5085270297646522,0.7824985038753598
1746409805449416000,9.382416015625,-0.6097293961793184,-0.6392483361303806,0.8093339038308709
1746409805459388700,9.392388671875,-0.5688432590395212,-0.5198083022356033,0.7855339991137384
1746409805469361700,9.402361572265624,-0.5555599990963935,-0.3370259692430496,0.6629791211340575
1746409805479335700,9.412335693359376,-0.4845218847990036,-0.15846739142537117,0.48426023818813263
1746409805489309000,9.422308837890625,-0.5722077670365572,0.08282499820291996,0.35251389962360263
1746409805499282000,9.432281982421875,-0.7597136214196681,0.18967793772518635,0.3492808359865099
1746409805509254700,9.442254638671875,-0.8152806103408337,0.11504501380622387,0.5474143943026661
1746409805519227600,9.4522275390625,-0.7299830845445394,0.03082826898396015,0.7101785330738872
1746409805529201000,9.462200927734376,-0.5629249749064446,0.12120470547974109,0.7689024516560137
1746409805539174000,9.472173828125,-0.3905044614523649,-0.026588731718063353,0.7186367840133607
1746409805549148000,9.48214794921875,-0.15380641387701033,-0.24289105699658392,0.6109998545065521
1746409805559121000,9.492120849609375,0.10216098231375217,-0.39267537575066086,0.5817475296024233
1746409805569093600,9.50209375,0.4569359587371349,-0.4855126494020223,0.5951851763896644
1746409805579067000,9.51206689453125,0.9307400501668452,-0.5088467632383108,0.5439100029109045
1746409805589039900,9.522039794921875,1.3704992486536502,-0.5170031816869974,0.3944644511245191
1746409805599012900,9.532012939453125,1.6767629998862743,-0.5592155989944935,0.1601500107500702
1746409805608985900,9.54198583984375,1.837032472297549,-0.6268342602372169,-0.009090959352441131
1746409805618960000,9.5519599609375,1.9565783046543597,-0.6010889936059713,-0.1731170808834955
1746409805628932600,9.5619326171875,1.8515216008991002,-0.50495034032166,-0.3280244052071124
1746409805638905900,9.57190576171875,1.417831493192911,-0.26191139928698537,-0.48637145818844435
1746409805648878800,9.58187890625,0.7087152555882931,0.14515665895342825,-0.6933260363418609
1746409805658851800,9.591851806640625,-0.004753332006931304,0.6542565201699734,-1.024444608172029
1746409805668824800,9.601824951171874,-0.5406570289969443,1.2136796244353054,-1.4276912084281443
1746409805678798800,9.611798828125,-0.6758312231183051,1.1122685837060213,-1.5829850843839346
1746409805688771800,9.621771728515625,-0.31299978148937224,0.24278935018777845,-0.9558033989485353
1746409805698744800,9.631744873046875,0.1611544385522604,-0.326775208863616,-0.18609737582467495
1746409805708717800,9.6417177734375,0.4221060528963804,-0.3843862708330154,0.23832111873254178
1746409805718690800,9.65169091796875,0.34786651220917697,-0.27272973042130466,0.35788656910527494
1746409805728663800,9.661663818359376,-0.07602993123531342,-0.10159048894941806,0.3965647113393992
1746409805738636800,9.67163671875,-0.672217124274373,0.0798643948316574,0.46857050162516534
1746409805748610800,9.68161083984375,-1.0548924995362758,0.13707096765339374,0.5708885741967707
1746409805758583800,9.691583740234375,-0.9478291321337222,0.05188508553802967,0.7302517454180866
1746409805768556800,9.701556884765624,-0.6084054540991782,0.06514028843045234,0.8849983627546578
1746409805778529800,9.71152978515625,-0.46923780642747875,0.15913140829205513,0.9656055387776344
1746409805788502800,9.721502685546875,-0.5945709900140762,0.1738496694743633,0.7736310876131057
1746409805798475800,9.731475830078125,-0.5814730235099792,0.06583528495728969,0.46663668401837344
1746409805808449800,9.74144970703125,-0.42481589637696743,-0.004268763360381126,0.32350685471743346
1746409805818422800,9.7514228515625,-0.22712650163173675,-0.07479132935106754,0.2014478704959154
1746409805828395800,9.761395751953126,-0.03809270702898502,-0.15191490104198455,0.13690269841440023
1746409805838368800,9.77136865234375,0.10279986473917961,-0.1791390080541372,0.07435407044496387
1746409805848341800,9.781341796875,0.22720073591172693,-0.1976929018765688,-0.013094349774904548
1746409805858314800,9.791314697265625,0.30490766044855117,-0.18762042067348955,-0.10323606419935821
1746409805868287700,9.801287841796874,0.359026788648963,-0.1590501597493887,-0.14861823411677033
1746409805878261800,9.81126171875,0.39292964277267456,-0.11123217751979828,-0.1513752046747133
1746409805888234500,9.821234375,0.3725473644793033,-0.059364627638459205,-0.12246836874000727
1746409805898207700,9.831207763671875,0.23821721996665,-0.003234744137525558,-0.13570895858518778
1746409805908180700,9.8411806640625,0.1153571484953165,0.04479600405991077,-0.14517631350196897
1746409805918153700,9.85115380859375,-0.0678477938234806,0.08095102102458476,-0.1378282888267189
1746409805928126700,9.861126708984376,-0.1185462999254465,0.03409516182541847,-0.025533669707179067
1746409805938100700,9.871100830078126,0.05972177051305771,-0.10008709864914417,0.08336977260410786
1746409805948073700,9.88107373046875,0.07893032885193824,-0.12259236044585704,0.12664616588130592
1746409805958046700,9.891046630859375,-0.010883797585964201,-0.1094663368910551,0.17381430590003727
1746409805968019700,9.901019775390624,-0.06910626945197582,-0.12801730810403822,0.19393866390958428
1746409805977992700,9.91099267578125,-0.09416355381906032,-0.1540910760372877,0.1803641659349203
1746409805987965700,9.920965576171875,-0.1219493863672018,-0.1321662444770336,0.20481047879680989
1746409805997938700,9.930938720703125,-0.14353285714387892,-0.07840425915122032,0.21431801959350705
1746409806007912700,9.94091259765625,-0.22393735020160674,0.02458499068021774,0.23190686777606606
1746409806017885700,9.9508857421875,-0.3733376380741596,0.09902326880991458,0.1983412097174674
1746409806027858700,9.960858642578126,-0.3527554532945156,-0.00419277551472187,0.16253347182050346
1746409806037831700,9.970831787109375,-0.12465572271645069,-0.16239888565540314,0.15343991865217685
1746409806047805000,9.980804931640625,0.06126373925805091,-0.2357990529090166,0.1781673865430057
1746409806057777700,9.990777587890625,0.13540449574589727,-0.21210370454490182,0.2437866906620562
1746409806067751700,10.000751708984374,0.1464712486833334,-0.10230360565483569,0.21193170897886157
1746409806077724700,10.010724609375,0.11281915445029735,0.017889292433857916,0.1514257292855531
1746409806087697700,10.02069775390625,0.11332008970975875,0.12954291023612022,0.11176562680937349
1746409806097671000,10.0306708984375,0.047101942914724346,0.21027824268341064,0.06672792294807732
1746409806107644000,10.040643798828125,0.05214636682271957,0.1571755980491638,0.09263495601229368
1746409806117616600,10.05061669921875,0.12139233700633048,0.05891688387095928,0.14541845169477163
1746409806127589600,10.060589599609376,0.15246259805262088,0.015761632755398748,0.1901433632798493
1746409806137563600,10.070563720703126,0.13729776214659214,-0.013149404430389403,0.18693945267200468
1746409806147536600,10.08053662109375,0.13555705595910547,-0.020582184779644012,0.16860577747151254
1746409806157510000,10.090510009765625,0.06404664797484874,-0.013776011896133422,0.12875000629276037
1746409806167482600,10.100482666015624,0.02033960819542408,0.0020335516542196275,0.11861278929039835
1746409806177455600,10.11045556640625,-0.008311901271343231,0.021675240713357923,0.10041764577776192
1746409806187428600,10.1204287109375,-0.028229484662413595,-0.005785597664117813,0.10649017062447964
1746409806197402600,10.130402587890625,-0.02302957793176174,-0.05305471383929252,0.1133764960721135
1746409806207376000,10.1403759765625,-0.03660451429784298,-0.10735913547873496,0.09572868424393235
1746409806217348900,10.150348876953124,-0.0671335080742836,-0.11913842059969901,0.061200610893964766
1746409806227321600,10.160321533203126,-0.0701835432946682,-0.15062252314388752,0.04325169722735882
1746409806237294600,10.170294677734375,-0.07785247048735618,-0.1645002418488264,-0.007674041759222746
1746409806247267800,10.180267822265625,-0.09394143550097941,-0.17329028202593325,-0.021162322755157947
1746409806257240800,10.19024072265625,-0.09295008637607097,-0.16286884125471116,-0.021788053438067435
1746409806267214800,10.20021484375,-0.0861824919372797,-0.16008067184090613,-0.014144406817108391
1746409806277187800,10.210187744140624,-0.05630114841461181,-0.18754501734971998,0.011455898385494948
1746409806287160600,10.22016064453125,0.04409457779228687,-0.2551666012018919,0.020048224033415316
1746409806297133600,10.230133544921875,0.03723872054815292,-0.3504056752979755,-0.028181115476042032
1746409806307106800,10.24010693359375,-0.02673252410292625,-0.36296588166356086,-0.09041633011475204
1746409806317079800,10.250079833984374,-0.23262977522313594,-0.25580080745220185,-0.27543051381260153
1746409806327053800,10.2600537109375,-0.7592138552039861,-0.1424754570454359,-0.5241159363016485
1746409806337026800,10.27002685546875,-1.1709984205722808,-0.17044132233560083,-0.7480084244482219
1746409806346999600,10.27999951171875,-1.213136019077897,-0.15844576411545275,-0.804874951660633
1746409806356972800,10.289972900390625,-1.1439783116996287,0.11564239517748355,-0.5424108869269489
1746409806366945800,10.29994580078125,-1.2218944950729609,0.532018964511156,-0.2185708547323942
1746409806376918800,10.309918701171876,-1.3116180206179617,0.7159229950100183,-0.044267011749744414
1746409806386891800,10.319891845703125,-1.689926432842016,1.3326035255014896,0.07540624637901783
1746409806396865800,10.32986572265625,-3.190029382008314,1.8424813853532074,0.098477909886837
1746409806406838500,10.339838623046875,-4.728635372570157,1.6266577835023401,0.2781336352914572
1746409806416811800,10.349811767578124,-5.5708419837594025,1.8314257383316754,0.3857227801337838
1746409806426784800,10.35978466796875,-6.03614654239118,2.7443215042501685,1.0496586905360221
1746409806436757800,10.3697578125,-5.850090302294492,3.432704165905714,2.0121619524493815
1746409806446730500,10.37973046875,-5.812264721769094,3.1698166150629516,2.0039312997207044
1746409806456704500,10.38970458984375,-6.124349141979217,2.4710931766569613,1.4239198731958864
1746409806466677800,10.399677734375,-5.659112387886643,2.2104659719616175,1.0108709869801997
1746409806476650800,10.409650634765624,-4.266130673789978,2.398704816794395,1.2852099061638116
1746409806486623700,10.419623779296876,-2.5741508155494928,2.529814830216765,2.0348760346911847
1746409806496596700,10.4295966796875,-1.0855740535259246,2.109388693231344,2.782829221820831
1746409806506569700,10.43956982421875,0.34668051729500293,1.533668826420605,3.5159903518795965
1746409806516542700,10.449542724609374,1.73298231523633,1.101353221938014,4.252600453348458
1746409806526516700,10.459516845703124,2.961687074846029,0.6944736720070243,4.575953286547959
1746409806536489700,10.46948974609375,3.9855981606632467,0.21225568023622035,4.383521958461404
1746409806546462700,10.479462646484375,4.753698502156138,-0.1713207355186343,3.9286955392241474
1746409806556435700,10.489435791015625,5.379760024455189,-0.4671870113775134,3.375224036839604
1746409806566408700,10.49940869140625,5.9909945645004505,-0.5965080955564975,2.9826448149397966
1746409806576381700,10.509381591796876,6.432099332377314,-0.4698071307480335,2.6938088761091232
1746409806586355700,10.519355712890626,6.619637335464358,-0.3593991290926933,2.3567826146051285
1746409806596328700,10.52932861328125,6.704107178264856,-0.44435587862730025,1.9466341260060667
1746409806606301700,10.5393017578125,6.655809303563833,-0.5979483574926853,1.5299419148519635
1746409806616275000,10.54927490234375,6.479929005044698,-0.7136451132059097,1.1153905151188372
1746409806626247700,10.55924755859375,5.997861527660489,-0.6862298675358295,0.5741385889686643
1746409806636220700,10.569220703125,5.311181578269601,-0.5181459219813347,0.05429214667975902
1746409806646194700,10.579194580078125,5.017377495637536,-0.37581367279887196,0.020533815593272445
1746409806656167700,10.589167724609375,5.103318580034375,-0.3836566413842141,-0.01895662940442562
1746409806666140700,10.599140625,5.1423535363495345,-0.5583811939969658,-0.33851007032096386
1746409806676114000,10.609114013671874,5.083809577444195,-0.8135010334476828,-0.7301637018084526
1746409806686086700,10.619086669921876,5.001578453481197,-1.095696803611517,-1.0969459268897772
1746409806696059600,10.6290595703125,4.825682372871041,-1.2963812885195016,-1.452105226455629
1746409806706032600,10.63903271484375,4.637788980475068,-1.3579023635394871,-1.5349141503065824
1746409806716006700,10.649006591796875,4.4229906300187105,-1.289108959428966,-1.3907900492712855
1746409806725980000,10.65897998046875,3.5156086590856312,-1.2112806004695593,-1.2852432239115237
1746409806735952600,10.66895263671875,2.3313778319746254,-1.2572405337423085,-1.2554875525951386
1746409806745925600,10.678925537109375,1.9872107588052748,-1.874925857362151,-1.0382169668063521
1746409806755898600,10.688898681640625,2.2108201922267674,-2.7121377290040254,-0.9746098792925476
1746409806765871900,10.698871826171874,2.860420995545387,-2.986430470958352,-0.7087196395024656
1746409806775844900,10.708844970703124,3.8697447530835865,-2.53353589656651,-0.1488078749373555
1746409806785819000,10.71881884765625,4.0625756018817425,-1.9216108900390565,0.42836029098555445
1746409806795792000,10.7287919921875,3.183854492765665,-1.4385302900895476,1.2230346050187946
1746409806805764900,10.738764892578125,2.5111510462790725,-0.8568141054734587,1.9764359745517373
1746409806815737900,10.74873779296875,2.8909944129854437,-0.13235562956929206,2.931261541444063
1746409806825711000,10.758711181640624,3.2928064503937957,0.7755810526371002,3.4875060156732793
1746409806835683800,10.768683837890626,1.2710188837260008,1.3437325300201772,2.5980606834471223
1746409806845657900,10.778657958984375,-1.6203203971743583,1.7173416785120963,2.60927356685698
1746409806855630800,10.788630859375,-2.9102959103047845,1.9138988543570041,3.5588410670906305
1746409806865603800,10.798603759765625,-4.019095941117405,1.4712562093883752,3.587948795892298
1746409806875577000,10.8085771484375,-16.73007563649416,2.8691671965807672,-0.2806558472454548
1746409806885550000,10.818550048828126,-38.98813143562078,16.1800791167438,-6.646743953576683
1746409806895522800,10.828522705078125,-10.706274780935049,18.2997343524456,5.5057852819591755
1746409806905496800,10.838496826171875,2.415002456122637,-0.734362907063961,3.4768162793546913
1746409806915469800,10.8484697265625,1.28584703502357,-3.6657492439314723,0.5780040322251617
1746409806925442800,10.85844287109375,7.1712915592938655,-1.065009696663916,-0.3670715634167194
1746409806935416000,10.868416015625,5.835151676359772,0.3719958680763841,1.3772425854340196
1746409806945389000,10.87838916015625,0.9360252970933913,2.277584574727714,2.1732912565603852
1746409806955361800,10.88836181640625,-0.8498685241192578,3.396084454038739,0.6140393683329224
1746409806965335800,10.898335693359375,0.018803484669327734,1.3251470720157026,-0.7704112487837672
1746409806975308800,10.908308837890624,0.30046003338992594,-1.4718985989451407,-1.6081418836027384
1746409806985282000,10.918281982421876,0.23104805898964403,-2.617463595314324,-1.8372402698293326
1746409806995255000,10.928255126953125,-0.0864613088786602,-2.2412381268441677,-1.2771353207796812
1746409807005228000,10.93822802734375,-0.341087227332592,-1.1202043451413513,-0.5420052287355065
1746409807015200800,10.94820068359375,-0.37003801200687886,0.040867432439327236,-0.19903934804946183
1746409807025174000,10.958174072265624,-0.6937760451316833,0.8474582481071352,-0.012732055801153183
1746409807035148000,10.96814794921875,-1.171173192617297,1.4181637938871978,0.20040069953054188
1746409807045121000,10.97812109375,-1.3130477611601352,1.1905258356019854,0.155748487855494
1746409807055094000,10.988093994140625,-0.41143385223448276,0.26082886474728584,-0.24275164852589368
1746409807065067000,10.99806689453125,0.2559942841976881,-0.3739350194454193,-0.6205728617548942
1746409807075039700,11.008039794921874,0.3261807501018047,-0.38024814811497926,-0.3639318040862679
1746409807085013000,11.018012939453126,0.14894202271103857,0.02351969953626394,0.08332914833277463
1746409807094987000,11.027987060546875,-0.2597264564633369,0.46316666982024907,0.41776013264656064
1746409807104960000,11.0379599609375,-0.6278343771904706,0.5652449422866106,0.49441316421627995
1746409807114933000,11.04793310546875,-0.8810445836275815,0.3362573229581117,0.3273398570090532
1746409807124905700,11.05790576171875,-0.7582862189650535,0.1398357561916113,0.045127427971363064
1746409807134879000,11.06787890625,-0.5051987621247768,-0.01628273402005434,-0.190269766138494
1746409807144852000,11.07785205078125,-0.2219698495209217,-0.2230222811833024,-0.22613573702871798
1746409807154826000,11.087825927734375,0.2624643569946289,-0.29933132162094117,-0.27255320481061934
1746409807164799000,11.097799072265625,0.8008446732312441,-0.14417612348347902,-0.23335429010540246
1746409807174772000,11.10777197265625,1.042377885878086,0.0077507602572441095,-0.03585281914770603
1746409807184745000,11.117744873046876,0.8197586325377225,-0.00012976385951042174,0.11678688903748989
1746409807194718000,11.127718017578125,0.28751930327415465,-0.13595716119259596,0.2276478951573372
1746409807204691000,11.13769091796875,-0.20269699377417563,-0.2698208572372794,0.3777385033816099
1746409807214664000,11.147663818359375,-0.39475510463416574,-0.41754415180832144,0.4485837254554033
1746409807224638000,11.157637939453124,-0.24390578699707985,-0.610465016977489,0.31405484350025653
1746409807234611000,11.16761083984375,0.15834171921908854,-0.6658133947119116,0.06493629029095173
1746409807244584000,11.177583984375,0.5176484938532113,-0.5634083745092153,-0.10186316841095686
1746409807254557000,11.187556884765625,0.733717594897747,-0.36152445068359373,-0.09388444461673498
1746409807264530000,11.197530029296875,0.7664572504609822,-0.11644348242729902,0.07280074005573987
1746409807274503000,11.2075029296875,0.6286790113210677,0.125071025519073,0.31137130350470543
1746409807284477000,11.217476806640626,0.3649532560884952,0.2785024686038494,0.43211686704009766
1746409807294450000,11.227449951171875,0.15148527745306492,0.4146887623772025,0.5208104650154709
1746409807304423000,11.2374228515625,-0.11353285567760467,0.42243981489539145,0.47598055868595834
1746409807314396000,11.24739599609375,-0.38059330829083915,0.3702487321481108,0.42927433709055185
1746409807324369000,11.257368896484374,-0.44556350085139274,0.35794396184831856,0.46892041104137894
1746409807334342000,11.267341796875,-0.3313759806573391,0.26952216655164957,0.3332072877377271
1746409807344316000,11.27731591796875,-0.1682692389935255,0.11014058289080858,0.20316987198293207
1746409807354289200,11.2872890625,0.05631868407130241,-0.007360884156823158,0.13652940812259912
1746409807364262000,11.297261962890625,0.2461468439221382,-0.0913847367554903,0.11518997523486614
1746409807374235000,11.30723486328125,0.2546867087304592,-0.15017331807166337,0.120766606323421
1746409807384208000,11.317207763671876,-0.01894143183529377,-0.161759418708086,0.10806436113864183
1746409807394181000,11.32718115234375,-0.3298305047810077,-0.09002017040401697,0.18801877234131098
1746409807404153900,11.33715380859375,-0.2092775412082672,0.051363692012429234,0.30322657549381254
1746409807414127900,11.3471279296875,0.1234434243172407,0.0756429777443409,0.31016251223683355
1746409807424100900,11.357100830078124,0.3017389672845602,0.026602760243415832,0.27307985903322696
1746409807434073900,11.367073974609376,0.2473059508293867,-0.06679039372503758,0.271722014683485
1746409807444046800,11.377046875,0.16852935123443602,-0.1776744884595275,0.3337830417990684
1746409807454020000,11.38702001953125,0.17996084583103655,-0.2862871311306953,0.33968028314411636
1746409807463992800,11.396992919921875,0.27583295713365075,-0.3270943578153849,0.32185295003056524
1746409807473966800,11.406966796875,0.3293278159558773,-0.39575814419686794,0.34086978518962857
1746409807483939800,11.41693994140625,0.28616788866519927,-0.39603462305068965,0.33247838894128795
1746409807493912800,11.426912841796875,0.15266542714834214,-0.4821779520213604,0.3290390621423721
1746409807503886000,11.436885986328125,0.07016600763797759,-0.5521010908141731,0.2642331202328205
1746409807513859000,11.446859130859375,-0.1113531735509634,-0.5678636003524065,0.16638590946495532
1746409807523831800,11.456831787109374,-0.2304313883960247,-0.5152139601826667,0.18821721752285955
1746409807533805800,11.466805908203124,-0.10988660812973976,-0.2825125810280442,0.1998115014657378
1746409807543778800,11.47677880859375,-0.07589198406934737,0.06284662453532218,0.33659020817428825
1746409807553752000,11.486751953125,-0.008521160107851028,0.34872692843079567,0.5254249730736017
1746409807563725000,11.49672509765625,0.012578911066055297,0.7749722730889916,0.611263181617856
1746409807573698000,11.506697998046874,-0.11055179404020309,1.3630734825670718,0.747861855584383
1746409807583670800,11.5166708984375,-0.14675065014660357,1.8046634036123752,0.8899760781019925
1746409807593644800,11.526644775390626,-0.11859598428606986,1.923878688840568,0.9166326143592596
1746409807603617800,11.53661767578125,-0.01447276198863983,1.8768454272478818,1.0278269440867007
1746409807613591000,11.546591064453125,0.3406248705178499,1.7331608866736292,1.2023869537875056
1746409807623564000,11.55656396484375,0.6977718367695808,1.5510907936036586,1.1181301692157983
1746409807633537000,11.566537109375,0.6517687950074672,1.2586468934088946,0.8301914714857935
1746409807643509800,11.576509765625,0.15075988578796387,0.9719166946858168,0.43270343475639816
1746409807653483000,11.58648291015625,-0.2507990536421537,0.7335697108596563,0.06346051864996552
1746409807663457000,11.59645703125,-0.5071966579437256,0.5544587598562241,-0.36203707638084887
1746409807673430000,11.606429931640625,-0.8965250613540411,0.4128565785139799,-0.863398013908416
1746409807683403000,11.616403076171874,-1.233826340407133,0.16361176857650278,-1.110813635657355
1746409807693375700,11.626375732421875,-1.1075380480527877,-0.03545300617516041,-1.1663150850616395
1746409807703349000,11.636348876953125,-0.7430021405935288,-0.012938976550102232,-1.0472408157393336
1746409807713322000,11.646322021484375,-0.34373744958043095,0.21645663905739784,-0.6454655301447957
1746409807723296000,11.6562958984375,0.014029694396257399,-0.0021644845575094222,-0.5457650927256793
1746409807733269000,11.66626904296875,0.19988953513801097,-0.43547991373240946,-0.7712752452019601
1746409807743242000,11.676241943359376,0.368165203872323,-0.5490794049054384,-1.045190312950313
1746409807753214700,11.686214599609375,0.5707359409183264,-0.5253747041910887,-1.3269473994359373
1746409807763188000,11.69618798828125,0.654824090924859,-0.5768979706794023,-1.5967651879332958
1746409807773161000,11.706160888671874,0.5195908600926399,-0.8762497505664825,-1.6973327635757625
1746409807783135000,11.716135009765624,0.37246319332718847,-1.0918015497386455,-1.5780315536297858
1746409807793107500,11.726107421875,0.30757366478741166,-1.2778045983433723,-1.1937135257273912
1746409807803080400,11.73608056640625,0.44703532696962356,-1.176846562078595,-0.7017354797035456
1746409807813053400,11.746053466796875,0.17649638459086417,-1.0258826781511305,-0.3326198432385921
1746409807823026400,11.7560263671875,0.06215630418360233,-1.1206067884624005,-0.13599369381070137
1746409807832999400,11.76599951171875,-0.10045476291775703,-1.386312903857231,0.25403496682345866
1746409807842972400,11.775972412109375,-0.03779401634335518,-1.5148112734764814,0.5811345853358507
1746409807852946400,11.785946533203125,0.314343012791872,-1.1360352437406778,0.7963871093004942
1746409807862919400,11.79591943359375,0.33611937579214574,0.02264437800645828,0.6298559461459518
1746409807872892400,11.805892333984374,-0.725962742987275,1.2724001089513302,0.6123141519755124
1746409807882865400,11.815865478515626,-1.9482833545178173,2.2655466386705636,-0.1965291187942028
1746409807892838400,11.82583837890625,-0.4562114438548684,2.6144448320150375,-1.8572341333270073
1746409807902811600,11.835811767578125,0.36972704636156556,2.7912364001601935,-1.7780916230291126
1746409807912785400,11.845785400390625,0.26856676552295683,3.193127348023653,-1.2962550317913293
1746409807922758400,11.85575830078125,-0.07236673255264758,3.270858822479844,-0.7574971144139766
1746409807932731400,11.8657314453125,-0.34656507422178984,3.27827056004107,-0.3262222511559725
1746409807942704400,11.875704345703125,-0.767860395257175,3.7580987340658902,-0.5547925218552351
1746409807952677400,11.885677490234375,-1.7741808793261646,3.7103123160183427,-1.401865277776122
1746409807962650600,11.895650634765625,-2.36025847402215,3.3301489235773682,-2.6972283291637895
1746409807972624600,11.905624755859375,-2.2471038040071725,3.030753596809506,-3.591557341778278
1746409807982597400,11.915597412109374,-1.3025117540985345,3.0445632187142966,-3.2297692717224358
1746409807992570400,11.9255703125,-0.22384616478681563,3.222685743202269,-1.736494122749567
1746409808002543400,11.93554345703125,0.2839875489514321,3.0336908193051815,0.07827215720415115
1746409808012516600,11.9455166015625,-0.029421918450528755,2.5335350197836757,1.128694233328104
1746409808022489600,11.955489501953124,-0.9764975927352905,1.3521341554015873,1.3138549858897923
1746409808032463600,11.965463623046874,-1.5768144329249858,0.42395401885062456,1.2624743427425622
1746409808042436400,11.975436279296876,-1.4933401770330965,0.11678937325552105,1.7619611569613218
1746409808052409300,11.985409423828125,-1.056475384813547,-0.05816197385042905,2.451514615961909
1746409808062382300,11.99538232421875,-0.9150983905293046,0.10516571708768606,2.448368719151616
1746409808072355600,12.00535546875,-0.9174445152640343,0.13410948749929666,1.8738865774422884
1746409808082328300,12.015328369140626,-1.0377952342629433,-0.38327604456879194,2.4858669674187897
1746409808092301300,12.02530126953125,-0.5736034591786563,-0.881422842355445,4.138638850864767
1746409808102275300,12.035275390625,-0.11004662099704146,-1.3785142128050327,4.566120167058706
1746409808112248300,12.045248291015625,-0.41884719723090524,-1.3072104333087802,4.424421539604664
1746409808122221600,12.0552216796875,-0.9036943684615194,-1.0283429307848215,2.8356507114261387
1746409808132194600,12.065194580078124,-1.3507739729642867,-0.878090921453759,0.5631997001945972
1746409808142167300,12.075167236328125,-1.86105223031044,0.17686565629467368,1.1912731468379496
1746409808152140300,12.085140380859375,-1.3440484641015529,-0.10023271766491233,0.28442893604338165
1746409808162114300,12.0951142578125,-1.3906125007472931,-0.12850947553515432,0.26545944715738296
1746409808172087600,12.105087646484375,-3.254540432624519,0.15828253637775777,4.188461158654094
1746409808182060500,12.115060546875,-2.8772575640559195,-1.6162304975122213,2.1392881569325923
1746409808192033500,12.125033447265626,-1.8307342489361762,-0.7688903958920389,3.484416232964396
1746409808202006300,12.13500634765625,-1.5978174734652042,-0.9583740531541407,2.828352371111512
1746409808211979300,12.144979248046875,-2.0756233478821815,-1.1866218869660048,2.912055905714631
1746409808221953300,12.154953369140625,-3.018598171852529,-0.7358959618501365,1.9562989031910896
1746409808231926500,12.164926513671874,-3.193867352735996,-0.25117395136915144,0.7936854491263627
1746409808241899500,12.1748994140625,-3.4725603754758834,0.35079715883359314,-0.08260755605995655
1746409808251872500,12.18487255859375,-3.676724519193172,0.5192573903545737,-0.8168319314360618
1746409808261845200,12.19484521484375,-3.676535134100914,0.6042354749381542,-1.292085637152195
1746409808271818500,12.204818603515625,-3.3110815272748466,0.5589048525448889,-1.4456132340878247
1746409808281792500,12.21479248046875,-2.283683768385649,0.4698207208819687,-1.3223416592061519
1746409808291765500,12.224765625,-0.883869650985673,0.5537983231861144,-1.4498375737845897
1746409808301738500,12.234738525390625,0.29499522864539174,0.23056400179974734,-1.3858312578201293
1746409808311711500,12.24471142578125,1.1556418614864348,-0.22179471214972435,-0.9335895943790674
1746409808321684500,12.2546845703125,1.7046610606372354,-0.4083943384081125,-0.5037888953268528
1746409808331657500,12.264657470703124,1.7463713736414908,-0.3054373834110796,-0.07821896571218967
1746409808341630500,12.27463037109375,1.2244880186975002,-0.0716363724514842,0.014826982253789901
1746409808351604500,12.2846044921875,0.7711620671510696,0.25119667465761303,0.031359599381685255
1746409808361577500,12.294577392578125,0.5063315655469894,0.42302652874216434,0.18674539140462873
1746409808371550200,12.30455029296875,0.38411855980753895,0.40398280557617544,0.284252994954586
1746409808381523500,12.3145234375,0.2244879698216915,0.44888665392473337,0.14942717587947846
1746409808391496400,12.324496337890626,0.20091887818574905,0.6586047785073519,-0.03785656018555164
1746409808401469400,12.334469482421875,0.27832477394938465,0.7300473819524049,-0.3250274884134531
1746409808411443500,12.344443359375,0.3301052300691604,0.7858116470113397,-0.5575362676054239
1746409808421416400,12.35441650390625,0.3929880949616432,0.8977513882786035,-0.806566558009386
1746409808431389400,12.364389404296874,0.3815215290516615,0.8483874917812645,-0.9138391842484473
1746409808441362400,12.374362548828126,0.05338906036019325,0.6813914875939489,-0.6567442453324794
1746409808451335400,12.38433544921875,-0.33574235917329787,0.5410189941771328,-0.3608294541567564
1746409808461308400,12.394308349609375,-0.493661469066143,0.48158714652135964,-0.14474807815253735
1746409808471282400,12.404282470703125,-0.5822405007511376,0.41869244506061076,-0.04243921180069447
1746409808481255400,12.41425537109375,-0.5388116933912038,0.3087188892997801,0.042351533517241476
1746409808491228400,12.424228515625,-0.2975327477663755,0.26415596334338187,0.010959785431623459
1746409808501201400,12.434201416015625,-0.03064706719815731,0.24609043755978344,-0.09291618410646915
1746409808511174400,12.44417431640625,0.2730640769422054,0.19890300831869243,-0.2238596087902784
1746409808521147400,12.4541474609375,0.4439221633851528,0.18794862971454857,-0.20908464898467063
1746409808531120600,12.46412060546875,0.473696539402008,0.16043927602022887,-0.26458500241041183
1746409808541094700,12.4740947265625,0.35416122843921183,0.09535510169118643,-0.27766309517025944
1746409808551067400,12.4840673828125,0.16072541775153948,0.0004012742772698402,-0.11978081015646456
1746409808561040400,12.494040283203125,0.25345161397755145,-0.09502835395485162,-0.08444704644680023
1746409808571013400,12.504013427734375,0.558604773619771,-0.16090119444355366,0.12394845122992992
1746409808580986600,12.513986572265624,0.46404023778438563,-0.42706279852092266,0.7422311562210321
1746409808590959600,12.523959716796876,0.5058195243716239,-0.5469193042621017,1.0255337185829878
1746409808600933600,12.53393359375,0.4293775052040815,-0.4600461997121572,0.8462836513698101
1746409808610906400,12.54390625,0.18475275628268717,-0.30146278069168325,0.6320639775842428
1746409808620879400,12.55387939453125,-0.20650106223225592,-0.1524234350860119,0.335863355204463
1746409808630852400,12.563852294921874,-0.579608398681879,0.008382336159050464,0.14974047961235046
