time,seconds_elapsed,z,y,x
2025-04-22 16:44:56.343289600,0.02628955078125,0.5718582229465246,0.0075499769881367,-0.1367789624368771
2025-04-22 16:44:56.353262600,0.0362626953125,0.53331718762815,-0.0647515813738107,-0.1247017903478816
2025-04-22 16:44:56.363235800,0.04623583984375,0.3797229551970958,-0.0949456441074609,-0.0991143811594694
2025-04-22 16:44:56.373208600,0.05620849609375,0.1321568921267986,-0.0903024944767355,-0.0920773038632236
2025-04-22 16:44:56.383181600,0.066181640625,-0.1092652613610029,-0.0599397971779108,-0.1164560496479272
2025-04-22 16:44:56.393154600,0.076154541015625,-0.2561597038924694,-0.0226683434039354,-0.1821460443830117
2025-04-22 16:44:56.403127600,0.08612744140625,-0.2551578333735466,0.02100917802006,-0.2109030052519403
2025-04-22 16:44:56.413100800,0.096100830078125,-0.1501969912081956,0.037221769413352,-0.2560779804257675
2025-04-22 16:44:56.423074800,0.10607470703125,0.0480962146490812,0.0161877492129802,-0.290669766661711
2025-04-22 16:44:56.433047600,0.116047607421875,0.1945768156826496,-0.02308861464262,-0.3200034131737426
2025-04-22 16:44:56.443020500,0.1260205078125,0.219141932618618,-0.0850488117322325,-0.2985630406621843
2025-04-22 16:44:56.452994300,0.135994384765625,0.1792155804216861,-0.107935181801021,-0.2340641188751906
2025-04-22 16:44:56.462967000,0.145967041015625,0.0539560465931892,-0.0786705088719725,-0.1601878220098093
2025-04-22 16:44:56.472940300,0.155940185546875,-0.0773778387129306,-0.0611857055857777,-0.0947798590864986
2025-04-22 16:44:56.482913300,0.165913330078125,-0.1583656846165657,-0.0531929532662034,-0.0623637181228958
2025-04-22 16:44:56.492886300,0.17588623046875,-0.1360825411379337,-0.0646469519555568,-0.0974753817807883
2025-04-22 16:44:56.502859300,0.185859375,-0.0063970075607299,-0.0669134355828166,-0.1411520994871854
2025-04-22 16:44:56.512832300,0.195832275390625,0.1590840620189905,-0.0896890387535095,-0.2119672734825871
2025-04-22 16:44:56.522805200,0.20580517578125,0.2355705048501491,-0.1182888180330395,-0.2657927524986677
2025-04-22 16:44:56.532778200,0.2157783203125,0.2708522461116314,-0.1031768813580274,-0.2847445413311943
2025-04-22 16:44:56.542752300,0.225752197265625,0.1758598402529954,-0.1005611459016799,-0.293600011427328
2025-04-22 16:44:56.552725200,0.235725341796875,0.0146516256868839,-0.0907487769395112,-0.2415596987949684
2025-04-22 16:44:56.562698200,0.2456982421875,-0.1255751756489276,-0.0840282365128397,-0.1155892584844492
2025-04-22 16:44:56.572671200,0.255671142578125,-0.2127279739230871,-0.0863388515427708,-0.012541063273698
2025-04-22 16:44:56.582644200,0.265644287109375,-0.2427314825206994,-0.0999336616531014,0.0279843507949262
2025-04-22 16:44:56.592617200,0.2756171875,-0.1768073502361774,-0.1433352887451648,-0.0393794771702028
2025-04-22 16:44:56.602590200,0.285590087890625,-0.00936228710711,-0.1099570430174469,-0.1733876231868751
2025-04-22 16:44:56.612563200,0.295563232421875,0.0074210899114608,-0.0490928244709968,-0.2647933479314669
2025-04-22 16:44:56.622536200,0.3055361328125,0.0557131193935871,0.0222834357395768,-0.3292841594772413
2025-04-22 16:44:56.632509200,0.31550927734375,0.0531160886377096,0.0896428615242242,-0.3292386763677001
2025-04-22 16:44:56.642482200,0.325482177734375,0.0477694669127464,0.5021221311584114,-0.5541814772848039
2025-04-22 16:44:56.652455400,0.335455322265625,-0.0395084190458059,1.6688570490673182,-1.2108914550215004
2025-04-22 16:44:56.662429400,0.345429443359375,-0.2225409274071454,0.9793979903519152,0.0821848736684769
2025-04-22 16:44:56.672402200,0.355402099609375,-0.5140829103261232,-0.9641405077263712,1.493840089379251
2025-04-22 16:44:56.682375200,0.365375244140625,-0.3957470382809638,-1.5249863382712006,1.740101937983185
2025-04-22 16:44:56.692348200,0.37534814453125,-0.0146744220405817,-0.5694035232707858,1.7938152618616818
2025-04-22 16:44:56.702321400,0.3853212890625,0.1433463946610689,-0.3808271170467138,1.3424835528723895
2025-04-22 16:44:56.712294400,0.39529443359375,0.0632668957740068,-0.4119605064570903,0.6925370048560202
2025-04-22 16:44:56.722267100,0.40526708984375,-0.2073410201877355,-0.115227384635806,0.1661571604766883
2025-04-22 16:44:56.732240100,0.415240234375,-0.5768623148441314,0.0478439934536814,-0.1937328026065602
2025-04-22 16:44:56.742213400,0.42521337890625,-0.5442933396726847,-0.0270244927868247,-0.6299060688979924
2025-04-22 16:44:56.752186400,0.435186279296875,-0.2335568269401788,0.0798480282187461,-1.030821084401384
2025-04-22 16:44:56.762159400,0.445159423828125,-0.1291623864859342,0.1142664306491613,-1.101146739580482
2025-04-22 16:44:56.772133400,0.45513330078125,-0.3997872535824775,-0.0425906029701232,-0.564701336929202
2025-04-22 16:44:56.782106000,0.465106201171875,-0.3007645692944526,-0.4008274102851748,0.2045655275924131
2025-04-22 16:44:56.792079000,0.4750791015625,-0.0926847134381532,-0.3198436560347676,0.3980638638559728
2025-04-22 16:44:56.802052400,0.48505224609375,0.0888204392254352,-0.0435313909515738,0.231907543629501
2025-04-22 16:44:56.812025300,0.495025390625,0.2568476861566305,0.0172840200170874,0.1643227298574522
2025-04-22 16:44:56.821998300,0.504998291015625,0.3330336847364902,-0.0083773677229881,-0.0376532241997541
2025-04-22 16:44:56.831971000,0.51497119140625,0.3371744378030299,0.0139116209745407,-0.1620861664444208
2025-04-22 16:44:56.841944300,0.5249443359375,0.3002344079405069,0.0641156215578317,-0.4220196897871792
2025-04-22 16:44:56.851917300,0.534917236328125,0.2253770276159048,0.0959735258504748,-0.5151788158040493
2025-04-22 16:44:56.861890300,0.544890380859375,0.1782072801619768,0.0971159738838672,-0.4204047654038295
2025-04-22 16:44:56.871863000,0.554863037109375,0.1039256538987159,0.0944312648445367,-0.1575421663392335
2025-04-22 16:44:56.881837000,0.564837158203125,0.0746580583602189,0.0550125699087977,0.1643653999553993
2025-04-22 16:44:56.891810300,0.574810302734375,0.0955091232091188,0.0162187288731336,0.3685041900357231
2025-04-22 16:44:56.901783300,0.584783203125,0.1368003340184688,0.0097080318048596,0.4133089619239792
2025-04-22 16:44:56.911756300,0.59475634765625,0.1890092446833849,-0.0385597400188446,0.329623328303732
2025-04-22 16:44:56.921729300,0.604729248046875,0.1999035636633634,-0.0286141000658273,0.1841053434909321
2025-04-22 16:44:56.931702000,0.614701904296875,0.1839706659942865,0.0220998958662152,0.0373848007882246
2025-04-22 16:44:56.941675300,0.62467529296875,0.0868763194203376,0.03656330550462,-0.0335456861329381
2025-04-22 16:44:56.951648300,0.634648193359375,0.0811719702988863,0.0515507390171289,-0.1152550032950937
2025-04-22 16:44:56.961621200,0.644621337890625,0.0894908858329057,0.0981941245093941,-0.0739081715746782
2025-04-22 16:44:56.971594200,0.65459423828125,0.0737690005660057,0.0591480622783303,0.0486485147695988
2025-04-22 16:44:56.981567200,0.664567138671875,0.1174842236518859,-0.0013619360029697,0.1596693145610392
2025-04-22 16:44:56.991541200,0.674541259765625,0.1736947711735963,-0.0202884625300765,0.1802962883304804
2025-04-22 16:44:57.001514200,0.68451416015625,0.1856727937370538,-0.0145063719972968,0.0819893602295313
2025-04-22 16:44:57.011487200,0.6944873046875,0.1365712014377117,-0.0167544431850314,-0.0533149950435617
2025-04-22 16:44:57.021460200,0.704460205078125,0.0555576365709304,0.0105585111543536,-0.1152598438669927
2025-04-22 16:44:57.031433200,0.71443310546875,0.0732172119021415,0.0311690452456474,-0.1369560634362976
2025-04-22 16:44:57.041406200,0.72440625,0.1078974801391363,0.0216349087029695,-0.1293727778336033
2025-04-22 16:44:57.051379200,0.734379150390625,0.1832470278948545,0.0033329438149929,-0.1256857507507782
2025-04-22 16:44:57.061352200,0.744352294921875,0.2622615278989076,-0.0254559282958507,-0.0525037654256448
2025-04-22 16:44:57.071325200,0.7543251953125,0.2839256626963615,-0.0331005978301167,0.0392261954377871
2025-04-22 16:44:57.081298400,0.76429833984375,0.2728255920112133,-0.0517231729745864,0.1849945108829997
2025-04-22 16:44:57.091272400,0.7742724609375,0.1709270600259304,-0.0520288779228925,0.2468411463292315
2025-04-22 16:44:57.101245200,0.7842451171875,0.0379617741256952,-0.073701196026802,0.1355313735285774
2025-04-22 16:44:57.111218200,0.79421826171875,-0.0233545721024274,-0.0730047381952404,-0.0668596961015835
2025-04-22 16:44:57.121191200,0.804191162109375,-0.0541255579411983,-0.0745832395583391,-0.2025254913984797
2025-04-22 16:44:57.131164400,0.814164306640625,-0.0404834015578031,-0.0265665198862552,-0.2523155226197093
2025-04-22 16:44:57.141137400,0.824137451171875,-0.044001054289937,-0.0599003419503569,-0.2008549461040645
2025-04-22 16:44:57.151110100,0.834110107421875,-0.0443476757705211,-0.0521422751694917,-0.0964678304397501
2025-04-22 16:44:57.161083100,0.844083251953125,0.0535959811091423,-0.0421250312849879,-0.0208310404076008
2025-04-22 16:44:57.171056400,0.854056396484375,0.1206090776741504,-0.0410641240552067,0.0944257301528938
2025-04-22 16:44:57.181029400,0.864029296875,0.1571060399442911,-0.0960287631690502,0.066026697609853
2025-04-22 16:44:57.191003400,0.87400341796875,0.2495136900067329,-0.1300508597582578,0.0584871506841853
2025-04-22 16:44:57.200976100,0.88397607421875,0.0727601157844066,-0.171474172514677,0.1116000061851926
2025-04-22 16:44:57.210949000,0.89394921875,-0.258262229129672,-0.2037096779480576,0.1806872969420626
2025-04-22 16:44:57.220922000,0.903922119140625,-0.4812625907421112,-0.1002192005962133,0.2457231020847335
2025-04-22 16:44:57.230895400,0.913895263671875,-0.6505261014699936,0.0359136094242334,0.2888543695365078
2025-04-22 16:44:57.240868400,0.923868408203125,-0.8322323296636343,0.0944961467742919,0.2150472471835091
2025-04-22 16:44:57.250841000,0.933841064453125,-0.8213648986905813,0.090126261126995,0.0521149487711489
2025-04-22 16:44:57.260814000,0.94381396484375,-0.6245411808639765,0.1271025313466787,-0.0391753511665388
2025-04-22 16:44:57.270787300,0.953787353515625,-0.3731850778609514,0.1034808327406644,-0.1058878025508485
2025-04-22 16:44:57.280760300,0.96376025390625,-0.1274403849989175,0.0385468805372715,-0.1815777429757639
2025-04-22 16:44:57.290733300,0.9737333984375,0.0202536834776401,-0.0075534841194748,-0.2590436252983287
2025-04-22 16:44:57.300707300,0.983707275390625,0.0180547121286392,-0.116531160710752,-0.2602451100425794
2025-04-22 16:44:57.310680000,0.99368017578125,-0.0180932905733585,-0.2149918272018432,-0.1746097305940464
2025-04-22 16:44:57.320653300,1.0036533203125,0.0158352825134992,-0.1836857115730643,-0.1363296568999532
2025-04-22 16:44:57.330626300,1.013626220703125,0.0647445671111345,-0.140298697528243,-0.1738269461859017
2025-04-22 16:44:57.340599300,1.023599365234375,0.1558580857098102,-0.1201122340679168,-0.1708431446021422
2025-04-22 16:44:57.350572300,1.033572265625,0.1995458362668752,-0.0429278721004724,-0.1459773368197027
2025-04-22 16:44:57.360545300,1.043545166015625,0.226323953077197,0.0305111658588051,-0.160091741224192
2025-04-22 16:44:57.370518300,1.053518310546875,0.2363070024311542,0.0426706824690103,-0.1506947663961909
2025-04-22 16:44:57.380491300,1.0634912109375,0.2428197453260421,0.0420145566478371,-0.215731667517405
2025-04-22 16:44:57.390464300,1.07346435546875,0.2684527837544679,0.0069940966710448,-0.2087791997646912
2025-04-22 16:44:57.400438300,1.083438232421875,0.3696843762636184,-0.0128261638253927,-0.1119777077906299
2025-04-22 16:44:57.410411300,1.093411376953125,0.389325480800867,-0.0692070994779467,0.0069409051790833
2025-04-22 16:44:57.420384300,1.10338427734375,0.3485778753489256,-0.1228442893803119,0.1042922678545583
2025-04-22 16:44:57.430357200,1.113357177734375,0.3061994538247585,-0.1298264033526182,0.1626589613636955
2025-04-22 16:44:57.440330200,1.123330322265625,0.2329980240136384,-0.0870239111974835,0.1429609481405932
2025-04-22 16:44:57.450303200,1.13330322265625,0.0979968483716249,-0.0435126862511038,0.0761468447464052
2025-04-22 16:44:57.460275500,1.143275390625,-0.0619832857042551,0.0247667769879102,0.0258501152452081
2025-04-22 16:44:57.470248400,1.15324853515625,-0.1597650300204753,0.1137821542635559,0.0396643493930343
2025-04-22 16:44:57.480221400,1.163221435546875,-0.165409173387289,0.1421452021777629,0.0526038556660991
2025-04-22 16:44:57.490194400,1.1731943359375,-0.1936392425715923,0.1554012818530201,0.0360473005401901
2025-04-22 16:44:57.500168400,1.18316845703125,-0.1348871938735246,0.1380491650357842,-0.0111013858594
2025-04-22 16:44:57.510141400,1.193141357421875,-0.096120533105731,0.1120116374596953,-0.0198694881993345
2025-04-22 16:44:57.520114400,1.203114501953125,-0.0836450824141502,0.0779340112909674,-0.0288292771864682
2025-04-22 16:44:57.530087400,1.21308740234375,-0.0796679954767227,0.0209083479940891,-0.0440859560944139
2025-04-22 16:44:57.540060400,1.223060302734375,-0.0851204156637191,-0.0144064187541604,-0.106295196041651
2025-04-22 16:44:57.550033700,1.23303369140625,-0.0246989724487066,-0.0177484226584434,-0.1521031170904636
2025-04-22 16:44:57.560006400,1.24300634765625,0.0281003053247928,-0.0181149178832769,-0.1169210642106365
2025-04-22 16:44:57.569979400,1.2529794921875,0.0878612388044595,-0.0331736630663275,-0.0809988422216847
2025-04-22 16:44:57.579952400,1.262952392578125,0.1159042609840631,-0.0520250785306096,-0.0989866722597274
2025-04-22 16:44:57.589925600,1.272925537109375,0.0477951858758926,-0.0590606762558221,-0.1319639907700475
2025-04-22 16:44:57.599899600,1.282899658203125,0.0013180968612432,-0.0584773234099149,-0.1417771177840419
2025-04-22 16:44:57.609872400,1.292872314453125,0.0041764089018106,-0.0435778604418039,-0.1120185512576717
2025-04-22 16:44:57.619845400,1.302845458984375,0.0290811330556869,-0.0440375869080424,-0.0738659946670755
2025-04-22 16:44:57.629818400,1.312818359375,0.0494090508133173,-0.0470087116733193,-0.0302386416608933
2025-04-22 16:44:57.639791600,1.32279150390625,0.053460372030735,-0.040920039409399,0.0022543821975123
2025-04-22 16:44:57.649764600,1.3327646484375,0.0323527020722627,-0.0136938865706324,0.0684224975720513
2025-04-22 16:44:57.659737300,1.3427373046875,-0.0062310033440589,-0.0266372470349073,0.0813355085638351
2025-04-22 16:44:57.669710300,1.35271044921875,-0.058676645374298,-0.0081534958392381,0.0931856304313056
2025-04-22 16:44:57.679683300,1.362683349609375,-0.103968323996663,0.0646530894353985,0.0537355905092321
2025-04-22 16:44:57.689656600,1.372656494140625,-0.1009621279180049,0.1573535849645733,0.0760576777587644
2025-04-22 16:44:57.699630600,1.382630615234375,-0.246581728208065,0.1585156144812703,0.0993875812108162
2025-04-22 16:44:57.709603600,1.392603515625,-0.2998655746281147,0.1124354158297181,0.0039766302797012
2025-04-22 16:44:57.719576300,1.402576416015625,-0.1372170981258154,0.0843605372071266,-0.1362095741842407
2025-04-22 16:44:57.729549300,1.41254931640625,-0.003797054195404,0.0653653293579816,-0.2851943674579262
2025-04-22 16:44:57.739522600,1.4225224609375,0.030561727002263,-0.0941574163392186,-0.2372580743446014
2025-04-22 16:44:57.749495600,1.43249560546875,-0.0156634330779314,-0.1349620126754045,-0.1646658624730072
2025-04-22 16:44:57.759468500,1.442468505859375,-0.0657160424917936,-0.2059416747838258,-0.0826482168639078
2025-04-22 16:44:57.769441300,1.452441162109375,-0.0374345353811979,-0.2921244589820504,0.1507801248583942
2025-04-22 16:44:57.779414500,1.46241455078125,0.0836333919763565,-0.3209878576338291,0.5164824457485229
2025-04-22 16:44:57.789387500,1.472387451171875,0.2866945428878069,-0.282369373165071,0.5060903772022575
2025-04-22 16:44:57.799361500,1.482361572265625,0.5007809456825256,-0.2560547822132706,0.3012729572080075
2025-04-22 16:44:57.809334500,1.49233447265625,0.6747136172652244,-0.2371761864811181,-0.0114152923804707
2025-04-22 16:44:57.819307500,1.5023076171875,0.7159446223199367,-0.1977934396415948,-0.1923918545926921
2025-04-22 16:44:57.829280300,1.5122802734375,0.5140004927396774,-0.1466150410681962,-0.2289630328765138
2025-04-22 16:44:57.839253500,1.52225341796875,0.1740308712601661,-0.1069941015586257,-0.2093608538438565
2025-04-22 16:44:57.849226500,1.5322265625,-0.1588064141213893,-0.0115329091444611,-0.1994905441493727
2025-04-22 16:44:57.859199500,1.542199462890625,-0.4294534930497408,0.0442985759317874,-0.1753204544129781
2025-04-22 16:44:57.869172200,1.552172119140625,-0.5190794034391641,0.0779535927742719,-0.1208857026584446
2025-04-22 16:44:57.879145500,1.5621455078125,-0.4980477213263511,0.1062616956308484,-0.042215367316408
2025-04-22 16:44:57.889119500,1.572119384765625,-0.4207476240247488,0.1030520859345793,0.0291513670139946
2025-04-22 16:44:57.899092500,1.582092529296875,-0.2997404869437217,0.1093096850246191,-0.0001386047530919
2025-04-22 16:44:57.909065500,1.5920654296875,-0.2687795314908027,0.1100888527035713,-0.0534157839703373
2025-04-22 16:44:57.919038500,1.60203857421875,-0.2357178043663501,0.1050534888848662,-0.1021891306960023
2025-04-22 16:44:57.929011500,1.612011474609375,-0.215865102905035,0.1229097558319568,-0.1814920009210705
2025-04-22 16:44:57.938984400,1.621984375,-0.1695493419319391,0.0959539443671703,-0.2015211914604529
2025-04-22 16:44:57.948957400,1.63195751953125,-0.1016086091279983,0.086049513207376,-0.1893469522051513
2025-04-22 16:44:57.958930400,1.641930419921875,-0.0606231032669544,0.0661266691192984,-0.1251317609966732
2025-04-22 16:44:57.968903400,1.6519033203125,-0.0545879147559404,0.0473497801959514,-0.068282531978935
2025-04-22 16:44:57.978876400,1.66187646484375,-0.0687000267386436,0.020623101311922,0.0079682571991346
2025-04-22 16:44:57.988850400,1.671850341796875,-0.0087304189443588,0.0040180034697055,-0.0271158973973244
2025-04-22 16:44:57.998823400,1.681823486328125,0.0814694919407367,0.0225339033693075,-0.0298211925669573
2025-04-22 16:44:58.008796400,1.69179638671875,0.1168283900916576,0.0072469023883342,-0.0128434254874475
2025-04-22 16:44:58.018769400,1.701769287109375,0.1993441762149334,-0.0183203773275017,-0.014317571426928
2025-04-22 16:44:58.028742700,1.71174267578125,0.2657423557519912,-0.0348953722923994,-0.0526865746466442
2025-04-22 16:44:58.038715400,1.72171533203125,0.3094020492583513,-0.0543812862679362,-0.0613032310182228
2025-04-22 16:44:58.048688400,1.7316884765625,0.3135626760691404,-0.0808545749127864,-0.0626158662530593
2025-04-22 16:44:58.058661400,1.741661376953125,0.265450094807148,-0.1007639749974012,-0.0761380312522873
2025-04-22 16:44:58.068634600,1.751634521484375,0.2030161427259445,-0.076213471108675,-0.0635297662275843
2025-04-22 16:44:58.078607600,1.761607666015625,0.0762631554692983,-0.0371250310406088,-0.0233590838807635
2025-04-22 16:44:58.088581600,1.77158154296875,-0.0126712655246257,-0.0047270285218954,-0.0208466078694909
2025-04-22 16:44:58.098554400,1.781554443359375,-0.0173871881306171,0.0123234750002622,-0.0707842308678664
2025-04-22 16:44:58.108527400,1.79152734375,0.0754986008375883,0.0331906142011284,-0.1127914809920825
2025-04-22 16:44:58.118500400,1.801500244140625,0.1270171911507845,0.0529971384331584,-0.0640282172690145
2025-04-22 16:44:58.128473600,1.8114736328125,0.1314765086472034,0.0272056945726275,-0.0373502363649196
2025-04-22 16:44:58.138446600,1.821446533203125,0.1098971295237541,0.0276315187692642,0.0471980602329596
2025-04-22 16:44:58.148419300,1.83141943359375,0.0515741198927164,0.0480938765615224,0.0357492491753771
2025-04-22 16:44:58.158392300,1.841392333984375,-0.0324655147969722,0.0554141364470124,0.0607520451425574
2025-04-22 16:44:58.168365600,1.851365478515625,-0.0805003546476364,0.0871074978277087,0.0844300953119993
2025-04-22 16:44:58.178339600,1.861339599609375,-0.240626619195938,0.1387587746098637,0.0285414366884157
2025-04-22 16:44:58.188312600,1.8713125,-0.4380833742290735,0.1654740553170442,-0.077203998249676
2025-04-22 16:44:58.198285300,1.881285400390625,-0.5770803415089846,0.1510682210847735,-0.1456769565004855
2025-04-22 16:44:58.208258300,1.89125830078125,-0.4947773213535547,0.1275342007622122,-0.1890724826453253
2025-04-22 16:44:58.218231600,1.9012314453125,-0.2575596338182687,0.0664548781603574,-0.1691759055096656
2025-04-22 16:44:58.228204500,1.91120458984375,-0.0214040225565433,-0.0141229256376624,-0.1570393496499396
2025-04-22 16:44:58.238177500,1.921177490234375,0.2143903541773557,-0.0344102191239595,-0.1162846934027038
2025-04-22 16:44:58.248150300,1.931150390625,0.368773106637597,-0.1048658573582768,0.027742705792468
2025-04-22 16:44:58.258123500,1.94112353515625,0.4177326601177454,-0.1684481026917696,0.0806578284979797
2025-04-22 16:44:58.268097300,1.95109716796875,0.44510231308043,-0.0861947668969631,0.1302414504269138
2025-04-22 16:44:58.278070500,1.961070556640625,0.3592179273068904,-0.0873722862437367,0.2677445441535674
2025-04-22 16:44:58.288043500,1.97104345703125,0.3079477587968111,-0.1302154026702046,0.2440184718576259
2025-04-22 16:44:58.298016500,1.9810166015625,0.3543243100464344,-0.0934139044955372,0.142358004678227
2025-04-22 16:44:58.307989200,1.9909892578125,0.3507797693073749,-0.1049132036313414,-0.0064767034671269
2025-04-22 16:44:58.317962500,2.00096240234375,0.2614917125701904,-0.114302378745377,-0.0993229641425423
2025-04-22 16:44:58.327935500,2.010935546875,0.1561836644023656,-0.0779167678952217,-0.128920047363732
2025-04-22 16:44:58.337908500,2.020908447265625,0.1112818618804216,-0.0411439112931489,-0.086828279027529
2025-04-22 16:44:58.347881500,2.030881591796875,0.1347930858492851,-0.04487199190557,-0.0660492017026059
2025-04-22 16:44:58.357855500,2.04085546875,0.2216243970841169,-0.0160664609208703,-0.050681938559655
2025-04-22 16:44:58.367828500,2.050828369140625,0.2832084543377161,-0.0022819734573364,-0.0523476980810984
2025-04-22 16:44:58.377801500,2.060801513671875,0.2193506069332361,-0.0045589784786105,0.0048609205672517
2025-04-22 16:44:58.387774500,2.0707744140625,0.0608498977601528,-0.035076866339147,0.0725063784853555
2025-04-22 16:44:58.397747500,2.08074755859375,-0.1022363856375217,-0.0194777306690812,0.03563484728178
2025-04-22 16:44:58.407720400,2.090720458984375,-0.2320581128150224,0.0052153965607285,0.0067213624105788
2025-04-22 16:44:58.417693400,2.100693359375,-0.295433729660511,0.0347147550284862,0.0076462952357716
2025-04-22 16:44:58.427666400,2.11066650390625,-0.3111977005034685,0.028672552254796,-0.0419834125909023
2025-04-22 16:44:58.437639400,2.120639404296875,-0.2996481324851512,0.0221305832654237,-0.1154262682087719
2025-04-22 16:44:58.447613400,2.130613525390625,-0.2190788042545318,0.0108539869695901,-0.1354851780329831
2025-04-22 16:44:58.457586700,2.140586669921875,-0.0994645828366279,0.0235796130299568,-0.1283543763049878
2025-04-22 16:44:58.467560000,2.150559814453125,0.0266764100015163,-0.0010430793121457,-0.0268089868726208
2025-04-22 16:44:58.477533000,2.160532958984375,0.0964946271151304,-0.0304825242862105,0.0762689093566499
2025-04-22 16:44:58.487506000,2.170505859375,0.0917196677982807,-0.0066088967457413,0.1797785298003815
2025-04-22 16:44:58.497478700,2.180478759765625,0.0016372458130121,0.0182259770423173,0.2428755489001982
2025-04-22 16:44:58.507451600,2.19045166015625,-0.191097741395235,0.0120294604897499,0.1324978693178854
2025-04-22 16:44:58.517425000,2.2004248046875,-0.4774550151526928,0.0062090837731957,0.0534466357663273
2025-04-22 16:44:58.527398000,2.21039794921875,-0.6726070003747939,0.0301379486322402,-0.0246487218325026
2025-04-22 16:44:58.537372000,2.220371826171875,-0.6795435216397047,-0.0131233932062983,-0.115417646510899
2025-04-22 16:44:58.547345000,2.230344970703125,-0.6283809051573276,-0.029631168153882,-0.1494605666924268
2025-04-22 16:44:58.557317600,2.240317626953125,-0.4700397704601287,-0.0992024247691035,-0.0911089520214125
2025-04-22 16:44:58.567291000,2.250290771484375,-0.1640653575628995,-0.1456362591639161,-0.1266383844336494
2025-04-22 16:44:58.577263900,2.260263916015625,0.0973649802088737,-0.1883899437412619,0.0067759969409555
2025-04-22 16:44:58.587236900,2.27023681640625,0.1517886443138122,-0.2019248403578996,0.2109761983523145
2025-04-22 16:44:58.597209900,2.2802099609375,0.3231786456763744,-0.2000251442164182,0.1679544374233111
2025-04-22 16:44:58.607182800,2.290182861328125,0.4293436029344797,-0.1301797468349337,0.1057072766184806
2025-04-22 16:44:58.617155800,2.30015576171875,0.339787250649929,-0.1149079434230923,0.044815147151798
2025-04-22 16:44:58.627129900,2.3101298828125,0.1265484045952558,-0.1010389925464987,-0.0279265196604654
2025-04-22 16:44:58.637102800,2.320102783203125,-0.001900280663371,-0.0708393768548965,-0.0749565663827583
2025-04-22 16:44:58.647075800,2.330075927734375,0.0417301867485046,-0.0505628970235586,-0.1529890330795198
2025-04-22 16:44:58.657048800,2.340048828125,0.1509726517558097,-0.0449544094920158,-0.2417552578996867
2025-04-22 16:44:58.667021800,2.350021728515625,0.2107809315085411,-0.0669873776018619,-0.3256102932700887
2025-04-22 16:44:58.676994800,2.359994873046875,0.2745674672424793,-0.0493374468818306,-0.3663817910542711
2025-04-22 16:44:58.686967800,2.3699677734375,0.3051227645039558,-0.0139323715016245,-0.3256007582567632
2025-04-22 16:44:58.696940800,2.37994091796875,0.3381231168299913,0.0327601138293743,-0.2496118531515821
2025-04-22 16:44:58.706913800,2.389913818359375,0.3890969327419996,0.0746960522830486,-0.1459357170345261
2025-04-22 16:44:58.716887800,2.3998876953125,0.376822557580471,0.0940852278858423,-0.1010914533860981
2025-04-22 16:44:58.726860800,2.40986083984375,0.3188970228344202,0.1217778291925787,-0.131629909110628
2025-04-22 16:44:58.736833800,2.419833740234375,0.1711947710514068,0.1454001123204827,-0.1550183834826573
2025-04-22 16:44:58.746806800,2.429806884765625,0.0424310284942388,0.1446674141317606,-0.153814962509647
2025-04-22 16:44:58.756780000,2.439780029296875,0.0151852941721677,0.1228147710248827,-0.1352905139774084
2025-04-22 16:44:58.766752800,2.449752685546875,0.0431681105971336,0.1200388765707611,-0.110750020026043
2025-04-22 16:44:58.776725800,2.459725830078125,0.0675385817438364,0.1102636247485876,-0.0804698681778274
2025-04-22 16:44:58.786698800,2.46969873046875,0.1087327619194984,0.0610313918069004,-0.076416939525213
2025-04-22 16:44:58.796672800,2.4796728515625,0.1927571990400552,0.0164259418830275,-0.0778138555100187
2025-04-22 16:44:58.806645800,2.489645751953125,0.234834007269144,0.0038274493336677,-0.0652335562044754
2025-04-22 16:44:58.816619000,2.499618896484375,0.2556839030742645,-0.025841420482099,-0.0146301079748198
2025-04-22 16:44:58.826591700,2.509591796875,0.2173649860739707,-0.0381546663492918,0.0427855958192609
2025-04-22 16:44:58.836564700,2.519564697265625,0.1442541571557521,-0.0312725056201219,0.1045564626155421
2025-04-22 16:44:58.846537700,2.529537841796875,0.065747022151947,-0.0609910597965121,0.1494193213665857
2025-04-22 16:44:58.856511000,2.539510986328125,0.0280196413040161,-0.0546592264264821,0.1422509458408691
2025-04-22 16:44:58.866484000,2.54948388671875,-0.0399088165402412,-0.0518953146710991,0.0791830615039914
2025-04-22 16:44:58.876456700,2.559456787109375,-0.0862035347253084,-0.0694613664999604,0.0055881936621852
2025-04-22 16:44:58.886430700,2.5694306640625,-0.0602221212506294,-0.0779004012823104,-0.0446653816838748
2025-04-22 16:44:58.896403700,2.57940380859375,0.0309784911096096,-0.0853559779852628,-0.0938478937323205
2025-04-22 16:44:58.906377000,2.589376953125,0.111821960106492,-0.1060042137384414,-0.0955913033335469
2025-04-22 16:44:58.916350000,2.599349853515625,0.1819511428654193,-0.1410571146801114,-0.0684905121738091
2025-04-22 16:44:58.926323000,2.609322998046875,0.2154571066260337,-0.1546475408762693,-0.0311981069433502
2025-04-22 16:44:58.936295700,2.619295654296875,0.171045133447647,-0.1807087415888905,-0.0116554030129685
2025-04-22 16:44:58.946268700,2.6292685546875,0.0209399121761322,-0.1582394278883934,-0.0948400465748272
2025-04-22 16:44:58.956242000,2.639241943359375,-0.0744984838843345,-0.1482321208760142,-0.2222689603316597
2025-04-22 16:44:58.966215000,2.64921484375,-0.0769113902449607,-0.1367342830449342,-0.2210823078303598
2025-04-22 16:44:58.976189000,2.65918896484375,-0.1465706174045801,-0.1258580842435359,-0.3414568643625825
2025-04-22 16:44:58.986161700,2.66916162109375,-0.2336187862604856,0.0805298730030655,0.0970992419447749
2025-04-22 16:44:58.996134700,2.679134765625,-0.3620575346469878,0.0661661243468523,0.302562028904166
2025-04-22 16:44:59.006108000,2.68910791015625,-0.3922323081582784,0.171502229565382,0.2645123755656182
2025-04-22 16:44:59.016081000,2.699080810546875,-0.2831903341591358,0.2817489031791687,0.352935120710358
2025-04-22 16:44:59.026054000,2.709053955078125,-0.1954986067026853,0.1895584029987454,0.2833619461326859
2025-04-22 16:44:59.036026600,2.719026611328125,-0.06659925506711,0.1191381283387541,0.1161959374070167
2025-04-22 16:44:59.045999900,2.728999755859375,0.0767570764660835,0.1058715272694826,-0.0311789821177721
2025-04-22 16:44:59.055974000,2.738973876953125,0.1136415767490863,0.0565761659637093,-0.0659359871190972
2025-04-22 16:44:59.065947000,2.74894677734375,0.1242383740872144,-0.0160851656213402,-0.0363866154971532
2025-04-22 16:44:59.075920000,2.758919921875,0.1857248161852359,-0.0628211978331208,0.0452111607320606
2025-04-22 16:44:59.085892900,2.768892822265625,0.2815548419117927,-0.0653504240497946,0.0921902627184055
2025-04-22 16:44:59.095865600,2.778865478515625,0.3769295250862836,-0.0799541189417243,0.0709216300445608
2025-04-22 16:44:59.105838800,2.7888388671875,0.4276017277032136,-0.0743961925536394,0.0889147481790743
2025-04-22 16:44:59.115811800,2.798811767578125,0.4070920236378907,-0.0671536740794777,0.1265452627900987
2025-04-22 16:44:59.125784800,2.808784912109375,0.2732984702199697,-0.0619186960354447,0.0944540429319255
2025-04-22 16:44:59.135758800,2.8187587890625,0.089537063062191,-0.0319634104937315,0.0431156680238433
2025-04-22 16:44:59.145731800,2.82873193359375,-0.030541268736124,0.0176271343663334,-0.0082943290820345
2025-04-22 16:44:59.155704800,2.838704833984375,-0.0528816953599452,0.0244859142199158,0.0048679165636189
2025-04-22 16:44:59.165677800,2.848677734375,-0.1011480058789253,0.0349625923097133,0.0065501340295188
2025-04-22 16:44:59.175650800,2.85865087890625,-0.1382172150790691,0.0114253571167588,-0.0385764902242459
2025-04-22 16:44:59.185623800,2.868623779296875,-0.136717916432023,-0.0156724931672215,-0.0133735685750842
2025-04-22 16:44:59.195597000,2.87859716796875,-0.0394230788499116,-0.0004918751701712,0.0549539533230476
2025-04-22 16:44:59.205569800,2.88856982421875,0.0620031594485044,-0.0050832946136593,0.0820246416054666
2025-04-22 16:44:59.215542800,2.898542724609375,0.1391933666348457,-0.0201394094482064,0.0472799298301339
2025-04-22 16:44:59.225516800,2.908516845703125,0.1626584133744239,0.0028305472508072,0.0096373594551347
2025-04-22 16:44:59.235489800,2.91848974609375,0.0818576144754886,-0.0003238251268863,-0.0161340827969834
2025-04-22 16:44:59.245462800,2.928462890625,-0.0560322683453559,-0.0067953592285513,-0.0682067450626753
2025-04-22 16:44:59.255436000,2.93843603515625,-0.1345189450830221,0.0088648589789867,-0.0845191618349403
2025-04-22 16:44:59.265408800,2.94840869140625,-0.1138099190533161,-0.0026560674667358,-0.0925568310084752
2025-04-22 16:44:59.275381800,2.9583818359375,-0.0447100793421268,-0.0221881586715579,-0.092009846383892
2025-04-22 16:44:59.285354800,2.968354736328125,0.0475654687732458,-0.0463058241009712,-0.0904730652706697
2025-04-22 16:44:59.295328000,2.978327880859375,0.1041775828331708,-0.0808054750740528,-0.0638400742857717
2025-04-22 16:44:59.305302000,2.988302001953125,0.141091309210658,-0.079094871763885,-0.0823660389216616
2025-04-22 16:44:59.315274800,2.998274658203125,0.0925870982825756,-0.0706213501900434,-0.1493031659073196
2025-04-22 16:44:59.325247700,3.008247802734375,-0.0067775313109159,-0.0565586303070187,-0.1922767951119691
2025-04-22 16:44:59.335220700,3.018220703125,-0.0747533354282379,-0.0219198631241917,-0.2074866574698127
2025-04-22 16:44:59.345194000,3.028194091796875,-0.0836012432724237,0.0233332370534539,-0.2006503269100561
2025-04-22 16:44:59.355167000,3.0381669921875,-0.0461205306619405,0.0298237681165337,-0.2509016007011756
2025-04-22 16:44:59.365139700,3.0481396484375,-0.0123778355360031,-0.0178431152045726,-0.2726406821646727
2025-04-22 16:44:59.375112700,3.05811279296875,-0.0327589447855949,-0.0096545480519533,-0.3012615955637768
2025-04-22 16:44:59.385086700,3.068086669921875,-0.0770920075088739,0.0031625556841492,-0.2682386660797521
2025-04-22 16:44:59.395059700,3.078059814453125,-0.1906716249376535,-0.0079290394335985,-0.1859176353435963
2025-04-22 16:44:59.405033000,3.088032958984375,-0.2172685399621725,-0.0132882283791899,-0.1275578738987445
2025-04-22 16:44:59.415006000,3.098005859375,-0.1843248862594366,-0.0364452320829033,-0.095325163210649
2025-04-22 16:44:59.424978700,3.107978759765625,-0.0942214214861393,-0.0857657278299331,-0.1514157284813467
2025-04-22 16:44:59.434951700,3.11795166015625,0.1169090541124343,-0.1007388405561447,-0.1533216990999877
2025-04-22 16:44:59.444925000,3.127925048828125,0.3611871815532446,-0.1004664533555507,-0.0883439442874863
2025-04-22 16:44:59.454897200,3.137897216796875,0.4838157823562621,-0.0923112039506435,-0.1189108771878294
2025-04-22 16:44:59.464871200,3.14787109375,0.3998416141182184,-0.0717506464809179,-0.1347751392006408
2025-04-22 16:44:59.474844000,3.157843994140625,0.1262193187713623,-0.0446618562862277,-0.0192805549960117
2025-04-22 16:44:59.484817200,3.167817138671875,-0.1142021332412958,-0.0226025846913456,0.0446750628276728
2025-04-22 16:44:59.494790100,3.1777900390625,-0.2749579278647899,0.0177712190121412,0.0253583222734276
2025-04-22 16:44:59.504763100,3.18776318359375,-0.3832908768117428,0.0181657712876796,0.000785688751284
2025-04-22 16:44:59.514736000,3.197736083984375,-0.3700356739193201,-0.0130833534568548,-0.0493363143706694
2025-04-22 16:44:59.524708900,3.207708984375,-0.2655518016159534,-0.0031631402060389,-0.0800967788154259
2025-04-22 16:44:59.534682000,3.21768212890625,-0.1389735864043235,0.0103457451865077,-0.0215095104913227
2025-04-22 16:44:59.544656100,3.22765625,0.0172708682745695,-0.0868187440142035,-0.0116951687677763
2025-04-22 16:44:59.554629000,3.237629150390625,0.2986474310100078,-0.0415001773849129,0.0283022393713705
2025-04-22 16:44:59.564602000,3.24760205078125,0.5376566781371832,0.0025546529188752,0.1120684548140037
2025-04-22 16:44:59.574575000,3.2575751953125,0.5309107110083103,-0.0882046454146504,0.068365214426862
2025-04-22 16:44:59.584548000,3.267548095703125,0.2121487127304077,-0.0691290658056736,-0.014471273284452
2025-04-22 16:44:59.594521000,3.27752099609375,-0.2657218974858522,-0.0468090974479913,-0.0045432237870525
2025-04-22 16:44:59.604494000,3.287494140625,-0.5601093329638243,-0.0215288179799914,0.0171099420918151
2025-04-22 16:44:59.614467000,3.297467041015625,-0.6308528482288122,0.0059764440611004,0.0039910423975437
2025-04-22 16:44:59.624441000,3.307441162109375,-0.503191513955593,-0.021742168469727,0.0158685454622842
2025-04-22 16:44:59.634414000,3.3174140625,-0.2570657128214836,0.0933925694465637,0.1565602608961053
2025-04-22 16:44:59.644387000,3.327386962890625,-0.0785650026708841,-0.0234501414313912,0.174112284199614
2025-04-22 16:44:59.654360000,3.337360107421875,-0.0597755465269088,-0.1287128891527652,0.1079563707195222
2025-04-22 16:44:59.664333000,3.3473330078125,-0.1235889702677726,-0.0701443803280592,-0.0155756999955512
2025-04-22 16:44:59.674306000,3.35730615234375,-0.2703577405929565,-0.0786126412048935,-0.132237775343284
2025-04-22 16:44:59.684279000,3.367279052734375,-0.3377969536155462,-0.0698363372921943,-0.1298693474452011
2025-04-22 16:44:59.694253000,3.377253173828125,-0.293281520062685,-0.0455967990487813,-0.0451409998389892
2025-04-22 16:44:59.704226000,3.38722607421875,-0.2043903536885976,-0.0482218868553638,0.0197402723290957
2025-04-22 16:44:59.714199000,3.397198974609375,-0.0785579884082079,-0.0455409772083163,0.0441132642264477
2025-04-22 16:44:59.724172000,3.407172119140625,0.0365793798565864,-0.0547381368815898,0.033574462419562
2025-04-22 16:44:59.734145300,3.417145263671875,0.0630494536310434,-0.0698433515548706,-0.0053332873193547
2025-04-22 16:44:59.744118000,3.427117919921875,0.0782721572041511,-0.0810685099244117,-0.0154054945277981
2025-04-22 16:44:59.754091000,3.437091064453125,0.0528267503023147,-0.0792237588405609,-0.0243121833545155
2025-04-22 16:44:59.764064000,3.44706396484375,0.0106488197863101,-0.0765168379694223,-0.0217815506320446
2025-04-22 16:44:59.774038000,3.4570380859375,0.01055588080585,-0.0499009259834885,-0.0371707698784768
2025-04-22 16:44:59.784011000,3.467010986328125,0.0558662641286849,-0.0287763048902153,-0.0476550650191493
2025-04-22 16:44:59.793984300,3.476984375,0.0932195509672164,-0.0061158525317907,-0.0589440093399025
2025-04-22 16:44:59.803957000,3.48695703125,0.0962239934802055,-0.0048565001204609,-0.0547031386334449
2025-04-22 16:44:59.813930000,3.496929931640625,0.1527881767451763,0.0075043842807412,-0.0268399300001561
2025-04-22 16:44:59.823903000,3.506903076171875,0.1910971568733453,-0.0018497195199131,0.0009739961313083
2025-04-22 16:44:59.833876200,3.516876220703125,0.2168845090806484,-0.0173176300257444,-0.0012385105527006
2025-04-22 16:44:59.843849200,3.52684912109375,0.2177016706824302,-0.0141527362540364,-0.0017344591097906
2025-04-22 16:44:59.853823200,3.5368232421875,0.1353174019843339,0.001726969923079,-0.0039135201819241
2025-04-22 16:44:59.863796000,3.5467958984375,0.0360685077250003,-0.0013227730363607,-0.0170653540314175
2025-04-22 16:44:59.873769000,3.55676904296875,-0.0297767141044139,0.0121647773072123,-0.0467595226852223
2025-04-22 16:44:59.883742200,3.5667421875,-0.0547761308044195,0.0212011934608221,-0.0914136340564116
2025-04-22 16:44:59.893715200,3.576715087890625,0.0411842433035373,0.0313368030279874,-0.1198018712108023
2025-04-22 16:44:59.903688200,3.586688232421875,0.1503577347278595,0.0012426935374736,-0.1643399184542708
2025-04-22 16:44:59.913661000,3.596660888671875,0.2831330510139465,-0.0233837981969118,-0.1379104872174561
2025-04-22 16:44:59.923634200,3.60663427734375,0.2978255932331085,-0.0187555538743734,-0.1164188594426959
2025-04-22 16:44:59.933608000,3.61660791015625,0.2272486667066812,-0.0315174202919006,-0.1271768752245232
2025-04-22 16:44:59.943581200,3.626581298828125,0.1491203018873929,-0.0209691382706165,-0.1188996525409165
2025-04-22 16:44:59.953554200,3.63655419921875,0.0870090058892965,-0.0008919804036617,-0.059646851246478
2025-04-22 16:44:59.963527000,3.64652685546875,0.0031529110729694,-0.0007820902884006,-0.0356215311424806
2025-04-22 16:44:59.973500000,3.6565,-0.0308534034252166,0.0026139818906784,-0.0614750713206362
2025-04-22 16:44:59.983473200,3.66647314453125,0.0325865108281374,-0.0109469259500503,-0.1399156895600259
2025-04-22 16:44:59.993446100,3.676446044921875,0.0611164397418498,-0.0488125462248921,-0.2031882661561481
2025-04-22 16:45:00.003420200,3.686420166015625,0.0769412008613348,-0.0506517443507909,-0.212011934608221
2025-04-22 16:45:00.013393200,3.69639306640625,0.0878209067940711,-0.0506985061019659,-0.1414566536580212
2025-04-22 16:45:00.023366000,3.706365966796875,0.1295195293605327,-0.061384735289216,-0.1017292763656005
2025-04-22 16:45:00.033339100,3.716339111328125,0.1104769752383232,-0.0436900886446237,-0.027572555123642
2025-04-22 16:45:00.043312000,3.72631201171875,0.0550023407757282,-0.0322679463982582,-0.0315231833124067
2025-04-22 16:45:00.053285000,3.73628515625,-0.0009539397239685,-0.0445174793794751,-0.0924152031812351
2025-04-22 16:45:00.063258000,3.746258056640625,-0.0217114810705184,-0.0353764338076114,-0.0983494429352693
2025-04-22 16:45:00.073231000,3.756231201171875,-0.0134352356344461,-0.0598752075091004,-0.1413381601111963
2025-04-22 16:45:00.083204900,3.766204833984375,-0.0061176060974597,-0.0645057899191975,-0.1486421538484748
2025-04-22 16:45:00.093178000,3.77617822265625,-0.0316425079762935,-0.0561576482906937,-0.1410346014542039
2025-04-22 16:45:00.103151000,3.786151123046875,-0.1053197386056184,-0.050468788999319,-0.1299928642270155
2025-04-22 16:45:00.113124000,3.7961240234375,-0.1844014586269855,-0.0344718861833214,-0.1425711085727904
2025-04-22 16:45:00.123097000,3.80609716796875,-0.2267746194541454,-0.00973521207273,-0.1347135908722877
2025-04-22 16:45:00.133070000,3.816070068359375,-0.1977227124929428,-0.0141150345921516,-0.1197138824000954
2025-04-22 16:45:00.143043000,3.82604296875,-0.0849935744136571,-0.0330804318249225,-0.1794080525201745
2025-04-22 16:45:00.153016000,3.83601611328125,0.0422188470482826,-0.0329790172770619,-0.1905218046708032
2025-04-22 16:45:00.162990000,3.845989990234375,0.136729022347927,-0.0494639958709478,-0.1449046478205826
2025-04-22 16:45:00.172963000,3.855963134765625,0.1553974824607372,-0.075555007199943,-0.0930969657671637
2025-04-22 16:45:00.182936000,3.86593603515625,0.1396890411972999,-0.0612894582211971,-0.0283802182447165
2025-04-22 16:45:00.192909000,3.875908935546875,0.1397889944404363,-0.0430152581229805,0.0106397870964836
2025-04-22 16:45:00.202882000,3.885882080078125,0.1103437042474746,-0.0011348492488265,0.0521689622470177
2025-04-22 16:45:00.212855000,3.89585498046875,0.061287704655528,0.0060106385916471,0.0379140990590676
2025-04-22 16:45:00.222828000,3.905828125,0.0394260014593601,0.0438730439960956,0.0429416905632708
2025-04-22 16:45:00.232802000,3.915802001953125,0.0194622408390045,0.040356852568686,0.0244517470888327
2025-04-22 16:45:00.242775000,3.925775146484375,0.0078016136616468,0.0154372231066226,0.0094755199569277
2025-04-22 16:45:00.252748000,3.935748046875,0.0818909322232007,0.0091863460183143,-0.0483064415999688
2025-04-22 16:45:00.262721000,3.945720947265625,0.1749059005290269,-0.0241612123101949,-0.0524571680712513
2025-04-22 16:45:00.272694000,3.955694091796875,0.2427145313858985,-0.0569131428331136,0.0146221803966909
2025-04-22 16:45:00.282667300,3.965667236328125,0.26895254997015,-0.0816001325830817,0.0598558086888864
2025-04-22 16:45:00.292640000,3.975639892578125,0.2931663692504167,-0.0621118805199861,0.0913713566841091
2025-04-22 16:45:00.302613000,3.985613037109375,0.3254150264263153,-0.052893385797739,0.1087915611683391
2025-04-22 16:45:00.312587000,3.9955869140625,0.3942056540578603,-0.0944283422350883,0.1106617480875458
2025-04-22 16:45:00.322560000,4.00556005859375,0.4743599717468023,-0.1752048834756016,0.0698475893385708
2025-04-22 16:45:00.332533200,4.015533203125,0.4397060069948434,-0.1671194844365119,0.0563651261620689
2025-04-22 16:45:00.342506200,4.02550634765625,0.2831178534448146,-0.1802475538179278,0.0020783771766349
2025-04-22 16:45:00.352479000,4.03547900390625,-0.0922621041119098,-0.108276542584598,-0.0224140946482308
2025-04-22 16:45:00.362452000,4.045451904296875,-0.3313824103981256,-0.1237371465668082,0.0046114301850553
2025-04-22 16:45:00.372425000,4.055425048828125,-0.4354629625976085,-0.0294908829003572,0.0461595657643862
2025-04-22 16:45:00.382399000,4.06539892578125,-0.4598831181049346,0.0259089327603578,0.0246685042452067
2025-04-22 16:45:00.392372200,4.075372314453125,-0.3432715856343507,0.0212836110472679,0.0043809367642737
2025-04-22 16:45:00.402345200,4.08534521484375,-0.1945902596861124,0.0532929065093398,0.0093334628714248
2025-04-22 16:45:00.412318000,4.09531787109375,-0.1696609856128692,0.0148404262572526,0.0144006100678816
2025-04-22 16:45:00.422291000,4.105291015625,-0.2416922026008367,-0.0125733581081032,0.1149848263178952
2025-04-22 16:45:00.432264200,4.11526416015625,-0.4017594304382801,0.0045014030724763,0.1631354563016444
2025-04-22 16:45:00.442237200,4.1252373046875,-0.4531073403596878,-0.0078512980222702,0.113679241878353
2025-04-22 16:45:00.452211200,4.135211181640625,-0.4372475079268217,-0.0130029816970229,0.0431121745922369
2025-04-22 16:45:00.462184700,4.145184814453125,-0.3343874374330043,-0.0095849899470806,-0.0276749012532643
2025-04-22 16:45:00.472157700,4.15515771484375,-0.1549538303464651,-0.0096221070870757,-0.0892098586681298
2025-04-22 16:45:00.482130400,4.16513037109375,0.0143739777892827,0.0199047239094972,-0.1315588440352585
2025-04-22 16:45:00.492103700,4.175103759765625,0.1424123286813497,-0.003992869028449,-0.1272852127035148
2025-04-22 16:45:00.502076700,4.18507666015625,0.1597311277508735,0.0126917237907648,-0.0764480379163753
2025-04-22 16:45:00.512049700,4.195049560546875,0.086985625013709,0.0180772162213921,-0.033220390568173
2025-04-22 16:45:00.522022700,4.205022705078125,0.0122159229725599,0.0115030985280871,-0.0086227253527613
2025-04-22 16:45:00.531996700,4.21499658203125,0.0154331314533948,0.0008639233529567,-0.0013474850692204
2025-04-22 16:45:00.541969700,4.2249697265625,0.0392594127207994,-0.0171788060769438,-0.0498323725256137
2025-04-22 16:45:00.551942700,4.234942626953125,0.0157750767588615,-0.0332286081239581,-0.1074567780337762
2025-04-22 16:45:00.561915600,4.24491552734375,0.018890578430891,-0.0282604643225669,-0.114298040496977
2025-04-22 16:45:00.571888600,4.254888671875,0.0273924493163824,-0.0283472658231854,-0.0824898114318028
2025-04-22 16:45:00.581861600,4.264861572265625,-0.0098702366292476,-0.0308715236037969,-0.1141814557794481
2025-04-22 16:45:00.591834600,4.274834716796875,0.0201005387425422,-0.0083566171959042,-0.1277700370783917
2025-04-22 16:45:00.601808600,4.28480859375,0.0410305140465497,0.025929098765552,-0.0725709772873204
2025-04-22 16:45:00.611781600,4.29478173828125,0.0482400070339441,0.0186199447959661,-0.05172536949825
2025-04-22 16:45:00.621754600,4.304754638671875,-0.0041851767301559,0.0090524905055761,-0.0797164925272576
2025-04-22 16:45:00.631727600,4.3147275390625,-0.0256663561761379,0.0141983289614319,-0.0661401907545747
2025-04-22 16:45:00.641700600,4.32470068359375,-0.0422083256542682,-0.022857436235249,-0.0597316069204825
2025-04-22 16:45:00.651673600,4.334673583984375,-0.0181809688568115,-0.0635480508029461,-0.0102514830402855
2025-04-22 16:45:00.661646600,4.344646484375,-0.0184077633500099,-0.0367158657178282,0.0688939418755471
2025-04-22 16:45:00.671619600,4.35461962890625,-0.0512549709409475,-0.0568090979367494,0.1226265184437856
2025-04-22 16:45:00.681593600,4.364593505859375,-0.0304302095770835,-0.058201136817038,0.0913328147720079
2025-04-22 16:45:00.691566600,4.374566650390625,0.1382166305571794,-0.0393596582248806,-0.0531074532401049
2025-04-22 16:45:00.701539600,4.38453955078125,0.3463286351174116,-0.064881637494266,-0.1886032576983794
2025-04-22 16:45:00.711512600,4.3945126953125,0.5796785413086414,-0.0979874960213899,-0.1126775631556753
2025-04-22 16:45:00.721485600,4.404485595703125,0.594487403383851,-0.0142070967897772,0.0354147953399107
2025-04-22 16:45:00.731458600,4.41445849609375,0.274969033780694,0.0490729507267475,0.1061577603323385
2025-04-22 16:45:00.741431800,4.424431884765625,-0.1076823760837316,0.0253197346955537,0.1540466158410534
2025-04-22 16:45:00.751405800,4.43440576171875,-0.4113508501261472,0.139237498037517,0.2330028463192284
2025-04-22 16:45:00.761378600,4.444378662109375,-0.5676344677716493,0.0819008690953254,0.2737506709668785
2025-04-22 16:45:00.771351600,4.4543515625,-0.5939572420299053,0.0394394454628229,0.1884089224363677
2025-04-22 16:45:00.781324500,4.464324462890625,-0.4928080671072006,0.0260121008738875,0.0044993435461306
2025-04-22 16:45:00.791297800,4.4742978515625,-0.2692874810129403,0.0537441574081778,-0.1136127707797102
2025-04-22 16:45:00.801270800,4.484270751953125,-0.045429625788331,0.0354302098214626,-0.1644620469965972
2025-04-22 16:45:00.811243500,4.494243408203125,0.1195288812220096,-0.0127291331917047,-0.1535154681064188
2025-04-22 16:45:00.821217500,4.504217529296875,0.2113397344350814,-0.0179456987962126,-0.1500754471877589
2025-04-22 16:45:00.831190500,4.5141904296875,0.2267880634576082,-0.0292827931076288,-0.0840270674690604
2025-04-22 16:45:00.841163500,4.52416357421875,0.1796346826165914,-0.0701844200775027,-0.0760619886077009
2025-04-22 16:45:00.851136800,4.53413671875,0.1205535480946302,-0.0622404753357172,0.0036384638169198
2025-04-22 16:45:00.861109800,4.54410986328125,0.0322381357818841,-0.0882365018576383,-0.0042849267606041
2025-04-22 16:45:00.871082500,4.55408251953125,-0.0218412449300289,-0.058872460207343,-0.0937899164673872
2025-04-22 16:45:00.881055500,4.564055419921875,-0.0252852479040622,-0.0007040566161274,-0.134331441420596
2025-04-22 16:45:00.891029500,4.574029541015625,-0.0155202252149581,0.0380921225070953,-0.11645561125651
2025-04-22 16:45:00.901002800,4.584002685546875,0.0193576114207506,0.0386161463811993,-0.0227770690419943
2025-04-22 16:45:00.910975700,4.593975830078125,0.0508972435444593,0.0683607117816805,0.0448582602077396
2025-04-22 16:45:00.920948500,4.603948486328125,0.0520014053940773,0.0883092748329043,0.1042007079804316
2025-04-22 16:45:00.930921500,4.61392138671875,0.0263829800128936,0.0597878214865922,0.1442833558507729
2025-04-22 16:45:00.940894700,4.623894775390625,0.004822890111804,0.0260106395691633,0.1314087863063905
2025-04-22 16:45:00.950867700,4.63386767578125,0.0083522332817316,-0.000925005890429,0.0284587679402204
2025-04-22 16:45:00.960841700,4.643841796875,0.0375876801162958,0.0019493805021047,-0.0699577443153131
2025-04-22 16:45:00.970814700,4.653814697265625,0.0355856926441192,-0.0246051566854119,-0.0579762648528674
2025-04-22 16:45:00.980787500,4.663787353515625,-0.0364747504383325,-0.0467535678684711,-0.0678002831536345
2025-04-22 16:45:00.990760400,4.673760498046875,-0.0175268888622522,-0.0179094584390521,-0.0363502929416019
2025-04-22 16:45:01.000733700,4.683733642578125,0.0428232426822185,-0.0003571428745985,-0.0130199921973282
2025-04-22 16:45:01.010706700,4.693706787109375,0.1322562608480453,0.0058189154118299,0.0022286746508092
2025-04-22 16:45:01.020679700,4.7036796875,0.193348735192418,-0.0196697461098432,-0.0169220046045491
2025-04-22 16:45:01.030652400,4.71365234375,0.2420399931252002,-0.0295475815236568,-0.0456091288073919
2025-04-22 16:45:01.040626400,4.72362646484375,0.2579495099186897,-0.0370727163314819,-0.0559588606158504
2025-04-22 16:45:01.050599700,4.733599609375,0.1959650551706552,-0.0381856460094451,-0.0189840014685411
2025-04-22 16:45:01.060572700,4.74357275390625,0.0329068288236856,-0.0085948098659515,0.007613966152037
2025-04-22 16:45:01.070545700,4.753545654296875,-0.1231365503251552,0.0090355393707752,0.0835342333176639
2025-04-22 16:45:01.080518700,4.7635185546875,-0.1859025108397007,0.0034963176831603,0.075199435227923
2025-04-22 16:45:01.090491600,4.77349169921875,-0.1986649617791175,0.0205973823487758,-0.0115386870063433
2025-04-22 16:45:01.100464600,4.783464599609375,-0.2623521287918091,0.050590077291429,-0.093402031394653
2025-04-22 16:45:01.110438700,4.793438720703125,-0.2515279524385929,0.0893067614376545,-0.0428639034861698
2025-04-22 16:45:01.120411600,4.80341162109375,-0.0292570741444826,0.1349915310308337,-0.0447047638461925
2025-04-22 16:45:01.130384600,4.813384521484375,-0.0352022462844848,-0.0605497457697987,-0.0978737151823006
2025-04-22 16:45:01.140357600,4.823357666015625,-0.0582663110077381,-0.0279684956386685,-0.1560748885319568
2025-04-22 16:45:01.150330600,4.83333056640625,0.1309416711181402,0.0158946114853024,-0.034905681340571
2025-04-22 16:45:01.160303600,4.8433037109375,0.1894914752423763,-0.0328884163841605,-0.0015330970270151
2025-04-22 16:45:01.170276600,4.853276611328125,0.1319195762395858,-0.1698342963531613,-0.0148465957031352
2025-04-22 16:45:01.180250600,4.863250732421875,0.0928349355638027,-0.1294832890033722,0.0078772681471658
2025-04-22 16:45:01.190223600,4.8732236328125,0.1118371576756238,-0.1954398622527718,-0.0288380883972975
2025-04-22 16:45:01.200196600,4.883196533203125,0.0722562579154968,-0.1421481247872114,-0.081117810692545
2025-04-22 16:45:01.210169600,4.893169677734375,0.0225029237091541,-0.0896300020426511,-0.1412875989677384
2025-04-22 16:45:01.220142600,4.903142578125,0.030130934369564,-0.0809627114623785,-0.1303339966817293
2025-04-22 16:45:01.230115600,4.913115478515625,0.0019201544076204,-0.0010693827971816,-0.1557845638158731
2025-04-22 16:45:01.240088600,4.923088623046875,-0.0341097748726606,0.0373114935234189,-0.2040856351209804
2025-04-22 16:45:01.250062600,4.9330625,-0.0817605838418006,0.0513636920124292,-0.1926147035631351
2025-04-22 16:45:01.260035600,4.94303564453125,-0.0740554162919521,0.0817564921885728,-0.1186013911135494
2025-04-22 16:45:01.270008600,4.953008544921875,-0.0415963312357664,0.0810582807913422,-0.082881514163129
2025-04-22 16:45:01.279981600,4.962981689453125,-0.0359112713366746,0.1060743563652038,-0.0156252199593931
2025-04-22 16:45:01.289954600,4.97295458984375,-0.0207744924813509,0.1374737032353878,0.0491553272139979
2025-04-22 16:45:01.299927800,4.982927734375,-0.014321370819211,0.1238534664228558,0.0297816756906104
2025-04-22 16:45:01.309900500,4.992900634765625,0.0300964475780725,0.1438397311359643,-0.0475798443584702
2025-04-22 16:45:01.319874600,5.00287451171875,0.0646364305615425,0.1334519003733992,-0.1333420467907562
2025-04-22 16:45:01.329847600,5.01284765625,0.0927636238932609,0.0966828431636095,-0.1806636238055303
2025-04-22 16:45:01.339820500,5.022820556640625,0.153864866065979,0.0903197378724813,-0.236983093328122
2025-04-22 16:45:01.349793800,5.032793701171875,0.227575414443016,0.0735217478066682,-0.1724327153485268
2025-04-22 16:45:01.359766800,5.042766845703125,0.2435480596005916,0.0343432913675904,-0.1011884200877044
2025-04-22 16:45:01.369739500,5.052739501953125,0.2581096689164638,0.0134989485204219,0.0071866418347693
2025-04-22 16:45:01.379712500,5.06271240234375,0.2525362526983022,-0.0417906847640872,0.0952071902536321
2025-04-22 16:45:01.389686500,5.0726865234375,0.1898807668209075,-0.1110413311228156,0.0930459844985976
2025-04-22 16:45:01.399659500,5.082659423828125,0.1134738189667463,-0.1191363747730851,0.0956000985613558
2025-04-22 16:45:01.409632800,5.0926328125,0.0062789341390132,-0.1404611946135759,0.0755685334017965
2025-04-22 16:45:01.419605800,5.102605712890625,-0.0827951875865459,-0.1652341090813279,0.1050809248810634
2025-04-22 16:45:01.429578500,5.11257861328125,-0.1660416260719299,-0.1510515622109174,0.1246877526893746
2025-04-22 16:45:01.439551500,5.122551513671875,-0.2083347074002027,-0.1362827398851513,0.1461389297227375
2025-04-22 16:45:01.449524700,5.132524658203125,-0.2070692175090313,-0.130188514663279,0.130880259787105
2025-04-22 16:45:01.459498500,5.14249853515625,-0.1839221506774425,-0.1337087977439165,0.0421431514635682
2025-04-22 16:45:01.469471500,5.152471435546875,-0.1326625035613775,-0.1347822721943259,-0.0195008832158055
2025-04-22 16:45:01.479444200,5.1624443359375,-0.070991352546215,-0.1180851121544837,-0.0630306941316463
2025-04-22 16:45:01.489417200,5.172417236328125,-0.0965086556404829,-0.0955173065155744,-0.0689330911424243
2025-04-22 16:45:01.499390500,5.182390380859375,-0.1064087028861045,-0.0866582927554845,-0.0527062246286077
2025-04-22 16:45:01.509363500,5.192363525390625,-0.127855395540595,-0.0591615062817931,-0.0442618971832096
2025-04-22 16:45:01.519336400,5.20233642578125,-0.1527805779606103,-0.028409517404437,-0.0122772018728544
2025-04-22 16:45:01.529310500,5.212310546875,-0.1087701713204383,-0.0199693135783076,-0.002129705505073
2025-04-22 16:45:01.539283200,5.222283203125,-0.0622042349785566,0.0134641694679856,-0.0118485235654283
2025-04-22 16:45:01.549256400,5.23225634765625,-0.0138087451219558,0.0296387669384479,-0.0131181416424456
2025-04-22 16:45:01.559229400,5.2422294921875,0.0382452672421932,0.0562859508454799,-0.0010637567739933
2025-04-22 16:45:01.569202400,5.252202392578125,0.0762438662469387,0.0074488547012209,-0.0580891643425449
2025-04-22 16:45:01.579175400,5.262175537109375,0.0976391209751367,-0.0106289460420608,-0.0825294219229836
2025-04-22 16:45:01.589148200,5.272148193359375,0.0978682535558938,-0.0004950900405645,-0.1392440556424669
2025-04-22 16:45:01.599122200,5.2821220703125,0.0474900654494762,0.012969079427421,-0.1805954722064547
2025-04-22 16:45:01.609095400,5.292095458984375,-0.034034371548891,0.0191547823250293,-0.194625130070094
2025-04-22 16:45:01.619068400,5.302068359375,-0.0728343500643968,0.0765685681566596,-0.2157783014044165
2025-04-22 16:45:01.629041400,5.31204150390625,-0.0915536635816097,0.1489534208878874,-0.3398337201401591
2025-04-22 16:45:01.639014400,5.322014404296875,-0.0838736304730176,0.2257499525815248,-0.4142472656873986
2025-04-22 16:45:01.648987400,5.3319873046875,-0.0132142863601446,0.3444432597622275,-0.2417199308579787
2025-04-22 16:45:01.658960400,5.34196044921875,-0.1460287656128406,0.305251067058742,-0.0471342057830886
2025-04-22 16:45:01.668934400,5.351934326171875,-0.2763923445820808,0.2483633509278297,0.1143127631420735
2025-04-22 16:45:01.678907400,5.361907470703125,-0.3168102796882391,0.22211276512295,0.2735911147573031
2025-04-22 16:45:01.688880400,5.37188037109375,-0.2536497668981552,0.1292220077186822,0.3337663829252124
2025-04-22 16:45:01.698853400,5.381853271484375,-0.2073030262649059,0.0233113174825906,0.3386792163427919
2025-04-22 16:45:01.708826400,5.391826416015625,-0.119649292731285,-0.1911968178555369,0.3120041945807635
2025-04-22 16:45:01.718799400,5.40179931640625,-0.0308329451590776,-0.2409565818026662,0.016313494484499
2025-04-22 16:45:01.728772400,5.4117724609375,0.1499357099235057,-0.19308394677639,-0.2246939407225698
2025-04-22 16:45:01.738746400,5.421746337890625,0.3035223435699939,-0.1459080618426203,-0.2811886389479041
2025-04-22 16:45:01.748719400,5.43171923828125,0.447879376578331,-0.128207862240076,-0.288383427556511
2025-04-22 16:45:01.758692400,5.4416923828125,0.4778542436033487,-0.098048870819807,-0.1447620518789626
2025-04-22 16:45:01.768665300,5.451665283203125,0.3723649936497211,-0.1064203933238983,-0.0512219134881394
2025-04-22 16:45:01.778638300,5.461638427734375,0.3101005529165268,-0.1778977758213877,-0.0196400998902507
2025-04-22 16:45:01.788611300,5.471611328125,0.4262555737912654,-0.211978324599564,-0.0223615447603748
2025-04-22 16:45:01.798585300,5.48158544921875,0.489308534553647,-0.2531818571254611,-0.0372126157092279
2025-04-22 16:45:01.808558600,5.49155859375,0.4239700932025909,-0.3032473260208964,-0.0642304755425779
2025-04-22 16:45:01.818531300,5.50153125,0.2700865224361419,-0.3291401844292879,-0.05956939296294
2025-04-22 16:45:01.828504300,5.51150439453125,0.0611824907153844,-0.2796528076827526,-0.0310718935976619
2025-04-22 16:45:01.838477300,5.521477294921875,-0.0784954445660114,-0.2588707164168358,-0.0389387202659156
2025-04-22 16:45:01.848450300,5.5314501953125,-0.1440244400531053,-0.2078296804875135,-0.0621280096708796
2025-04-22 16:45:01.858423600,5.541423583984375,-0.1143868421584367,-0.1849149611070752,-0.0327586502413614
2025-04-22 16:45:01.868397600,5.5513974609375,-0.0518920998007059,-0.1828536446630954,-0.0406400716905482
2025-04-22 16:45:01.878370300,5.561370361328125,-0.0272556711941957,-0.1485246740818023,0.0118720905290392
2025-04-22 16:45:01.888343300,5.57134326171875,-0.0475771592110395,-0.1316144558131694,0.0436956964015029
2025-04-22 16:45:01.898316300,5.58131640625,-0.0955395183473825,-0.1121142210513353,0.0265567611106438
2025-04-22 16:45:01.908289500,5.59128955078125,-0.1657078640729188,-0.1355886201411485,-0.0146225365897174
2025-04-22 16:45:01.918262500,5.601262451171875,-0.2355734274595975,-0.1324342477634549,-0.1030660231283865
2025-04-22 16:45:01.928235300,5.6112353515625,-0.2727548648625612,-0.0623439357101917,-0.1747248448736965
2025-04-22 16:45:01.938209300,5.621209228515625,-0.3080482965618372,-0.0109390349045395,-0.2069504865001886
2025-04-22 16:45:01.948182300,5.631182373046875,-0.2702116101205349,0.0310194076418876,-0.194522893538326
2025-04-22 16:45:01.958155500,5.641155517578125,-0.1708358746111392,0.0684562811106443,-0.1482761335476767
2025-04-22 16:45:01.968128500,5.65112841796875,-0.0589887800633907,0.1108972464770078,-0.1366492807757575
2025-04-22 16:45:01.978101200,5.661101318359375,-0.0007709843724966,0.1577639193311333,-0.1108125090693123
2025-04-22 16:45:01.988074200,5.67107421875,-0.0344604880064725,0.2216474856987595,-0.1255785092503298
2025-04-22 16:45:01.998047200,5.681047119140625,-0.1642728628337383,0.228362473167479,-0.1536265637980774
2025-04-22 16:45:02.008021200,5.691021240234375,-0.3732686644911765,0.1363610658183693,-0.0354584518185467
2025-04-22 16:45:02.017994500,5.700994384765625,-0.5690940189301967,0.0520493361890316,-0.0215380561657948
2025-04-22 16:45:02.027967500,5.710967529296875,-0.5845996310979128,-0.0630880320757627,0.1344017484441399
2025-04-22 16:45:02.037940200,5.720940185546875,-0.4895370826125144,-0.1920207014590501,0.1825857144419103
2025-04-22 16:45:02.047913200,5.730913330078125,-0.2085936505973339,-0.2108539967447519,0.0686835961936507
2025-04-22 16:45:02.057886500,5.740886474609375,0.204900641298294,-0.1533373350605368,0.0006493124878965
2025-04-22 16:45:02.067859500,5.750859375,0.512382536149025,-0.0816737823411822,-0.0971559588343836
2025-04-22 16:45:02.077833500,5.76083349609375,0.5576140090167522,0.0136550158649683,-0.0997319650685414
2025-04-22 16:45:02.087806500,5.770806396484375,0.5512298609375953,-0.0218736858949065,-0.1793355900721624
2025-04-22 16:45:02.097779200,5.780779296875,0.5441951399952173,-0.0107750765144824,-0.1216904249037615
2025-04-22 16:45:02.107752400,5.79075244140625,0.5177554613590241,-0.0497667782098054,-0.0693541706652846
2025-04-22 16:45:02.117725400,5.800725341796875,0.477961795631051,-0.0780886173307895,0.0082285543864243
2025-04-22 16:45:02.127698400,5.810698486328125,0.305411518317461,-0.0544616580277681,0.051842059247056
2025-04-22 16:45:02.137671400,5.82067138671875,0.0432411758333444,-0.0789066557154059,0.0778941450714599
2025-04-22 16:45:02.147645400,5.8306455078125,-0.0857353326916694,-0.0055161330729722,0.0575512580735608
2025-04-22 16:45:02.157618200,5.8406181640625,-0.0493494295805692,0.0744251263871789,0.0463699297125916
2025-04-22 16:45:02.167591400,5.85059130859375,0.0385153163552284,0.1414823543548584,-0.0103259262411855
2025-04-22 16:45:02.177564400,5.860564453125,0.1186181961178779,0.1877078066959977,-0.0498852078245487
2025-04-22 16:45:02.187537400,5.870537353515625,0.089430680078268,0.1608896501362323,-0.0539983148323372
2025-04-22 16:45:02.197510400,5.880510498046875,0.048393151769042,0.1136526826649904,-0.0239030271648894
2025-04-22 16:45:02.207484400,5.890484375,0.0740881495177745,0.074518065367639,0.0383499057936016
2025-04-22 16:45:02.217457400,5.90045751953125,0.0437432801365852,0.0195154323309659,0.1350518007175531
2025-04-22 16:45:02.227430400,5.910430419921875,-0.0508721091032028,-0.0097656072109937,0.2243504427808337
2025-04-22 16:45:02.237403400,5.9204033203125,-0.1156260285645723,-0.0339876097977161,0.2596113787163049
2025-04-22 16:45:02.247376400,5.93037646484375,-0.1580313380956649,-0.029577099879086,0.1767083285748027
2025-04-22 16:45:02.257349400,5.940349365234375,-0.1461737270414829,-0.0230780932486057,-0.000976923307334
2025-04-22 16:45:02.267322400,5.950322265625,-0.1036743094861507,-0.0193128954961895,-0.1603569680316373
2025-04-22 16:45:02.277296400,5.96029638671875,-0.0852478414356708,0.0104825233086943,-0.312871807728149
2025-04-22 16:45:02.287269400,5.970269287109375,-0.1630278312087059,0.0015007599517703,-0.4172655905952677
2025-04-22 16:45:02.297242400,5.980242431640625,-0.3538432485312223,-0.0118608259245753,-0.4159282410442829
2025-04-22 16:45:02.307215400,5.99021533203125,-0.5429693975925445,-0.0432525740101933,-0.2838163936356082
2025-04-22 16:45:02.317188400,6.000188232421875,-0.6508733074724674,-0.0913233619570732,-0.0065315206605941
2025-04-22 16:45:02.327161300,6.010161376953125,-0.5932283432334661,-0.1217152853503823,0.1418209021268412
2025-04-22 16:45:02.337134300,6.02013427734375,-0.4916881231665611,-0.1326946522653102,0.1998447644145227
2025-04-22 16:45:02.347108400,6.0301083984375,-0.3071884648621082,-0.1681479507014155,0.2241851874828338
2025-04-22 16:45:02.357081300,6.040081298828125,-0.0173082776755094,-0.1472039468720555,0.1085810510896611
2025-04-22 16:45:02.367054300,6.050054443359375,0.2639659937292337,-0.1169996550053358,-0.0136574544172268
2025-04-22 16:45:02.377027300,6.06002734375,0.4915308867782354,-0.1040960420295596,-0.1140160452178213
2025-04-22 16:45:02.387000300,6.070000244140625,0.5970353343009949,-0.0703629915148019,-0.0171805322431493
2025-04-22 16:45:02.396973300,6.079973388671875,0.558869562035799,-0.056552492827177,0.0934626024754717
2025-04-22 16:45:02.406946300,6.0899462890625,0.547649664363265,-0.0886439136147499,0.0919248349815607
2025-04-22 16:45:02.416920300,6.09992041015625,0.5232938062638044,-0.095309216722846,0.1158872002514079
2025-04-22 16:45:02.426893600,6.1098935546875,0.4982639944255351,-0.0747471979483962,0.1182915214467793
2025-04-22 16:45:02.436866300,6.1198662109375,0.4565811539500951,-0.0150794957101345,0.1577635540049523
2025-04-22 16:45:02.446839300,6.12983935546875,0.3721440443754196,0.0003436988711357,0.1811460370276123
2025-04-22 16:45:02.456812300,6.139812255859375,0.2308329549342394,0.0187590610057115,0.231080974878557
2025-04-22 16:45:02.466785500,6.14978564453125,0.1142816282182931,0.0820911309704184,0.2552255100485868
2025-04-22 16:45:02.476758500,6.159758544921875,0.0651262599050998,0.1374102826103568,0.1918725982252508
2025-04-22 16:45:02.486732500,6.169732666015625,-0.0304956760287284,0.1098646885588765,0.1345326265485026
2025-04-22 16:45:02.496705500,6.17970556640625,0.0105231475800275,0.1092170383051037,0.0430282409021398
2025-04-22 16:45:02.506678500,6.189678466796875,0.0589011017799377,0.1205965104535222,0.0028839762047864
2025-04-22 16:45:02.516651300,6.1996513671875,0.0405021062582731,0.1313940910607576,-0.0178062948920996
2025-04-22 16:45:02.526624500,6.20962451171875,-0.0181587570250034,0.0902250453263521,-0.0486686351090203
2025-04-22 16:45:02.536597500,6.219597412109375,-0.0980623148232698,0.0802650845870375,-0.0671454725067131
2025-04-22 16:45:02.546570500,6.229570556640625,-0.144739310324192,0.1028597782328724,-0.0866618912183679
2025-04-22 16:45:02.556544500,6.23954443359375,-0.1680091267526149,0.103144148132205,-0.0429992477030959
2025-04-22 16:45:02.566517500,6.249517578125,-0.0816232211977243,0.1103948499128222,0.0278935215731617
2025-04-22 16:45:02.576490500,6.259490478515625,-0.0130225631803274,0.1645560636892914,0.1305538134448695
2025-04-22 16:45:02.586463500,6.26946337890625,-0.0468874233812093,0.1952703509047627,0.1086530477467924
2025-04-22 16:45:02.596436500,6.2794365234375,-0.1431079097300767,0.144847446873784,0.0705062176440842
2025-04-22 16:45:02.606409500,6.289409423828125,-0.1206020634114742,0.0676703914299607,0.0732607222503051
2025-04-22 16:45:02.616383500,6.299383544921875,-0.0402624522835016,0.0271229847252368,0.0511042830244172
2025-04-22 16:45:02.626356500,6.3093564453125,-0.0573205545902252,0.0020560557469725,0.0389306602570461
2025-04-22 16:45:02.636329500,6.31932958984375,-0.1020908396869897,-0.0517220039308071,-0.0133678283874643
2025-04-22 16:45:02.646302500,6.329302490234375,-0.0492085598051547,-0.0609767390102148,-0.065909487271239
2025-04-22 16:45:02.656275500,6.339275390625,0.0797609344571828,-0.0499222610324621,-0.082465818634862
2025-04-22 16:45:02.666248400,6.34924853515625,0.2667711142778396,-0.0849555804908275,-0.0368386244478169
2025-04-22 16:45:02.676221700,6.3592216796875,0.4088958581894636,-0.1157818036481738,0.0230284636869095
2025-04-22 16:45:02.686195500,6.369195556640625,0.5995382570326327,-0.1508110314533114,0.0287524993229424
2025-04-22 16:45:02.696168400,6.37916845703125,0.6148229199260473,-0.1636868796393275,0.0364270434056641
2025-04-22 16:45:02.706141400,6.389141357421875,0.5109978037923574,-0.2015396404325962,0.0149492660597432
2025-04-22 16:45:02.716114400,6.399114501953125,0.4342109167098998,-0.2443912324264645,-0.0307008934443583
2025-04-22 16:45:02.726087700,6.409087646484375,0.3463216208547353,-0.1779772707983851,-0.0089494959219824
2025-04-22 16:45:02.736060400,6.419060302734375,0.2105488763183355,-0.1433291512653231,0.0343343408761546
2025-04-22 16:45:02.746033400,6.429033447265625,-0.0182288996517658,-0.1534472251757979,0.0731180212774081
2025-04-22 16:45:02.756007400,6.43900732421875,-0.1545464185893535,-0.1270396952435374,0.0427546207256848
2025-04-22 16:45:02.765980400,6.44898046875,-0.241417477312684,-0.1221697511196136,-0.0468356246953131
2025-04-22 16:45:02.775953400,6.458953369140625,-0.2129021614462137,-0.0818748578712344,-0.1193722110892645
2025-04-22 16:45:02.785926700,6.4689267578125,-0.2279565227150917,-0.0350827115580439,-0.1029742349253967
2025-04-22 16:45:02.795899400,6.4788994140625,-0.2755512175828218,-0.0158089790284633,-0.1115531165698543
2025-04-22 16:45:02.805872400,6.488872314453125,-0.2625397603183985,0.0076622051909565,-0.1292196330985054
2025-04-22 16:45:02.815845400,6.498845458984375,-0.2690197699874639,0.0404953842565417,-0.0375168730525416
2025-04-22 16:45:02.825819400,6.5088193359375,-0.2641395967304706,0.0539157145828008,-0.0302401714642765
2025-04-22 16:45:02.835792600,6.518792724609375,-0.2649871534705162,0.0587716301813721,-0.0309007040325086
2025-04-22 16:45:02.845765600,6.528765625,-0.2733966698974371,0.0552890487626194,-0.080894788192166
2025-04-22 16:45:02.855738400,6.53873828125,-0.2381377249896526,0.0490425555884838,-0.1525106201791204
2025-04-22 16:45:02.865711400,6.54871142578125,-0.1130149692833423,0.0653764352738857,-0.2634494225092232
2025-04-22 16:45:02.875684600,6.5586845703125,0.0137017776161432,0.0185036249399185,-0.2735519517906941
2025-04-22 16:45:02.885658600,6.56865869140625,0.0652063394039869,-0.0141240946814417,-0.2660318036852404
2025-04-22 16:45:02.895631600,6.578631591796875,0.2114215674996375,0.0250718974143266,-0.2325959460187703
2025-04-22 16:45:02.905604600,6.5886044921875,0.3092828067928552,0.0543967760980129,-0.2474903857518918
2025-04-22 16:45:02.915577300,6.598577392578125,0.2428378655046224,-0.0144642864212393,-0.2116434483557008
2025-04-22 16:45:02.925550300,6.60855029296875,0.156028181579709,-0.0195583946898579,-0.17820702443365
2025-04-22 16:45:02.935523600,6.618523681640625,0.0976817910730838,-0.0092976974382996,-0.1607746454544365
2025-04-22 16:45:02.945496600,6.62849658203125,0.0633610037982463,-0.0402063381820917,-0.1774594940019771
2025-04-22 16:45:02.955470600,6.638470703125,0.1081295353293418,-0.0436187769740819,-0.1905407468332909
2025-04-22 16:45:02.965443600,6.648443603515625,0.1300643037617206,-0.0230883223816752,-0.130331996520888
2025-04-22 16:45:02.975416300,6.658416259765625,0.0946276641994714,-0.0335638314276933,-0.0533363620585761
2025-04-22 16:45:02.985389600,6.6683896484375,0.0477232896834611,-0.0791343269914388,-0.0174737704355269
2025-04-22 16:45:02.995362600,6.678362548828125,0.0680938775390386,-0.1091337439358234,-0.0269480254505528
2025-04-22 16:45:03.005335600,6.68833544921875,0.0950409211754798,-0.0726525637567043,-0.0504283382579218
2025-04-22 16:45:03.015308300,6.698308349609375,0.0961795698165893,-0.1078358130797743,0.0464748422586359
2025-04-22 16:45:03.025282300,6.7082822265625,0.1611696361213922,-0.1590694489717483,0.114284021104779
2025-04-22 16:45:03.035255600,6.718255615234375,0.2655330969154834,-0.1374722419306635,0.126596472387528
2025-04-22 16:45:03.045228500,6.728228515625,0.3653419631451368,-0.1006707437559962,0.1833174627825617
2025-04-22 16:45:03.055201500,6.738201416015625,0.4320551999807357,-0.1020420321092009,0.2334704638309776
2025-04-22 16:45:03.065174500,6.748174560546875,0.4036480206638574,-0.0317573665276169,0.2471560209646821
2025-04-22 16:45:03.075147300,6.758147216796875,0.2275987953186035,-0.0050017538100481,0.1656730119552463
2025-04-22 16:45:03.085120500,6.76812060546875,0.0556079054534435,-0.0227145206332206,0.0550725336348405
2025-04-22 16:45:03.095094500,6.778094482421875,-0.0171668233782052,-0.0259013339757919,-0.0294664539952878
2025-04-22 16:45:03.105067500,6.788067626953125,-0.0728530547648668,0.0133729840531945,-0.1263765003607608
2025-04-22 16:45:03.115040500,6.79804052734375,-0.1634510250568389,0.011036942321062,-0.1914616062715649
2025-04-22 16:45:03.125013500,6.808013427734375,-0.2181184347897768,0.0802460876256227,-0.2343486714376136
2025-04-22 16:45:03.134986500,6.817986572265625,-0.1582891122490167,0.1804924684897065,-0.1756783279399387
2025-04-22 16:45:03.144959500,6.82795947265625,-0.0915484028846025,0.1328837450966239,-0.0255753785406122
2025-04-22 16:45:03.154933500,6.83793359375,-0.1582639778077602,0.0417068058729171,-0.080049341210816
2025-04-22 16:45:03.164906500,6.847906494140625,-0.300689165970683,0.1098737486481666,-0.1830888964573852
2025-04-22 16:45:03.174879500,6.85787939453125,-0.5299187773615122,0.1307023094043135,-0.248655611872673
2025-04-22 16:45:03.184852500,6.8678525390625,-0.7943927206128836,0.1167109011918306,-0.3700764077885076
2025-04-22 16:45:03.194825500,6.877825439453125,-0.9221849877893924,0.1525514453798532,-0.4299359793370589
2025-04-22 16:45:03.204798500,6.887798583984375,-1.0054968927264214,0.1841904462248086,-0.4893395142138004
2025-04-22 16:45:03.214771500,6.897771484375,-1.0046820692121985,0.1629664564102888,-0.4449693343505263
2025-04-22 16:45:03.224745500,6.907745361328125,-0.8423843058437108,0.1419821205705404,-0.365978690146096
2025-04-22 16:45:03.234718500,6.917718505859375,-0.4856318918675184,0.0431190107583999,-0.3096023941360414
2025-04-22 16:45:03.244691700,6.927691650390625,-0.0390992537230253,-0.0102028295844793,-0.2805206034932285
2025-04-22 16:45:03.254664400,6.93766455078125,0.3457429441839456,-0.0715603846058249,-0.2771810472743585
2025-04-22 16:45:03.264637400,6.947637451171875,0.6522808361828327,-0.1686418716982007,-0.2691702478414401
2025-04-22 16:45:03.274610400,6.9576103515625,0.8215373326480389,-0.2206783484056592,-0.1580224241368472
2025-04-22 16:45:03.284583700,6.967583740234375,0.8441934010922908,-0.2351326979547739,-0.1058080883781425
2025-04-22 16:45:03.294557700,6.9775576171875,0.7605839745134115,-0.1859460577204823,-0.1120730305244214
2025-04-22 16:45:03.304530400,6.987530517578125,0.6336538771241903,-0.1351207103684544,-0.2198089451599866
2025-04-22 16:45:03.314503400,6.99750341796875,0.5666039556801319,-0.116825759743154,-0.3166195063564926
2025-04-22 16:45:03.324476400,7.007476318359375,0.6027244858533144,-0.1445090086996555,-0.3023619397548027
2025-04-22 16:45:03.334449400,7.017449462890625,0.7581494408428668,-0.1194280511960387,-0.3266282381409779
2025-04-22 16:45:03.344422700,7.027422607421875,0.8690203838348388,-0.1406485338792204,-0.2895155185926705
2025-04-22 16:45:03.354396700,7.037396728515625,0.950080710452795,-0.1693026736944913,-0.1621387734144926
2025-04-22 16:45:03.364369400,7.047369384765625,0.9467781617760658,-0.132544137878716,-0.0253130309601314
2025-04-22 16:45:03.374342400,7.05734228515625,0.7103507478356361,-0.0845528449088335,0.0162201901778578
2025-04-22 16:45:03.384315400,7.0673154296875,0.3307522958010435,-0.0742351567730307,0.0063894818414002
2025-04-22 16:45:03.394288600,7.07728857421875,-0.0173135383725166,-0.0181502814576029,0.0018943989118561
2025-04-22 16:45:03.404261600,7.08726171875,-0.2530558926582336,0.0671057432845234,0.0199428456964902
2025-04-22 16:45:03.414234400,7.097234375,-0.4105535622686147,0.1105903724849224,0.0721108032965101
2025-04-22 16:45:03.424208400,7.10720849609375,-0.4936415953218936,0.1210603285729885,0.1064223478189669
2025-04-22 16:45:03.434181400,7.117181396484375,-0.4488350698679685,0.1203998188376426,0.0560268797841854
2025-04-22 16:45:03.444154600,7.127154541015625,-0.4014619087964296,0.1306625619158148,-0.0526427903038449
2025-04-22 16:45:03.454127600,7.137127685546875,-0.4239706777244806,0.118386725449562,-0.1420185253244824
2025-04-22 16:45:03.464100600,7.1471005859375,-0.4665484212130308,0.1332958330288529,-0.1884711009523831
2025-04-22 16:45:03.474073600,7.157073486328125,-0.515776854762435,0.1278346450135111,-0.1554396045694127
2025-04-22 16:45:03.484046600,7.167046630859375,-0.5195914446145296,0.0747962977871298,-0.1285102883859071
2025-04-22 16:45:03.494020600,7.1770205078125,-0.48120881472826,0.0543511833906173,-0.0864341742765624
2025-04-22 16:45:03.503993600,7.18699365234375,-0.3478957383036613,0.0548392591685056,-0.0135176623540464
2025-04-22 16:45:03.513966600,7.196966552734375,-0.1208873100936412,0.0261728443935513,0.01353379150494
2025-04-22 16:45:03.523939600,7.206939697265625,0.1325602122306823,0.0046066170126199,-0.0136924800648353
2025-04-22 16:45:03.533912600,7.21691259765625,0.3594102350085973,-0.0121925420969724,-0.0091461875378619
2025-04-22 16:45:03.543885800,7.2268857421875,0.424911757966876,-0.0461769370242953,-0.0563529973328579
2025-04-22 16:45:03.553859600,7.236859619140625,0.4274526746213435,-0.0581312864512205,-0.0307373849632684
2025-04-22 16:45:03.563832600,7.24683251953125,0.3873538884669542,-0.0959434229731559,0.0448646031835582
2025-04-22 16:45:03.573805600,7.2568056640625,0.3972083430051803,-0.148279174888134,0.0684426087783183
2025-04-22 16:45:03.583778600,7.266778564453125,0.4176946661949157,-0.1622299588292837,0.1126514240674208
2025-04-22 16:45:03.593751600,7.27675146484375,0.3437158222705125,-0.1755471210420131,0.1344267550212331
2025-04-22 16:45:03.603724800,7.286724853515625,0.1286065061688423,-0.1854775634258985,0.1612909426798112
2025-04-22 16:45:03.613697500,7.296697509765625,-0.1255611471235752,-0.1058601290926337,0.1498540503888856
2025-04-22 16:45:03.623671600,7.306671630859375,-0.3169347828507423,-0.077421970115602,0.1391481483867857
2025-04-22 16:45:03.633644500,7.31664453125,-0.3603063070654869,-0.0788596017032861,0.1367145462980028
2025-04-22 16:45:03.643617500,7.326617431640625,-0.3368962053835392,-0.0698497812956571,0.1116440462563186
2025-04-22 16:45:03.653590800,7.3365908203125,-0.3378694343298673,-0.0731684043243527,0.006643785396032
2025-04-22 16:45:03.663563800,7.346563720703125,-0.3863105168938636,-0.095950729496777,-0.1012140568524599
2025-04-22 16:45:03.673536500,7.35653662109375,-0.4686906939387321,-0.0667518152803182,-0.1429217943071387
2025-04-22 16:45:03.683509500,7.366509521484375,-0.5457762717068195,-0.0566758269459009,-0.0952599616204854
2025-04-22 16:45:03.693483500,7.3764833984375,-0.6445575484544038,0.0423301984682679,-0.0599442724236287
2025-04-22 16:45:03.703456800,7.386456787109375,-0.6779582982748746,0.0511152702093124,0.0789490518187172
2025-04-22 16:45:03.713429800,7.3964296875,-0.6394084951281547,0.068570555140078,0.0901397142636124
2025-04-22 16:45:03.723402500,7.406402587890625,-0.467993359324336,0.1097650275766849,0.0441049073900561
2025-04-22 16:45:03.733375500,7.41637548828125,-0.3100000151515006,0.0836813227713108,0.0307907225857023
2025-04-22 16:45:03.743348500,7.426348388671875,-0.1527630423039198,0.0491080220401287,0.0894200034206267
2025-04-22 16:45:03.753321700,7.43632177734375,0.0076180737882852,0.0141112351998686,0.1004209519797004
2025-04-22 16:45:03.763295700,7.446295654296875,0.1648538775920867,0.0254059516742825,0.150388422127068
2025-04-22 16:45:03.773268700,7.456268798828125,0.27648703712821,0.0225759889453649,0.1497563621680717
2025-04-22 16:45:03.783241500,7.466241455078125,0.4279892657160759,0.0080795538201928,0.1253890967586077
2025-04-22 16:45:03.793214500,7.47621435546875,0.4695569553792476,-0.0493014987856149,0.1074172223415225
2025-04-22 16:45:03.803187700,7.486187744140625,0.4164648321390152,-0.0632251024588942,0.0955429158808663
2025-04-22 16:45:03.813160700,7.49616064453125,0.3896785320222377,-0.0158595401719212,0.1222646811277605
2025-04-22 16:45:03.823134700,7.506134765625,0.3091214787513017,-0.0169610716730356,0.1518809439734555
2025-04-22 16:45:03.833107700,7.516107666015625,0.1369078860461711,-0.0134399118095636,0.1100347935619298
2025-04-22 16:45:03.843080400,7.52608056640625,0.0627794045180082,0.0356309930905699,0.1306340664736926
2025-04-22 16:45:03.853053700,7.5360537109375,0.0854629454910755,0.0387792279884219,0.1144475685028824
2025-04-22 16:45:03.863026700,7.546026611328125,0.0212228207707405,0.1162511747255921,-0.0797488238942809
2025-04-22 16:45:03.872999700,7.555999755859375,-0.1430465349316597,0.1713870787531137,-0.2960108902276493
2025-04-22 16:45:03.882972700,7.56597265625,-0.2955915505707264,0.1840104134827852,-0.49148606125582
2025-04-22 16:45:03.892946700,7.57594677734375,-0.296101253658533,0.1549666898280382,-0.4832404666863381
2025-04-22 16:45:03.902919400,7.58591943359375,-0.2275099479913711,0.1389943369314074,-0.2195101814091205
2025-04-22 16:45:03.912892700,7.595892578125,-0.1936667151004076,0.043655894114077,0.067790506111714
2025-04-22 16:45:03.922865700,7.60586572265625,-0.0415723658382892,-0.0651695145249366,0.2768082684392109
2025-04-22 16:45:03.932838700,7.615838623046875,0.1838198593467473,-0.1092182073488831,0.3530165153834969
2025-04-22 16:45:03.942811600,7.625811767578125,0.3671159870803356,-0.096707977604866,0.3447181311808526
2025-04-22 16:45:03.952785700,7.63578564453125,0.3480067974627018,0.0457505283057689,0.1163139742961153
2025-04-22 16:45:03.962758700,7.645758544921875,0.1123778404235839,0.1977136524036526,-0.2345834848404862
2025-04-22 16:45:03.972731600,7.655731689453125,-0.1081032318443059,0.2507347562342882,-0.4399707588782534
2025-04-22 16:45:03.982704600,7.66570458984375,-0.169997085699439,0.2411123568862676,-0.415188017136231
2025-04-22 16:45:03.992677600,7.675677734375,-0.0516892707049846,0.1803776099383831,-0.2641649686337448
2025-04-22 16:45:04.002650600,7.685650634765625,0.1218430033832788,0.0405567590549588,-0.0690915513734566
2025-04-22 16:45:04.012623600,7.69562353515625,0.3811941967934369,-0.0569715950220823,0.1158370227004401
2025-04-22 16:45:04.022597600,7.70559765625,0.740771020540595,-0.1948994717657566,0.3256664439041167
2025-04-22 16:45:04.032570600,7.715570556640625,0.6913982100844382,-0.2277081009119748,0.3550148130612447
2025-04-22 16:45:04.042543600,7.725543701171875,0.6571604249179362,-0.1852399552777409,0.5240168233087286
2025-04-22 16:45:04.052516600,7.7355166015625,0.4854805006980895,-0.2421981062963605,0.5181387250555679
2025-04-22 16:45:04.062489600,7.745489501953125,0.4619996718674898,-0.2348383911833167,0.3476663134619593
2025-04-22 16:45:04.072462600,7.755462646484375,0.3747714702695608,-0.165860424286127,0.1027292745878454
2025-04-22 16:45:04.082435600,7.765435546875,0.3353887234300375,-0.1242553252220153,-0.0405374972320627
2025-04-22 16:45:04.092409600,7.77540966796875,0.1386275494456291,-0.1231029403164982,-0.2985080408056266
2025-04-22 16:45:04.102382600,7.785382568359375,0.0050777416557073,-0.0410234997838735,-0.2855116167135536
2025-04-22 16:45:04.112355600,7.79535546875,0.0132288994073867,0.0666091919392347,-0.1276934555776883
2025-04-22 16:45:04.122328600,7.80532861328125,-0.0298036021113395,0.0646791006594896,-0.1101309474127832
2025-04-22 16:45:04.132301600,7.815301513671875,-0.2105827785879373,0.0495846996411681,-0.0758693612455856
2025-04-22 16:45:04.142274600,7.825274658203125,-0.12786474789083,0.0372173854991793,-0.0378435294573311
2025-04-22 16:45:04.152247600,7.83524755859375,-0.1347176825255155,0.0273810511395335,-0.1993510808797553
2025-04-22 16:45:04.162221600,7.8452216796875,-0.283989960104227,0.0963242389842867,-0.2712966106119565
2025-04-22 16:45:04.172194800,7.85519482421875,-0.3704512689828872,0.1547001478463411,-0.4457294320028275
2025-04-22 16:45:04.182167600,7.86516748046875,-0.549214429461956,0.2080769332468509,-0.5796620650978759
2025-04-22 16:45:04.192140500,7.875140625,-0.717547965863347,0.2007248169183731,-0.5977338744917884
2025-04-22 16:45:04.202113500,7.885113525390625,-0.7546744582086801,0.1460600375339388,-0.4612955056535079
2025-04-22 16:45:04.212086800,7.895086669921875,-0.6102396837890148,0.0830786807030439,-0.1862926609347574
2025-04-22 16:45:04.222060800,7.905060791015625,-0.3817284498006105,-0.0114627665176987,0.1117612428952008
2025-04-22 16:45:04.232033800,7.91503369140625,-0.1201595803409814,-0.1192135316625237,0.2762584890693426
2025-04-22 16:45:04.242006500,7.925006591796875,0.0574094019174575,-0.194863231408596,0.2616152293520048
2025-04-22 16:45:04.251979500,7.9349794921875,0.054782560545206,-0.1672179763749241,0.1363968860504217
2025-04-22 16:45:04.261952500,7.944952392578125,-0.0795621970146894,-0.0090519059836864,-0.0992655531331896
2025-04-22 16:45:04.271925800,7.95492578125,-0.4145967001795768,0.1563388549640774,-0.3611420272372663
2025-04-22 16:45:04.281898500,7.9648984375,-0.7959294286608696,0.280696471516788,-0.5644117063328623
2025-04-22 16:45:04.291872500,7.97487255859375,-0.9397142147392034,0.3216302471905946,-0.524575662767887
2025-04-22 16:45:04.301845500,7.984845458984375,-0.8341957386910915,0.1847507104560732,0.0937387799351941
2025-04-22 16:45:04.311818500,7.994818603515625,-0.7171259410589933,0.1192076864436268,0.5761832100061699
2025-04-22 16:45:04.321791700,8.004791748046875,-0.4768143791615962,0.0105617260247468,0.7213888592004776
2025-04-22 16:45:04.331764700,8.0147646484375,0.2041197200536727,-0.0996007764369249,0.7846163728121668
2025-04-22 16:45:04.341737500,8.024737548828124,0.6950199077129363,-0.2562029585123062,0.6298113032866269
2025-04-22 16:45:04.351711500,8.03471142578125,0.7841916445940732,-0.5025944248452783,0.3415298565335571
2025-04-22 16:45:04.361684500,8.0446845703125,0.9025625879526138,-0.6439709807381033,0.1244395226825028
2025-04-22 16:45:04.371657700,8.05465771484375,0.7206517770975828,-0.4956050043493509,-0.1598537860161624
2025-04-22 16:45:04.381630700,8.064630615234375,0.3950415203601121,-0.3529436693429946,-0.3218744677426293
2025-04-22 16:45:04.391603700,8.074603759765624,0.1182201367110013,-0.2645151520445942,-0.297528765711002
2025-04-22 16:45:04.401576400,8.084576416015626,0.0069335986554622,-0.1438362240046262,-0.200887332270015
2025-04-22 16:45:04.411549700,8.0945498046875,-0.0906792188346385,-0.0805167212605476,-0.0958658824912272
2025-04-22 16:45:04.421523500,8.1045234375,-0.0149152450591325,-0.094171444864571,0.049623150221724
2025-04-22 16:45:04.431496700,8.11449658203125,0.1535696825116872,-0.1011380690068006,0.2007494947019033
2025-04-22 16:45:04.441469700,8.1244697265625,0.3305786927998065,-0.110710491733253,0.2563483948649838
2025-04-22 16:45:04.451442700,8.134442626953126,0.3965554320544004,-0.1244113925665617,0.2709829963518306
2025-04-22 16:45:04.461415700,8.144415771484375,0.4647346497893333,-0.1493672623857855,0.2777739899325184
2025-04-22 16:45:04.471389000,8.154388916015625,0.3697878366380929,-0.1075266010001301,0.2134076998155564
2025-04-22 16:45:04.481361700,8.164361572265625,0.2283539976000785,-0.0628743893250823,0.0754863624105229
2025-04-22 16:45:04.491335700,8.174335693359374,0.0959808323740959,0.0169537651494145,-0.008156217519287
2025-04-22 16:45:04.501308700,8.18430859375,0.0029927520751953,0.0548968345746397,-0.0560249344222713
2025-04-22 16:45:04.511281700,8.19428173828125,-0.0239426011234521,0.0804699595093727,-0.0629107758127152
2025-04-22 16:45:04.521254700,8.204254638671875,-0.0233761994123458,0.0836468359798193,-0.0595814487269148
2025-04-22 16:45:04.531228000,8.214227783203125,-0.0051636663734912,0.0749953274905681,-0.054378975579841
2025-04-22 16:45:04.541200600,8.22420068359375,-0.0352735579550266,0.0469841617539525,-0.0574398427214939
2025-04-22 16:45:04.551174700,8.234174560546874,-0.0440051459431648,0.0045069560304284,-0.0732027723848354
2025-04-22 16:45:04.561147600,8.244147705078126,-0.0394014515399932,-0.020789105528593,-0.071956215522997
2025-04-22 16:45:04.571120600,8.25412060546875,-0.034679683715105,-0.0279196880608797,-0.1019989418861456
2025-04-22 16:45:04.581094000,8.264093994140625,-0.0610842910379171,-0.0411424499884247,-0.1054130246459506
2025-04-22 16:45:04.591067000,8.27406689453125,-0.0832072755187749,-0.0434495578870177,-0.0567138026024214
2025-04-22 16:45:04.601039600,8.28403955078125,-0.1165817218542099,-0.0175283501669764,-0.0845771482330281
2025-04-22 16:45:04.611012600,8.2940126953125,-0.1638432392448186,0.0071963412448763,-0.0963949113340117
2025-04-22 16:45:04.620986600,8.303986572265625,-0.1579617799907922,-0.0333761999011039,0.0809390474590007
2025-04-22 16:45:04.630959900,8.3139599609375,-0.1017529860347509,-0.1125426755964756,0.37187870797012
2025-04-22 16:45:04.640932900,8.323932861328124,0.0562824437141418,-0.1812996932193636,0.6814259013202041
2025-04-22 16:45:04.650905900,8.33390576171875,0.2800280707359314,-0.1825400486692786,0.5946940318718552
2025-04-22 16:45:04.660878600,8.343878662109375,0.4855845455944538,-0.1552852542579174,0.2929850943993777
2025-04-22 16:45:04.670851600,8.3538515625,0.5878636013299227,-0.1104857430666685,0.0453703196494141
2025-04-22 16:45:04.680824800,8.363824951171875,0.5009136321514844,-0.0561079639300704,-0.2057685832392424
2025-04-22 16:45:04.690798800,8.373798828125,0.2568330731093883,0.0792298963204026,-0.4184540331948548
2025-04-22 16:45:04.700771800,8.383771728515624,0.0629798955261707,0.1302972357347607,-0.5149231240099296
2025-04-22 16:45:04.710744800,8.393744873046876,-0.2172667863965034,0.1685179530575871,-0.5577017238328233
2025-04-22 16:45:04.720717600,8.403717529296875,-0.4335866473317146,0.1367529877454042,-0.4614919415410607
2025-04-22 16:45:04.730690800,8.41369091796875,-0.3852572084486484,0.0230590962871909,-0.445133146610111
2025-04-22 16:45:04.740663800,8.423663818359374,-0.2790361370891333,0.1742202563524246,-0.4339032755328342
2025-04-22 16:45:04.750637800,8.433637939453124,-0.067871174699068,0.1290419749766588,-0.3969720500312745
2025-04-22 16:45:04.760610800,8.44361083984375,0.0605243190675973,0.0682405925333499,-0.3452282726600766
2025-04-22 16:45:04.770583600,8.45358349609375,0.1307972942113876,0.0821636116847395,-0.3507761891108006
2025-04-22 16:45:04.780556800,8.463556884765625,-0.0242687643378973,-0.0046814358144998,-0.2952680542374029
2025-04-22 16:45:04.790529800,8.47352978515625,-0.3679997841775417,-0.0236760591417551,-0.2103006006456911
2025-04-22 16:45:04.800502800,8.483502685546876,-0.5576905813843012,-0.0395183559179306,-0.2409130349218845
2025-04-22 16:45:04.810475800,8.493475830078125,-0.6415127739310265,-0.0484282230824232,-0.2445696577332913
2025-04-22 16:45:04.820449800,8.50344970703125,-0.5768903718948364,-0.0370759312018752,-0.1987724042089655
2025-04-22 16:45:04.830422500,8.513422607421875,-0.3887093947291374,-0.0448930346935987,-0.1754890707118436
2025-04-22 16:45:04.840395800,8.523395751953124,-0.1976771197855472,-0.0235074245765805,-0.110081144321151
2025-04-22 16:45:04.850368800,8.53336865234375,-0.0633873072832822,-0.028985855987668,-0.0076788092658855
2025-04-22 16:45:04.860341800,8.543341796875,0.0510492192357778,-0.037647009088099,0.0542834336503408
2025-04-22 16:45:04.870314800,8.553314697265625,0.0951753612101077,-0.0456415149733424,0.0987801990353502
2025-04-22 16:45:04.880287700,8.563287841796875,0.0636813217937946,-0.0301373641103506,0.1006120358387008
2025-04-22 16:45:04.890261800,8.57326171875,0.009136661657691,0.0005225625693798,0.0319487609138712
2025-04-22 16:45:04.900234800,8.58323486328125,-0.0714776747584342,0.0147001410037279,0.0651960920046083
2025-04-22 16:45:04.910207700,8.593207763671876,-0.1189911210834979,0.0161214059785008,0.1370795254191849
2025-04-22 16:45:04.920180700,8.6031806640625,-0.0860153186768293,0.0041524435043334,0.1472146235296968
2025-04-22 16:45:04.930153700,8.61315380859375,-0.0310667539149522,0.0048866029977798,0.0954335828880313
2025-04-22 16:45:04.940126700,8.623126708984374,0.0175923553138971,0.0176660050719976,0.0491733971602283
2025-04-22 16:45:04.950100700,8.633100830078124,0.0669832859486341,0.0128705874890089,0.0075302037085872
2025-04-22 16:45:04.960073700,8.64307373046875,0.0827928494989871,0.0487187304615974,-0.0450316759793087
2025-04-22 16:45:04.970046700,8.653046630859375,0.0662543871521949,0.0404044911026954,-0.076943201022176
2025-04-22 16:45:04.980019700,8.663019775390625,0.074385671159625,0.0639846886545419,-0.0945970863981172
2025-04-22 16:45:04.989993000,8.672992919921874,0.1128051259249448,0.0871872850656509,-0.0796320747799705
2025-04-22 16:45:04.999965700,8.682965576171876,0.1838426557004451,0.0572951278880238,-0.1036321051790844
2025-04-22 16:45:05.009938700,8.692938720703125,0.2853121486186981,0.040772739893198,-0.1275998407437931
2025-04-22 16:45:05.019912700,8.70291259765625,0.3192103265672922,0.0150648826628923,-0.0497914559933356
2025-04-22 16:45:05.029885700,8.7128857421875,0.3209685684114694,-0.0137570149347186,-0.1191274425479583
2025-04-22 16:45:05.039859000,8.72285888671875,0.2425707390010356,-0.0042386604830622,-0.1684063824418932
2025-04-22 16:45:05.049831700,8.732831787109374,0.1818061814367771,0.0075984923049807,-0.1294915727745275
2025-04-22 16:45:05.059804700,8.7428046875,0.1088508353412151,0.0120531336262822,-0.0536325137272477
2025-04-22 16:45:05.069777700,8.752777587890625,-0.0019464578926563,0.0047962943658232,0.0011498458885587
2025-04-22 16:45:05.079750700,8.762750732421875,-0.1111053362697362,-0.0144806530341506,0.0235069222530815
2025-04-22 16:45:05.089724700,8.772724609375,-0.1665261947184801,-0.0275368262231349,-0.010366486580437
2025-04-22 16:45:05.099698000,8.782697998046874,-0.2092109057128429,-0.0600993716537952,-0.01811910086805
2025-04-22 16:45:05.109670700,8.792670654296876,-0.299943316039443,-0.097769177095592,0.0239043697386048
2025-04-22 16:45:05.119643600,8.8026435546875,-0.3761199622690677,-0.1933960814654827,0.0434888943835627
2025-04-22 16:45:05.129616600,8.81261669921875,-0.4346761961340904,-0.2593000477448106,-0.0210205487974453
2025-04-22 16:45:05.139590000,8.82258984375,-0.3818634743571281,-0.2182125428140163,0.0238030830549076
2025-04-22 16:45:05.149564000,8.83256396484375,-0.1197661971092224,-0.1293251758322119,0.1127958831725642
2025-04-22 16:45:05.159537000,8.842536865234376,0.0521498739540576,-0.0452194901689887,0.1682978075008839
2025-04-22 16:45:05.169509600,8.852509521484375,0.0989233155667781,-0.1829419074684381,0.1402588678413536
2025-04-22 16:45:05.179482600,8.862482666015625,0.0637070407569408,-0.1145545999407768,0.1683832024957053
2025-04-22 16:45:05.189456000,8.872455810546874,-0.0719482148796319,0.0593316021516919,0.1443313140451908
2025-04-22 16:45:05.199428900,8.882428955078124,-0.225130359378457,0.060597676564753,0.072540431452007
2025-04-22 16:45:05.209401900,8.89240185546875,-0.3209299899667501,0.0533823383584618,0.0387768625013995
2025-04-22 16:45:05.219375900,8.9023759765625,-0.4343289901316166,0.0938517113909125,0.0074134591608541
2025-04-22 16:45:05.229348600,8.9123486328125,-0.3937818756878375,0.1126049271777272,-0.0717875946575542
2025-04-22 16:45:05.239321600,8.922321533203124,-0.2278524778187274,0.1429179401159286,-0.1031385951742529
2025-04-22 16:45:05.249294800,8.932294921875,-0.0082300682067871,0.1238391456365585,-0.0186410766322514
2025-04-22 16:45:05.259267800,8.942267822265626,0.2447293783396482,0.0720543056026101,0.0784883389717899
2025-04-22 16:45:05.269240800,8.95224072265625,0.3973141414672136,0.0300128609478473,0.0967796089358162
2025-04-22 16:45:05.279213600,8.962213623046875,0.4702420150339603,-0.0054006899997591,0.0376384741551941
2025-04-22 16:45:05.289187600,8.9721875,0.4960995098680257,-0.0043082185879349,-0.0189980802262434
2025-04-22 16:45:05.299160800,8.982160888671874,0.4139601558417081,-0.0195446584254503,-0.0301512099726125
2025-04-22 16:45:05.309133800,8.9921337890625,0.3087567370921373,0.001225157880783,0.0130202593420981
2025-04-22 16:45:05.319106800,9.00210693359375,0.2163888345181941,0.0269797768622636,0.0884738268780056
2025-04-22 16:45:05.329079600,9.01207958984375,0.1629799004137516,0.0109065939396619,0.1248280379428993
2025-04-22 16:45:05.339052800,9.022052734375,0.1471399417251348,-0.0035436639562249,0.1359776651245076
2025-04-22 16:45:05.349025800,9.03202587890625,0.183467977169156,-0.0313785963431,0.1385234223508741
2025-04-22 16:45:05.358999800,9.041999755859376,0.2358487372696399,-0.0496878677546977,0.1105092883390374
2025-04-22 16:45:05.368972800,9.051972900390624,0.2376537408649921,-0.047270285218954,0.0911608740048948
2025-04-22 16:45:05.378945800,9.06194580078125,0.2055675807744264,-0.0480836474284529,0.0582924637957243
2025-04-22 16:45:05.388918500,9.07191845703125,0.1902162823855877,-0.0673193860352039,0.0301814201644971
2025-04-22 16:45:05.398891800,9.081891845703124,0.1804869155317544,-0.0543868392258882,0.0104600637400697
2025-04-22 16:45:05.408864800,9.09186474609375,0.1011439142256975,-0.0477057540267705,-0.0223490939874667
2025-04-22 16:45:05.418838800,9.1018388671875,0.0650514411032199,-0.024286007733643,-0.0485964146896032
2025-04-22 16:45:05.428811800,9.111811767578123,0.0424701914608478,-0.020763094304502,-0.036636320508481
2025-04-22 16:45:05.438784800,9.12178466796875,-0.0516296494722366,-0.0073953709483146,-0.0476897527400404
2025-04-22 16:45:05.448757800,9.1317578125,-0.0922223566234111,-0.0042404140487313,-0.009448403621139
2025-04-22 16:45:05.458730200,9.141730224609375,-0.0217494749933481,-0.0749701930493116,0.050848705394729
2025-04-22 16:45:05.468703200,9.151703125,0.1675847638607025,-0.0856301187515258,0.0574636939545394
2025-04-22 16:45:05.478676200,9.16167626953125,0.3051537441641092,-0.0192518129587173,-0.0392073811394628
2025-04-22 16:45:05.488650000,9.17164990234375,0.2634831786483526,0.0113178050890564,-0.0738346085815457
2025-04-22 16:45:05.498623200,9.181623291015624,0.062236968204379,0.0594733487099409,-0.1592837127769366
2025-04-22 16:45:05.508596200,9.19159619140625,-0.2005892078399658,0.0497796376913785,-0.1638380516130477
2025-04-22 16:45:05.518569200,9.2015693359375,-0.2232885309040546,0.0633721097141504,-0.0087908164952415
2025-04-22 16:45:05.528542200,9.211542236328125,-0.1583393811315298,0.0877735605210065,0.0653402588488068
2025-04-22 16:45:05.538515200,9.22151513671875,-0.0658995823651552,0.1232242286086082,0.1026062235969118
2025-04-22 16:45:05.548489200,9.2314892578125,0.0048895256072282,0.1085585743963718,0.073374895815039
2025-04-22 16:45:05.558462200,9.241462158203126,0.1354477503657341,0.022984277485311,0.0136389415130019
2025-04-22 16:45:05.568435200,9.251435302734375,0.2685632583916187,-0.1034440078616142,-0.0308963475177995
2025-04-22 16:45:05.578408200,9.261408203125,0.3391594741404056,-0.0813306679919362,0.0088913725265767
2025-04-22 16:45:05.588381200,9.271381103515624,0.3780313488483429,-0.1205921265393495,0.0163093936981167
2025-04-22 16:45:05.598354200,9.281354248046876,0.4041302512228488,-0.141867262019217,-0.0053812272474635
2025-04-22 16:45:05.608327200,9.2913271484375,0.359724123263359,-0.1309203360691666,0.1035797265378758
2025-04-22 16:45:05.618301200,9.30130126953125,0.0772486593753099,-0.0895350172355771,0.2007908313592895
2025-04-22 16:45:05.628274200,9.311274169921877,0.011799743387103,-0.0499842203527688,-0.029912318616244
2025-04-22 16:45:05.638247200,9.3212470703125,0.0400672219723463,-0.0739428958281874,-0.1527450956552755
2025-04-22 16:45:05.648220400,9.331220458984374,0.0609340689122676,-0.1128247074082493,-0.2520557026397437
2025-04-22 16:45:05.658193200,9.341193115234375,0.0219002816408872,-0.1119800732776522,-0.1710536820802837
2025-04-22 16:45:05.668166100,9.351166259765623,-0.0921136355519294,-0.0703504242941737,-0.0094453668472589
2025-04-22 16:45:05.678139100,9.36113916015625,-0.2268342406868934,-0.1596677071258425,-0.0468385655710706
2025-04-22 16:45:05.688113200,9.371113037109374,-0.2601145789980888,-0.1375178346380591,-0.0133404106575762
2025-04-22 16:45:05.698086100,9.381086181640624,-0.2086842514902353,-0.0670922992810607,0.0561669732414651
2025-04-22 16:45:05.708059400,9.391059326171876,-0.1622720444053411,-0.1096639052897691,0.0109274129654048
2025-04-22 16:45:05.718032100,9.4010322265625,0.0187006088167428,-0.0934711876407265,-0.0985023319420404
2025-04-22 16:45:05.728005000,9.411005126953125,0.1147679504305124,-0.007070084516704,-0.1789196844813413
2025-04-22 16:45:05.737978000,9.42097802734375,0.0839297445744276,-0.0035077158600091,-0.25333536718674
2025-04-22 16:45:05.747951400,9.430951416015626,-0.010664017355442,-0.0109168230727314,-0.2973464131477288
2025-04-22 16:45:05.757925400,9.44092529296875,-0.0849865601509809,0.0230915372520685,-0.2660618882962502
2025-04-22 16:45:05.767898000,9.450898193359375,-0.0676408730745315,-0.0139303256750106,-0.2322127188548445
2025-04-22 16:45:05.777871000,9.46087109375,-0.0375438409745693,-0.052594987373054,-0.2101424144092947
2025-04-22 16:45:05.787844000,9.470843994140624,-0.0390273575305938,-0.0514639375165104,-0.2035928466353565
2025-04-22 16:45:05.797817300,9.4808173828125,-0.0345709626436233,-0.0507376690685749,-0.2197577446957118
2025-04-22 16:45:05.807790300,9.490790283203124,0.0133054717749357,-0.0435486343473196,-0.1586544018974527
2025-04-22 16:45:05.817763000,9.50076318359375,0.1006014779120683,-0.0352592371687293,-0.1427466204033233
2025-04-22 16:45:05.827737000,9.510737060546877,0.1983791305750608,-0.0364572147816419,-0.1828044169601984
2025-04-22 16:45:05.837710000,9.5207099609375,0.2846680054962635,0.0055149640291929,-0.2265820925567299
2025-04-22 16:45:05.847683000,9.53068310546875,0.3260305279761553,0.0168321845963597,-0.2352295641916804
2025-04-22 16:45:05.857656300,9.54065625,0.3104571112692356,0.021594868953526,-0.1835555641210637
2025-04-22 16:45:05.867629300,9.55062939453125,0.2334825926601886,0.0115121586173772,-0.1214538396689109
2025-04-22 16:45:05.877602000,9.56060205078125,0.1545662923336029,0.0094695468738675,-0.0703739284673472
2025-04-22 16:45:05.887576000,9.570576171875,0.1005319198071956,-0.0340858094751834,-0.0399411342075327
2025-04-22 16:45:05.897549000,9.580549072265624,-0.0385544793218374,-0.0858265181064605,-0.1158874559797346
2025-04-22 16:45:05.907522300,9.590522216796876,-0.1846463732987642,-0.1123164656251668,-0.2206995921230874
2025-04-22 16:45:05.917495300,9.600495361328123,-0.2644657599449158,-0.0747188486367464,-0.285436195123475
2025-04-22 16:45:05.927468300,9.61046826171875,-0.3936825069665908,-0.0085325582846999,-0.2723197248483076
2025-04-22 16:45:05.937441000,9.62044091796875,-0.2520148591727018,0.0888280380100011,-0.1272315462875179
2025-04-22 16:45:05.947414300,9.630414306640626,-0.1416997964978218,0.1353399060770869,-0.0827307988471351
2025-04-22 16:45:05.957388300,9.64038818359375,-0.1302577805072069,0.1784410889178514,0.0171921724485931
2025-04-22 16:45:05.967361300,9.650361328125,-0.231956406006217,0.137025667206943,0.1860383025811985
2025-04-22 16:45:05.977334300,9.660334228515625,-0.3644423839569091,0.0808440535187721,0.148271037247451
2025-04-22 16:45:05.987307300,9.670307373046874,-0.4011749085485935,0.1018430024057626,0.0517949869686271
2025-04-22 16:45:05.997280000,9.680280029296876,-0.3587678454518318,0.0180590960428118,0.0528780694975983
2025-04-22 16:45:06.007253200,9.690253173828124,-0.3051268561571836,-0.0597331686899065,-0.0263790436232928
2025-04-22 16:45:06.017226200,9.700226318359377,-0.1614794327229261,-0.062848670361936,-0.0554488789668306
2025-04-22 16:45:06.027200300,9.7102001953125,-0.0168061733722686,-0.1029193994656205,-0.0672284563487395
2025-04-22 16:45:06.037173200,9.72017333984375,0.0157376673579216,-0.1430231540560722,-0.0749985423609614
2025-04-22 16:45:06.047146000,9.73014599609375,0.1395785665601492,-0.1743923980489373,-0.0633946046737488
2025-04-22 16:45:06.057119200,9.740119140625,0.1676478922247886,-0.1929597358748316,-0.0192002197687979
2025-04-22 16:45:06.067092200,9.75009228515625,0.2427858430564403,-0.2097162248864769,-0.0101326412919443
2025-04-22 16:45:06.077065200,9.760065185546877,0.2212690077751875,-0.2199509109139442,0.0495195802493952
2025-04-22 16:45:06.087038200,9.7700380859375,0.214966108238697,-0.2044686796218156,0.1003344518731813
2025-04-22 16:45:06.097012200,9.78001220703125,0.2517985860735178,-0.1845452510118484,0.0678745265667792
2025-04-22 16:45:06.106985200,9.789985107421876,0.2555167298138141,-0.1506724997654557,-0.0199624728455673
2025-04-22 16:45:06.116958200,9.799958251953123,0.2441512861907482,-0.0844216197445988,-0.1283120806663762
2025-04-22 16:45:06.126931200,9.80993115234375,0.1334346569776535,-0.0248620540559291,-0.198077334616892
2025-04-22 16:45:06.136904200,9.819904296875,-0.0449380428791046,-0.0061474167138338,-0.2588830096428282
2025-04-22 16:45:06.146877200,9.829877197265626,-0.2051642606705427,0.0485714309453964,-0.2314848064390942
2025-04-22 16:45:06.156851200,9.839851318359376,-0.343211379879713,0.0772781777307391,-0.2007596690360456
2025-04-22 16:45:06.166824200,9.84982421875,-0.5041051216691732,0.0512193151056766,-0.2344008400162681
2025-04-22 16:45:06.176797200,9.859797119140625,-0.5304483541935682,0.0754103380322456,-0.2306745677684433
2025-04-22 16:45:06.186770200,9.869770263671874,-0.4959142164289951,0.0714011023908853,-0.214681226882711
2025-04-22 16:45:06.196743200,9.8797431640625,-0.4309346715182066,0.0382367916747927,-0.2735187253745272
2025-04-22 16:45:06.206716400,9.88971630859375,-0.3098404406756162,0.040494799734652,-0.2321694277023896
2025-04-22 16:45:06.216689200,9.899689208984377,-0.0296738382518291,0.1371981011644005,0.0169617749259341
2025-04-22 16:45:06.226663200,9.9096630859375,0.0135229139178991,0.2100412190571427,0.2489470690999179
2025-04-22 16:45:06.236636200,9.91963623046875,0.0337771819174289,0.0832709884047508,0.3220825210027396
2025-04-22 16:45:06.246609200,9.929609130859374,0.1108557454228401,0.0854939251512289,0.2404470248453319
2025-04-22 16:45:06.256582100,9.93958203125,0.0909177037656307,0.0934518984183669,0.1384468499833252
2025-04-22 16:45:06.266555400,9.949555419921875,0.0437099623888731,0.036518589580059,0.1002285255469847
2025-04-22 16:45:06.276528000,9.959528076171877,-0.0155097038209438,-0.0276063843280076,0.016556765188463
2025-04-22 16:45:06.286501000,9.969501220703124,0.0588461567223072,-0.083721947042644,-0.0103206564110238
2025-04-22 16:45:06.296475100,9.97947509765625,0.1313362233936786,-0.061315761706233,0.0701321145015303
2025-04-22 16:45:06.306448100,9.9894482421875,0.1513216113239526,-0.1211909692153334,0.0722408868164289
2025-04-22 16:45:06.316421400,9.99942138671875,0.3207967189759015,-0.0980564696043729,0.1683752383849583
2025-04-22 16:45:06.326394400,10.009394287109377,0.3775923729091882,-0.1208572072163224,0.1153922654744703
2025-04-22 16:45:06.336367000,10.0193671875,0.5009416892021894,-0.1224053134411573,0.0102499475286807
2025-04-22 16:45:06.346340000,10.029340087890626,0.5157061276137829,-0.0784539435118436,-0.0699078224926721
2025-04-22 16:45:06.356313300,10.039313232421875,0.4495855959743261,-0.0682902768939733,-0.1090270595578011
2025-04-22 16:45:06.366287000,10.049287109375,0.3401683589220047,-0.0337502939105033,-0.1174498281919397
2025-04-22 16:45:06.376260400,10.05926025390625,0.2127846725463867,-0.0240130360111594,-0.1459391054348554
2025-04-22 16:45:06.386233000,10.069233154296874,0.127228788074851,-0.0429798945486545,-0.1268240614651702
2025-04-22 16:45:06.396206000,10.0792060546875,0.1112789392709732,-0.061599254822731,-0.1002854707654565
2025-04-22 16:45:06.406179000,10.089178955078124,0.0952244610488414,-0.0808551594346761,-0.0531203355545643
2025-04-22 16:45:06.416152300,10.09915234375,0.0826373666763305,-0.095710198739171,-0.0288296973115764
2025-04-22 16:45:06.426125300,10.109125244140625,0.1191559562563896,-0.080989599469304,-0.0088323632151819
2025-04-22 16:45:06.436099300,10.119099365234376,0.1185480534911155,-0.0430769251823425,-0.0947175161737017
2025-04-22 16:45:06.446072000,10.129072021484374,0.0590039776325225,0.0092883450880646,-0.2244479300722479
2025-04-22 16:45:06.456045000,10.139045166015626,-0.1027513494223356,0.1159866785705089,-0.3573412467148155
2025-04-22 16:45:06.466018600,10.1490185546875,-0.3352905237525701,0.1970791538923978,-0.5277402642786503
2025-04-22 16:45:06.475991800,10.15899169921875,-0.5745797568649054,0.164077632522583,-0.6208706756576895
2025-04-22 16:45:06.485964800,10.16896484375,-0.7574228801339864,0.1185857551530003,-0.6250418969277292
2025-04-22 16:45:06.495937800,10.178937744140624,-1.0134458059042692,0.0455108743309974,-0.5707961466729641
2025-04-22 16:45:06.505911800,10.188911865234376,-1.1969225509017705,0.0584089343488216,-0.3900180296422913
2025-04-22 16:45:06.515884500,10.198884521484375,-1.2119149528503417,0.1102232927381992,-0.1840135552879422
2025-04-22 16:45:06.525857800,10.20885791015625,-0.9434855499714612,0.1217553250998258,-0.0028019696102943
2025-04-22 16:45:06.535830800,10.218830810546876,-0.4807862054020166,0.1160185350134968,0.0818283335820771
2025-04-22 16:45:06.545803800,10.2288037109375,0.2336673015773296,0.0656774640470743,0.2704438845064491
2025-04-22 16:45:06.555776800,10.23877685546875,0.6791121444851159,-0.0386617390885949,0.3189290254078805
2025-04-22 16:45:06.565749800,10.248749755859375,0.8062941708087921,-0.18234160348773,0.2652344427624717
2025-04-22 16:45:06.575723800,10.258723876953123,0.7044207732647657,-0.2480067925751209,0.3403772158997133
2025-04-22 16:45:06.585696800,10.26869677734375,0.5262210918873548,-0.2868801285877824,0.2693599069283344
2025-04-22 16:45:06.595669800,10.278669677734374,0.3889683379262685,-0.2828229621514678,0.2046216234275139
2025-04-22 16:45:06.605642800,10.288642822265626,0.373713485649228,-0.2329787347912788,0.1865836980368942
2025-04-22 16:45:06.615615700,10.29861572265625,0.3420207087904214,-0.1824804274365306,0.171443320718687
2025-04-22 16:45:06.625588700,10.308588623046877,0.4458645296245813,-0.1466772926494479,0.225835292777419
2025-04-22 16:45:06.635561700,10.318561767578124,0.5969932487249374,-0.1292553254663944,0.2559016192118637
2025-04-22 16:45:06.645535700,10.32853564453125,0.4891296708554029,-0.1331032330662012,0.2037910726211965
2025-04-22 16:45:06.655508700,10.3385087890625,0.4052840974330902,-0.1009928153172135,0.3017054851400665
2025-04-22 16:45:06.665481700,10.348481689453124,0.3140010674864053,-0.0759369922548532,0.3309054770687595
2025-04-22 16:45:06.675455000,10.358455078125,0.230324420890212,-0.0661263768583536,0.2077246674767695
2025-04-22 16:45:06.685427700,10.368427734375,0.192241066211462,-0.043394905090332,0.0409431645566597
2025-04-22 16:45:06.695400700,10.378400634765624,0.1601467228144407,0.0225263045847415,-0.0741828192310175
2025-04-22 16:45:06.705374700,10.388374755859376,0.0411959337413311,0.0855687439531087,-0.1685325295722112
2025-04-22 16:45:06.715347700,10.39834765625,-0.0778600692719221,0.1217652619719505,-0.2298078496702015
2025-04-22 16:45:06.725320700,10.40832080078125,-0.1752741493195295,0.1483063551560044,-0.2738389155059121
2025-04-22 16:45:06.735293700,10.418293701171876,-0.2472118428051471,0.1609656379818916,-0.254742786299251
2025-04-22 16:45:06.745266700,10.4282666015625,-0.2597913383930921,0.1434349497273564,-0.2218517030339687
2025-04-22 16:45:06.755239700,10.43823974609375,-0.2031967599898576,0.1348483231678605,-0.1581935794526711
2025-04-22 16:45:06.765212700,10.448212646484375,-0.0741138684809207,0.1014127942949533,-0.0685192039787536
2025-04-22 16:45:06.775186700,10.458186767578123,0.0231038122117519,0.0845236188143491,-0.0484113267465494
2025-04-22 16:45:06.785160000,10.468159912109376,0.0679898326426744,0.033081308607757,-0.0517554815087234
2025-04-22 16:45:06.795132700,10.478132568359374,0.0607306552946567,0.0189753341048955,-0.0730936311882454
2025-04-22 16:45:06.805105700,10.488105712890626,0.0217430452525615,0.0201256731837987,-0.0541506193172186
2025-04-22 16:45:06.815078700,10.49807861328125,-0.0120230307489633,0.0296808525145053,-0.0970635769763495
2025-04-22 16:45:06.825052000,10.508052001953123,-0.0644119741559028,0.0546989739149808,-0.1119142871655989
2025-04-22 16:45:06.835025000,10.51802490234375,-0.076812021523714,0.0463479096770286,-0.1214818145212251
2025-04-22 16:45:06.844999000,10.5279990234375,-0.0571574729830026,0.0442643814012408,-0.0824256053554825
2025-04-22 16:45:06.854971600,10.5379716796875,0.0098819270670413,0.0396264924675226,-0.0544592834075912
2025-04-22 16:45:06.864944600,10.547944580078124,0.045871524336934,0.0080438979849219,-0.0041158012883737
2025-04-22 16:45:06.874917600,10.557917724609377,0.0898684869736433,-0.0237324655041098,0.0509035636873915
2025-04-22 16:45:06.884891000,10.567890869140625,0.1277700553447008,-0.0528010313391685,0.0899173310840502
2025-04-22 16:45:06.894864000,10.57786376953125,0.1477262171804904,-0.1063943820998072,0.1009841296872589
2025-04-22 16:45:06.904836600,10.587836669921876,0.1923848585963249,-0.1417231773734092,0.1251167643569409
2025-04-22 16:45:06.914810600,10.597810546875,0.1912847883999347,-0.1579489205092191,0.1122017166716977
2025-04-22 16:45:06.924783600,10.60778369140625,0.1914712508827447,-0.1608633466511964,0.1169600262478459
2025-04-22 16:45:06.934756900,10.6177568359375,0.126495797625184,-0.1644473426178097,0.0795083570687565
2025-04-22 16:45:06.944729900,10.627729736328124,0.0392068057507276,-0.1285147362321615,0.0426859896359965
2025-04-22 16:45:06.954702800,10.637702880859376,-0.0177238727390766,-0.09490998827219,0.0451823364963755
2025-04-22 16:45:06.964675600,10.647675537109375,-0.0991056863963603,-0.0228352244034409,0.0379785060647875
2025-04-22 16:45:06.974648800,10.65764892578125,-0.1867442223608493,0.0316112360551953,0.0105584472222719
2025-04-22 16:45:06.984622600,10.66762255859375,-0.3047422407537699,0.0538800587475299,-0.0538248670947272
2025-04-22 16:45:06.994595800,10.677595947265624,-0.4068669827103615,0.0925473507940769,-0.0349623731140047
2025-04-22 16:45:07.004568800,10.68756884765625,-0.4011550348043441,0.102224695199728,-0.0640947066339664
2025-04-22 16:45:07.014541600,10.69754150390625,-0.3142868986904621,0.0495388146728277,-0.0815130479546729
2025-04-22 16:45:07.024514600,10.7075146484375,-0.1868804159611463,0.0272962954655289,-0.0662058992348145
2025-04-22 16:45:07.034487800,10.71748779296875,-0.0946989758700132,-0.0125201666161417,-0.0358920277800876
2025-04-22 16:45:07.044460800,10.727460693359374,-0.0447650243997573,-0.0519765632137656,0.0261268315610475
2025-04-22 16:45:07.054434800,10.737434814453126,-0.0233791220217943,-0.029718846437335,0.0054439902853686
2025-04-22 16:45:07.064407800,10.74740771484375,0.0038327100306749,0.0045285833403468,0.0277475920301396
2025-04-22 16:45:07.074380500,10.757380615234377,-0.0044523032337427,0.0202694655686616,0.0670057443756144
2025-04-22 16:45:07.084353800,10.767353759765625,-0.0380529595404863,0.0573436432048678,0.0197366373335942
2025-04-22 16:45:07.094326800,10.777326904296874,-0.0289122062295675,0.0888993496805429,-0.0250306338221766
2025-04-22 16:45:07.104299800,10.7872998046875,0.0058610009878873,0.0796951757445931,-0.0578798141744919
2025-04-22 16:45:07.114272800,10.797272705078123,0.0567114827811717,0.056601008144021,-0.0804836866406258
2025-04-22 16:45:07.124246800,10.807246826171877,0.0791354960352182,0.0487678303003311,-0.0606279347056988
2025-04-22 16:45:07.134219500,10.817219482421876,0.1117114854693412,0.0563859040886163,-0.0451719612328335
2025-04-22 16:45:07.144192800,10.82719287109375,0.154774966648221,0.0444444141432642,-0.0229410411317832
2025-04-22 16:45:07.154165800,10.837165771484376,0.198022572222352,0.0294461669757962,0.0239405826963018
2025-04-22 16:45:07.164138800,10.847138671875,0.2479156071603298,0.0014440613284707,0.032666288932925
2025-04-22 16:45:07.174111700,10.85711181640625,0.2472141808927059,-0.0191974524229764,0.0544960443545598
2025-04-22 16:45:07.184084700,10.867084716796874,0.2442506549119949,-0.0293397839918732,0.0902249996605794
2025-04-22 16:45:07.194057700,10.8770576171875,0.1662292575985193,-0.0114317868575453,0.1091266657410655
2025-04-22 16:45:07.204031700,10.88703173828125,0.0681301178961992,-0.0018237082958221,0.1149072767028119
2025-04-22 16:45:07.214004700,10.897004638671875,-0.0643488457918167,0.0283522342592477,0.0680530432051513
2025-04-22 16:45:07.223977700,10.906977783203123,-0.1661860029786825,0.049611003126204,0.0035777854215353
2025-04-22 16:45:07.233951000,10.916950927734376,-0.1731879906952381,0.0746723791465163,-0.0664657557473983
2025-04-22 16:45:07.243923700,10.926923828125,-0.1687117220640182,0.074350307585299,-0.1056836765471845
2025-04-22 16:45:07.253896700,10.936896728515626,-0.1181061549425125,0.0280666953161358,-0.1030421764619182
2025-04-22 16:45:07.263870700,10.94687060546875,-0.0372615169018507,0.0097404727697372,-0.0944189076864626
2025-04-22 16:45:07.273843700,10.95684375,0.0232142868489027,-0.0194148945659399,-0.0495101183013059
2025-04-22 16:45:07.283816700,10.966816650390625,0.0717529845684766,-0.0545487517893314,0.0030383082499727
2025-04-22 16:45:07.293789700,10.976789794921874,0.0993108535796403,-0.0692263887003064,0.0645499852539505
2025-04-22 16:45:07.303762700,10.9867626953125,0.0865782132565975,-0.0691650139018893,0.1199932747302111
2025-04-22 16:45:07.313735700,10.996735595703123,0.0214279879540205,-0.0819824098989367,0.1205477576746605
2025-04-22 16:45:07.323708700,11.006708740234377,-0.0704535924077034,-0.0787231158420443,0.0779069954198785
2025-04-22 16:45:07.333682000,11.016681884765624,-0.1708656852275133,-0.0605497457697987,0.032422808166407
2025-04-22 16:45:07.343656000,11.026656005859374,-0.2367044773161411,-0.0263587223544716,-0.008796186790103
2025-04-22 16:45:07.353628700,11.036628662109376,-0.2535977444499731,-0.0129229021981358,-0.0290260327344294
2025-04-22 16:45:07.363601700,11.0466015625,-0.2408370470762252,-0.0283858442679047,-0.0462006284271366
2025-04-22 16:45:07.373574700,11.05657470703125,-0.179758601257205,-0.0254524211645126,-0.0977743738605175
2025-04-22 16:45:07.383548000,11.0665478515625,-0.0703472094237804,-0.015002046559751,-0.1486997749203815
2025-04-22 16:45:07.393521000,11.07652099609375,0.033555063599348,-0.0299292743176221,-0.2105160334946587
2025-04-22 16:45:07.403495000,11.086494873046876,0.1231955870360135,-0.0396694548264145,-0.2606373242305591
2025-04-22 16:45:07.413467600,11.096467529296875,0.1795996113032102,-0.0419286319300532,-0.2237369322586804
2025-04-22 16:45:07.423440600,11.106440673828123,0.1652022526383399,-0.0460962730035185,-0.1643915755762718
2025-04-22 16:45:07.433413600,11.11641357421875,0.0889291602969169,-0.0231195943027734,-0.0825371668380219
2025-04-22 16:45:07.443387000,11.126386962890624,-0.0055956280499696,0.0290121594727039,-0.0601340593746863
2025-04-22 16:45:07.453359900,11.13635986328125,-0.1359381642311811,0.0683233023807406,-0.0254112032381352
2025-04-22 16:45:07.463332400,11.146332275390623,-0.2542009710401296,0.0763473266214132,-0.0089611132945399
2025-04-22 16:45:07.473305300,11.156305419921877,-0.3130389444559812,0.1181222292944788,-0.0002176248060539
2025-04-22 16:45:07.483279400,11.166279296875,-0.3069026336580515,0.1155360121935605,0.0004874181907624
2025-04-22 16:45:07.493252400,11.17625244140625,-0.2387596562802791,0.0994151907369494,-0.0094335257124155
2025-04-22 16:45:07.503225300,11.186225341796876,-0.0616436784863471,0.0494032055944204,-0.0394557207441888
2025-04-22 16:45:07.513198300,11.1961982421875,0.1609820045948028,0.0047232291296124,-0.0492428730667103
2025-04-22 16:45:07.523171300,11.20617138671875,0.3412444637209176,-0.0416913160428404,-0.0718533670698758
2025-04-22 16:45:07.533144600,11.21614453125,0.4478010506451129,-0.0398082787752151,-0.0570514005263336
2025-04-22 16:45:07.543117300,11.226117431640626,0.4217115006208419,-0.0503767268016934,-0.0464973920171614
2025-04-22 16:45:07.553091300,11.23609130859375,0.3220154471158981,-0.0690069007307291,-0.0038920664019417
2025-04-22 16:45:07.563064300,11.246064208984375,0.1994821233808994,-0.1145034542754292,0.0746509162333793
2025-04-22 16:45:07.573037300,11.256037353515625,0.0724707774490118,-0.1128740995079278,0.10103231621054
2025-04-22 16:45:07.583010600,11.266010498046874,-0.0834124427020549,-0.0050499768659472,0.0224412109840195
2025-04-22 16:45:07.592983600,11.275983642578124,-0.1443096867352724,-0.0842784118816256,0.0301437116527464
2025-04-22 16:45:07.602956300,11.285956298828124,-0.1986369047284126,-0.0770928842917084,-0.0068728357783984
2025-04-22 16:45:07.612929300,11.29592919921875,-0.2026695212453603,-0.0350686830326914,-0.0399305808474775
2025-04-22 16:45:07.622903300,11.3059033203125,-0.1782002658993005,-0.0622173867210745,-0.0727718244885094
2025-04-22 16:45:07.632876300,11.315876220703124,-0.1202262158364057,-0.0726961106374859,-0.1209399535963311
2025-04-22 16:45:07.642849500,11.325849609375,-0.0588105008870363,-0.0692936087176203,-0.1324346587554085
2025-04-22 16:45:07.652822300,11.335822265625,-0.0323749139040708,-0.0635728929832577,-0.1451031569342128
2025-04-22 16:45:07.662795300,11.345795166015623,-0.0055541269958019,-0.066129299467802,-0.1411784121053759
2025-04-22 16:45:07.672768300,11.355768310546877,0.0258458043962717,-0.0795344322249293,-0.1279340959331486
