time,seconds_elapsed,z,y,x
1745767279408793000,0.02579296875,-0.6230214239507913,0.2417600071400404,-0.13317863638997077
1745767279418767000,0.03576708984375,-0.47966918407082554,0.26800036381185055,-0.09946363298855722
1745767279428740000,0.045739990234375,-0.2020791541367769,0.2605763512909412,-0.24083434366248546
1745767279438713000,0.055713134765625,0.06799743142724037,0.21992928360402583,-0.06844006062820554
1745767279448687000,0.06568701171875,0.3610030571579933,0.15157354025840758,0.1396994895260781
1745767279458660000,0.07566015625,0.5647971985191107,0.17711831588149068,0.18913864321671425
1745767279468633000,0.085633056640625,0.6442436601996422,0.32991818306446075,0.19981084387861192
1745767279478607000,0.095607177734375,0.681273706433177,0.4038420819312334,0.23886092469766734
1745767279488580400,0.105580322265625,0.7355664376348257,0.4271259268850088,0.33827385041229424
1745767279498553000,0.115552978515625,0.7288806762605905,0.45182899098694324,0.38596608737036586
1745767279508527000,0.125527099609375,0.7875052991867065,0.5092442381232977,0.20651209508292376
1745767279518500000,0.1355,0.9445850356459617,0.581243890929222,0.011740925871953368
1745767279528474000,0.14547412109375,1.1221119323283433,0.6589069763243198,-0.028500995080173015
1745767279538447000,0.155447021484375,1.3615192388623951,0.7333154438376426,-0.06194587630331516
1745767279548420000,0.165420166015625,1.7241577882677315,0.7783528554379939,-0.03116634183190763
1745767279558394000,0.17539404296875,2.2555302715688943,0.7136135490238666,0.1603071740731597
1745767279568367400,0.185367431640625,2.824583373966813,0.692409432953596,0.3450636932155117
1745767279578340000,0.195340087890625,3.39322906460762,0.6408148547947407,0.16753968260996044
1745767279588314000,0.205314208984375,3.883970262312889,0.7544044090956449,-0.038288558394648134
1745767279598287000,0.215287109375,4.299088356018066,0.9902648368030786,-0.050426411162316796
1745767279608260000,0.225260009765625,4.339374773699045,1.1750596786618233,-0.17843425731826573
1745767279618234000,0.235234130859375,3.6335172456294296,1.2905734790235757,-0.6880142667345702
1745767279628207000,0.24520703125,2.7710031749486923,0.6102893681496382,-0.9801563344385474
1745767279638181000,0.25518115234375,2.6387282094001767,0.05138473480045795,-0.5425255262825638
1745767279648154400,0.265154296875,2.6054829424023627,0.4072942682117224,0.2453630366006866
1745767279658127000,0.275127197265625,2.2640227901041508,0.6876373962461948,0.23519774428131057
1745767279668101000,0.28510107421875,1.7755407695025205,0.8839671930760145,-0.3884589270994067
1745767279678074000,0.29507421875,1.3273872521579264,1.142360939630866,-0.903649506406486
1745767279688047000,0.305047119140625,0.8019985194414854,1.1351029313266277,-1.173535757030174
1745767279698021000,0.315021240234375,0.12272095526158809,0.842719821408391,-0.9000823154442011
1745767279707994000,0.324994140625,-0.42615152889490127,0.3712035486549139,-0.3434117978226393
1745767279717967000,0.334967041015625,-0.6677525460809469,-0.3784323308646679,0.5119349750446155
1745767279727941000,0.344941162109375,-0.7145984684079885,-0.35846506311297416,1.2100498896308243
1745767279737914000,0.3549140625,-1.0517091933250426,-0.6161883630603552,2.236422689386457
1745767279747888000,0.36488818359375,-1.1064759717792272,-0.4399526752322912,1.884757369416207
1745767279757861000,0.374861083984375,-1.4640437937915325,-0.44614130073934793,0.36159952521380034
1745767279767834000,0.384834228515625,-1.9002333170980215,-0.3513385722339153,-0.7066166028086096
1745767279777808100,0.39480810546875,-1.9507891998589038,0.5503673988893628,-0.5713896921193227
1745767279787781000,0.404781005859375,-2.0129262148201463,0.734665104880929,-0.12798816420794465
1745767279797754000,0.414754150390625,-2.0612334418714044,-1.2589981910645962,-0.9033295537371188
1745767279807728000,0.42472802734375,-1.7632523658156394,-2.4061165543556213,-1.1708572585359216
1745767279817701000,0.434701171875,-1.2650579294949769,-1.7312912934094666,-0.08616472795172594
1745767279827674000,0.444674072265625,-1.9393828397035597,-1.6160586480766534,0.17366329832309857
1745767279837648100,0.454648193359375,-3.546241113236546,-1.7558403359934687,1.5299633960314094
1745767279847621000,0.46462109375,-2.5670196484953163,-1.3783824031189083,1.7106161696493625
1745767279857595100,0.47459521484375,-0.274724703630805,2.2068401826798913,-1.213953911332041
1745767279867568000,0.484568115234375,-0.2723497911930084,5.812177043485641,-0.167408530510962
1745767279877541000,0.494541015625,-0.6729711575120687,1.7844988597229121,-0.7241830199636519
1745767279887515100,0.50451513671875,-0.7364005503714084,-1.9005799385786055,-1.335461837542057
1745767279897488100,0.514488037109375,-1.5191542711168526,-1.2767746707737444,-0.37284773566536605
1745767279907461000,0.524461181640625,-1.7150719800144434,0.23252046962976455,0.8518074562925845
1745767279917435100,0.53443505859375,-1.7831705337285995,0.8741478098511696,1.859045274402201
1745767279927408000,0.544408203125,-2.0049884075582027,0.6343684551343322,2.483645784237981
1745767279937381000,0.554381103515625,-1.612937301185727,-0.28634003036171196,2.6215277760133144
1745767279947355100,0.564355224609375,-0.9830068284988402,-0.6384139311328529,1.5763891932502387
1745767279957328100,0.574328125,-0.625161358588934,-0.08235533486455679,0.1591974592655897
1745767279967302100,0.58430224609375,-0.7854623951822519,0.3903188757523894,-0.8113244931261986
1745767279977275100,0.594275146484375,-0.9324538683474063,0.7629761303469538,-0.5249713110219687
1745767279987248000,0.604248046875,-1.3080541906565426,0.6922998350992798,-0.24129553143344817
1745767279997222100,0.61422216796875,-1.362857209467888,0.41698301079422234,-0.04190357055403292
1745767280007195100,0.624195068359375,-1.1993868951886892,0.16943565242439507,0.29401231855526566
1745767280017168400,0.63416845703125,-0.7656079401552677,-0.0674509034603834,0.3722825760632753
1745767280027142400,0.644142333984375,-0.20885843901336193,-0.07975421245545149,-0.08374415887445211
1745767280037115400,0.654115478515625,0.18062486269772052,0.008663783448934554,-0.6218212543807924
1745767280047088000,0.664088134765625,0.20666648192703724,-0.055200493696331975,-1.1137925784029066
1745767280057062100,0.674062255859375,-1.5850135214716194,0.15198504366874693,-2.3369524172365663
1745767280067035100,0.68403515625,-2.1383172660738228,1.3459218567579985,0.07848879562951624
1745767280077008100,0.694008056640625,-2.131556101375818,1.1943433480635284,1.5830913212373852
1745767280086982100,0.703982177734375,-1.0755080020636318,0.8314590072035789,1.4247455103650688
1745767280096955400,0.713955322265625,-0.03890753054320812,1.3083636949971318,1.895422409684956
1745767280106929400,0.723929443359375,0.05505436322391033,1.2173942610442638,1.9554123296149073
1745767280116902400,0.73390234375,-0.4108814790487289,0.19473639015853403,0.9946633640229702
1745767280126875100,0.743875244140625,-1.4336813887536526,-1.5153215610861777,-1.9380571440577505
1745767280136849200,0.75384912109375,-1.2082657826930283,-2.56434662989378,-4.8180350729882715
1745767280146822100,0.763822265625,-0.5530009622633457,-2.5133272212743756,-4.86492483445704
1745767280156795100,0.773795166015625,0.21477438505887983,-1.1622539731025696,-2.5100749414801595
1745767280166769200,0.78376904296875,0.7676403227657079,0.2865671171158552,-0.2388694002650678
1745767280176742400,0.793742431640625,1.1743845558792352,0.772367935809493,0.7939329210814088
1745767280186715400,0.80371533203125,1.2503332385718822,0.6018669922411441,1.029718310791254
1745767280196689400,0.813689453125,0.6671423052281141,0.045049102038145064,0.765069814690575
1745767280206662100,0.823662109375,0.027088497933745383,-0.6089297702342271,-0.01436447930857539
1745767280216636200,0.83363623046875,-0.3857774329304695,-0.7801029139757156,-0.7424521054953336
1745767280226609200,0.843609130859375,-0.6460580161452293,-0.677968819668889,-0.9188216488361358
1745767280236582400,0.85358251953125,-0.4569833050101995,-0.5887520746022462,-0.7190216916777193
1745767280246556200,0.86355615234375,0.03590717968344688,-0.37873394415974615,-0.3944915583271533
1745767280256529400,0.873529296875,0.5057955589741469,-0.1575993764191866,-0.056285074062645435
1745767280266502400,0.88350244140625,1.0734218434393406,-0.11708324163556098,-0.06864340118058025
1745767280276476400,0.893476318359375,1.3531190747857094,-0.2863046667873859,-0.41125301577486095
1745767280286449200,0.90344921875,1.3043816396236418,-0.3931359789997339,-0.6394399131797254
1745767280296422100,0.913422119140625,0.9714882401406765,-0.36762744373381134,-0.5283574463289231
1745767280306396200,0.923396240234375,0.43893385357856746,-0.34866555363237856,-0.1350312054540962
1745767280316369400,0.933369384765625,0.03793488611876964,-0.24521102437674996,0.030563407502695917
1745767280326342400,0.94334228515625,-0.14098843335807323,-0.18454875814318655,0.005983750584721565
1745767280336316400,0.95331640625,-0.07976911776363849,-0.20157178913652896,-0.027007103260606527
1745767280346289200,0.9632890625,0.23250702562630174,-0.10405775584578514,-0.09097776338979602
1745767280356262100,0.97326220703125,0.6119558400571345,0.015373510220646857,-0.2396775017775595
1745767280366236200,0.983236083984375,0.8165361633598804,0.09358195453882216,-0.4014164987521246
1745767280376209200,0.993209228515625,0.6236661515951156,0.04268471099436283,-0.40017395134512335
1745767280386183200,1.00318310546875,0.26617431742846964,-0.12845219238996505,-0.16005319931209086
1745767280396156400,1.013156494140625,-0.0825701466590166,-0.12960136242508888,0.12319065513256937
1745767280406129400,1.02312939453125,-0.19160919804871082,0.09200432995855808,0.22162147447466848
1745767280416103400,1.033103515625,-0.24414134931862352,-0.22590923479646444,-0.13499153103083372
1745767280426076200,1.043076171875,-0.15124971513152122,-0.2949064909160137,-0.3665362509636208
1745767280436049200,1.053049072265625,-0.05684066211879253,-0.1634519018396735,-0.2266827033869922
1745767280446023200,1.063023193359375,-0.0851671774148941,-0.15430004261285066,-0.051331579841114576
1745767280455996200,1.07299609375,-0.3815893335908651,-0.22673165709525345,0.06819636979913339
1745767280465969400,1.082969482421875,-0.8150041314870119,-0.30213878025710583,0.16787899756692348
1745767280475943400,1.092943359375,-1.2906500513911245,-0.29453765760362144,0.38374249303676183
1745767280485916400,1.10291650390625,-1.4540052148580551,-0.09247983851581812,0.37271760647967456
1745767280495889200,1.11288916015625,-1.254039107352495,0.24301760598570107,0.11736472545806317
1745767280505863200,1.12286328125,-0.7553028192400932,0.8145821066826582,-0.35252504207212476
1745767280515836200,1.132836181640625,-0.8314461477220058,1.5783715992391107,-1.2606968116760253
1745767280525810200,1.14281005859375,-1.0999345873117445,1.6763982582271097,-1.3180996377222238
1745767280535783200,1.152783203125,-0.9926666372478008,1.1277931928351521,-0.9356652316093444
1745767280545756400,1.16275634765625,-0.773793000176549,0.41488253138363357,-0.5069194849701598
1745767280555730400,1.17273046875,-0.6426946771919727,-0.09746785606145858,-0.006237807544181123
1745767280565703200,1.182703125,-0.544548191216588,-0.3167971279457211,0.3618872561139986
1745767280575676200,1.19267626953125,-0.4707949727416038,-0.3755845402181148,0.45811694868262853
1745767280585650200,1.202650146484375,-0.32717268374860287,-0.22093466125428676,0.3415289797507226
1745767280595623200,1.212623046875,-0.012173252874612808,0.041432080584764476,0.1668705877093598
1745767280605596400,1.222596435546875,0.4311772481024265,0.2557598909199238,-0.050623093645041806
1745767280615570400,1.2325703125,0.697521661400795,0.340108153167367,-0.0972810921845492
1745767280625543400,1.24254345703125,0.7806114480197429,0.14865443794131278,-0.1174715103007853
1745767280635516200,1.25251611328125,0.904201587331295,-0.2263748064815998,-0.014554471755609847
1745767280645490200,1.262490234375,1.0021727167397736,-0.33381402145922184,0.21871420872583985
1745767280655463200,1.272463134765625,1.0043909773111344,-0.31931554050743577,0.3617038989037275
1745767280665436200,1.282436279296875,1.017356841868162,-0.3036339872509241,0.3233764332707971
1745767280675410200,1.29241015625,1.0734990003287792,-0.28630174417793747,0.180542883502692
1745767280685383400,1.302383544921875,1.0418915636658668,-0.2395984451919794,0.09767897806148976
1745767280695356400,1.3123564453125,0.7564169179618359,-0.2143354091197252,0.14912306923321447
1745767280705330400,1.322330322265625,0.4775117137759924,-0.13420447230637073,0.2183629110701382
1745767280715303200,1.33230322265625,0.2382259877949953,-0.09424538688361644,0.3023685704249888
1745767280725277200,1.342277099609375,-0.005104045140743255,-0.13172434592843055,0.38261411006134
1745767280735250200,1.352250244140625,-0.23958383214473722,-0.21855916429460048,0.3604150281369686
1745767280745223200,1.36222314453125,-0.40779111181795596,-0.36253918068408963,0.19035514286700636
1745767280755197200,1.372197265625,-0.5289397031962871,-0.3367565046519041,0.11471584578393958
1745767280765170400,1.38217041015625,-0.5878355442792177,-0.21997078465819359,0.142524182424834
1745767280775143200,1.39214306640625,-0.4704512738704681,-0.18162965582609175,0.21124175395332276
1745767280785117200,1.4021171875,-0.26134149044454097,-0.19807693275809288,0.2532642747119069
1745767280795090200,1.412090087890625,-0.10553542718291282,-0.22316695035099982,0.369752838389948
1745767280805063200,1.422063232421875,-0.0031897359520196913,-0.1973608934432268,0.4782835018660873
1745767280815037200,1.432037109375,-0.028175124126672745,-0.17545652014911173,0.47312352528702467
1745767280825010200,1.44201025390625,-0.11029401988685131,-0.11441022303402423,0.2516009080769494
1745767280834983400,1.4519833984375,-0.28543080656230446,-0.12337152812480925,0.09439671412096358
1745767280844957400,1.46195751953125,-0.5080675955593585,-0.1296183135598898,0.02706183825568296
1745767280854930200,1.47193017578125,-0.6355366221308708,0.086230422732234,0.007036310111265629
1745767280864903200,1.481903076171875,-0.7374100196748972,-0.21449089194238186,0.12053724541380069
1745767280874877200,1.491877197265625,-0.43904725082516666,-0.23400515522956847,0.15997986008124426
1745767280884850200,1.50185009765625,-0.07799567835032939,-0.1703817011028528,0.03719584952080622
1745767280894823400,1.511823486328125,0.29709552539288997,0.16399813754558562,-0.11941619636146351
1745767280904797400,1.52179736328125,0.6781202108383179,0.4734469485551119,0.02761949953790754
1745767280914770400,1.5317705078125,0.5399854133456945,0.6963070249140262,0.24250622239746153
1745767280924743200,1.5417431640625,0.12989303884804249,0.6709001964569091,0.33293595998305825
1745767280934717200,1.55171728515625,-0.24901217022538183,0.545408022916317,0.19633856465816496
1745767280944690200,1.561690185546875,-0.4253536565154791,0.35338322980403897,0.17704912310279905
1745767280954663200,1.5716630859375,-0.41245735006332396,0.208537536495924,0.17831344395019114
1745767280964637200,1.58163720703125,-0.14964344897866247,0.1365454824745655,0.2010907276213169
1745767280974610400,1.5916103515625,0.35486674636006355,0.21059037737250327,0.1805147168541327
1745767280984584400,1.60158447265625,0.859820009291172,0.20890929241776465,0.13684541526921093
1745767280994556700,1.611556640625,1.2778893540173768,0.0991886885046959,0.03168181707337499
1745767281004529700,1.62152978515625,1.4072399565517901,0.0861211171388626,-0.21316694986224174
1745767281014503700,1.631503662109375,1.2053951956927775,0.16760872925817966,-0.5051837837513536
1745767281024476700,1.6414765625,0.796335086852312,0.2054167741268873,-0.752560680925101
1745767281034450000,1.651449951171875,0.4180266746282577,0.20267185933291912,-0.8891446687791495
1745767281044424000,1.661423828125,0.1981932526141405,0.1410457165032625,-0.6567123888894916
1745767281054397000,1.67139697265625,0.18246376856267452,0.013886486533284186,-0.37430472954064603
1745767281064369700,1.68136962890625,0.25863690766096115,-0.07757540711164473,-0.23469540251605212
1745767281074343700,1.69134375,0.27233926979899403,-0.10280337187051772,-0.15398988068513572
1745767281084316700,1.701316650390625,0.07983633778095245,-0.025780922466516493,-0.15832297798600048
1745767281094289700,1.71128955078125,-0.26220541379749773,0.09656301617622375,-0.1474908740546554
1745767281104263700,1.721263671875,-0.508577883169055,0.24045827689170837,-0.10506050314754246
1745767281114237000,1.73123681640625,-0.6178028125196695,0.19912498050630092,-0.09310001624077557
1745767281124210000,1.7412099609375,-0.45838323493599886,0.14672025500833988,-0.049033714694902295
1745767281134184000,1.751183837890625,-0.2152940250188112,0.04927110364735126,0.038811084431409834
1745767281144156700,1.76115673828125,0.07707973254919051,-0.05659691649079322,0.08001041570622473
1745767281154129700,1.771129638671875,0.3462754436254501,-0.10630173538029193,0.03706248719841242
1745767281164103700,1.781103759765625,0.47245326134264465,-0.19312252522110937,-0.04122000873666257
1745767281174076700,1.79107666015625,0.43279578921496864,-0.2660416309595108,-0.024560258097760378
1745767281184050000,1.8010498046875,0.20811609621345994,-0.23398995766043662,0.112916075486131
1745767281194024000,1.81102392578125,-0.12582418197393416,-0.11632277865707874,0.3208770907357335
1745767281203996700,1.82099658203125,-0.4076595943927765,-0.03728665134310722,0.414666769741103
1745767281213969700,1.8309697265625,-0.6003039807081222,-0.01633797133862972,0.4680439935330301
1745767281223943700,1.840943603515625,-0.6506827533364296,0.016443769800662995,0.40162199472896754
1745767281233916700,1.850916748046875,-0.6040881754219531,-0.03523497951030731,0.2986493307061493
1745767281243890000,1.860889892578125,-0.3953378729581833,-0.07363280696570873,0.16465382497534156
1745767281253864000,1.870864013671875,-0.09123042297661305,-0.11044482653439044,-0.03870777018740773
1745767281263837000,1.8808369140625,0.23095628905296325,-0.10786825404465197,-0.253123587599583
1745767281273811000,1.89081103515625,0.5242243651121854,-0.13135785070359707,-0.3980256507374346
1745767281283783700,1.90078369140625,0.620461218073964,-0.15999766973257065,-0.5430449470467865
1745767281293756700,1.910756591796875,0.4774111760109663,-0.1598947938799858,-0.6229099264003336
1745767281303730700,1.920730712890625,0.23581541952192783,-0.14604220961630343,-0.6680300478480756
1745767281313703700,1.93070361328125,-0.04784837736785411,-0.16710253330171107,-0.6369520418867468
1745767281323677000,1.940677001953125,-0.2743219680488109,-0.18111118490993974,-0.5527422747945413
1745767281333651000,1.95065087890625,-0.23835282904505728,-0.12747311822474003,-0.4876430490268394
1745767281343624000,1.9606240234375,-0.23482173230946063,-0.09957388842999934,-0.5235718194875866
1745767281353596700,1.9705966796875,-0.2836024220913648,-0.021187749457359312,-0.6574499093838035
1745767281363570700,1.98057080078125,-0.19514672452509402,0.13866905049979686,-0.6884377528436482
1745767281373543700,1.990543701171875,-0.16442366948127746,0.21683540924191474,-0.7431111539259553
1745767281383516700,2.0005166015625,-0.2017483147472143,0.24054595517516134,-0.7379143159352243
1745767281393490700,2.01049072265625,-0.2851040588259697,0.198384391272068,-0.6073886052068322
1745767281403464000,2.0204638671875,-0.44320553954839703,0.13836919077038765,-0.42736200066320595
1745767281413436700,2.030436767578125,-0.6291735168397427,0.08766191684007645,-0.25137186682773754
1745767281423410700,2.04041064453125,-0.7532289355754852,0.09094400725066662,-0.12047536829188465
1745767281433383700,2.0503837890625,-0.7275193247795104,0.09933131184577941,-0.04819452392440289
1745767281443356700,2.060356689453125,-0.5900444525003433,0.034657471883296966,-0.1127641363274306
1745767281453330700,2.07033056640625,-0.42894905065894123,0.013760229805111884,-0.21564784342516213
1745767281463303700,2.0803037109375,-0.29044717341959475,0.055471711853146546,-0.2954541148614138
1745767281473277000,2.09027685546875,-0.24818390270769594,0.12501345011293888,-0.28905513453930615
1745767281483251000,2.1002509765625,-0.32710780181884763,0.09220482096672057,-0.26186746881371364
1745767281493223700,2.1102236328125,-0.30749300076663494,-0.03258475726246834,-0.24037465372886507
1745767281503196700,2.12019677734375,-0.12426935374736785,-0.19633973370194435,-0.2082008153548464
1745767281513170700,2.130170654296875,0.10149053570628165,-0.3047697132825851,-0.2365254674874246
1745767281523143700,2.140143798828125,0.26173019750118254,-0.3681862466603517,-0.2395930748971179
1745767281533117000,2.150116943359375,0.25857611738443376,-0.31278292386829853,-0.13878420131206512
1745767281543091000,2.160091064453125,0.21925240725576875,-0.23183657901883123,-0.0947630814816337
1745767281553064000,2.17006396484375,0.17408698536157607,-0.11002397077381611,-0.07578595727845094
1745767281563036700,2.18003662109375,0.04150397677719593,0.005198153164982795,-0.09586946268780157
1745767281573010700,2.1900107421875,-0.14236848953962325,0.13059563415944575,-0.11664928893139585
1745767281582983700,2.199983642578125,-0.2546171506255865,0.16435995659530162,-0.10259904493745416
1745767281592956700,2.209956787109375,-0.1875175448209047,0.13522154039442538,-0.03088965291553177
1745767281602930700,2.2199306640625,-0.06430676021575928,0.10203823271691799,0.06976388397733681
1745767281612904000,2.229904052734375,0.10180442396104335,0.06251169349253177,0.1671604923003353
1745767281622877000,2.239876953125,0.3836380828142166,0.012066285368800162,0.25757786359470336
1745767281632850700,2.2498505859375,0.5985071604192257,0.04595160383582115,0.2805932668706402
1745767281642823700,2.25982373046875,0.662856590732932,0.11143033044040203,0.26449040119582784
1745767281652796700,2.269796630859375,0.5628875655055046,0.16365853032767771,0.22998846693411468
1745767281662770700,2.279770751953125,0.3204115190505981,0.22147592852413653,0.22981690975949168
1745767281672743700,2.28974365234375,0.03461304821968078,0.30170155788362024,0.19927765031736344
1745767281682717000,2.299717041015625,-0.1333686060041189,0.34831250241100786,0.2042660879881121
1745767281692691000,2.30969091796875,-0.16647124966084956,0.2902940286844969,0.22056652206163851
1745767281702663700,2.31966357421875,-0.14054887289702891,0.22937106568813323,0.2300973341360688
1745767281712636700,2.32963671875,-0.04411912771165371,0.28744623803794384,0.17501644823141396
1745767281722610700,2.339610595703125,0.05189326884448528,0.3006190233439207,0.12722951872721314
1745767281732583700,2.349583740234375,0.2034913590222597,0.251413970670104,0.1282836674226448
1745767281742557700,2.3595576171875,0.39404549506008624,0.1630664096534252,0.07422777718417346
1745767281752530700,2.36953076171875,0.475153167951107,0.07740414219796657,-0.012666607615817338
1745767281762504000,2.37950390625,0.38063831647634505,0.006239771172404289,-0.041234274724032724
1745767281772478000,2.38947802734375,0.08387479951679706,0.010330839878320694,-0.08998027678504586
1745767281782450700,2.39945068359375,-0.2794038013577461,0.04304360743463039,-0.11962185673508792
1745767281792423700,2.409423583984375,-0.5243570515811443,0.09391220940649508,-0.10788803645735606
1745767281802397700,2.419397705078125,-0.5793494554847478,0.13087152849137781,-0.06084301136163994
1745767281812370700,2.42937060546875,-0.46492988010048864,0.11038462077975272,-0.048675494108069685
1745767281822344000,2.439343994140625,-0.20424714582562445,0.034654549273848534,-0.04558993091657757
1745767281832318000,2.44931787109375,0.1316349140793085,-0.014538228440284727,-0.07748321704985574
1745767281842291000,2.459291015625,0.3960550813168287,-0.057683542683720584,-0.13955076523777096
1745767281852263700,2.469263671875,0.45164019041657444,-0.12575988456606865,-0.1733193802562542
1745767281862237700,2.47923779296875,0.35129765570163723,-0.17100655500292777,-0.09196819919925182
1745767281872210700,2.489210693359375,0.14185527932047842,-0.17165712786614895,-0.0072051638721488415
1745767281882183700,2.49918359375,-0.11464870796501636,-0.17401508916914463,0.10771132818358019
1745767281892157700,2.50915771484375,-0.3086526921957731,-0.18052841658592222,0.2327723072326742
1745767281902131000,2.519130859375,-0.35843759058415886,-0.16874796242117882,0.24941925318893043
1745767281912103700,2.529103759765625,-0.32265316049754617,-0.11470423754453658,0.22684945652233435
1745767281922077700,2.53907763671875,-0.22933482533097266,-0.02100654767155647,0.14978830080945044
1745767281932050700,2.54905078125,-0.1239841070652008,0.06400660822540521,0.010309650959819555
1745767281942023700,2.559023681640625,0.012778817552328108,0.08218611577749252,-0.06837444804608822
1745767281951997700,2.568997802734375,0.11757190193533897,0.06547668077796698,-0.08167427553152665
1745767281961970700,2.578970703125,0.1946855367541313,-0.0654404404208064,-0.07923762296913191
1745767281971944000,2.58894384765625,0.20222645365297792,-0.12593816374242306,-0.07442196631571278
1745767281981918000,2.59891796875,0.16055530361533163,-0.15713117438554763,-0.030034068132657556
1745767281991891500,2.608891357421875,0.04746960718333721,-0.15406915646642447,0.017290212295856325
1745767282001864400,2.618864501953125,-0.07737783871293068,-0.14620821383297442,0.13046055480400098
1745767282011838500,2.62883837890625,-0.13996084387600422,-0.1188797696635127,0.23585737723382189
1745767282021811500,2.6388115234375,-0.12514204492866993,-0.10610533602535724,0.3181997978178784
1745767282031784200,2.6487841796875,-0.04233575142621994,-0.0825026343807578,0.28579881789078937
1745767282041758200,2.65875830078125,0.11671791545450687,-0.03234510328769684,0.09335959875872359
1745767282051731500,2.6687314453125,0.23816578204035757,0.02505991471558809,-0.14795165996681897
1745767282061704400,2.678704345703125,0.3658212710946798,0.046942076177895066,-0.2705466872937977
1745767282071678500,2.688678466796875,0.33735096341371534,0.021824586056172848,-0.2573859942844137
1745767282081651500,2.6986513671875,0.2133645182609558,-0.022644962528347967,-0.1640662708783522
1745767282091624400,2.70862451171875,0.0809498519808054,-0.06375146442055701,-0.046384296164661644
1745767282101598500,2.718598388671875,-0.03215221106410027,-0.1281061554312706,0.053320561701245606
1745767282111571200,2.7285712890625,-0.04032616516947746,-0.1518491423293948,0.1504493037351407
1745767282121544400,2.73854443359375,0.004663900157809257,-0.11356909603476524,0.16257347503732889
1745767282131518500,2.7485185546875,0.021050386813282966,-0.06586275748610496,0.08660062601780519
1745767282141491500,2.758491455078125,0.060756958779692644,-0.015935528017580507,0.004299432493280619
1745767282151464400,2.76846435546875,0.09238602275252342,0.09130348821282386,-0.09226729174368083
1745767282161438500,2.7784384765625,0.07960428259074688,0.1648290354117751,-0.18969145479388533
1745767282171411200,2.7884111328125,0.10961305188536644,0.19928046332895755,-0.2570980259221978
1745767282181384400,2.798384521484375,0.046664136019349094,0.13056728484779595,-0.27539080285672096
1745767282191358200,2.808358154296875,-0.10083645571172237,0.10280074152201414,-0.2761857526266947
1745767282201331500,2.81833154296875,-0.24633564449250697,0.07014350354522467,-0.23887533681550993
1745767282211304400,2.828304443359375,-0.3338800724327564,0.004227262306213378,-0.21053439113525674
1745767282221278500,2.838278564453125,-0.3997030824303627,-0.0464373415261507,-0.2111687435160391
1745767282231251500,2.84825146484375,-0.42227381067872044,-0.00042903906702995297,-0.22174373088115826
1745767282241224200,2.85822412109375,-0.3752519472628832,0.06766425395011902,-0.27320487365238366
1745767282251198200,2.8681982421875,-0.3638414954543113,0.10076777438968419,-0.32926571050509806
1745767282261171500,2.87817138671875,-0.3381616952747106,0.13235241469889877,-0.33586507223751394
1745767282271144400,2.88814453125,-0.2726952436298132,0.1255024026736617,-0.27799236365724356
1745767282281118500,2.898118408203125,-0.2568248898029327,0.07937105835676193,-0.1651199081171304
1745767282291091500,2.908091552734375,-0.22616730121076106,0.056338265554606914,-0.04501874343249947
1745767282301064400,2.918064453125,-0.18930209015011787,0.024203297886252403,0.07890333124715834
1745767282311038500,2.92803857421875,-0.08020926274657249,-0.027688801914453505,0.17247666408810763
1745767282321011200,2.93801123046875,0.057795186364650725,-0.08506313251852989,0.2311136898380704
1745767282330984400,2.947984375,0.1830401071459055,-0.10613865377306937,0.2533293210384436
1745767282340958500,2.95795849609375,0.2562380298256874,-0.10052549006640911,0.1848939913842827
1745767282350931500,2.967931396484375,0.2663929286152124,-0.07403788063526154,0.09673511220696382
1745767282360904400,2.977904541015625,0.25800503949820996,0.00855506237745285,0.03764250644291751
1745767282370878500,2.98787841796875,0.20985621787905692,0.06801029090881347,0.01591747177108191
1745767282380851500,2.9978515625,0.15343699604272842,0.11903729831278323,-0.0059078358042985194
1745767282390824200,3.00782421875,0.07951426621973515,0.11669395005702972,0.035075971290003505
1745767282400798200,3.017798095703125,0.057982817891240115,0.04752396771907806,0.09187100416878238
1745767282410771500,3.027771484375,0.10365268217623233,0.0022831425011157988,0.17099314753208308
1745767282420744400,3.037744384765625,0.17658581643998622,-0.04204641309082508,0.191534050453268
1745767282430717400,3.047717529296875,0.26088030267357826,-0.10224573798775673,0.14718531523682177
1745767282440691500,3.05769140625,0.3290443228393793,-0.1335305185675621,0.10503853791090659
1745767282450664200,3.067664306640625,0.3464595680207014,-0.13457564370632172,0.062467534690396856
1745767282460637400,3.077637451171875,0.25179566346406934,-0.1057405943661928,0.0834345266696997
1745767282470611500,3.087611572265625,0.10657529162466525,-0.060953358134627336,0.042575053774542175
1745767282480584400,3.09758447265625,-0.011945873859524727,-0.03977437650561332,0.031112456220202145
1745767282490557400,3.107557373046875,-0.10689502509832381,0.013308978906273842,0.009621938123716972
1745767282500531500,3.117531494140625,-0.17992577451765537,0.019363456639647482,0.03553545116106979
1745767282510504400,3.12750439453125,-0.20955051293075083,0.014555764096975326,0.052988110309909096
1745767282520477200,3.137477294921875,-0.20488310564160345,-0.013814590340852737,0.06467071185705717
1745767282530451200,3.147451171875,-0.1728647500902414,-0.022078560817241667,-0.011543969394592568
1745767282540424400,3.157424560546875,-0.09834054724276066,-0.02398936287462711,-0.14275012753466143
1745767282550397400,3.1673974609375,-0.0969879635900259,-0.02138297976851463,-0.23635175488833338
1745767282560371500,3.177371337890625,-0.16282324854731559,-0.00830196439921856,-0.21863791035292668
1745767282570344400,3.187344482421875,-0.19957623140513897,-0.007310030752420425,-0.12884362112665548
1745767282580317400,3.1973173828125,-0.2306961768120527,-0.04365793994069099,-0.09715299055916257
1745767282590291500,3.20729150390625,-0.23269056549966333,-0.06640753188729286,-0.03979469777443446
1745767282600264200,3.21726416015625,-0.22989596634507178,-0.06432897204756736,-0.0024545946444617583
1745767282610237400,3.227237548828125,-0.19930325968265533,-0.08689853125214576,0.009423426726798061
1745767282620211500,3.23721142578125,-0.12617489510774613,-0.10444763194620608,-0.021579470454994587
1745767282630184400,3.247184326171875,-0.050748774984478946,-0.05254734883904457,-0.12649419018998742
1745767282640157400,3.257157470703125,0.09657119948267937,-0.03574234451055527,-0.2007812050144188
1745767282650131500,3.26713134765625,0.15811434020400048,-0.037703999972343444,-0.23850995583552867
1745767282660104200,3.277104248046875,0.09754559747278689,-0.049315527310967444,-0.2864053689491935
1745767282670077400,3.287077392578125,0.014741057536005972,-0.09110241268277168,-0.26355832624379544
1745767282680051200,3.29705126953125,-0.09172317492961883,-0.1301765319645405,-0.21158444817746058
1745767282690024400,3.3070244140625,-0.15434242044985294,-0.1347334646165371,-0.14325148291923104
1745767282699997400,3.31699755859375,-0.20656711320579052,-0.13153496083617208,-0.05553818295178935
1745767282709971500,3.326971435546875,-0.1900146223336458,-0.12000702012777328,-0.06062261920976452
1745767282719944400,3.3369443359375,-0.15287059433162212,-0.05453472326397896,-0.07786171323973685
1745767282729917200,3.346917236328125,-0.11543079825341701,0.027067455145716665,-0.10342457250878215
1745767282739891200,3.35689111328125,-0.09514379702806472,0.048726913768053055,-0.16067189746601507
1745767282749864400,3.366864501953125,-0.12907529272437096,0.031128713235259054,-0.1764868313112296
1745767282759837400,3.37683740234375,-0.17771745081841944,-0.0073036010116338725,-0.14607780151949262
1745767282769811500,3.3868115234375,-0.24410861609280107,-0.06881400850713253,-0.08376507379831746
1745767282779784400,3.396784423828125,-0.30145430512428284,-0.11141104121804236,-0.030676361791300587
1745767282789757400,3.40675732421875,-0.322491247934103,-0.09582125789821147,0.02724073848654516
1745767282799731500,3.4167314453125,-0.3668944532841444,-0.032468437406420705,0.004991928819066379
1745767282809704200,3.4267041015625,-0.3908645269364118,0.022987492355704305,-0.035829748799372466
1745767282819677400,3.436677490234375,-0.406520945751667,0.016253800186514854,-0.07617542238691821
1745767282829651500,3.4466513671875,-0.4157365178644657,-0.016657704812288284,-0.06348047002602834
1745767282839624400,3.45662451171875,-0.34154315440654753,-0.06440379084944725,-0.08799920423673466
1745767282849597400,3.466597412109375,-0.20972762306332587,-0.14941022474467752,-0.07112313026629853
1745767282859571500,3.476571533203125,-0.09009118981361389,-0.22316870391666888,-0.06718940754656214
1745767282869544400,3.48654443359375,-0.049665655922889705,-0.2870259667992592,-0.07300426327120513
1745767282879517400,3.496517333984375,-0.06242986042797565,-0.28911504803299903,-0.037686966639151796
1745767282889491200,3.5064912109375,-0.2515361357450485,-0.2720060923218727,-0.048671438987459986
1745767282899464400,3.51646435546875,-0.4563999521642923,-0.21998598222732543,-0.07800953334574587
1745767282909437400,3.5264375,-0.7322931150525808,-0.1998269912958145,-0.11651227334719151
1745767282919410400,3.536410400390625,-0.9699918641030788,-0.2318167052745819,-0.18736562392851336
1745767282929384400,3.546384521484375,-1.031564815440774,-0.12979951534569262,-0.16764202873958273
1745767282939357200,3.556357177734375,-0.9206652308762073,-0.07296586748957634,-0.16829532328285277
1745767282949330400,3.566330322265625,-0.8219371456205844,-0.109335988509655,-0.27953794913142915
1745767282959304400,3.576304443359375,-0.7021598425954579,-0.00499532406926155,-0.384492507686466
1745767282969277400,3.58627734375,-0.6139975750178098,0.09026829994618892,-0.3888128551036119
1745767282979250400,3.59625048828125,-0.5046428818076849,0.07576689638495444,-0.2209835784299299
1745767282989224400,3.606224365234375,-0.4227455198436975,-0.004293313279747963,-0.06465600291169248
1745767282999197400,3.616197509765625,-0.3815226980954408,-0.09234101456701754,0.00095847433519084
1745767283009170400,3.62617041015625,-0.42550387864112854,-0.23699790730476378,0.13855260277958587
1745767283019144400,3.63614453125,-0.556786326020956,-0.33584757311344143,0.194559280025959
1745767283029117700,3.64611767578125,-0.6651315499275923,-0.3279372383803129,0.24927505894526839
1745767283039090700,3.656090576171875,-0.6513391714185476,-0.18306231897771358,0.3614867124890908
1745767283049064400,3.666064453125,-0.536066194075346,-0.011776362511515617,0.3731757255107164
1745767283059037400,3.676037353515625,-0.5282844541579484,-0.01755845304429531,0.23998046677950768
1745767283069010400,3.686010498046875,-0.34244331811666484,-0.07462941678762436,0.17535050249136983
1745767283078984400,3.695984375,-0.10331716661155223,-0.072379007512331,0.14586490768748334
1745767283088957400,3.70595751953125,-0.13284721247851847,-0.1278138944864273,0.21282250207243486
1745767283098930700,3.7159306640625,-0.2529857500314712,-0.24423779543042182,0.4015966776246205
1745767283108904700,3.72590478515625,-0.5019698632061481,-0.4968254860550165,0.5288272557977587
1745767283118877400,3.73587744140625,-0.9603039983034133,-0.7180489011228084,0.5152768693510442
1745767283128850400,3.745850341796875,-1.3185334990948439,-0.6558294685751199,0.6128664886286482
1745767283138824400,3.755824462890625,-1.7266425908207892,-0.472120668387413,0.5787913832105696
1745767283148797400,3.76579736328125,-1.9212883800864218,-0.2420429157346487,0.41064869320616126
1745767283158770700,3.775770751953125,-1.9298440269857644,-0.16943302207589148,0.10343735892511903
1745767283168744400,3.785744384765625,-1.8663392308026552,-0.3347252910852432,-0.13929865364022553
1745767283178717700,3.7957177734375,-1.8568869273245334,-0.497730910462141,-0.14537446642257273
1745767283188690400,3.8056904296875,-1.7626555689662693,-0.37042145836651325,0.061125865157321095
1745767283198663400,3.815663330078125,-1.5957617099791763,-0.318315423554182,0.2338203001819551
1745767283208637400,3.825637451171875,-1.332041215443611,-0.22556290557682512,0.22313977008312938
1745767283218610400,3.8356103515625,-1.1688158158361912,-0.06431202091276646,0.16175225831493734
1745767283228583700,3.845583740234375,-1.375202896299958,0.03536941954493522,-0.25548428884893654
1745767283238557700,3.8555576171875,-1.7310118919461965,0.6616542292058467,-0.8735840384885668
1745767283248530700,3.86553076171875,-1.7280296612650154,1.6006617569804191,-1.0592182537809014
1745767283258503400,3.87550341796875,-1.5472171670407056,1.6745289572238922,-1.270694912468642
1745767283268477400,3.8854775390625,-1.7055699921756982,0.778705322137475,-1.6660186107710002
1745767283278450400,3.895450439453125,-1.4577940857470035,0.615119857046008,-0.8554369719013571
1745767283288423400,3.90542333984375,-1.2103157009601593,0.8199334045827388,0.29771541085690256
1745767283298397400,3.9153974609375,-0.45068215903937814,1.1957809796512127,1.269636781717837
1745767283308370700,3.92537060546875,1.8893308148115873,2.5227386082202194,1.1704638753041625
1745767283318343400,3.935343505859375,2.7442373330980536,-0.9338777636706829,-0.6064537355095148
1745767283328317400,3.9453173828125,3.3508220015108585,-1.416540868860483,-0.5795600294955074
1745767283338290400,3.95529052734375,2.5940906107723714,0.12789455850720405,0.8202829486727714
1745767283348263400,3.965263427734375,2.424513796311617,0.46482758876979346,0.2872738040804863
1745767283358237400,3.975237548828125,1.7572879044532774,0.4565349767208099,-0.32213790445178747
1745767283368210400,3.98521044921875,0.800344907015562,0.6448702676653861,0.0931008930236101
1745767283378183700,3.99518359375,0.17819032902717588,0.3129612030446529,0.77963310450688
1745767283388157700,4.00515771484375,0.0015127426505088806,0.06796878985464573,1.277593732071668
1745767283398130400,4.01513037109375,-0.12693068191111087,0.4631400740742683,0.6408658543296158
1745767283408103400,4.025103515625,-1.0030570983588696,-0.15084347241818905,0.39362288573384285
1745767283418077400,4.035077392578125,-1.2120675130635499,-0.3698778530091047,0.7375729551516473
1745767283428050400,4.045050537109375,-0.3711620476007461,0.21278642611205575,0.6417410297289491
1745767283438023700,4.055023681640625,0.2993804214596748,0.22512100702822208,0.8260879816897213
1745767283447996700,4.06499658203125,0.18566051877737044,0.09477963989078998,1.0278801355786622
1745767283457970700,4.074970703125,-0.06810264536738395,0.17157120314836502,0.5201550698466598
1745767283467943400,4.084943359375,-0.6743909611821174,0.7574678883194923,0.03416099360324442
1745767283477916400,4.09491650390625,-0.5675193169593811,1.8941051896065473,-0.2083128608945757
1745767283487890400,4.104890380859375,0.471807364654541,2.4398721089631317,0.31486389486081895
1745767283497863400,4.114863525390625,0.505860440903902,1.7998451896756886,0.04369794315751642
1745767283507836700,4.124836669921875,0.5238987864196301,1.106273142683506,-0.8854880459677428
1745767283517810700,4.134810791015625,0.5808955158829688,0.8742518547475338,-0.9964309582173824
1745767283527783700,4.14478369140625,1.340170745885372,1.9617659364253281,-0.39525183864254504
1745767283537756400,4.15475634765625,1.9991116244792937,2.2753771278113124,-1.3149166237719356
1745767283547730400,4.16473046875,-2.6050468890726566,-0.3205424519538879,-3.949730436207354
1745767283557703400,4.174703369140625,-4.649058562508225,-0.43156303254961964,-3.0158234464421865
1745767283567676700,4.1846767578125,-4.647172894892096,1.3668173452705144,-1.8475250786088406
1745767283577650400,4.194650390625,-3.912385040414333,2.98136149713099,-1.7944629121154545
1745767283587623700,4.204623779296875,-2.0181465798169373,4.170144580718874,-1.2139788996428251
1745767283597596400,4.214596435546875,-1.2387860086411238,4.4034231752395625,-0.22269772540405391
1745767283607570400,4.2245703125,-1.2902426396340132,3.6073552148908377,0.45522155603468417
1745767283617543400,4.23454345703125,-0.9845090497553348,2.863103366497159,1.1368820698283613
1745767283627516400,4.244516357421875,0.32994214846193787,2.4137808053731917,1.9883251497879624
1745767283637489700,4.25448974609375,1.067600005418062,1.6019278313934802,0.7476837956037372
1745767283647463700,4.264463623046875,0.5168623119115829,0.49206923143863673,-2.8343767459675666
1745767283657436700,4.274436767578125,-0.7591004579573869,0.830875069835782,-4.521385830058157
1745767283667409400,4.284409423828125,-0.7704118333056569,2.689728328797221,-3.8750729623690243
1745767283677383400,4.294383544921875,-1.0422545517593622,3.856339912587404,-3.3040976597368714
1745767283687356400,4.3043564453125,-0.738698890441656,4.031175085967779,-1.2079681149207055
1745767283697329400,4.314329345703125,-0.036029344758391375,2.371767125508189,0.6521602054778486
1745767283707303400,4.324303466796875,-0.5773842928916215,0.8087865721464157,0.19764906273484228
1745767283717276700,4.334276611328125,0.19145693009644746,0.8567711431145667,0.939024771170318
1745767283727249700,4.344249755859375,0.249554606539011,0.7666624176442622,0.855646961390227
1745767283737223700,4.3542236328125,0.038516193138062954,0.7452969735324383,-0.13364954183734953
1745767283747196400,4.364196533203125,-0.2611290167376399,1.7540350401371716,-1.245303427711129
1745767283757169400,4.37416943359375,-0.8665814662501216,3.312500746423006,-2.714329978351295
1745767283767143400,4.384143310546875,-1.3495914851814508,3.975429233348369,-3.6709497351840135
1745767283777116400,4.394116455078125,-1.4242124264016747,3.8350814359813925,-3.4646468258723613
1745767283787089700,4.404089599609375,-1.0340390965998172,3.5061516794323917,-1.9645039830870925
1745767283797063700,4.414063720703125,-0.4357388569295406,3.447981814536452,0.0936779987918213
1745767283807036400,4.424036376953125,0.10916413907408713,4.16370081140697,1.4634461201593278
1745767283817009400,4.434009521484375,0.40964579977393145,5.098540113586187,1.6668870641686022
1745767283826982400,4.443982421875,0.591964022386074,5.566583741793036,1.0617007913116365
1745767283836956400,4.453956298828125,0.6028343759685755,5.041359259727597,-0.10303582891952245
1745767283846929700,4.4639296875,0.5689937734261155,3.6624218530744312,-1.052607968795672
1745767283856902700,4.473902587890625,0.6276420694887638,2.660477099871635,-1.3887465607449412
1745767283866876700,4.483876708984375,0.79426880197227,1.8781676157623528,-1.1232262502457946
1745767283876849400,4.493849365234375,1.015813850209862,1.2418828056126832,-0.6514102638933807
1745767283886822400,4.503822509765625,1.2688263421177863,0.8993968173980712,-0.5936243202811107
1745767283896796400,4.51379638671875,1.443150643366575,0.6514677662342786,-1.189304404048249
1745767283906769400,4.523769287109375,1.436177881744504,0.025618425381183623,-1.6193337242245673
1745767283916742700,4.53374267578125,1.2323667892485857,-0.18319675901234148,-1.550497942277044
1745767283926716700,4.543716552734375,0.6807260094225406,0.23828970068097113,-0.6121866166057065
1745767283936689700,4.553689697265625,-0.1332002636998892,0.5562830526739359,0.7490560338050126
1745767283946662400,4.563662353515625,-0.9349157284162938,0.6439338635981082,1.5462414538763463
1745767283956635400,4.573635498046875,-1.8167039700180292,1.3302291975855827,0.5935244766358285
1745767283966609400,4.583609375,-4.203206892365217,1.798078180003166,-1.7460647919103502
1745767283976582400,4.59358251953125,-2.63825591571331,1.1904232520103455,-1.9290587218269704
1745767283986555600,4.6035556640625,-2.864626630541682,1.3453227218210697,-2.5901827896788716
1745767283996530000,4.613530029296875,-2.133020328709483,1.5721090317130089,-0.7263327453434467
1745767284006503000,4.6235029296875,-1.731258560183644,2.4271032282829283,1.8066820499584078
1745767284016475600,4.6334755859375,-1.6298223850131033,2.8749498716354367,3.381272961615026
1745767284026449700,4.64344970703125,-1.7531588418245314,2.7868197527617213,3.8531463772431014
1745767284036422700,4.653422607421875,-1.8726257637262342,2.9244156210720536,3.434719597381353
1745767284046396000,4.66339599609375,-2.198009372100979,3.266419963249564,2.2994946471102535
1745767284056369700,4.67336962890625,-2.83699102011919,3.0054636727303263,1.2088766080677509
1745767284066343000,4.683343017578125,-3.530186050492525,2.91619841234684,0.8068984203122556
1745767284076316000,4.69331591796875,-3.8072470881164073,2.993567483231425,1.5115689305543898
1745767284086290000,4.7032900390625,-3.4491152024805545,3.012756167826056,2.5687200226724145
1745767284096262700,4.7132626953125,-3.0272002882421014,3.1873318134874102,3.4548382563024758
1745767284106235600,4.723235595703125,-2.992829232084751,3.3747388836711645,4.081306605836748
1745767284116209000,4.733208984375,-3.319550080412626,3.4623329959720373,4.568278806397319
1745767284126183000,4.743182861328125,-3.982994115644693,3.892511880686879,4.87569435801357
1745767284136156000,4.753156005859375,-5.094414558088779,4.202537614801526,4.274925390142202
1745767284146128600,4.763128662109375,-6.31636458274126,4.058110439166426,3.427550144143402
1745767284156102700,4.7731025390625,-6.639166796320676,3.70709101588428,3.085284812942147
1745767284166075600,4.78307568359375,-6.287834069305658,3.5684459307819605,4.447219062346219
1745767284176048600,4.793048583984375,-6.061247081378102,3.7572435785412788,6.0219426604717965
1745767284186022700,4.803022705078125,-5.714799203795194,3.5880841127097605,7.145347555220127
1745767284195996000,4.812995849609375,-4.896889121733605,3.7245933548271655,7.502658772122859
1745767284205969000,4.822968994140625,-3.9725174375548957,4.8534682054191824,7.240514733123779
1745767284215943000,4.83294287109375,-3.114767220275104,5.845494791197776,6.562626577475666
1745767284225915600,4.84291552734375,-2.0602993758916854,7.143131632736325,6.3343748712062835
1745767284235888600,4.852888671875,-1.5539052665024995,7.804492431953549,7.2349933393537995
1745767284245862000,4.86286181640625,-2.774871540814638,7.129516364359855,8.726321445912122
1745767284255835600,4.872835693359375,-3.852287422326207,6.934340413740277,10.106284103959798
1745767284265809000,4.882808837890625,-2.5113141278862954,7.069345096513628,10.372142195045948
1745767284275782000,4.892781982421875,-0.06526186898350715,6.187264740097523,8.977958703944086
1745767284285756000,4.902755859375,3.1446453489273787,4.3823733729481695,2.2117481207266447
1745767284295728600,4.912728759765625,7.079446803811192,1.898601916503906,-8.90508460639119
1745767284305701600,4.92270166015625,11.433193217211961,1.1251602139830588,-16.258184100687505
1745767284315675600,4.932675537109375,16.879643097627163,3.7821944799244402,-17.087274625194073
1745767284325649000,4.94264892578125,20.46735896154642,5.806100353920459,-13.171966975331305
1745767284335622000,4.952621826171875,21.431981407570838,8.32344616318643,-5.2556946688473225
1745767284345596000,4.962595947265625,18.815855490601063,11.688024887371062,5.552556970006227
1745767284355568600,4.972568603515625,14.11697754291296,10.915144325864315,14.345321019119023
1745767284365541600,4.982541748046875,9.982794502413272,5.462759210181236,11.123308937394619
1745767284375514600,4.9925146484375,6.291742182660102,0.38340135144889353,3.181466720846295
1745767284385488600,5.002488525390625,2.875523872131109,1.7786211998611687,-0.5568406865566968
1745767284395462000,5.0124619140625,-1.342899294066429,5.263638905850052,-0.014283084635436535
1745767284405435000,5.022434814453125,-6.52985185059905,6.151831023144721,0.7160445755630731
1745767284415409000,5.032408935546875,-10.921181267940998,4.1222839283913375,-0.3631182226810604
1745767284425381600,5.042381591796875,-13.538326591086387,0.6977922950357198,-1.8307430167645216
1745767284435354600,5.052354736328125,-14.957483779925107,-3.4377760623425244,-3.1815134825974702
1745767284445328600,5.06232861328125,-14.646000248217582,-7.12812695582807,-2.5590803799286483
1745767284455302000,5.072302001953125,-12.132038236171006,-12.229416075861453,-0.28044994940981266
1745767284465275000,5.08227490234375,-7.315898183149099,-16.858034492409228,-2.9009464826792475
1745767284475249000,5.092248779296875,-0.5839169095307588,-18.07341566006541,-6.015529870820045
1745767284485222000,5.102221923828125,3.9680858848482368,-16.55603073670864,-5.670247529885173
1745767284495194600,5.112194580078125,6.436141301244497,-13.918340638184546,-3.672838325409591
1745767284505167600,5.122167724609375,7.034395948207378,-10.545772084289789,-2.44684107119292
1745767284515141600,5.1321416015625,1.7046441095024347,-8.757410411658883,-4.060840740913153
1745767284525115000,5.142114990234375,-3.1684520487114787,-4.899758247429133,-3.956799643941223
1745767284535087900,5.152087890625,-5.937188155511021,-1.7903958088070153,-4.047548420880735
1745767284545062000,5.162061767578125,-7.192788520830869,0.0500274749726057,-4.872148940491676
1745767284555035000,5.172034912109375,-6.613949937477708,-0.126005383759737,-5.150160410708189
1745767284565007600,5.182007568359375,-3.960670640155673,-0.27874387614428997,-3.9554979136928914
1745767284574981600,5.191981689453125,0.5980407119512557,0.7767839986860752,-4.990791686528921
1745767284584954600,5.20195458984375,6.123059102168678,1.562459159836173,-4.983828861778974
1745767284594927900,5.211927978515625,10.461555339467525,2.426184359872341,-2.455303194589913
1745767284604900900,5.22190087890625,12.779016289770603,2.644572843775153,-1.6641104390621184
1745767284614875000,5.231875,11.695351284736395,2.42598094625473,-2.053309955395758
1745767284624847600,5.24184765625,9.963840795618296,2.1488667171388864,-3.876906899797916
1745767284634820600,5.251820556640625,9.329783598390222,3.296424056369066,-6.212373462390899
1745767284644794600,5.261794677734375,7.91635297050476,4.97020365653038,-7.99873022494018
1745767284654767900,5.271767822265625,5.312776738506555,5.747044938361644,-9.771171859383582
1745767284664740900,5.281740966796875,2.4987971761405467,5.768436685958505,-11.325478692424296
1745767284674715000,5.29171484375,-0.21545827566981315,5.235754873624444,-11.363991670691966
1745767284684688000,5.30168798828125,-1.8655594786018133,5.379919014409184,-8.859159890562296
1745767284694660600,5.31166064453125,-4.012934495878219,4.788028057259321,-7.601423097735643
1745767284704634600,5.321634521484375,-5.746466261690855,1.6600322298377752,-8.112248467570543
1745767284714607600,5.331607666015625,-6.901942118960618,-0.747481331834197,-6.519021829026937
1745767284724580900,5.341580810546875,-7.25914344574809,-1.1096008258014918,-3.429163716819882
1745767284734553900,5.351553955078125,-7.241904141655564,-1.3169967910468579,-0.9404629872798919
1745767284744528000,5.36152783203125,-6.9230193937808275,-1.6443898395478724,0.2169350702241063
1745767284754500900,5.3715009765625,-6.562073619768023,-2.366521041548252,-0.608597031148523
1745767284764473600,5.3814736328125,-6.51571518869698,-2.948028259588778,-2.136533889788389
1745767284774447600,5.391447509765625,-6.858724908524751,-2.6106051077216863,-1.424747702322155
1745767284784420600,5.401420654296875,-6.6981415478587145,-1.606223190499842,1.5534883562646806
1745767284794393900,5.411393798828125,-5.725444516450167,-0.3130664169847965,4.488985489451885
1745767284804368000,5.421367919921875,-5.046130711913109,1.3715753534525632,6.696374538186192
1745767284814340900,5.4313408203125,-4.748842294296622,2.4064500240936875,7.571984821805358
1745767284824313900,5.44131396484375,-4.64537549008131,3.101772129623592,8.451372870397567
1745767284834286600,5.45128662109375,-6.854501153349876,3.4943764859646556,16.42256802268028
1745767284844260600,5.461260498046875,-8.743274918800592,1.8377810987077652,21.4587969337821
1745767284854233900,5.47123388671875,-7.089061604374646,0.8443300330840051,20.350358722019195
1745767284864206800,5.481206787109375,-3.87449399343729,2.2395319074481725,14.419648822611569
1745767284874180900,5.491180908203125,-0.189775552880764,2.955741025923192,7.650880663865804
1745767284884153900,5.50115380859375,2.7258839302837847,3.092397567556798,4.3938285406813025
1745767284894126600,5.511126708984375,4.209192981037497,3.4975326119080186,1.9537034798704087
1745767284904100600,5.5211005859375,4.061239384841919,3.5132936601415277,-0.22351430248394608
1745767284914073600,5.531073486328125,2.3791736023724077,2.4838164646297693,-2.5406039352566
1745767284924046800,5.541046875,-0.9442810842633247,2.1751871533095835,-4.2275095589727165
1745767284934020900,5.551020751953125,-4.587372213923931,2.873755693414807,-6.546684911978244
1745767284943993900,5.560993896484375,-5.297448236471414,3.604735972303152,-8.160715269097686
1745767284953966800,5.570966796875,-5.74434795436263,4.133586243650317,-9.335911141359805
1745767284963939600,5.580939697265625,-6.33962095516622,4.80045148550272,-8.909130082389712
1745767284973913600,5.59091357421875,-5.785863037055731,5.875851935538649,-7.532360082903504
1745767284983886600,5.600886474609375,-4.569195921242237,6.522490966442227,-5.480355072626471
1745767284993859800,5.61085986328125,-2.939986699691415,7.312532506108283,-2.757107336065173
1745767285003833000,5.6208330078125,-0.7050193236798048,8.935828119701146,-1.3514036491699517
1745767285013806000,5.63080615234375,20.48962456936836,21.076835259747504,-2.822020537741482
1745767285023779000,5.640779052734375,66.45916621294022,37.99231188730001,2.506485684816539
1745767285033753000,5.650753173828125,-28.550656059920787,-20.263148056077956,24.465007040965556
1745767285043726000,5.66072607421875,-11.173229444861411,10.178204846310615,11.551099465668202
1745767285053699000,5.670698974609375,-0.9891729499131441,22.574347607898712,5.6223862930357456
1745767285063672000,5.680672119140625,14.401791678881644,34.76659042966366,-21.78461644935608
1745767285073646000,5.69064599609375,10.673245787036418,20.37841577272415,-27.994081330823896
1745767285083619000,5.700619140625,14.96234583300352,6.2870379504919045,-33.602482353127
1745767285093592000,5.710592041015625,14.326877015411853,2.225270742383599,-30.143709679985044
1745767285103566000,5.720566162109375,7.303242115193605,1.0346014066576956,-22.29866370384693
1745767285113539000,5.7305390625,-0.7917711399376391,0.5421802930414676,-14.183461062645911
1745767285123512000,5.740511962890625,-7.69911833281219,2.276647878399491,-3.460798333750665
1745767285133486000,5.750486083984375,-11.120657546103,4.211566139909625,5.2335880509793755
1745767285143459000,5.760458984375,-11.665244900286197,5.44165913900733,10.834439388555287
1745767285153432000,5.77043212890625,-11.310332561218738,5.582140791887045,13.403998784661292
1745767285163406000,5.780406005859375,-11.250921756350994,4.681134493465722,14.41504162107706
1745767285173379000,5.790379150390625,-11.05851585496664,2.914890252357721,14.952700052779912
1745767285183352000,5.80035205078125,-10.265125589394568,0.9861568169623612,15.339881507289409
1745767285193325000,5.810324951171875,-8.866140250968932,-0.9962439112126826,15.393131451439857
1745767285203299000,5.820299072265625,-6.782388103297352,-2.7072151779100295,13.986532130879162
1745767285213272000,5.83027197265625,-4.346858407452702,-3.8350925418972968,11.82999356393814
1745767285223245000,5.8402451171875,-1.5675176122695207,-4.173449759744107,9.087125765627622
1745767285233219000,5.850218994140625,2.5920085438013074,-3.7543458112731574,5.5039399463534355
1745767285243192000,5.860192138671875,22.123587707448003,-3.937541693502664,0.003356324690580368
1745767285253165000,5.8701650390625,7.59512487437427,-3.1058155597954986,-0.3468243096798658
1745767285263138000,5.880137939453125,-6.102045540234446,-2.044624544636905,1.3960609754115343
1745767285273112000,5.890112060546875,-6.1294169467628,-1.2006018239364027,0.4583993092879653
1745767285283085000,5.9000849609375,-0.3797697169482708,-0.550417375510931,-1.7251704724416135
1745767285293058000,5.91005810546875,8.061400908386707,0.21780805366635322,-2.8850939567700027
1745767285303032000,5.920031982421875,2.9233459460139275,0.8257283545970916,-1.0123176786571741
1745767285313005000,5.930005126953125,-0.7264017189264297,1.139262973615527,0.47945261871069667
1745767285322978000,5.93997802734375,0.4348772716641426,0.8916206304386257,0.46784489076435565
1745767285332952000,5.9499521484375,1.5291910964846611,0.16605682364106178,0.1000792076036334
1745767285342925000,5.959925048828125,1.6506716962963341,-0.19981734668463466,-0.4401064044892788
1745767285352898000,5.96989794921875,1.432708744329214,-0.06276596051454544,-1.1985901918530464
1745767285362871300,5.979871337890625,0.8512719611763954,0.16842267598956823,-1.7425357410013675
1745767285372845000,5.989844970703125,0.1782990500986576,0.4630220006525516,-1.740507450044155
1745767285382818000,5.999818115234375,-0.1625187126427889,0.9347907868623733,-1.2230658769398928
1745767285392791000,6.009791015625,-0.10232172583341598,1.1974538812994957,-0.3064984367713332
1745767285402765000,6.01976513671875,0.04188040887415409,1.0265461104959248,0.5946382100313902
1745767285412738000,6.029738037109375,-0.09570552256405353,0.6606175796344876,1.3024383966013788
1745767285422711000,6.0397109375,-0.24596096596121786,0.22878742058128118,1.4893205661281943
1745767285432685000,6.04968505859375,-0.09408464336395263,-0.3553501459628343,0.8909583671376109
1745767285442658000,6.059657958984375,0.09562485854327678,-0.8836959749191999,-0.13323124336004255
1745767285452631000,6.069631103515625,0.11841887415349482,-1.0119061752468348,-0.808425922140479
1745767285462604000,6.07960400390625,0.1653717639863491,-0.9890990078940987,-0.9159142369568347
1745767285472578000,6.089578125,0.26893092266023155,-1.029986898599565,-0.7111003971591592
1745767285482551000,6.099551025390625,0.2987234188556671,-0.9861448342636226,-0.6010887013450265
1745767285492524000,6.10952392578125,0.1796715074956417,-0.955638344579935,-0.46758565530627966
1745767285502498000,6.119498046875,-0.04522445860505104,-0.9364730408608913,-0.1557698229044676
1745767285512471000,6.129470947265625,-0.10140928716361522,-0.8794245812103152,0.218990833710134
1745767285522444000,6.139444091796875,0.37756314681470393,-0.7445470319479703,0.5494926618814469
1745767285532417000,6.1494169921875,1.186052197319269,-0.3247305512934923,0.44891821810677646
1745767285542391000,6.15939111328125,1.7640099061846732,0.12914338952451943,0.15608751055151224
1745767285552364000,6.169364013671875,1.871606357550621,0.46323155175000424,-0.000052753100544214245
1745767285562337300,6.179337158203125,1.6047563328176735,0.49306496447771786,-0.0691514237679541
1745767285572311000,6.18931103515625,1.14899292499125,0.36253918068408963,-0.004964563604816794
1745767285582284000,6.199283935546875,0.511336241966486,0.2108133724734187,0.15882804143130777
1745767285592257000,6.209257080078125,-0.20283610998392104,0.05151391413807869,0.06744527743719518
1745767285602231000,6.21923095703125,-0.6901929259479046,-0.039754210500419135,-0.11902973606083542
1745767285612204000,6.2292041015625,-1.0606021093547344,0.024277239905297756,-0.20431091351052744
1745767285622177000,6.239177001953125,-1.4699644160121679,0.25253040747940536,-0.2089574424084276
1745767285632150300,6.249150390625,-1.7616402544438838,0.43580140077173707,-0.08235567279127426
1745767285642124000,6.2591240234375,-1.8298960445463657,0.3987520653158426,0.22527433442641048
1745767285652097000,6.269096923828125,-1.7971277474105356,0.18262568112611768,0.6046542848721146
1745767285662070000,6.279070068359375,-1.4180378294199705,-0.2030868698745966,0.8603447638176381
1745767285672044000,6.2890439453125,-0.784762722480297,-0.5248065489143133,0.7954203100949525
1745767285682017000,6.29901708984375,-0.14958967296481132,-0.6572849280804395,0.41338951634690163
1745767285691990000,6.308989990234375,0.2861351554393768,-0.5729980406314135,-0.11481754345959051
1745767285701963000,6.318962890625,0.48850832408666606,-0.3892152984246611,-0.3690718703884631
1745767285711937000,6.32893701171875,0.32852819001078604,-0.20667554201632737,-0.23608893923368304
1745767285721910000,6.338909912109375,0.07620236519277096,-0.06780249337702988,0.02550250738393515
1745767285731883000,6.348883056640625,-0.11110942792296409,0.05100216522365808,0.21986984503436832
1745767285741857000,6.35885693359375,-0.07631868504881859,0.11358107873350382,0.39749541631825264
1745767285751830000,6.368830078125,0.09149170426130294,0.08946429008692502,0.3825389259332791
1745767285761803300,6.37880322265625,0.23485154292583466,-0.03442512443214655,0.2364519638597965
1745767285771777300,6.38877734375,0.35969898882210255,-0.2546530987218022,0.10001304703224449
1745767285781750000,6.39875,0.4545137000262737,-0.37541239852160213,-0.1876443130057305
1745767285791723000,6.408722900390625,0.45235973686277864,-0.3573132627293467,-0.5591407801926136
1745767285801696000,6.418696044921875,0.34480887820422645,-0.23880612577050922,-0.6340938029114157
1745767285811670000,6.428669921875,0.25484102250933643,-0.20802432627677916,-0.35779680846258993
1745767285821643000,6.43864306640625,0.281992648807168,-0.28531740931570526,-0.01835289135761559
1745767285831616300,6.4486162109375,0.35306291180849075,-0.3660816755965352,0.24676146868914364
1745767285841590300,6.45859033203125,0.3895242182433605,-0.35724867306053637,0.3293118146691471
1745767285851563000,6.46856298828125,0.3932452845931053,-0.31619127100706096,0.2470798869885504
1745767285861536000,6.478535888671875,0.26975100687146186,-0.3058227294668555,0.07665931518003344
1745767285871509000,6.488509033203125,0.10124211390316486,-0.28092151244431735,-0.034018443327397105
1745767285881483000,6.49848291015625,-0.044535891819000244,-0.25225392862558366,-0.08794730965271591
1745767285891456000,6.5084560546875,-0.21710662739872932,-0.17039952902048824,-0.1291748806413263
1745767285901429000,6.518428955078125,-0.40937458161711693,-0.0654600219041109,-0.1856722822804004
1745767285911403000,6.528403076171875,-0.5539642543375491,0.04627046052664518,-0.1300517365410924
1745767285921376000,6.5383759765625,-0.5209679936647414,0.15015169076174498,0.10074497803598642
1745767285931349000,6.548348876953125,-0.2880605705440044,0.19326690212786196,0.4269539313189685
1745767285941322000,6.558322021484375,-0.015555881050229071,0.11775339598208664,0.600150397581607
1745767285951296000,6.5682958984375,0.22221768680214882,-0.044801849278807634,0.5067706145513803
1745767285961269200,6.578269287109375,0.4306535164892673,-0.2522673726290464,0.21590989189483223
1745767285971242000,6.588241943359375,0.5878595096766949,-0.3266559663981199,-0.25205489892214533
1745767285981216000,6.598216064453125,0.5814087261021137,-0.2652037188306451,-0.6426392206776886
1745767285991189000,6.60818896484375,0.37123160570561886,-0.16903934658318756,-0.8209474039308726
1745767286001162000,6.618161865234375,0.09908698169589042,-0.10821370648145676,-0.828562408979237
1745767286011135000,6.628135009765625,-0.00023614684343338012,-0.06978226901739835,-0.6962876626264304
1745767286021109000,6.63810888671875,0.2666080326706171,-0.10752397065162658,-0.4617318877767771
1745767286031082200,6.648082275390625,0.840774532559514,-0.2981502951428294,-0.19431904152929783
1745767286041055000,6.658054931640625,1.521456702840328,-0.5752423124268651,0.04633300436884165
1745767286051029000,6.668029052734375,1.833297377422452,-0.8483829617366194,0.2054248113028705
1745767286061002000,6.678001953125,1.5206816268146037,-0.8664329976901411,0.13018223105296492
1745767286070975000,6.68797509765625,0.8910007449746131,-0.5592819422289729,-0.1251370125605259
1745767286080948200,6.6979482421875,0.2794447178900242,-0.19452800810486076,-0.3920003260333091
1745767286090922200,6.707922119140625,-0.18099486505389212,0.20074878231585025,-0.7594340738259255
1745767286100895200,6.717895263671875,-0.45951486931443214,0.5892857430875301,-1.0804707390375434
1745767286110868000,6.727867919921875,-0.6896171718865632,0.878083980256319,-0.983994816622883
1745767286120842000,6.737842041015625,-0.8185024949967861,1.0314037796601652,-0.7101788984000682
1745767286130815000,6.74781494140625,-0.9172785110473632,0.9154930889353156,-0.382016619092226
1745767286140788000,6.7577880859375,-1.0059458055377006,0.6675067546263337,-0.10630458492450416
1745767286150761200,6.76776123046875,-1.0680828204989432,0.4377101570025086,0.051485930152609945
1745767286160735200,6.7777353515625,-1.1696604499667882,0.252260650627315,0.18588285629115997
1745767286170708000,6.7877080078125,-1.3382944306194782,0.08825812916755675,0.36985922137387095
1745767286180681000,6.797680908203125,-1.3639771534085272,-0.06817220347225665,0.44396863287538285
1745767286190655000,6.807655029296875,-1.1107470732271671,-0.2516208914190531,0.34802499070651827
1745767286200628000,6.8176279296875,-0.6977706677258014,-0.4792939210176468,0.210954534509778
1745767286210601200,6.827601318359375,-0.2926759553849697,-0.6270896963030099,0.08576492411233484
1745767286220574200,6.83757421875,0.08663198927044868,-0.669874652801454,-0.02809847869388759
1745767286230548200,6.84754833984375,0.4001110787093639,-0.7145403084799646,-0.008181881683506071
1745767286240521000,6.85752099609375,0.5131856692254543,-0.7157634205341339,0.036977439263463016
1745767286250494000,6.867493896484375,0.4351642719119787,-0.6893710881710052,0.03877393075879663
1745767286260468000,6.877468017578125,0.3161655520439148,-0.6928872795984149,0.0640719650791958
1745767286270441000,6.88744091796875,0.25157822132110597,-0.691038729122281,-0.04841244099140167
1745767286280414200,6.897414306640625,0.26919395751059055,-0.6714490625113249,-0.2067865281101316
1745767286290387200,6.90738720703125,0.2540647774398327,-0.6476499615117907,-0.25461006329767405
1745767286300361200,6.917361328125,0.20575170516967772,-0.6254468975320459,-0.24562468321155756
1745767286310334000,6.927333984375,0.23132219975590704,-0.5302960862413049,-0.1971494791822508
1745767286320307000,6.937306884765625,0.30913024657964705,-0.4468351282224059,-0.16851912210136652
1745767286330281000,6.947281005859375,0.4214788609087467,-0.31933833686113355,-0.1725858600836247
1745767286340254000,6.95725390625,0.6445838519394398,-0.17870704637765883,-0.1732824275130406
1745767286350227200,6.967227294921875,0.7145791791856289,-0.12526625583022832,-0.18568477643579243
1745767286360200200,6.9772001953125,0.6226175193250179,0.025226211193203923,-0.420673535875231
1745767286370174200,6.98717431640625,0.4167044861137867,-0.03553893089294433,-0.5842398578748107
1745767286380147000,6.99714697265625,0.17640870630741118,-0.24759821177423,-0.5960072698948905
1745767286390120000,7.007119873046875,0.20304536882042884,-0.377520184455812,-0.6561553395286202
1745767286400094000,7.017093994140625,0.38291210662722586,-0.3190639038339257,-0.677458678189665
1745767286410067200,7.027067138671875,0.5457867931008339,-0.13117840248346327,-0.6131893273748457
1745767286420040200,7.037040283203125,0.535323851275444,0.1292228845015168,-0.396656846602261
1745767286430013000,7.047012939453125,0.39341362689733506,0.40118630672544237,-0.153253858028166
1745767286439987000,7.056987060546875,0.08784078053832053,0.5190040001153946,0.06798336636926978
1745767286449960000,7.0669599609375,-0.2530395260453224,0.5859098369136453,0.21214012756515294
1745767286459933000,7.076932861328125,-0.540706128835678,0.6091951431721448,0.34705030045546587
1745767286469907000,7.086906982421875,-0.8335703002691268,0.5777633553370833,0.5416951398730278
1745767286479880200,7.096880126953125,-0.9968576591968535,0.43470220735818144,0.6812644271481781
1745767286489853200,7.106853271484375,-1.0328770670831202,0.17136574370414018,0.6835430396046489
1745767286499826000,7.116825927734375,-0.8822855235993862,-0.13049889578670262,0.5787680023349822
1745767286509800000,7.126800048828125,-0.5738239700615406,-0.337927886518836,0.42392260079905386
1745767286519773000,7.13677294921875,-0.2782493706256151,-0.44785891831219193,0.24727716312631964
1745767286529746200,7.14674609375,-0.06310030703544617,-0.5042115046530962,0.09528817393481731
1745767286539720000,7.156719970703125,0.09083353261351584,-0.5550570180103183,0.015326383143290876
1745767286549693200,7.166693115234375,0.2300654776930809,-0.6772884361892938,0.036315614353865384
1745767286559666200,7.176666259765625,0.2688905906498432,-0.7729384291738272,-0.02344056988544762
1745767286569639000,7.186638916015625,0.39768414382338524,-0.8790937418207526,-0.107574020338431
1745767286579613000,7.196613037109375,0.4721288516938686,-0.9370303824827074,-0.21141871795542536
1745767286589586000,7.2065859375,0.45928164508044717,-0.842540665449202,-0.3480527554962784
1745767286599559200,7.21655908203125,0.39344051490426063,-0.6270543327286839,-0.40667036415971813
1745767286609532200,7.2265322265625,0.23518121327161787,-0.39062399617880583,-0.2875777554631233
1745767286619506200,7.236506103515625,0.045008185505867,-0.14240765250623225,-0.1567345762833953
1745767286629479200,7.246479248046875,-0.11758125428557395,0.025946342161297795,-0.09293160087130964
1745767286639452000,7.256451904296875,-0.2595914319068193,0.04123129731565714,-0.04713547985814512
1745767286649426000,7.266426025390625,-0.31288638424277304,0.00988221932798624,-0.027913550581037998
1745767286659399000,7.27639892578125,-0.19003858773112295,-0.044892157910764216,-0.16603844773415474
1745767286669372200,7.2863720703125,0.11876257302463054,-0.07490209624916315,-0.40200580641478295
1745767286679345200,7.29634521484375,0.3083002254962921,-0.06828209358751773,-0.5522492305805906
1745767286689319200,7.306319091796875,0.3363432476758957,0.011019114403426646,-0.6160225049741566
1745767286699292000,7.3162919921875,0.2826893988996744,0.053149114124476905,-0.5737154316531494
1745767286709265000,7.326264892578125,0.07264847210347652,-0.027839608561992645,-0.36506004093121736
1745767286719239000,7.336239013671875,-0.14107961877286435,-0.17244097172021866,-0.10699589165691285
1745767286729212200,7.346212158203125,-0.2795931864500046,-0.32898937778174875,0.14461634153164923
1745767286739185200,7.35618505859375,-0.31183541388511654,-0.4791396072387695,0.2981892754463479
1745767286749158100,7.366158203125,-0.27692192141413685,-0.5002651051148772,0.34479638404883445
1745767286759132200,7.376132080078125,-0.19672610267102716,-0.49920565918982024,0.2438642859429121
1745767286769105000,7.38610498046875,-0.08222352517843246,-0.43634939004331824,0.07675050059482455
1745767286779078000,7.396077880859375,-0.02514145551919937,-0.3684183018505573,0.043229412330314514
1745767286789051100,7.406051025390625,-0.024009821140766142,-0.27972674970179795,0.1312359048243612
1745767286799025200,7.416025146484375,-0.15097732793092727,-0.1919958592787385,0.1704417607270181
1745767286808998100,7.425998046875,-0.41574587021470066,-0.1873310823380947,0.11621058698687702
1745767286818971100,7.43597119140625,-0.7519739670783281,-0.2702168708175421,0.09996138991024345
1745767286828945200,7.445945068359375,-0.9601046763390302,-0.41980946639180183,0.09076768256938085
1745767286838918000,7.45591796875,-0.9425848017394542,-0.4566603566661477,-0.015352622696245087
1745767286848891100,7.46589111328125,-0.7499182035923003,-0.43056671498864885,-0.22399050516095012
1745767286858864000,7.475864013671875,-0.4300257399797439,-0.5272156558826565,-0.3544662027351558
1745767286868838100,7.485838134765625,-0.12428104418516159,-0.7635252886623144,-0.2961745928893797
1745767286878811100,7.49581103515625,0.1345931793630123,-0.7816144875824451,-0.0016347250623628495
1745767286888784100,7.5057841796875,0.3679226272881031,-0.3886737388938665,0.33639212831892074
1745767286898758100,7.515758056640625,0.5664350288540124,0.11004325999617576,0.6776511320218443
1745767286908731000,7.52573095703125,0.8136603156626224,0.430361255544424,1.2899720059990882
1745767286918704000,7.5357041015625,1.103591356253624,0.5068123348012566,2.0312761105030774
1745767286928677000,7.545677001953125,1.5237369227319955,-0.07669745523333549,2.51981921364218
1745767286938651100,7.555651123046875,1.8566051877737044,-1.136717380785942,2.1709671975269913
1745767286948624100,7.5656240234375,2.0144296051204202,-1.5805208862274884,0.8938430557284504
1745767286958596900,7.575596923828125,2.3834920500934125,-1.2716235716208815,0.2731307124376297
1745767286968570000,7.585570068359375,2.417935586965084,-0.833133662417531,0.3194938927490264
1745767286978543900,7.5955439453125,2.5584032113194466,-0.38539515561461446,0.5996342647530138
1745767286988517000,7.60551708984375,3.2093980993449684,0.12583236528038977,1.3079046991832552
1745767286998490600,7.61549072265625,4.230400019717217,0.3937421281993389,1.5866493059799074
1745767287008464600,7.625464599609375,5.097499664622545,0.06958937679380178,0.9621958033993839
1745767287018437600,7.635437744140625,5.493147334182262,-0.4780065115556121,0.2998153057456016
1745767287028410400,7.645410400390625,5.474470690762996,-0.9245479175284504,-0.5353622835896908
1745767287038383400,7.65538330078125,5.314226937314868,-0.6393541345924139,-0.5942594398468732
1745767287048357400,7.665357421875,4.574845909827947,0.09305734614282846,-0.029573738878220318
1745767287058330600,7.67533056640625,3.4775229663193223,0.5649991508319974,0.2986503536194563
1745767287068303600,7.6853037109375,2.39578688352108,0.4898375268638134,0.5772272026337683
1745767287078276400,7.6952763671875,1.5617419514775275,0.5580494778245687,0.5817515481904149
1745767287088250400,7.70525048828125,0.8987105886995792,0.7247583356335758,0.21190262901484966
1745767287098223400,7.715223388671875,0.34883097332715984,0.8953421351797878,-0.046236265996098515
1745767287108196600,7.725196533203125,-0.01730652410984039,1.3204859483368694,-0.12045081837251782
1745767287118170600,7.735170654296875,-0.304531228351593,1.4300111758083105,-0.24474779077917336
1745767287128143600,7.7451435546875,-0.6993816100537776,1.4330597497239708,-0.257796072922647
1745767287138116600,7.75511669921875,-0.9852852948248386,1.788891249462962,-0.23474545220285653
1745767287148089300,7.76508935546875,-1.242064007398486,1.8254992708921431,-0.10901187112182378
1745767287158063400,7.7750634765625,-1.2469663924872874,1.6112278669193385,0.02284223866611719
1745767287168036400,7.785036376953125,-1.1709247708141803,1.6702628242120146,0.03598988953083753
1745767287178009600,7.795009521484375,-1.2095429630219936,1.5592885669760406,0.19928630854785442
1745767287187982600,7.804982666015625,-1.2360206355810164,1.1987478666327893,0.4492573869332671
1745767287197956600,7.81495654296875,-1.2529846298635006,0.9079973263524472,0.9439072825148701
1745767287207929600,7.8249296875,-1.1014748024910688,0.6667128277696669,1.5711960085213184
1745767287217902300,7.83490234375,-0.9508850125730037,0.3480550935838371,1.89870654592216
1745767287227876400,7.84487646484375,-0.7852075436383485,-0.04798873568661511,2.2368910375505684
1745767287237849600,7.854849609375,-0.7550164035141468,0.28794125501327217,2.645484697923064
1745767287247822600,7.864822509765625,-0.8196358829408884,1.376534729425609,2.2260843968540427
1745767287257795600,7.874795654296875,-1.1501204677164554,1.6697633502572773,1.2075684480786322
1745767287267769600,7.88476953125,-1.5888883170783519,1.014031496837735,0.917096140217781
1745767287277742600,7.89474267578125,-1.6092121431827544,0.2409823007658124,2.2516718425750732
1745767287287715300,7.90471533203125,-0.9239543355494737,-0.4565875836908817,3.6464217353880404
1745767287297688600,7.9146884765625,-0.29920564941465855,-0.6189424840740859,4.034726640969515
1745767287307662600,7.92466259765625,0.35155367628932,-0.5526147394247353,3.835153332173824
1745767287317635600,7.934635498046875,0.9785884275346994,-0.11597367295846342,3.2631402109265326
1745767287327608600,7.944608642578125,1.1938725156813859,0.44328167352452874,2.5520453667253253
1745767287337582600,7.95458251953125,0.8928519257992505,0.657367930188775,2.4651608639985323
1745767287347555300,7.964555419921875,-0.04643851056993007,0.22580285181254148,1.7499615070879457
1745767287357528600,7.974528564453125,-0.49914837604463097,0.1637089453406632,0.7455366275072097
1745767287367501600,7.98450146484375,-0.841000158008933,0.4092632301971316,1.3254700203597545
1745767287377475600,7.9944755859375,-1.3443605987906455,0.4731226850368082,2.1107190650522707
1745767287387448600,8.004448486328124,-1.902046503999829,0.5828668159559369,3.131815093448758
1745767287397421600,8.014421630859376,-2.547555654090643,0.6863251446038484,2.4282903922408816
1745767287407394300,8.024394287109375,-3.2328637306064367,1.0624000986874103,1.1628209593355654
1745767287417368300,8.034368408203125,-3.4020407320946453,1.0804821372143925,-0.30412381659448146
1745767287427341600,8.044341552734375,-3.3900241310864687,0.8321975506111979,-0.38871173281669613
1745767287437314600,8.054314453125,-2.6810797429174182,0.5685679492294788,0.21044600046575068
1745767287447287600,8.06428759765625,-1.5487889464020728,0.7370932088106871,0.39180852978825564
1745767287457261600,8.074261474609376,-0.6769757169783115,0.6713586077488959,-0.15276888752281664
1745767287467234600,8.084234619140625,-0.09540274022519588,1.134440814156085,-1.356918467068672
1745767287477207300,8.094207275390625,0.1480477042198181,1.649063530447334,-2.8233202221632
1745767287487181300,8.104181396484375,0.644092853552103,1.4813415500730276,-3.9958389841705557
1745767287497154600,8.114154541015624,1.6016659655869006,1.2542596182353793,-4.409387636601925
1745767287507127600,8.12412744140625,2.051367881417274,1.1341750028267503,-3.7544460567772386
1745767287517100500,8.1341005859375,1.628452265703678,0.5513305448330938,-2.229426108497381
1745767287527074600,8.144074462890625,0.9261483384624123,-0.12851912014633415,-0.7448305250644683
1745767287537047600,8.154047607421875,0.17528291714787483,-0.3540523612372577,0.023052374285459518
1745767287547020500,8.1640205078125,-0.9781097041070461,0.16457257643267512,-0.02675181332528591
1745767287556993500,8.17399365234375,-2.2059932104617355,0.7744834666587412,-0.8205652727454901
1745767287566967600,8.183967529296876,-2.8032261131614447,1.07326431479007,-1.7159066772729157
1745767287576940500,8.1939404296875,-2.93852188783586,1.3444476925522089,-2.0859107870101927
1745767287586913500,8.20391357421875,-2.8776848495572804,1.261608227432519,-2.316335161143541
1745767287596887600,8.213887451171875,-2.424822716130316,0.9949420348338782,-1.8768103559345006
1745767287606860300,8.2238603515625,-1.922015525317192,0.9261734729036688,-1.0708785886973142
1745767287616833500,8.23383349609375,-1.6023153694063423,0.6209469557642936,-0.5303559997349977
1745767287626806500,8.243806640625,-1.1000134977668523,0.3936835298798978,-0.1877279727011919
1745767287636780500,8.253780517578125,-0.655715486806631,0.2882913105599582,-0.059360535985231395
1745767287646753500,8.26375341796875,-0.24599399144798514,0.10694544011130928,-0.1184808334738016
1745767287656726500,8.2737265625,0.08169277930259704,0.06036518298313021,-0.12332827350497245
1745767287666699500,8.283699462890626,0.30618600982129573,0.02999927081391215,0.010016951623558997
1745767287676673500,8.293673583984376,0.4210170886158943,-0.11734379226788878,0.07573124054968357
1745767287686646500,8.303646484375,1.192473754799366,-0.33896935839578507,0.623430589273572
1745767287696619500,8.31361962890625,1.3295485218450427,-0.5873283254094421,0.6054734923005104
