time,seconds_elapsed,z,y,x
2025-04-22 16:43:33.470868200,0.0648681640625,0.639426615306735,0.0586950578138232,-0.4312535282090306
2025-04-22 16:43:33.480840200,0.074840087890625,0.2201730292320251,0.0418497214749455,-0.3577622851384803
2025-04-22 16:43:33.490813200,0.084813232421875,-0.1465221020877361,0.0515881484180688,-0.1848907765138894
2025-04-22 16:43:33.500785400,0.094785400390625,-0.3231254541844129,0.0319201558738946,-0.119640269174613
2025-04-22 16:43:33.510757000,0.104757080078125,-0.1414426068663597,-0.0728784814670681,-0.1501579013068228
2025-04-22 16:43:33.520730400,0.11473046875,0.2240045702189207,-0.2006567201182246,-0.2040088070251047
2025-04-22 16:43:33.530702300,0.124702392578125,0.3618716566860676,-0.3634790918827056,-0.201796738732513
2025-04-22 16:43:33.540674300,0.13467431640625,0.3910825536012649,-0.379047540153563,-0.226454959045723
2025-04-22 16:43:33.550646300,0.144646240234375,0.3518424301028251,-0.2863596118450164,-0.1978983978534117
2025-04-22 16:43:33.560619300,0.154619384765625,0.2793383349061012,-0.3437847958534956,0.1058195961528457
2025-04-22 16:43:33.570591200,0.16459130859375,-0.0639478637754917,-0.3500619764268398,0.4442876356966793
2025-04-22 16:43:33.580563200,0.174563232421875,-0.0403121366441249,-0.2059641788765788,0.507968299903348
2025-04-22 16:43:33.590536400,0.184536376953125,0.0381079045981168,-0.2412792378857731,0.3463186617126688
2025-04-22 16:43:33.600508200,0.194508056640625,0.0135544780999422,-0.2524269471049308,0.0845067772774025
2025-04-22 16:43:33.610480400,0.20448046875,-0.0888496653199195,-0.1431871124461293,-0.1304143227757886
2025-04-22 16:43:33.620452400,0.214452392578125,-0.239237210664153,-0.0007446808874607,-0.2187901965714991
2025-04-22 16:43:33.630425000,0.224425048828125,-0.3164747641235589,0.1029822355687618,-0.1754539080669172
2025-04-22 16:43:33.640397300,0.234397216796875,-0.3989928883343935,0.1024339540362358,0.0074766742899082
2025-04-22 16:43:33.650369300,0.244369384765625,-0.3690928401112556,0.0547515808850526,0.1451952373981475
2025-04-22 16:43:33.660342300,0.25434228515625,-0.2558715346008539,0.0510015807017684,0.2304108935972675
2025-04-22 16:43:33.670314200,0.264314208984375,-0.1837602381139993,0.0344920521885156,0.2997995784535072
2025-04-22 16:43:33.680286500,0.274286376953125,-0.1457043559640645,-0.0139279875874519,0.1332973673988133
2025-04-22 16:43:33.690258200,0.284258056640625,0.0421779305160045,-0.0148106156408786,-0.0873576183975674
2025-04-22 16:43:33.700231400,0.2942314453125,0.273249370381236,-0.051552492582798,-0.2330662852105684
2025-04-22 16:43:33.710203400,0.304203369140625,0.373114935234189,-0.1417252232000231,-0.2575889695106074
2025-04-22 16:43:33.720175400,0.31417529296875,0.283061154821515,-0.2248936280131339,-0.1254827846577391
2025-04-22 16:43:33.730148400,0.3241484375,0.0892220057636499,-0.2538581489518284,-0.0554907818797975
2025-04-22 16:43:33.740120300,0.334120361328125,-0.0575415038645267,-0.1999868580326438,-0.0515443092763423
2025-04-22 16:43:33.750092300,0.34409228515625,-0.2105062062203884,-0.0461301752731204,-0.1512943945234641
2025-04-22 16:43:33.760064300,0.354064208984375,-0.2566846045494079,-0.0383320687428116,-0.0753400492750108
2025-04-22 16:43:33.770037500,0.36403759765625,-0.1966010149866342,-0.2146849532097577,0.1069197576807811
2025-04-22 16:43:33.780009200,0.37400927734375,-0.0765010558784008,-0.2661749019503593,0.0523084255166351
2025-04-22 16:43:33.789981400,0.3839814453125,0.0820855780124664,-0.1657546258240938,-0.1027037839535623
2025-04-22 16:43:33.799954400,0.393954345703125,0.1559089391142129,-0.1178679622724652,-0.269630449231714
2025-04-22 16:43:33.809926100,0.403926025390625,0.1158908169806003,-0.0456990903794765,-0.4155195141129195
2025-04-22 16:43:33.819898400,0.4138984375,-0.0340595059901475,0.031212592126429,-0.3473590010784566
2025-04-22 16:43:33.829871400,0.423871337890625,-0.2152975321501493,0.0319759777143597,-0.1626365668687969
2025-04-22 16:43:33.839843300,0.43384326171875,-0.273864871931076,-0.032594694134593,-0.0677297934670001
2025-04-22 16:43:33.849815300,0.443815185546875,-0.1971656631320714,-0.0755593911141157,-0.0209941631140187
2025-04-22 16:43:33.859787300,0.453787353515625,-0.0465881481736898,-0.0925906054139137,-0.0344591362996026
2025-04-22 16:43:33.869760300,0.46376025390625,0.0616319880485534,-0.0622688246473669,-0.1676255342625081
2025-04-22 16:43:33.879732500,0.473732421875,0.0314162980049848,0.0273962487086653,-0.3083181995444
2025-04-22 16:43:33.889704200,0.4837041015625,-0.1398135443598032,0.1273915774211287,-0.3131571640081703
2025-04-22 16:43:33.899677200,0.49367724609375,-0.2907756747215986,0.1872662004083395,-0.1988168278725817
2025-04-22 16:43:33.909649400,0.5036494140625,-0.4107996459841728,0.3107470341265201,0.092116594693996
2025-04-22 16:43:33.919621000,0.51362109375,-0.3236281430095434,0.1492819221898913,0.0959109820082783
2025-04-22 16:43:33.929594400,0.523594482421875,0.0296650704234838,-0.2050868115201592,0.2874489049190655
2025-04-22 16:43:33.939566300,0.53356640625,0.2696411167562008,-0.1574929934352636,0.467377492448315
2025-04-22 16:43:33.949538300,0.543538330078125,0.3034329117208719,-0.1576733184382319,0.3113670291883871
2025-04-22 16:43:33.959510300,0.55351025390625,0.1985252610474824,-0.1741334548518061,0.1765444615162908
2025-04-22 16:43:33.969483300,0.563483154296875,0.0780938780277967,-0.1314011053234338,0.1385202166136354
2025-04-22 16:43:33.979455200,0.573455322265625,-0.0114104518085718,-0.0856067378759384,0.1091723954457789
2025-04-22 16:43:33.989427500,0.583427490234375,-0.041017070043087,-0.0855535463839769,0.1502611424855887
2025-04-22 16:43:33.999400400,0.593400390625,-0.0460299297690391,-0.0916229294255375,0.2401416121579706
2025-04-22 16:43:34.009372200,0.6033720703125,-0.0090589202463626,-0.1472343420103192,0.3619163360780105
2025-04-22 16:43:34.019344400,0.613344482421875,0.1006084921747446,-0.1939022774219513,0.3976551369246095
2025-04-22 16:43:34.029317400,0.6233173828125,0.2377174537509679,-0.2254100531026721,0.3501050483835861
2025-04-22 16:43:34.039289300,0.633289306640625,0.2439467035293579,-0.2100441416665911,0.2522827163286507
2025-04-22 16:43:34.049261300,0.64326123046875,0.126700964808464,-0.1486459623739123,0.1815432561842724
2025-04-22 16:43:34.059233500,0.653233642578125,-0.0506757097482681,-0.119805944597721,0.1643749349687248
2025-04-22 16:43:34.069206300,0.663206298828125,-0.1278419515371322,-0.1041898577928543,0.1688616519287228
2025-04-22 16:43:34.079178200,0.67317822265625,-0.1146720888406038,-0.0858794173374772,0.1575983535058796
2025-04-22 16:43:34.089150500,0.683150390625,-0.023870120409131,-0.0859437147453427,0.2062998040391132
2025-04-22 16:43:34.099123200,0.693123291015625,0.0365700275063514,-0.1426531516999006,0.3255165871046483
2025-04-22 16:43:34.109095400,0.703095458984375,0.1449199275881051,-0.1579258318945765,0.504299109871313
2025-04-22 16:43:34.119067400,0.7130673828125,0.1542985813081264,-0.1865785104051232,0.4392413486251607
2025-04-22 16:43:34.129040100,0.7230400390625,0.1228705928653478,-0.1457356278851628,0.1221507176255807
2025-04-22 16:43:34.139012400,0.733012451171875,0.0987841993570327,-0.025035657057166,-0.1390486974671483
2025-04-22 16:43:34.148984300,0.742984375,-0.007210077509284,0.0027510522738099,-0.0770864180183038
2025-04-22 16:43:34.158956300,0.752956298828125,-0.0756242730438709,-0.0631458997428417,0.1103377128981053
2025-04-22 16:43:34.168929300,0.76292919921875,-0.0431798010349273,-0.1393351131930947,0.2812831122983247
2025-04-22 16:43:34.178901500,0.772901611328125,-0.0765180070132017,-0.1515329159870743,0.4536876609982922
2025-04-22 16:43:34.188873200,0.782873291015625,-0.0430944608390331,-0.1670180698886513,0.5038172446385025
2025-04-22 16:43:34.198846500,0.792846435546875,-0.0236830734044313,-0.1070198205217719,0.3300732640283182
2025-04-22 16:43:34.208818400,0.802818359375,-0.0713753834277391,0.0047381344377994,0.1546391749067232
2025-04-22 16:43:34.218790400,0.812790283203125,-0.1175578734099864,0.0717374947383999,0.0815817566761746
2025-04-22 16:43:34.228763400,0.822763427734375,-0.185140878817439,0.0292503521427512,0.1032687974251806
2025-04-22 16:43:34.238735000,0.832735107421875,-0.1778314325869083,-0.0111848263591527,0.2188191669376566
2025-04-22 16:43:34.248707300,0.842707275390625,-0.1717412990182638,-0.0165936996653676,0.3271936900040134
2025-04-22 16:43:34.258679300,0.85267919921875,-0.2066267344385385,0.0067135261639952,0.3141178987991064
2025-04-22 16:43:34.268652300,0.86265234375,-0.2819797893255948,0.0745081284955143,0.2321160170147195
2025-04-22 16:43:34.278624300,0.872624267578125,-0.3353694342076778,0.0941778746053576,0.1444412772256881
2025-04-22 16:43:34.288596500,0.882596435546875,-0.2511076811999082,0.1108048920184373,-0.0083932228792458
2025-04-22 16:43:34.298569200,0.8925693359375,-0.1267617550849914,0.1466682325601577,-0.1274403119336813
2025-04-22 16:43:34.308541200,0.902541259765625,0.0333709392040967,0.1584519015952944,-0.2521273431038484
2025-04-22 16:43:34.318513400,0.912513427734375,0.1374748722791671,0.1357736213192343,-0.3110302349820733
2025-04-22 16:43:34.328486100,0.922486083984375,0.1231838965982198,0.1030509168908,-0.2852419694593176
2025-04-22 16:43:34.338458400,0.932458251953125,0.0515109915286302,0.0703986473500728,-0.2004997029256075
2025-04-22 16:43:34.348430300,0.942430419921875,0.0147153385728597,0.0150146137803792,-0.0467737338736653
2025-04-22 16:43:34.358403300,0.9524033203125,0.0308738616913557,-0.037335458920896,0.0394457656057551
2025-04-22 16:43:34.368375300,0.962375244140625,0.1048427687436342,-0.0778869572788476,-0.0027262831587344
2025-04-22 16:43:34.378347500,0.972347412109375,0.2300356670767068,-0.1047676576808094,-0.0665165817523375
2025-04-22 16:43:34.388319200,0.9823193359375,0.3106616939306258,-0.0838376823768019,-0.1898839451586827
2025-04-22 16:43:34.398292200,0.992292236328125,0.3701929103076458,-0.0706616822004318,-0.2999756839390844
2025-04-22 16:43:34.408264400,1.002264404296875,0.2887193267136812,-0.0323798823401331,-0.325883849514462
2025-04-22 16:43:34.418236200,1.012236083984375,0.1987514710187911,-0.0089443539559841,-0.2648819029977545
2025-04-22 16:43:34.428209400,1.02220947265625,0.1688227812230587,-0.0404538832023739,-0.1524762977844104
2025-04-22 16:43:34.438181400,1.032181396484375,0.0985644191265106,-0.0782931999921798,0.0160224391160532
2025-04-22 16:43:34.448153300,1.0421533203125,0.0181312844961881,-0.0682531597539782,0.1561289750730618
2025-04-22 16:43:34.458126300,1.052126220703125,-0.0638683687984943,-0.0705468236491084,0.124940384876728
2025-04-22 16:43:34.468098300,1.062098388671875,-0.0356020592570304,-0.0441910239040851,0.0333016733601689
2025-04-22 16:43:34.478070300,1.0720703125,0.0231827226668596,-0.016930384273827,-0.0934934360051527
2025-04-22 16:43:34.488042200,1.082042236328125,0.0739011025130748,-0.0093929745063185,-0.2266893157908693
2025-04-22 16:43:34.498015500,1.092015380859375,0.1603425376474857,0.0240758721143007,-0.2812207511192187
2025-04-22 16:43:34.507987200,1.1019873046875,0.157464351862669,0.0767550306394696,-0.2584357955982908
2025-04-22 16:43:34.517959400,1.11195947265625,0.0910667568475007,0.0994698435336351,-0.1140089852893724
2025-04-22 16:43:34.527932400,1.121932373046875,-0.0161561850309371,-0.1313461602658033,0.3033933468954637
2025-04-22 16:43:34.537904400,1.131904296875,-0.098800565969944,-0.2906827357411384,0.4137645602043718
2025-04-22 16:43:34.547876400,1.14187646484375,-0.1103875433892011,-0.1017176224604249,0.2210181382866576
2025-04-22 16:43:34.557849300,1.151849365234375,-0.1662275040328502,0.0317509367868304,0.0736420131854713
2025-04-22 16:43:34.567821300,1.1618212890625,-0.2161322294086217,0.0172983408033847,-0.0430424749234691
2025-04-22 16:43:34.577793300,1.171793212890625,-0.1864139674931764,0.0445759315684437,-0.0750813252735883
2025-04-22 16:43:34.587766500,1.1817666015625,-0.1088525889068841,0.043958091931045,-0.076963120432198
2025-04-22 16:43:34.597738200,1.19173828125,-0.0038104981988668,-0.0324237214818596,-0.0089419428031891
2025-04-22 16:43:34.607710500,1.20171044921875,0.064309098303318,-0.0941635538190603,0.0453386595692485
2025-04-22 16:43:34.617682200,1.21168212890625,0.1076718546897172,-0.0359171165555715,0.1315034697193652
2025-04-22 16:43:34.627655200,1.2216552734375,0.1970569420605897,-0.0968771966919302,0.1583531539285555
2025-04-22 16:43:34.637627400,1.23162744140625,0.2626870598345995,-0.0999830537527799,0.1528036300426349
2025-04-22 16:43:34.647599000,1.24159912109375,0.3711521107286215,-0.0962178560003638,0.1778666134981438
2025-04-22 16:43:34.657572400,1.251572265625,0.4284674046218395,-0.1247749651819467,0.2190484821815043
2025-04-22 16:43:34.667544300,1.26154443359375,0.3864163153558969,-0.0585097643747925,0.1412007974671199
2025-04-22 16:43:34.677516300,1.271516357421875,0.2959258970916271,0.0581309941902756,-0.0690513974595814
2025-04-22 16:43:34.687489300,1.2814892578125,0.1581751304805278,0.1539545901760458,-0.13582827411592
2025-04-22 16:43:34.697461200,1.291461181640625,0.072537412944436,0.2120461291387677,-0.1239500221325084
2025-04-22 16:43:34.707433200,1.30143310546875,0.0589642301440238,0.156356390620768,-0.0273738907463848
2025-04-22 16:43:34.717406200,1.31140625,0.1250724868237972,0.0788701230973005,0.0950242988342419
2025-04-22 16:43:34.727378400,1.32137841796875,0.2780851199746131,-0.0143979431867599,0.1627597913896664
2025-04-22 16:43:34.737350100,1.33135009765625,0.4911047703206538,-0.0965577554792165,0.0936368265312165
2025-04-22 16:43:34.747323400,1.341323486328125,0.610371785736084,-0.1549447702571749,-0.0338785599326714
2025-04-22 16:43:34.757295400,1.35129541015625,0.6615946079730988,-0.1171963466212153,-0.1777432793794199
2025-04-22 16:43:34.767267300,1.361267333984375,0.6639537383198738,-0.0656608051732182,-0.2683511134782806
2025-04-22 16:43:34.777239300,1.3712392578125,0.4453443051427602,0.0339502003967761,-0.2155220250884071
2025-04-22 16:43:34.787212300,1.38121240234375,0.1826777035742998,0.0397661931991577,-0.1431146682644263
2025-04-22 16:43:34.797184300,1.391184326171875,-0.0469131423443555,0.036602468471229,-0.1018437695907428
2025-04-22 16:43:34.807156200,1.40115625,-0.218341722151637,0.055243163794279,-0.0328136706475168
2025-04-22 16:43:34.817129500,1.41112939453125,-0.3885673559099435,0.0463262823671102,0.0081159403078258
2025-04-22 16:43:34.827101200,1.42110107421875,-0.410062563881278,0.0144876672968268,-0.0170834924763068
2025-04-22 16:43:34.837073400,1.431073486328125,-0.3186713973850011,-0.0211167300477623,-0.069681986980699
2025-04-22 16:43:34.847046400,1.44104638671875,-0.2662088042199611,-0.0429854475066065,-0.184512188992463
2025-04-22 16:43:34.857018000,1.45101806640625,-0.1801455547481775,-0.0606090747416019,-0.2328329696450382
2025-04-22 16:43:34.866990300,1.460990234375,-0.1441705705255269,-0.0985591584295034,-0.2614613539645448
2025-04-22 16:43:34.876963300,1.47096337890625,-0.1998907041817903,-0.0997092052474618,-0.187482656170614
2025-04-22 16:43:34.886935300,1.480935302734375,-0.2701432210594415,-0.0690764588356018,-0.1364460041554644
2025-04-22 16:43:34.896907300,1.4909072265625,-0.3311655527770519,-0.0897930836498737,-0.1103994895553216
2025-04-22 16:43:34.906880300,1.50088037109375,-0.3207663238376378,-0.0906397636070847,-0.1649338109605014
2025-04-22 16:43:34.916852200,1.510852294921875,-0.3132616472959518,0.0023582535639405,-0.2330015676775947
2025-04-22 16:43:34.926824400,1.520824462890625,-0.2594195824712514,-0.0315068988978862,-0.1368384192728437
2025-04-22 16:43:34.936796400,1.53079638671875,-0.1919903063207864,-0.1761371958896517,-0.0002868175847455
2025-04-22 16:43:34.946769200,1.54076904296875,-0.0943330651670694,-0.2823588517710566,0.2528187777004204
2025-04-22 16:43:34.956741400,1.550741455078125,0.0656815557003021,-0.4364683402478694,0.4581098613547161
2025-04-22 16:43:34.966713300,1.56071337890625,0.1558171691775322,-0.4552066507264971,0.4235293636977672
2025-04-22 16:43:34.976686300,1.570686279296875,0.1525467692047357,-0.3649497489571571,0.230845650019031
2025-04-22 16:43:34.986658300,1.580658203125,0.0326303499698638,-0.2256055756747722,0.0018770276519469
2025-04-22 16:43:34.996630500,1.590630615234375,-0.0920166049182415,-0.172887838704884,-0.1376866883989423
2025-04-22 16:43:35.006603300,1.600603271484375,-0.2173603098988533,-0.1694175322458148,-0.0891816189543344
2025-04-22 16:43:35.016575200,1.6105751953125,-0.3654185355126857,-0.173079854145646,0.071879277829267
2025-04-22 16:43:35.026547500,1.62054736328125,-0.4071908078372478,-0.1368389124631881,0.142914944441244
2025-04-22 16:43:35.036520200,1.630520263671875,-0.3992600148379802,-0.0539054854497313,0.0897774294230155
2025-04-22 16:43:35.046492400,1.640492431640625,-0.3951245224684476,0.0242161573678255,0.0147027713522315
2025-04-22 16:43:35.056464400,1.65046435546875,-0.322343948417902,0.0745443688526749,0.0691150555466301
2025-04-22 16:43:35.066437000,1.66043701171875,-0.2074947494447231,0.1399509070038795,0.2044191413916647
2025-04-22 16:43:35.076409300,1.670409423828125,-0.115587450119853,0.1290039810538291,0.1597956260881386
2025-04-22 16:43:35.086381300,1.68038134765625,0.1111293016672134,0.0888221927911043,0.0863905177979264
2025-04-22 16:43:35.096354300,1.690354248046875,0.3881155204892158,0.0588160538449883,0.0674305547920987
2025-04-22 16:43:35.106326300,1.700326171875,0.5866676695436239,-0.0076113517865538,0.0926746852344833
2025-04-22 16:43:35.116298200,1.71029833984375,0.5768675755411387,-0.0593874239921569,0.0903346431806683
2025-04-22 16:43:35.126271200,1.720271240234375,0.4461369168251752,-0.1087955980226397,0.1436927238807082
2025-04-22 16:43:35.136243500,1.730243408203125,0.2932745058000087,-0.104113869947195,0.0775325908832252
2025-04-22 16:43:35.146215200,1.740215087890625,0.0908165814787149,-0.0185123927682638,-0.0285500035873614
2025-04-22 16:43:35.156187400,1.7501875,-0.0617728578239679,0.0427399483129382,-0.0296424202002584
2025-04-22 16:43:35.166160400,1.760160400390625,-0.0544371081084012,0.0256865221813321,0.0340142512094695
2025-04-22 16:43:35.176132000,1.770132080078125,0.0406879842191934,0.0055468204721808,0.1126543375437147
2025-04-22 16:43:35.186104300,1.780104248046875,0.1678986521154642,-0.0457379610851407,0.1239565980037674
2025-04-22 16:43:35.196077300,1.790077392578125,0.3319979119479656,-0.0920782719776034,0.0996324319505132
2025-04-22 16:43:35.206049300,1.80004931640625,0.4091548013865947,-0.1485331496492028,0.1267043349424842
2025-04-22 16:43:35.216021200,1.810021240234375,0.4021417077541351,-0.1843769087076187,0.1358619754561223
2025-04-22 16:43:35.225994200,1.819994140625,0.4077209691911935,-0.1973123781263828,0.0561954595504328
2025-04-22 16:43:35.235966200,1.82996630859375,0.3722311381369829,-0.1555965121641755,-0.0898635916028171
2025-04-22 16:43:35.245938200,1.839938232421875,0.2319213346928358,-0.0767874716043472,-0.1918939332742243
2025-04-22 16:43:35.255911400,1.849911376953125,0.1169616610825061,-0.0191316937103867,-0.2013884136599488
2025-04-22 16:43:35.265883100,1.859883056640625,0.076605100774765,-0.0290557063534855,-0.1874105955814011
2025-04-22 16:43:35.275855400,1.86985546875,0.1114402673125267,-0.0644534752100706,-0.1057825886107049
2025-04-22 16:43:35.285828400,1.879828369140625,0.1246136371403932,-0.1669675087451934,0.0562001357255503
2025-04-22 16:43:35.295800300,1.88980029296875,0.1850795040190219,-0.2604354815155267,0.2049511111102066
2025-04-22 16:43:35.305772300,1.899772216796875,0.2727162864178419,-0.2996528086602688,0.3023393260641954
2025-04-22 16:43:35.315745300,1.909745361328125,0.3180167328685522,-0.2545978614032268,0.2112680391720496
2025-04-22 16:43:35.325717200,1.91971728515625,0.2245581124484539,-0.1378551037684083,-0.0348665480567142
2025-04-22 16:43:35.335689200,1.929689208984375,-0.0950432592630386,0.021247955211997,-0.2395143105724826
2025-04-22 16:43:35.345662500,1.939662353515625,-0.4893833533555269,0.1366752463340759,-0.3761916027331725
2025-04-22 16:43:35.355634200,1.94963427734375,-0.798662653017044,0.175127726586163,-0.3725695763111114
2025-04-22 16:43:35.365606400,1.9596064453125,-0.8348036414563655,0.1594482191562652,-0.2566251294471323
2025-04-22 16:43:35.375579400,1.969579345703125,-0.629545857283473,0.0732213035553693,-0.1411329929279163
2025-04-22 16:43:35.385551000,1.979551025390625,-0.3785597566366195,-0.0724970809340476,-0.0993017934903502
2025-04-22 16:43:35.395523000,1.989523193359375,-0.19388591080904,-0.1730430292665958,-0.0539427121875807
2025-04-22 16:43:35.405496000,1.99949609375,-0.0370189403176307,-0.2249804295137524,-0.03979333693441
2025-04-22 16:43:35.415468300,2.00946826171875,0.0427531000554561,-0.2580190680235624,-0.105945834614709
2025-04-22 16:43:35.425440000,2.01943994140625,-0.0226040459960699,-0.2436743163287639,-0.1641331621021032
2025-04-22 16:43:35.435413200,2.029413330078125,-0.0529413165926933,-0.1540928296029567,-0.2971661429436877
2025-04-22 16:43:35.445385200,2.03938525390625,-0.1900549543440342,-0.0146580554276704,-0.3734975413436069
2025-04-22 16:43:35.455357200,2.049357177734375,-0.1283990008980035,-0.1266238079190254,-0.0810096193440258
2025-04-22 16:43:35.465330200,2.059330078125,-0.0307446823537349,-0.1402022514164447,-0.0402859792895615
2025-04-22 16:43:35.475302100,2.06930224609375,0.090476974260807,-0.1129965568438172,-0.1160270471135154
2025-04-22 16:43:35.485274000,2.079274169921875,0.1730833612769842,-0.0990063176751136,-0.0723958855818957
2025-04-22 16:43:35.495247000,2.0892470703125,0.2067775410860776,-0.1783461041107773,-0.0739931281780824
2025-04-22 16:43:35.505219300,2.09921923828125,0.2181038217425346,-0.2041664818048477,-0.0893296308565884
2025-04-22 16:43:35.515191000,2.10919091796875,0.1236561902850866,-0.1894166564404964,-0.2131865678781643
2025-04-22 16:43:35.525164000,2.1191640625,0.0021872809112071,-0.1668845066368579,-0.2806906993631273
2025-04-22 16:43:35.535136300,2.12913623046875,-0.0907797565996646,-0.1212704641923308,-0.2744770124800503
2025-04-22 16:43:35.545108000,2.13910791015625,-0.1709679765582084,-0.1020414475873112,-0.2532758555518463
2025-04-22 16:43:35.555081200,2.149081298828125,-0.1819745237410068,-0.1055269516155123,-0.226109762337245
2025-04-22 16:43:35.565053200,2.15905322265625,-0.1149023904651403,-0.112045831990242,-0.1552825508441776
2025-04-22 16:43:35.575025200,2.169025146484375,-0.0528822798818349,-0.087185239239037,-0.0819249440906569
2025-04-22 16:43:35.584998100,2.178998046875,-0.0757423464655876,-0.047425183519721,-0.0797376266468316
2025-04-22 16:43:35.594970000,2.18897021484375,-0.191429749828577,-0.0207139944657683,-0.1386527934847399
2025-04-22 16:43:35.604942000,2.198942138671875,-0.2841173858761787,0.0684004592701792,-0.1757104949101805
2025-04-22 16:43:35.614915000,2.2089150390625,-0.3081102558821439,-0.0075941083908081,0.061517823616974
2025-04-22 16:43:35.624887300,2.21888720703125,-0.2588157713592052,-0.0205906603470444,0.0060956865265965
2025-04-22 16:43:35.634859000,2.22885888671875,-0.2066793414086103,0.0208648011133074,-0.0352342123253271
2025-04-22 16:43:35.644831200,2.238831298828125,-0.1716816777855157,0.027092881847918,0.0128560109743848
2025-04-22 16:43:35.654804200,2.24880419921875,-0.0886842456251382,4.32546198368e-05,0.0815390500456094
2025-04-22 16:43:35.664776200,2.258776123046875,-0.0551531474232673,-0.0594791939288377,0.1708157451385632
2025-04-22 16:43:35.674749200,2.268749267578125,0.0646966363161802,-0.0478071685746312,0.1773339679261669
2025-04-22 16:43:35.684721200,2.27872119140625,0.1818997049391269,0.0309372823163866,0.1162501518122851
2025-04-22 16:43:35.694693000,2.288693115234375,0.2460860536456107,0.0283355753853917,0.07605718456842
2025-04-22 16:43:35.704666000,2.298666015625,0.2665367210000753,0.0487359738573431,0.1578160148445516
2025-04-22 16:43:35.714638300,2.308638427734375,0.2440858197391033,0.0309060103952884,0.1890353837716393
2025-04-22 16:43:35.724610000,2.318610107421875,0.2461263856559991,0.0214323718681931,0.1343577266393229
2025-04-22 16:43:35.734583000,2.3285830078125,0.2623404383540153,0.0291895618662238,0.1204414294896647
2025-04-22 16:43:35.744555300,2.33855517578125,0.2806651995956897,-0.0348871889859437,0.1248841246448457
2025-04-22 16:43:35.754527000,2.34852685546875,0.2954372367918491,-0.0528518847435712,0.0936985301231965
2025-04-22 16:43:35.764500200,2.358500244140625,0.2759463543802499,-0.0435527260005474,0.0717252745776437
2025-04-22 16:43:35.774472200,2.36847216796875,0.2863409071445465,-0.0512792285993695,0.0795427981944754
2025-04-22 16:43:35.784444200,2.378444091796875,0.3068137863308191,-0.0462649075686931,0.1023403757349587
2025-04-22 16:43:35.794417200,2.388417236328125,0.2677747383624315,-0.0362473714232444,0.1001070819912478
2025-04-22 16:43:35.804389000,2.39838916015625,0.1416255622178316,-0.009285714739561,0.0507006980590522
2025-04-22 16:43:35.814361000,2.408361083984375,0.0618406623631715,0.0063677814662456,0.0469495288319885
2025-04-22 16:43:35.824334000,2.418333984375,0.0981996774673461,-0.0402446243658661,0.0823686144712381
2025-04-22 16:43:35.834306300,2.428306396484375,0.2190595150321722,-0.0887690012991428,0.1409953380228951
2025-04-22 16:43:35.844278000,2.438278076171875,0.2951812162041664,-0.1287514675974845,0.0449460069898515
2025-04-22 16:43:35.854251300,2.448251220703125,0.400310400673747,-0.0521083728998899,0.0473145810184068
2025-04-22 16:43:35.864223200,2.45822314453125,0.4251835606455802,-0.0643266339600086,0.0217620970129035
2025-04-22 16:43:35.874195200,2.4681953125,0.3708013975948095,-0.0384013345867395,0.0122952170201577
2025-04-22 16:43:35.884168200,2.478168212890625,0.187244573098421,-0.0220820679485797,0.0555856388227082
2025-04-22 16:43:35.894140200,2.48814013671875,-0.0808130738586187,0.0483113187044858,0.0053060887851752
2025-04-22 16:43:35.904112000,2.498112060546875,-0.3845248025208711,0.0836506353721022,-0.0130138318846002
2025-04-22 16:43:35.914085000,2.508085205078125,-0.5732172363400458,0.0615150836706161,0.0598227649358101
2025-04-22 16:43:35.924057300,2.518057373046875,-0.574324905321002,0.0192304779097437,0.1437622819855809
2025-04-22 16:43:35.934029000,2.528029052734375,-0.4800467852115631,-0.0303244111150503,0.1131787267439998
2025-04-22 16:43:35.944002000,2.538001953125,-0.3388093455284833,-0.0369751011759042,-0.0051217451942153
2025-04-22 16:43:35.953974300,2.547974365234375,-0.1652548596084117,-0.0690475250020623,-0.024731705674529
2025-04-22 16:43:35.963946000,2.557946044921875,-0.0005740004956722,-0.1057253967970609,-0.0452214263977482
2025-04-22 16:43:35.973919200,2.567919189453125,0.1201817921727895,-0.0917573694601655,-0.0348827320065349
2025-04-22 16:43:35.983891200,2.57789111328125,0.1441477741718292,-0.073046531510353,-0.0512565053109079
2025-04-22 16:43:35.993863200,2.58786328125,0.1116810903310775,-0.0701046328395605,-0.037075876402948
2025-04-22 16:43:36.003836200,2.597836181640625,0.0347691155642271,-0.0572653172716498,-0.0585160114524885
2025-04-22 16:43:36.013808000,2.60780810546875,-0.0236941793203353,-0.0515913632884621,-0.0636960809715092
2025-04-22 16:43:36.023780000,2.617780029296875,-0.0292833776295185,-0.0368082201763987,-0.0683256039356812
2025-04-22 16:43:36.033753000,2.627753173828125,0.0672901599407196,-0.0474663923129439,-0.0360747913353145
2025-04-22 16:43:36.043725300,2.637725341796875,0.2504693832963705,-0.1224549978017807,0.0333694048341363
2025-04-22 16:43:36.053697000,2.647697021484375,0.4713292257487773,-0.1417652629494667,0.0749932816639542
2025-04-22 16:43:36.063670300,2.657670166015625,0.6055740300655365,-0.1187231177970767,-0.0234363686343654
2025-04-22 16:43:36.073642200,2.667642333984375,0.6191325998187065,-0.0488727519795298,-0.1303979926954954
2025-04-22 16:43:36.083614200,2.6776142578125,0.5135679465413093,-0.0103518826663494,-0.086970025585778
2025-04-22 16:43:36.093587200,2.687587158203125,0.3234802589714527,0.0174818806767463,-0.1037381319699808
2025-04-22 16:43:36.103559200,2.69755908203125,0.1460404560506343,0.0665770432353019,-0.0080697265459224
2025-04-22 16:43:36.113531100,2.70753125,-0.1021393550038337,0.1090726613983511,-0.0104034667231142
2025-04-22 16:43:36.123504000,2.717504150390625,-0.4101677778214216,0.1802349865972995,-0.1381852125056087
2025-04-22 16:43:36.133476400,2.727476318359375,-0.5327496168732643,0.1664730032265186,0.0506610236357897
2025-04-22 16:43:36.143448000,2.737447998046875,-0.5200666609108447,0.0262953017294406,0.1787585573691874
2025-04-22 16:43:36.153421000,2.747421142578125,-0.451999086856842,0.0283110254660248,0.077896784553118
2025-04-22 16:43:36.163393300,2.757393310546875,-0.3608791385173797,0.0152098440915346,-0.0896654752148315
2025-04-22 16:43:36.173366000,2.767365966796875,-0.1953676737993955,0.0248170458704233,-0.1218234949652105
2025-04-22 16:43:36.183338200,2.777338134765625,-0.0295540112644433,0.0063753802508115,-0.0973919047484174
2025-04-22 16:43:36.193310200,2.787310302734375,0.1674526619136333,-0.0211903798058629,-0.1422695774761028
2025-04-22 16:43:36.203283000,2.797282958984375,0.3246668384075165,-0.0123418874397873,-0.0350195466613397
2025-04-22 16:43:36.213255200,2.807255126953125,0.4089432044625282,-0.0587839051410555,0.0713237628383561
2025-04-22 16:43:36.223227100,2.81722705078125,0.3689198216319084,-0.1028676692783832,0.1579860559155233
2025-04-22 16:43:36.233200000,2.8272001953125,0.2838648724198341,-0.1123708261609077,0.2178106657485477
2025-04-22 16:43:36.243172000,2.837172119140625,0.176200031992793,-0.0651888037472963,0.1417776657733135
2025-04-22 16:43:36.253144300,2.847144287109375,0.0853045400589704,-0.0374275211185216,0.0493769934409298
2025-04-22 16:43:36.263117000,2.857116943359375,0.0659317310690879,-0.0343386151924729,-0.0135903896635398
2025-04-22 16:43:36.273089300,2.86708935546875,0.1346621529459953,-0.0525225066587328,-0.0272453324632719
2025-04-22 16:43:36.283061200,2.877061279296875,0.1920394061595201,-0.0428974769622087,-0.0343453737268224
2025-04-22 16:43:36.293034000,2.887033935546875,0.1974906573027372,-0.0478536380648612,-0.0449566014491021
2025-04-22 16:43:36.303006200,2.897006103515625,0.2071066269099712,-0.0713385585486888,-0.0032953882835805
2025-04-22 16:43:36.312978200,2.906978271484375,0.1580658248871564,-0.0865951643913984,-0.0209244954112917
2025-04-22 16:43:36.322951200,2.916951171875,0.0877507641673088,-0.0787432818472385,0.0622869813585653
2025-04-22 16:43:36.332923100,2.926923095703125,-0.0335877968251705,-0.0956590530738234,0.156046904546488
2025-04-22 16:43:36.342895400,2.936895263671875,-0.1488046600669622,-0.1293354049652814,0.0600629851661622
2025-04-22 16:43:36.352868000,2.9468681640625,-0.1603653340011835,-0.1139841065764427,0.0195537733136676
2025-04-22 16:43:36.362840000,2.956840087890625,-0.1689098749846219,-0.1013151791393756,-0.0737208505753427
2025-04-22 16:43:36.372813300,2.966813232421875,-0.1750099454253912,-0.0834457604497671,-0.1563605918718502
2025-04-22 16:43:36.382785800,2.976785888671875,-0.142753104943037,-0.0473620551556348,-0.1711588412215001
2025-04-22 16:43:36.392757800,2.9867578125,-0.1104571014940738,-0.0555704960525035,-0.1556635312520898
2025-04-22 16:43:36.402730800,2.996730712890625,-0.1026017118185758,-0.0809963214710354,-0.10059373299703
2025-04-22 16:43:36.412702700,3.00670263671875,-0.0631593437463045,-0.1043766125366091,-0.0368327518294565
2025-04-22 16:43:36.422675700,3.01667578125,-0.0690823040544986,-0.1097165122598409,-0.0181155206714756
2025-04-22 16:43:36.432648700,3.026648681640625,-0.0685866294920444,-0.1145730123803019,0.0084044018603861
2025-04-22 16:43:36.442620700,3.03662060546875,-0.0515641830205917,-0.1024699021324515,-0.0048147433379665
2025-04-22 16:43:36.452592600,3.046592529296875,-0.0238467395335435,-0.0978334745034575,-0.0130494877198711
2025-04-22 16:43:36.462565600,3.056565673828125,0.0076852938055992,-0.0879451176956295,-0.0377223393466323
2025-04-22 16:43:36.472537900,3.066537841796875,0.073828037276864,-0.0704787268489599,-0.0339574521214701
2025-04-22 16:43:36.482509600,3.076509521484375,0.1080015250355005,-0.0398448113933205,-0.0498846324358135
2025-04-22 16:43:36.492482600,3.086482666015625,0.1899286976158618,-0.0297501183584332,-0.0570824532517231
2025-04-22 16:43:36.502454800,3.096454833984375,0.2777636329352855,-0.0247431038513779,0.0075350899462588
2025-04-22 16:43:36.512427800,3.106427734375,0.2985392944604158,-0.0236056242540478,0.0452463599096052
2025-04-22 16:43:36.522399700,3.116399658203125,0.2927940288066863,-0.0422416434019803,0.0848539650135673
2025-04-22 16:43:36.532371700,3.126371826171875,0.2163999404340982,-0.050825055091083,0.1959970394778065
2025-04-22 16:43:36.542344700,3.1363447265625,0.0834013367861509,-0.063400751286745,0.1867556753366254
2025-04-22 16:43:36.552316700,3.146316650390625,-0.0700841745734214,-0.0416430929869413,0.1762962954415008
2025-04-22 16:43:36.562288600,3.15628857421875,-0.1995534350514411,-0.0156917823895812,0.1372580877233296
2025-04-22 16:43:36.572262000,3.166261962890625,-0.191616212311387,0.0128600660949945,0.1037160480023361
2025-04-22 16:43:36.582233600,3.176233642578125,-0.1310246732264757,0.0203553902864456,0.1056378098451532
2025-04-22 16:43:36.592205800,3.186205810546875,-0.0399772056013345,0.0027250410497188,0.0838136256477795
2025-04-22 16:43:36.602178600,3.196178466796875,0.07402209854424,0.0013116671204566,0.1137313191254623
2025-04-22 16:43:36.612150800,3.20615087890625,0.1609866807699203,-0.0018655016109347,0.1069267719434574
2025-04-22 16:43:36.622122800,3.216122802734375,0.1885159082084894,-0.0351379488766193,0.0858305184281431
2025-04-22 16:43:36.632095500,3.226095458984375,0.1452934370756149,-0.0313286197215318,0.0936337760576047
2025-04-22 16:43:36.642067700,3.236067626953125,0.0233054722636938,-0.0387058704912662,0.0955156442814506
2025-04-22 16:43:36.652040700,3.246040771484375,-0.0944780265957117,-0.0234960263997316,0.0426252176257781
2025-04-22 16:43:36.662012700,3.2560126953125,-0.2044797855377197,-0.006329787543416,-0.0313207469423301
2025-04-22 16:43:36.671984600,3.265984619140625,-0.2283954986542463,-0.0003705868780612,-0.0474142967995256
2025-04-22 16:43:36.681957600,3.27595751953125,-0.1459703134238719,-0.0208256381466984,-0.0859005331907421
2025-04-22 16:43:36.691929600,3.2859296875,-0.0347930809617042,-0.0707519908323884,-0.0863402397822588
2025-04-22 16:43:36.701901600,3.295901611328125,0.0804664523780345,-0.0971086673602461,-0.0333380415814928
2025-04-22 16:43:36.711874800,3.305874755859375,0.1722141772270202,-0.0993424177616834,-0.0226083203123882
2025-04-22 16:43:36.721846500,3.315846435546875,0.2100888575911521,-0.1270344345465302,-0.0140438873183913
2025-04-22 16:43:36.731818800,3.32581884765625,0.2026677676796913,-0.1091036410585045,-0.0907031111668795
2025-04-22 16:43:36.741791700,3.335791748046875,0.1329459966778755,-0.0802820357218384,-0.056666182334721
2025-04-22 16:43:36.751763500,3.345763427734375,-0.0073848495543003,-0.1097071599096059,-0.0192956338341347
2025-04-22 16:43:36.761735700,3.355735595703125,-0.1123188037127256,-0.0795800249323248,-0.105776031005755
2025-04-22 16:43:36.771708700,3.365708740234375,-0.1468704771339893,-0.0440031001165509,-0.1029236007167026
2025-04-22 16:43:36.781680600,3.3756806640625,-0.1235153205096721,-0.0528390252619981,-0.0777108700595796
2025-04-22 16:43:36.791653600,3.385653564453125,-0.0551502248138189,-0.0619131430774927,-0.0868304527183063
2025-04-22 16:43:36.801625900,3.3956259765625,0.078074588805437,-0.0612584785610437,-0.0670022281111218
2025-04-22 16:43:36.811597600,3.40559765625,0.1981879919171333,-0.0398237686052918,-0.048595231946092
2025-04-22 16:43:36.821570600,3.415570556640625,0.2755453723639249,-0.0492015455424785,-0.0700187446543946
2025-04-22 16:43:36.831542800,3.425542724609375,0.3618003450155257,-0.0738452806726098,0.0293385236165486
2025-04-22 16:43:36.841514500,3.435514404296875,0.4089806138634681,-0.1507236454308033,0.0890052942730486
2025-04-22 16:43:36.851487700,3.44548779296875,0.4120312336057424,-0.156408705329895,-0.0350493755440227
2025-04-22 16:43:36.861459700,3.455459716796875,0.3122796505212784,-0.1138493742808699,-0.0882444111694581
2025-04-22 16:43:36.871431700,3.465431640625,0.1318628776162862,-0.0414113300576806,-0.1440365323496982
2025-04-22 16:43:36.881404700,3.47540478515625,-0.0420195250838994,-0.0102729722112417,-0.0790534072423353
2025-04-22 16:43:36.891376600,3.485376708984375,-0.0709603728860616,-0.009048983374238,-0.0603496383541263
2025-04-22 16:43:36.901350000,3.495349853515625,-0.0402414094954729,0.0447597637027502,-0.177006507803779
2025-04-22 16:43:36.911321600,3.505321533203125,0.0325093539386987,0.0667395403206348,-0.1048534180018119
2025-04-22 16:43:36.921293800,3.5152939453125,0.0427156906545162,-0.0201256731837987,-0.0293516570927575
2025-04-22 16:43:36.931266800,3.525266845703125,-0.0199099846065044,-0.0727504711732268,0.0180438436747528
2025-04-22 16:43:36.941238500,3.535238525390625,-0.1166536180466413,-0.0456873999416828,0.051647806183435
2025-04-22 16:43:36.951210800,3.545210693359375,-0.2454804889678954,-0.0278580210015177,-0.0084001640766859
2025-04-22 16:43:36.961183700,3.555183837890625,-0.3866372646301984,-0.0254155962854623,-0.092042433479242
2025-04-22 16:43:36.971155700,3.56515576171875,-0.477989852681756,-0.015844927124679,-0.1401143356709741
2025-04-22 16:43:36.981128700,3.575128662109375,-0.4511275647193193,-0.0117687637269496,-0.1520337051160633
2025-04-22 16:43:36.991100700,3.5851005859375,-0.3556932603120804,-0.012888999928534,-0.1745550960636697
2025-04-22 16:43:37.001072600,3.59507275390625,-0.1942944916099309,-0.0104807697430253,-0.2099452113367617
2025-04-22 16:43:37.011045600,3.605045654296875,-0.0540893175840377,-0.0299994169443845,-0.1508109401217661
2025-04-22 16:43:37.021017900,3.615017822265625,0.0277203660964965,-0.0667880556374788,-0.0893823108918964
2025-04-22 16:43:37.030989600,3.624989501953125,0.0730254887223243,-0.0623021423950791,-0.0692837083781138
2025-04-22 16:43:37.040962800,3.634962890625,0.0874976661890745,-0.0570940523579716,0.0018219729964621
2025-04-22 16:43:37.050934800,3.644934814453125,0.0882581291675567,-0.0669151891484856,0.0395545049435459
2025-04-22 16:43:37.060906800,3.65490673828125,0.0754646985679864,-0.0600879734769463,0.0364630965331569
2025-04-22 16:43:37.070879700,3.664879638671875,0.1170978546828031,-0.0318622882068157,0.0316210085305385
2025-04-22 16:43:37.080851700,3.674851806640625,0.1089537111937999,-0.0430541288286447,0.026585151521489
2025-04-22 16:43:37.090824700,3.68482470703125,0.0816314045041799,-0.0515866871133446,0.0224826846387237
2025-04-22 16:43:37.100796700,3.694796630859375,0.1245557694733142,-0.0712362672179937,0.0312935118755325
2025-04-22 16:43:37.110769000,3.704768798828125,0.2286450895011424,-0.0826429196342825,0.0311790369166992
2025-04-22 16:43:37.120741600,3.71474169921875,0.3502361639499664,-0.0945382323503494,-0.0065507733503356
2025-04-22 16:43:37.130713600,3.724713623046875,0.4178805441558361,-0.0937502968430519,0.006957454455085
2025-04-22 16:43:37.140685800,3.734685791015625,0.3891980550289153,-0.1199383388057351,0.0841079141529276
2025-04-22 16:43:37.150658600,3.744658447265625,0.2890992659419775,-0.0882934927418827,0.0993781466621905
2025-04-22 16:43:37.160630800,3.754630859375,0.1113584342479705,-0.0155333769574761,0.0962513564111664
2025-04-22 16:43:37.170603800,3.764603759765625,-0.1197954232037067,0.0136471248194575,0.0401208153231069
2025-04-22 16:43:37.180575500,3.774575439453125,-0.3299836495161056,0.0569911765053868,0.063951772765629
2025-04-22 16:43:37.190547700,3.784547607421875,-0.5684335091948509,0.0853580238118767,0.1535577728781849
2025-04-22 16:43:37.200520700,3.794520751953125,-0.6968979765444994,0.0399339509814977,0.1434896025240421
2025-04-22 16:43:37.210492700,3.80449267578125,-0.4993097040861844,0.024138708217442,-0.0548852172020822
2025-04-22 16:43:37.220464600,3.814464599609375,-0.1195733048856258,-0.018446634055674,-0.1257747898742556
2025-04-22 16:43:37.230437600,3.824437744140625,0.1152823296934366,-0.1294046708092093,-0.0953884559715166
2025-04-22 16:43:37.240409600,3.83440966796875,0.2112672537207603,-0.1992778329804539,-0.0677532108752057
2025-04-22 16:43:37.250381800,3.8443818359375,0.1596288364201784,-0.1367825061008334,-0.0331281799567863
2025-04-22 16:43:37.260354800,3.854354736328125,0.0514893642187118,-0.1148684881955385,0.0352534650150686
2025-04-22 16:43:37.270326500,3.864326416015625,-0.0228337630987167,-0.1057154599249362,0.0641155850252136
2025-04-22 16:43:37.280299800,3.8742998046875,-0.0643833325833082,-0.0662692924603819,0.072532554106228
2025-04-22 16:43:37.290271700,3.884271728515625,-0.0761176095187664,-0.0259168238058686,0.0497516902385279
2025-04-22 16:43:37.300243700,3.89424365234375,-0.0615273586302995,-0.0183303141996264,0.0478425686815753
2025-04-22 16:43:37.310216700,3.904216796875,-0.0331377149701118,-0.0281572962090373,0.0061228667944669
2025-04-22 16:43:37.320188700,3.914188720703125,0.0052186114311218,-0.0080476973772048,-0.0179956754177808
2025-04-22 16:43:37.330160600,3.92416064453125,0.0940396351784467,-0.0082499419510364,0.014468670335412
2025-04-22 16:43:37.340133600,3.934133544921875,0.1767734479665756,-0.0239788414806127,0.0487074784152209
2025-04-22 16:43:37.350105900,3.94410595703125,0.2227542778968811,-0.0228559749305248,0.0908139876628294
2025-04-22 16:43:37.360078600,3.95407861328125,0.2227460945904255,-0.0264247733280062,0.1200362462222576
2025-04-22 16:43:37.370050600,3.964050537109375,0.1385182438522577,-0.0450274747282266,0.1524802067745476
2025-04-22 16:43:37.380022300,3.974022216796875,0.0780529614955186,-0.0433022583708167,0.1177699452580884
2025-04-22 16:43:37.389995300,3.983995361328125,0.0274421336770057,-0.0652390726298093,0.0520066660910844
2025-04-22 16:43:37.399967200,3.99396728515625,-0.0107850133866071,-0.0724061877802014,0.0363251128345727
2025-04-22 16:43:37.409940200,4.003940185546875,-0.0348743295043706,-0.1202607026278972,0.0929764994589611
2025-04-22 16:43:37.419912400,4.013912353515625,0.057138183760643,-0.1221849486887454,0.1670080964839085
2025-04-22 16:43:37.429884200,4.02388427734375,0.1454039117127656,-0.1024000517666339,0.1100655814258381
2025-04-22 16:43:37.439857200,4.033857177734375,0.0900742386788129,-0.0453977693453431,0.0910403072319924
2025-04-22 16:43:37.449829400,4.043829345703125,-0.0093839144170284,-0.029685236428678,0.0396010292327031
2025-04-22 16:43:37.459801000,4.053801025390625,-0.1006032314777374,-0.0307031812995672,0.1131450984690338
2025-04-22 16:43:37.469774300,4.0637744140625,-0.1650146211117505,-0.0363721668466925,0.162687201077491
2025-04-22 16:43:37.479746300,4.073746337890625,-0.2063444103658199,-0.0300882642716169,0.1686711708579212
2025-04-22 16:43:37.489719300,4.08371923828125,-0.2614098795056342,0.0396335067301988,0.1399048028398305
2025-04-22 16:43:37.499691300,4.093691162109375,-0.2345312249302863,0.0553083379849791,0.0671325582262128
2025-04-22 16:43:37.509663200,4.103663330078125,-0.166513335236907,0.0529188124999403,0.040215106010437
2025-04-22 16:43:37.519636500,4.113636474609375,-0.0555956304937601,0.0275254280462861,0.0299807853091508
2025-04-22 16:43:37.529608200,4.123608154296875,0.0166945296913385,-0.0142851304620504,0.0135497288595885
2025-04-22 16:43:37.539580400,4.133580322265625,0.1211889233887195,-0.0208104405775666,-0.0274921833638101
2025-04-22 16:43:37.549553400,4.143553466796875,0.2291331652790308,-0.011162030005455,0.0254034674562513
2025-04-22 16:43:37.559525400,4.153525390625,0.309011004114151,-0.0338081615775823,0.1250448681645095
2025-04-22 16:43:37.569498400,4.163498291015625,0.3684533731639385,-0.0602706365674734,0.1482163387849926
2025-04-22 16:43:37.579470000,4.173469970703125,0.3344061421334743,-0.0750596248984336,0.115800946740061
2025-04-22 16:43:37.589442300,4.1834423828125,0.3556663723051548,0.0164437698006629,0.0968069079346954
2025-04-22 16:43:37.599415300,4.193415283203125,0.3188362325578928,0.0248389654412865,0.1184939121510833
2025-04-22 16:43:37.609387300,4.20338720703125,0.184670923218131,-0.0411611546888947,0.1226857378177344
2025-04-22 16:43:37.619359200,4.213359130859375,0.0883972453773021,-0.0258224235206842,0.1830466099519282
2025-04-22 16:43:37.629332200,4.223332275390625,-0.0511988568395376,0.01524637670964,0.2045898217834532
2025-04-22 16:43:37.639304200,4.23330419921875,-0.1881874069064855,0.0386114702060818,0.1546120311714708
2025-04-22 16:43:37.649277200,4.243277099609375,-0.2312386131256818,0.0467708112642168,0.0963065571971237
2025-04-22 16:43:37.659249400,4.25324951171875,-0.2763952671915292,0.0685287618249654,0.1050322269011288
2025-04-22 16:43:37.669221000,4.26322119140625,-0.3721136492371559,0.0804240745410323,0.0854614841863513
2025-04-22 16:43:37.679194000,4.273194091796875,-0.3334679845005273,0.0249485632956027,-0.0392556863937526
2025-04-22 16:43:37.689166300,4.283166259765625,-0.1924544167011976,-0.0164861476376652,-0.0305044438570737
2025-04-22 16:43:37.699139300,4.293139404296875,-0.0409878439486026,-0.0167807466700673,-0.0009166033882647
2025-04-22 16:43:37.709111300,4.303111328125,0.0392132354915142,-0.0615922405600547,0.0818990424644201
2025-04-22 16:43:37.719083300,4.313083251953125,0.0462958872288465,-0.1451224644228816,0.0156895904324948
2025-04-22 16:43:37.729056300,4.32305615234375,0.0851391203641891,-0.0872834389165043,-0.0019778028789907
2025-04-22 16:43:37.739028200,4.3330283203125,0.0599041413426399,-0.1209086451426148,-0.0422495344474911
2025-04-22 16:43:37.749000200,4.343000244140625,0.0457481902182102,-0.1177776536405086,-0.0904635302573442
2025-04-22 16:43:37.758973400,4.352973388671875,0.0530862780213356,-0.0772691176414489,-0.1236291561476886
2025-04-22 16:43:37.768945200,4.362945068359375,0.0666559536904096,-0.0482516974717378,-0.1291062723845243
2025-04-22 16:43:37.778918100,4.372918212890625,0.1062134725749492,-0.0734212100416421,-0.0749439626295119
2025-04-22 16:43:37.788890400,4.382890380859375,0.1686152759522199,-0.0768862558037042,-0.007925751497969
2025-04-22 16:43:37.798862300,4.3928623046875,0.1713876632750034,-0.0984670962318778,0.0298979293312877
2025-04-22 16:43:37.808835300,4.40283544921875,0.1406575939685106,-0.0702674221858382,-0.025248788351193
2025-04-22 16:43:37.818807300,4.412807373046875,0.1185240880936384,-0.0684516049355268,-0.0187854375559836
2025-04-22 16:43:37.828780300,4.4227802734375,0.1266816755861043,-0.063281508821249,-0.0158745185453444
2025-04-22 16:43:37.838752300,4.432752197265625,0.0679804802924394,-0.0592141132518649,-0.0592658434391021
2025-04-22 16:43:37.848724500,4.442724365234375,0.04787468085289,-0.0526563621714711,-0.0983161434538662
2025-04-22 16:43:37.858697200,4.452697265625,-0.0192839616626501,-0.0120189390957355,-0.1260031918026506
2025-04-22 16:43:37.868669200,4.462669189453125,-0.0404898312985897,-0.0030289924323558,-0.0898907718706876
2025-04-22 16:43:37.878641400,4.472641357421875,-0.0906874021410942,0.0228185655295848,-0.0475377770487219
2025-04-22 16:43:37.888614100,4.4826142578125,-0.0575052635073661,-0.0043666707769036,-0.0193481129400432
2025-04-22 16:43:37.898586400,4.49258642578125,-0.0161029935389757,-0.0263160522565245,0.0078152768608182
2025-04-22 16:43:37.908559400,4.502559326171875,0.0649134939372539,-0.1000213399365544,0.0199980282161384
2025-04-22 16:43:37.918531000,4.512531005859375,0.1161158579081296,-0.105551793795824,0.0726882195919752
2025-04-22 16:43:37.928503300,4.52250341796875,0.0462146386861801,-0.1109592057973146,-0.0010264204382896
2025-04-22 16:43:37.938476300,4.532476318359375,-0.0653442865699529,-0.0822547970995307,-0.1596015830870717
2025-04-22 16:43:37.948448300,4.5424482421875,-0.1565051514416933,-0.007167115150392,-0.2010930657088756
2025-04-22 16:43:37.958421200,4.552421142578125,-0.1917512368679046,0.0636173166468739,-0.1974326435051858
2025-04-22 16:43:37.968393200,4.562393310546875,-0.108448099759221,0.0299880187675356,-0.0825276226915419
2025-04-22 16:43:37.978365200,4.572365234375,0.0171644852906465,-0.0149658062025904,0.0223298686971887
2025-04-22 16:43:37.988338200,4.582338134765625,0.0999503205269575,-0.0140960376307368,0.0483844570059329
2025-04-22 16:43:37.998310400,4.592310302734375,0.1075695633590221,-0.0490863947302103,-0.0023282237518578
2025-04-22 16:43:38.008283400,4.602283447265625,0.1255938803493976,-0.0614972557529807,0.0110321565480902
2025-04-22 16:43:38.018255400,4.61225537109375,0.1082704051047563,-0.0575134468138217,0.0405992099571973
2025-04-22 16:43:38.028227300,4.622227294921875,0.0544587354183197,-0.0913116715192794,-0.0103338355530053
2025-04-22 16:43:38.038200300,4.632200439453125,0.0405073669552803,-0.0508896447598934,-0.0349720907904207
2025-04-22 16:43:38.048172300,4.64217236328125,0.0985258406817913,-0.0452639138326048,-0.0436818322729319
2025-04-22 16:43:38.058144300,4.652144287109375,0.2036947726398706,-0.0464019779518246,-0.0288231397066265
2025-04-22 16:43:38.068117500,4.662117431640625,0.2154331412285566,-0.0055514966472983,-0.0326628639999777
2025-04-22 16:43:38.078089200,4.672089111328125,0.1799187602549791,0.0053340545043349,-0.0197960028380155
2025-04-22 16:43:38.088062200,4.682062255859375,0.1545014104038476,0.0074514850497245,-0.0382865491006523
2025-04-22 16:43:38.098034400,4.692034423828125,0.0987245781242847,0.0024535306319594,-0.0082111443106085
2025-04-22 16:43:38.108007200,4.702007080078125,0.0263572610497474,-0.0077723875671625,0.0709800274346023
2025-04-22 16:43:38.117979400,4.7119794921875,-0.0683820468306541,0.0012497078001499,0.0233510649710893
2025-04-22 16:43:38.127951400,4.721951416015625,-0.1417874747812748,0.0035123920351266,-0.0550786939475685
2025-04-22 16:43:38.137924000,4.731924072265625,-0.186431503149867,0.0184577399715781,-0.0654429246388375
2025-04-22 16:43:38.147896300,4.741896240234375,-0.2005857007086277,0.0306461904153227,-0.0861518045380711
2025-04-22 16:43:38.157868300,4.751868408203125,-0.1145358952403068,0.0121843587905168,-0.06621456659846
2025-04-22 16:43:38.167841300,4.76184130859375,0.0149210902780294,-0.0067164487734436,-0.055163084295392
2025-04-22 16:43:38.177813200,4.771813232421875,0.0923509514391422,-0.0234761526554822,-0.0125822720669209
2025-04-22 16:43:38.187786200,4.7817861328125,0.0992372038215398,-0.0337093773782253,0.0328333251960575
2025-04-22 16:43:38.197758200,4.79175830078125,0.0190717802166938,-0.0566658900737762,0.0265704654090106
2025-04-22 16:43:38.207730200,4.801730224609375,-0.0922843159437179,-0.0497457354217767,0.0689059976395219
2025-04-22 16:43:38.217703400,4.811703369140625,-0.173135968247056,-0.0376809113577008,0.0323472952447831
2025-04-22 16:43:38.227675100,4.821675048828125,-0.2050403420299291,-0.0425707292258739,-0.0298018485456705
2025-04-22 16:43:38.237648100,4.831648193359375,-0.1755108806848526,-0.0403369788244366,-0.069050886002928
2025-04-22 16:43:38.247620400,4.841620361328125,-0.0782522834599018,-0.0532040591821074,-0.0740335697863251
2025-04-22 16:43:38.257592300,4.85159228515625,0.0253647428810596,-0.0372334598511457,-0.0258715233594179
2025-04-22 16:43:38.267565300,4.8615654296875,0.1117190842539072,-0.0294654561981558,-0.0113057493250817
2025-04-22 16:43:38.277537300,4.871537353515625,0.1848281596064567,-0.0210194071531295,0.0666406830560416
2025-04-22 16:43:38.287510300,4.88151025390625,0.2273164712458849,-0.0452042925998568,0.1174040710877627
2025-04-22 16:43:38.297482200,4.891482177734375,0.2829056719988584,-0.0850587486043572,0.1032768346011638
2025-04-22 16:43:38.307454500,4.901454345703125,0.3001256868690252,-0.107220896051824,0.1396952517423778
2025-04-22 16:43:38.317427200,4.91142724609375,0.2465998483866453,-0.1134296875640749,0.1115727345857769
2025-04-22 16:43:38.327399200,4.921399169921875,0.1539987215787172,-0.0970838251799345,0.0377291344135999
2025-04-22 16:43:38.337372400,4.931372314453125,0.0394487978130579,-0.0752601159065961,-0.003953340735659
2025-04-22 16:43:38.347344100,4.94134423828125,-0.0705173052936792,-0.0593839168608188,-0.0157557875365018
2025-04-22 16:43:38.357316400,4.95131640625,-0.1156219369113445,-0.0839206844851374,-0.0304617737591266
2025-04-22 16:43:38.367289300,4.961289306640625,0.0022860651105642,-0.0860161954596638,-0.0019882512077689
2025-04-22 16:43:38.377261000,4.971260986328125,0.1164525425165891,-0.0950394598707556,0.039937165851891
2025-04-22 16:43:38.387234600,4.981234619140625,0.1675941162109374,-0.1530643633380532,0.0489182716216892
2025-04-22 16:43:38.397206500,4.99120654296875,0.1464969676464796,-0.1520055019348859,0.0414389487169682
2025-04-22 16:43:38.407178500,5.001178466796875,0.0325064313292503,-0.1268655077204108,0.0560324875410646
2025-04-22 16:43:38.417151500,5.0111513671875,-0.0544295093238353,-0.1238566812932491,0.0023644641090184
2025-04-22 16:43:38.427123500,5.02112353515625,-0.1383843883395195,-0.157719787928462,-0.039662002172321
2025-04-22 16:43:38.437096400,5.031096435546875,-0.3068430124253034,-0.1812511779025196,-0.0659516778785735
2025-04-22 16:43:38.447068400,5.041068359375,-0.3871908068597317,-0.2898988918870687,-0.161132811242342
2025-04-22 16:43:38.457040600,5.05104052734375,-0.4801262801885604,-0.2879118097230791,-0.2165554963219911
2025-04-22 16:43:38.467013400,5.061013427734375,-0.4480336903572082,-0.240000011730194,-0.206435961106792
2025-04-22 16:43:38.476985300,5.0709853515625,-0.348541634991765,-0.1963821115389466,-0.1571460796937346
2025-04-22 16:43:38.486958600,5.08095849609375,-0.2753197469145059,-0.1501437997162342,-0.1018788774367421
2025-04-22 16:43:38.496930300,5.090930419921875,-0.2520674661427736,-0.0791580001279711,-0.1065922427594661
2025-04-22 16:43:38.506902500,5.100902587890625,-0.2807920408457517,-0.0175654673069715,-0.078477287854813
2025-04-22 16:43:38.516875500,5.11087548828125,-0.3002034282803535,0.0340855172142386,-0.0161094598123803
2025-04-22 16:43:38.526847500,5.120847412109375,-0.2215437330633402,0.0479649894848465,-0.0082193276170641
2025-04-22 16:43:38.536820500,5.130820556640625,-0.0513765514940023,0.0345087110623717,0.0060964171789586
2025-04-22 16:43:38.546792400,5.14079248046875,0.1550298181921243,0.005479308193922,0.0029203078934922
2025-04-22 16:43:38.556765400,5.150765380859375,0.3403875546306371,0.0061050388768315,0.001838577071391
2025-04-22 16:43:38.566737400,5.1607373046875,0.3914858737051487,0.0561886279508471,0.0057930868508294
2025-04-22 16:43:38.576709600,5.170709716796875,0.313893515458703,0.062348904146254,0.0253910828987136
2025-04-22 16:43:38.586682600,5.1806826171875,0.2311462586671114,0.086250880998373,0.033912023810856
2025-04-22 16:43:38.596654300,5.190654296875,0.2426169162303209,0.1021793947532773,0.0407116573557257
2025-04-22 16:43:38.606627600,5.200627685546875,0.3401706970095634,0.0849254776135087,0.0367666460569947
2025-04-22 16:43:38.616599600,5.210599609375,0.4264660016715526,0.0734808312743902,0.0481292401358485
2025-04-22 16:43:38.626571500,5.220571533203125,0.4539098889142274,0.0293444601669907,0.049311216462031
2025-04-22 16:43:38.636544500,5.23054443359375,0.4003086471080779,0.0249511936441063,0.015617219316028
2025-04-22 16:43:38.646516500,5.2405166015625,0.2899012299746275,0.0505389316260814,0.0288473608324304
2025-04-22 16:43:38.656489500,5.250489501953125,0.186548992049694,0.0552180293530225,0.0251695491025224
2025-04-22 16:43:38.666461400,5.26046142578125,0.1041775828331708,0.0390253117039799,-0.0028219986181706
2025-04-22 16:43:38.676433400,5.270433349609375,0.0644780251294374,0.029483868637681,-0.0124383335515856
2025-04-22 16:43:38.686406400,5.280406494140625,0.0819458772808313,-0.0043207858085632,-0.0219630081461742
2025-04-22 16:43:38.696378400,5.29037841796875,0.0974251859635114,-0.0260541864499449,-0.0387699487034231
2025-04-22 16:43:38.706351600,5.3003515625,0.1111404075831174,-0.0503039538264274,-0.0345546325633302
2025-04-22 16:43:38.716323300,5.3103232421875,0.1332405957102775,-0.0582432223930954,-0.0626650574233382
2025-04-22 16:43:38.726295600,5.320295654296875,0.115177115753293,-0.0504088755056262,-0.0459316204937174
2025-04-22 16:43:38.736268500,5.3302685546875,0.0772340463280677,-0.037145197045803,-0.0404592900298535
2025-04-22 16:43:38.746240300,5.340240234375,-0.0003074585139751,-0.0183195005446672,-0.0761065766680985
2025-04-22 16:43:38.756213500,5.350213623046875,-0.0663303749978542,-0.0134787825152277,-0.0790712716925889
2025-04-22 16:43:38.766185500,5.360185546875,-0.034161212798953,-0.0510796143740415,-0.0854999895658343
2025-04-22 16:43:38.776158200,5.370158203125,0.0366933616250753,-0.076601301382482,-0.0875005157332867
2025-04-22 16:43:38.786130400,5.38013037109375,0.0833463917285203,-0.0850663473889231,-0.0955048854254186
2025-04-22 16:43:38.796102400,5.390102294921875,0.0840969178348779,-0.0891010097324848,-0.0851632684247568
2025-04-22 16:43:38.806075400,5.400075439453125,0.0936304698556661,-0.088940266212821,-0.0422480000775307
2025-04-22 16:43:38.816047400,5.41004736328125,0.0872615193456411,-0.0758364544898271,-0.0567969691075384
2025-04-22 16:43:38.826020400,5.420020263671875,0.0349456411749124,-0.0641319881707429,-0.0807852360036224
2025-04-22 16:43:38.835992300,5.429992431640625,-0.0788251149117946,-0.0533984127104282,-0.0408013084005564
2025-04-22 16:43:38.845964500,5.439964599609375,-0.145953362289071,-0.0692117756530642,-0.0285446150261908
2025-04-22 16:43:38.855937500,5.4499375,-0.1640051518082618,-0.0620703794658184,-0.0201571643006056
2025-04-22 16:43:38.865909200,5.4599091796875,-0.1307370884567499,-0.0477709282174706,-0.027388869119808
2025-04-22 16:43:38.875882500,5.469882568359375,-0.0631254414767026,-0.0646381841272115,-0.0255785317622125
2025-04-22 16:43:38.885854500,5.4798544921875,0.0562631544917821,-0.0845540139526128,0.0106726390533149
2025-04-22 16:43:38.895826400,5.489826416015625,0.1235708500891923,-0.0751192461311817,0.0077620123036205
2025-04-22 16:43:38.905799400,5.49979931640625,0.1446919640511274,-0.0822755476266145,0.0003749707922339
2025-04-22 16:43:38.915771400,5.509771484375,0.100346626368165,-0.0861412831440568,-0.0067720514182001
2025-04-22 16:43:38.925744600,5.51974462890625,0.0559212091863155,-0.1012640334740281,0.0276091608069837
2025-04-22 16:43:38.935716400,5.52971630859375,0.0325841727405786,-0.0726543173223733,0.0459898900195956
2025-04-22 16:43:38.945689300,5.539689453125,-0.0136281278580427,-0.0589130844786763,0.0366851052533835
2025-04-22 16:43:38.955661600,5.54966162109375,-0.1930851158201694,-0.0555018147304654,0.0475658340994268
2025-04-22 16:43:38.965633300,5.55963330078125,-0.377478975662589,-0.0465349566817283,0.100981563270837
2025-04-22 16:43:38.975606500,5.5696064453125,-0.4163707241147756,-0.033577567692101,0.0721208680327981
2025-04-22 16:43:38.985578500,5.57957861328125,-0.3095189536362886,-0.0868392022803425,-0.0468677688326686
2025-04-22 16:43:38.995551200,5.58955126953125,-0.5905699376791715,-0.0645797319382429,0.1581598233135417
2025-04-22 16:43:39.005523500,5.5995234375,-0.9266893134713172,0.0082145783767104,0.1180252717260271
2025-04-22 16:43:39.015495400,5.609495361328125,-0.9663847795218228,0.0935018750399351,0.0647378451094031
2025-04-22 16:43:39.025468400,5.619468505859375,-0.8503875795572996,0.1471612767741084,0.0407989337803795
2025-04-22 16:43:39.035440400,5.6294404296875,-0.5232862074792385,0.1188128419071435,0.0627470366183668
2025-04-22 16:43:39.045413400,5.639413330078125,-0.0978466262459754,-0.0957291957005858,0.0628538214610889
2025-04-22 16:43:39.055385300,5.64938525390625,0.4533329658091068,0.0078670801132917,0.1240019349828362
2025-04-22 16:43:39.065358300,5.6593583984375,0.8145785995513201,-0.170618140207231,0.013348214938119
2025-04-22 16:43:39.075330600,5.66933056640625,0.8547580497264862,-0.2534709031999111,-0.0327248963855206
2025-04-22 16:43:39.085302300,5.67930224609375,0.7430728677421807,-0.2153507236421108,0.0467704459380358
2025-04-22 16:43:39.095275500,5.689275634765625,0.5098422040164471,-0.151910224866867,0.0453046111691743
2025-04-22 16:43:39.105247500,5.69924755859375,0.3357335913449525,-0.0585650016933679,-0.0003998860377818
2025-04-22 16:43:39.115220500,5.709220458984375,0.237221194666624,0.0050999534875154,-0.0159853585086762
2025-04-22 16:43:39.125192400,5.7191923828125,0.2962637507438659,0.0314317878350615,-0.0171510412871837
2025-04-22 16:43:39.135165400,5.72916552734375,0.3384551252633333,0.0517211271479725,-0.0071725950431078
2025-04-22 16:43:39.145137700,5.7391376953125,0.3850374282181262,-0.0037464930519461,0.0647325113471597
2025-04-22 16:43:39.155109400,5.749109375,0.4736024313777685,-0.0421294151991605,0.0447816102083772
2025-04-22 16:43:39.165082400,5.759082275390625,0.6107382809609174,-0.0398316596508026,0.0426939172141253
2025-04-22 16:43:39.175054600,5.7690546875,0.6170832660734653,-0.0629541765630245,0.059524677038379
2025-04-22 16:43:39.185027300,5.77902734375,0.5377361731141805,-0.1038002739533782,0.061493565958552
2025-04-22 16:43:39.194999600,5.78899951171875,0.4728922372817993,-0.1348681969121098,-0.0163881306232884
2025-04-22 16:43:39.204971500,5.798971435546875,0.2501940734863281,-0.1093482634693384,-0.0197922399783507
2025-04-22 16:43:39.214944300,5.8089443359375,0.014673837518692,-0.0437938412800431,-0.0461710918053984
2025-04-22 16:43:39.224916500,5.81891650390625,-0.1863876640081405,-0.0018497195199131,-0.0451709017869085
2025-04-22 16:43:39.234889500,5.828889404296875,-0.282835529372096,0.0365150824487209,0.0121505661187693
2025-04-22 16:43:39.244861400,5.838861328125,-0.2656312965929508,0.0345887905612587,0.0680066376470029
2025-04-22 16:43:39.254834400,5.84883447265625,-0.2465209379315376,-0.0047638534009456,0.0903538228051736
2025-04-22 16:43:39.264806400,5.858806396484375,-0.2270300555199384,-0.030466742195189,0.1506338117228821
2025-04-22 16:43:39.274778400,5.8687783203125,-0.2192173359423875,-0.0587877045333385,0.1765973972799256
2025-04-22 16:43:39.284751400,5.87875146484375,-0.2009948660314083,-0.0691141604974865,0.0912351722169667
2025-04-22 16:43:39.294723600,5.8887236328125,-0.1803898848980665,-0.070111062580347,-0.050946708709374
2025-04-22 16:43:39.304696600,5.898696533203125,-0.1239133799165487,-0.0483624643698334,-0.1231224852671846
2025-04-22 16:43:39.314668500,5.90866845703125,-0.0470043277591466,-0.0126560679554939,-0.2020249397315084
2025-04-22 16:43:39.324641500,5.9186416015625,0.0256856453984975,0.0071668228894472,-0.2367930323824286
2025-04-22 16:43:39.334613200,5.92861328125,0.068809332332015,0.0113560912728309,-0.180900903160125
2025-04-22 16:43:39.344585500,5.93858544921875,0.1160235034495592,-0.0264089912369847,-0.1409838302481919
2025-04-22 16:43:39.354558500,5.948558349609375,0.175220957827568,-0.0841702753320336,-0.0545625245863571
2025-04-22 16:43:39.364530400,5.958530517578125,0.1779740559279918,-0.0937473742336034,-0.0408606008397415
2025-04-22 16:43:39.374503400,5.96850341796875,0.1453787772715091,-0.0663300827369093,-0.038559886149317
2025-04-22 16:43:39.384475100,5.97847509765625,0.0864005186021328,-0.0524471033349633,-0.0652434930766001
2025-04-22 16:43:39.394448100,5.9884482421875,0.1183002162098884,-0.0349625923097133,-0.0927592399790883
2025-04-22 16:43:39.404420000,5.998420166015625,0.1158405480980873,-0.0743655051544308,-0.0139986416708678
2025-04-22 16:43:39.414392300,6.008392333984375,0.1083767880886793,-0.0914276991143822,0.0588193783132359
2025-04-22 16:43:39.424365000,6.018364990234375,0.1579705478191375,-0.0790004714787006,0.0995723175274208
2025-04-22 16:43:39.434337000,6.0283369140625,0.2356757187902927,-0.0565659368306398,0.0391872973326593
2025-04-22 16:43:39.444310300,6.038310302734375,0.2182189725548028,-0.0468503062412142,0.0526405435478314
2025-04-22 16:43:39.454282000,6.048281982421875,0.1261480071008205,-0.0481233949169516,0.1183855564057826
2025-04-22 16:43:39.464255000,6.0582548828125,0.0462514635652303,-0.0440022233337163,0.1567744333697482
2025-04-22 16:43:39.474227200,6.068227294921875,0.0118891752362251,-0.0405725411459803,0.1364137458536773
2025-04-22 16:43:39.484199200,6.07819921875,0.0318231252402067,-0.0152118899181485,0.111521150529012
2025-04-22 16:43:39.494172200,6.088172119140625,0.0548205544680356,-0.019090192656219,0.1209045900220051
2025-04-22 16:43:39.504144100,6.09814404296875,0.0343564431101083,-0.0277098447024822,0.0978951780954375
2025-04-22 16:43:39.514117000,6.1081171875,0.0423012646347284,-0.0171329211086034,0.0876132188601419
2025-04-22 16:43:39.524089000,6.118089111328125,0.1137719251304864,-0.0164084062263369,0.0924106092045083
2025-04-22 16:43:39.534062000,6.12806201171875,0.1412684193432331,-0.0196931269854307,0.0679423767717555
2025-04-22 16:43:39.544034300,6.138034423828125,0.1259235506951808,-0.0374038479819893,0.0823178523983806
2025-04-22 16:43:39.554006000,6.148006103515625,0.089870825061202,-0.0648830987989902,0.1260888242594897
2025-04-22 16:43:39.563979300,6.157979248046875,0.0166097740173339,-0.0930354265719652,0.1448450357209891
2025-04-22 16:43:39.573951200,6.167951171875,-0.0354039063364267,-0.1040463576689362,0.0931272695738822
2025-04-22 16:43:39.583924000,6.177924072265625,-0.0632400077670812,-0.0262564310237765,0.0759787125047296
2025-04-22 16:43:39.593896200,6.187896240234375,-0.1521563085824251,0.0579924625024199,0.021462840071693
2025-04-22 16:43:39.603869200,6.197869140625,-0.1295031627476215,0.1015638932034373,-0.161892178242281
2025-04-22 16:43:39.613841200,6.207841064453125,0.1428787771493196,0.1256754211530089,-0.5248603249281645
2025-04-22 16:43:39.623813000,6.217813232421875,0.1150929446011781,0.2039779734954238,-0.2786804555192589
2025-04-22 16:43:39.633786000,6.2277861328125,-0.1362707571864128,0.21237755305022,-0.1872425638044252
2025-04-22 16:43:39.643758000,6.237758056640625,-0.1620341439962387,0.1764288723126053,-0.0495000170323997
2025-04-22 16:43:39.653731000,6.24773095703125,-0.1808025573521852,0.1404831141844391,0.150432443931885
2025-04-22 16:43:39.663703300,6.257703369140625,-0.0665776277571916,0.0908960764557123,0.132839102237299
2025-04-22 16:43:39.673676300,6.26767626953125,0.0861123493105173,0.0013131284251809,0.017357706307806
2025-04-22 16:43:39.683648000,6.27764794921875,0.2432394320428371,0.073000062020123,-0.0215106247361749
2025-04-22 16:43:39.693621200,6.287621337890625,0.3348153074562549,0.0795066674351692,-0.0422689332677051
2025-04-22 16:43:39.703593200,6.29759326171875,0.3619417993128299,0.0763151779174804,-0.0560821719016879
2025-04-22 16:43:39.713565200,6.307565185546875,0.364302683225274,0.0725303986817598,0.0536678042363375
2025-04-22 16:43:39.723538200,6.3175380859375,0.2752957815170287,0.0396150942906737,0.1039217814411967
2025-04-22 16:43:39.733510100,6.32751025390625,0.2318763265073299,0.0629582682162523,0.0321162629678845
2025-04-22 16:43:39.743483100,6.337483154296875,0.0955289969533681,0.0717325263023376,0.0415665206193923
2025-04-22 16:43:39.753455000,6.347455078125,-0.0316290639728307,0.0089794252693653,0.0538119254147633
2025-04-22 16:43:39.763428000,6.357427978515625,0.0575257217735052,-0.0722416448682546,0.0929897607993334
2025-04-22 16:43:39.773400000,6.367400146484375,0.0712830289691686,-0.0955509165242314,0.0659166796304285
2025-04-22 16:43:39.783372300,6.377372314453125,0.0763502492308616,-0.1697089164078235,0.0829344499267637
2025-04-22 16:43:39.793345300,6.38734521484375,0.0695265406906604,-0.1803863777667284,-0.0206710686394944
2025-04-22 16:43:39.803317000,6.39731689453125,0.016855857732892,-0.1813917554169893,0.0055782019911333
2025-04-22 16:43:39.813290200,6.407290283203125,0.0165600896567106,-0.2228983625426888,0.0536543602328747
2025-04-22 16:43:39.823262200,6.41726220703125,0.0769657507807016,-0.2577352826461195,0.1147249880716204
2025-04-22 16:43:39.833235200,6.427235107421875,0.1258762044221162,-0.3294230930238962,0.1852110214442014
2025-04-22 16:43:39.843207200,6.437207275390625,0.0717062228173017,-0.3667249419361352,0.205544199898839
2025-04-22 16:43:39.853180200,6.44718017578125,-0.0474076478630304,-0.3540317568406462,0.2375413299990817
2025-04-22 16:43:39.863152400,6.45715234375,-0.1976543234318494,-0.3044315673694014,0.2540700381368398
2025-04-22 16:43:39.873124000,6.4671240234375,-0.2440390579879283,-0.2335410448491573,0.1698242133505642
2025-04-22 16:43:39.883097000,6.47709716796875,-0.2243330715209245,-0.175265673752129,0.0897221007728949
2025-04-22 16:43:39.893069300,6.4870693359375,-0.1851911476999521,-0.135528122125566,0.0966596084184944
2025-04-22 16:43:39.903042000,6.4970419921875,-0.0952764834970235,-0.1062386070162057,0.1330596861854195
2025-04-22 16:43:39.913014300,6.50701416015625,0.0288052387237548,-0.0733648036792874,0.127546950645931
2025-04-22 16:43:39.922987300,6.5169873046875,0.0987193174272775,-0.0493757330656051,0.0611447159882634
2025-04-22 16:43:39.932959000,6.526958984375,0.1302548578977584,-0.0067395373880863,0.0907003346879035
2025-04-22 16:43:39.942932200,6.53693212890625,0.102832597965002,0.0330184725046157,0.1456154721042141
2025-04-22 16:43:39.952904200,6.546904296875,0.0750625475078821,0.0433919824808835,0.1608882253641262
2025-04-22 16:43:39.962876200,6.556876220703125,0.0143482588261365,0.0521592263042926,0.0701257121602073
2025-04-22 16:43:39.972849200,6.56684912109375,0.010166004705429,0.0031450200274586,-0.0860476135112345
2025-04-22 16:43:39.982821000,6.576821044921875,0.0573714079946279,-0.0567939003676176,-0.1041596818502992
2025-04-22 16:43:39.992794000,6.586794189453125,0.0892266819387674,-0.1367027188628911,-0.0731255880959332
2025-04-22 16:43:40.002766000,6.59676611328125,0.1143663838922977,-0.1762415330469608,-0.1031069944595918
2025-04-22 16:43:40.012739000,6.606739013671875,0.1168283900916576,-0.0347764220878481,-0.2580608978712931
2025-04-22 16:43:40.022711000,6.6167109375,0.0522919127732515,-0.0036681671187281,-0.3007484584098681
2025-04-22 16:43:40.032684000,6.62668408203125,-0.1172159281045198,-0.0434986577257514,-0.1899313644969835
2025-04-22 16:43:40.042656300,6.63665625,-0.252842542168498,-0.0635933512493968,0.0299599251842126
2025-04-22 16:43:40.052628000,6.6466279296875,-0.2022451583534479,-0.0543415387794375,0.0826165796166285
2025-04-22 16:43:40.062601200,6.656601318359375,-0.1038169328272342,-0.0275900177150964,0.0846628446219489
2025-04-22 16:43:40.072573200,6.6665732421875,0.0138935007959604,0.0144116794511675,0.0206769138583913
2025-04-22 16:43:40.082546200,6.676546142578125,0.1253162324517965,0.0074009239062666,-0.0634236937709152
2025-04-22 16:43:40.092518100,6.68651806640625,0.0903553937077522,0.0135869190648198,-0.1109952269587665
2025-04-22 16:43:40.102491100,6.6964912109375,0.1188239478230476,0.0443231258511543,-0.0711253176568076
2025-04-22 16:43:40.112463400,6.70646337890625,0.1880395228683948,0.026701252181828,-0.0619753946587443
2025-04-22 16:43:40.122436000,6.71643603515625,0.2626777074843645,0.006031389118731,-0.0439517717881128
2025-04-22 16:43:40.132408000,6.726407958984375,0.2646492998182773,-0.032805414275825,0.0064375587668269
2025-04-22 16:43:40.142380300,6.73638037109375,0.2958902412563562,-0.0272609318912029,-0.0195319085417315
2025-04-22 16:43:40.152353000,6.74635302734375,0.3264122207701206,-0.0040764556586742,-0.079074450030364
2025-04-22 16:43:40.162325200,6.7563251953125,0.2747369785904884,0.0098328272283077,-0.115999538052082
2025-04-22 16:43:40.172298200,6.76629833984375,0.2189566391795873,0.013944646461308,-0.1202742562292143
2025-04-22 16:43:40.182270000,6.77627001953125,0.1905313396841287,-0.0573331218108534,-0.0774599275058135
2025-04-22 16:43:40.192243200,6.7862431640625,0.1880488752186298,-0.1016989177599549,-0.1843761415226384
2025-04-22 16:43:40.202215200,6.796215087890625,0.142900404459238,-0.0807069831356406,-0.2661405247567221
2025-04-22 16:43:40.212188200,6.806188232421875,0.0868003315746784,-0.0731692811071872,-0.3102381712889299
2025-04-22 16:43:40.222160100,6.81616015625,-0.0449374583572149,-0.0524152468919754,-0.3235927063699811
2025-04-22 16:43:40.232132000,6.826132080078125,-0.18055121293962,-0.0327273806035518,-0.2284406529702246
2025-04-22 16:43:40.242105300,6.836105224609375,-0.3233095785796642,-0.0510372365370392,-0.109539803986065
2025-04-22 16:43:40.252077000,6.8460771484375,-0.4113163633346557,-0.0965609703496098,-0.0681204367524012
2025-04-22 16:43:40.262050000,6.856050048828125,-0.3931698812693357,-0.1157695286884903,-0.0848496724309399
2025-04-22 16:43:40.272022300,6.866022216796875,-0.298164031407237,-0.1134340714782476,-0.0818758807845413
2025-04-22 16:43:40.281995000,6.8759951171875,-0.1803144815742969,-0.1380696233019232,-0.0995923008695244
2025-04-22 16:43:40.291967200,6.88596728515625,-0.1275993749529123,-0.145145845298469,-0.0943295215031132
2025-04-22 16:43:40.301940200,6.895940185546875,-0.1509054317384958,-0.1402569042131304,-0.0496430056996643
2025-04-22 16:43:40.311912000,6.905911865234375,-0.1935363667190074,-0.1199924070805311,-0.042039800686948
2025-04-22 16:43:40.321885200,6.91588525390625,-0.186666480949521,-0.0481777554526925,-0.0250916980933398
2025-04-22 16:43:40.331857200,6.925857177734375,-0.1808376286655664,-0.0356312853515148,0.0148808313328772
2025-04-22 16:43:40.341829000,6.9358291015625,-0.1240203474223613,-0.0490717816829681,0.0477692477170377
2025-04-22 16:43:40.351802000,6.945802001953125,-0.0211117616117,-0.076854983882606,0.1411053012033924
2025-04-22 16:43:40.361774000,6.955774169921875,0.0803162302523851,-0.0981108301401138,0.2210048038810491
2025-04-22 16:43:40.371747300,6.965747314453125,0.1819879677444696,-0.0618108517467975,0.1859637395076453
2025-04-22 16:43:40.381719800,6.9757197265625,0.2943511951208114,-0.0533978281885385,0.0533679810395464
2025-04-22 16:43:40.391692800,6.98569287109375,0.1793523585438728,-0.1228603637322783,0.0367511927595362
2025-04-22 16:43:40.401665000,6.9956650390625,-0.0078320087999105,-0.0093660864993929,-0.0397371497677639
2025-04-22 16:43:40.411637800,7.0056376953125,-0.0557294860064983,0.0570484596505761,-0.1884927099959924
2025-04-22 16:43:40.421610000,7.01560986328125,-0.1583873119264841,0.1408075238332152,-0.2183705098547041
2025-04-22 16:43:40.431583000,7.0255830078125,-0.2414414427101611,0.1512348098233342,-0.2132467371001839
2025-04-22 16:43:40.441554700,7.0355546875,-0.3611772446811199,0.1442173322767019,-0.1323198641361668
2025-04-22 16:43:40.451527000,7.04552685546875,-0.413427071878314,0.1074856844678521,-0.010510141967982
2025-04-22 16:43:40.461500000,7.0555,-0.357622182548046,0.0205649413838982,0.1103902468029409
2025-04-22 16:43:40.471471900,7.065471923828125,-0.2200450189381837,-0.063542497844994,0.2097042421877384
2025-04-22 16:43:40.481444900,7.07544482421875,-0.0475508557260036,-0.1517608795240521,0.2435768473036587
2025-04-22 16:43:40.491416800,7.085416748046875,0.09934884750247,-0.1511298881441354,0.2013181066364049
2025-04-22 16:43:40.501390000,7.09539013671875,0.1759217995733022,-0.1121136365294456,0.1229234190311282
2025-04-22 16:43:40.511361800,7.10536181640625,0.2074345436900854,-0.0759267631217837,0.0555924521559849
2025-04-22 16:43:40.521334800,7.115334716796875,0.1783183393210172,-0.0108308983549475,0.0043219913849607
2025-04-22 16:43:40.531307000,7.12530712890625,0.0890174231022596,0.0508081039562821,-0.0178784422462806
2025-04-22 16:43:40.541279700,7.13527978515625,-0.0122644382894039,0.0860679256469011,0.0951644744899123
2025-04-22 16:43:40.551252000,7.145251953125,-0.0783908151477575,0.0665709057554602,0.2263159524338319
2025-04-22 16:43:40.561225000,7.155224853515625,-0.0912175634950399,0.0020925883650779,0.3823927954608574
2025-04-22 16:43:40.571196700,7.16519677734375,-0.0090045597106218,-0.066589902716875,0.3796513877982273
2025-04-22 16:43:40.581169000,7.1751689453125,0.1120920092195272,-0.0521036967247724,0.3057179904507472
2025-04-22 16:43:40.591142000,7.185141845703125,0.1537783568263054,-0.0892100230649113,0.256913043010421
2025-04-22 16:43:40.601113900,7.19511376953125,0.1648082848846912,-0.0500032173141837,0.1110651503898203
2025-04-22 16:43:40.611086800,7.2050869140625,0.1479664556771516,-0.0059191609159111,0.0236471253082156
2025-04-22 16:43:40.621058800,7.215058837890625,0.110941670140624,0.0312599383994936,-0.0081438512280583
2025-04-22 16:43:40.631032000,7.225031982421875,0.0894739346981048,0.0104945060074329,-0.0236920604284852
2025-04-22 16:43:40.641003800,7.235003662109375,0.0495890835553407,0.0141290631175041,0.0261147575307637
2025-04-22 16:43:40.650977000,7.24497705078125,0.0222118318080902,-0.0375789122879505,0.1460096225209534
2025-04-22 16:43:40.660949000,7.254948974609375,0.0392670115053653,-0.0855956319600343,0.1846629225747659
2025-04-22 16:43:40.670921700,7.264921630859375,0.1271136372625827,-0.0850932353958487,0.1539669747335836
2025-04-22 16:43:40.680894000,7.27489404296875,0.2667138311326503,-0.0784822928234934,-0.008844181517139
2025-04-22 16:43:40.690866000,7.284865966796875,0.257969383662939,-0.0480021066248416,-0.1003372374853119
2025-04-22 16:43:40.700839000,7.2948388671875,-0.0210866271704435,0.0695890845328569,-0.0064146162826567
2025-04-22 16:43:40.710811000,7.304810791015625,-0.1396492937088012,0.0791612149983644,-0.2174377955818548
2025-04-22 16:43:40.720784000,7.314783935546875,0.218878897768259,0.0916319895148277,-0.4556520929390564
2025-04-22 16:43:40.730755800,7.324755859375,0.2501858901798724,0.0782023068383336,-0.1624855410255491
2025-04-22 16:43:40.740728800,7.334728759765625,0.1052694697231054,-0.1007198435947299,0.1224189766403287
2025-04-22 16:43:40.750701000,7.344701171875,0.0240799637675285,-0.1487701732754707,0.2294635662771761
2025-04-22 16:43:40.760674000,7.354674072265625,0.0404915848642587,-0.1130272442430257,0.1612842389443889
2025-04-22 16:43:40.770645800,7.364645751953125,0.0636941812753677,-0.1720779836267232,-0.0912959624934941
2025-04-22 16:43:40.780619000,7.374618896484375,-0.2496510526508092,0.0037964696735143,0.0107573216620832
2025-04-22 16:43:40.790591000,7.384591064453125,-0.0928618235707283,-0.5112807123869657,-0.12002115825098
2025-04-22 16:43:40.800563700,7.394563720703125,0.4073521358788013,-0.4910992173627018,0.038718620374985
2025-04-22 16:43:40.810536000,7.404535888671875,0.0515162522256374,-0.2709267726525664,0.2755772288069129
2025-04-22 16:43:40.820509000,7.414509033203125,-0.267350375470519,-0.5047276374816895,0.2911042125562206
2025-04-22 16:43:40.830481000,7.42448095703125,-0.247325824573636,-0.4271154054909944,0.3140668627316132
2025-04-22 16:43:40.840452900,7.434452880859375,-0.1545534328520298,-0.1398833947256207,0.2923581581400707
2025-04-22 16:43:40.850425900,7.44442578125,-0.074756842559576,0.0392369086280465,0.185562647893466
2025-04-22 16:43:40.860397800,7.454397705078125,-0.1390191791117191,0.1899573391884565,-0.0677111983643844
2025-04-22 16:43:40.870370800,7.464370849609375,-0.1009779100090265,0.319995923987031,-0.2920862823961302
2025-04-22 16:43:40.880343000,7.474343017578125,-0.0904793123483657,0.4640431603938341,-0.4566957567730918
2025-04-22 16:43:40.890316000,7.48431591796875,-0.0549029720544815,0.4746273905113339,-0.4854898895809426
2025-04-22 16:43:40.900287700,7.494287841796875,-0.0150093530833721,0.3376575451448559,-0.3340873585078865
2025-04-22 16:43:40.910261000,7.504260986328125,0.1142711068242788,0.1779068359106779,-0.1035459338661283
2025-04-22 16:43:40.920233000,7.51423291015625,0.285114580219984,0.00103489600569,0.0171039507424458
2025-04-22 16:43:40.930205700,7.524205810546875,0.4702554590374231,-0.112012221981585,0.1175130844201892
2025-04-22 16:43:40.940178000,7.534177978515625,0.5770686510711908,-0.1816536212235689,0.0897333893518894
2025-04-22 16:43:40.950151000,7.54415087890625,0.5170177947342396,-0.234673556010425,0.0203662404740229
2025-04-22 16:43:40.960123000,7.554122802734375,0.2915408138751983,-0.2350087793141603,-0.0014995909079909
2025-04-22 16:43:40.970095900,7.564095947265625,0.0450011712431907,-0.1410237969323992,-0.0135536013171076
2025-04-22 16:43:40.980068000,7.574068115234375,-0.1113046582341194,-0.0398041871219873,-0.0906157251443713
2025-04-22 16:43:40.990041000,7.584041015625,-0.2554004099577665,0.0040863925307989,-0.0999518183642998
2025-04-22 16:43:41.000012800,7.5940126953125,-0.1949795512646436,0.0006616787791252,-0.0662767085818573
2025-04-22 16:43:41.009985000,7.603985107421875,-0.0509404981642961,-0.0106026425570249,-0.0485439949491992
2025-04-22 16:43:41.019958000,7.6139580078125,0.0167927293688058,-0.0021527941197156,-0.0804648084102198
2025-04-22 16:43:41.029930000,7.623929931640625,0.03789689219594,-0.0507636802926659,-0.071327525698021
2025-04-22 16:43:41.039903000,7.633903076171875,0.0306856456428766,-0.0265793793678283,-0.0121693438844755
2025-04-22 16:43:41.049874700,7.643874755859375,-0.1149579200446605,0.0089972531870007,0.06585552402772
2025-04-22 16:43:41.059848000,7.653847900390625,-0.2591968796312809,0.0103247023984789,0.0293551642240956
2025-04-22 16:43:41.069820000,7.66381982421875,-0.2751040583372116,0.005270341618359,0.0051567617086693
2025-04-22 16:43:41.079793000,7.67379296875,-0.1782715775698423,-0.0082838442206382,0.0134682976538315
2025-04-22 16:43:41.089764900,7.683764892578125,-0.0957452700525522,-0.0643871319755911,0.0379947630798444
2025-04-22 16:43:41.099737900,7.69373779296875,0.089303838828206,-0.1491618029415607,0.0563501751881092
2025-04-22 16:43:41.109710000,7.7037099609375,0.2046855372428894,-0.1056195983350277,0.0398538714826107
2025-04-22 16:43:41.119682800,7.713682861328125,0.206737793597579,-0.0850400439038872,-0.0093884079290553
2025-04-22 16:43:41.129654800,7.72365478515625,0.1279459964334964,-0.0432896911501884,-0.0812826641317456
2025-04-22 16:43:41.139628000,7.7336279296875,-0.0659106882810592,0.0148842653989791,-0.105569110256806
2025-04-22 16:43:41.149599700,7.743599853515625,-0.211335058259964,0.0321919585525989,-0.0505851453879848
2025-04-22 16:43:41.159572700,7.75357275390625,-0.1893336543321609,0.0515887329399585,-0.018117036775127
2025-04-22 16:43:41.169545000,7.763544921875,-0.0884299786031246,0.0074818801879882,-0.0395516006004065
2025-04-22 16:43:41.179516700,7.7735166015625,0.0997054058551788,-0.078304013647139,-0.0155285546518862
2025-04-22 16:43:41.189490000,7.783489990234375,0.2165659446507692,-0.1150692714646458,0.0518080017138272
2025-04-22 16:43:41.199462000,7.7934619140625,0.243168704894185,-0.1482575475782156,0.0355318435650318
2025-04-22 16:43:41.209435000,7.803434814453125,0.2572387313008308,-0.1717524049341678,-0.0022999109728261
2025-04-22 16:43:41.219406800,7.81340673828125,0.2708493235021829,-0.1354378134936094,-0.0428855307960882
2025-04-22 16:43:41.229379800,7.8233798828125,0.2931909191697835,-0.0934346550226211,-0.1187500423366203
2025-04-22 16:43:41.239352000,7.83335205078125,0.2622954301685095,-0.1015355438917875,-0.1526465397847816
2025-04-22 16:43:41.249324800,7.84332470703125,0.2074199306428432,-0.0986047511368989,-0.1278246716087684
2025-04-22 16:43:41.259296800,7.853296875,0.1791857698053121,-0.2121738471716642,-0.0843571031410247
2025-04-22 16:43:41.269270000,7.86327001953125,0.291552504312992,-0.3371250457033515,0.0307001856248825
2025-04-22 16:43:41.279241700,7.87324169921875,0.328507731744647,-0.3482408984795213,0.2175422423370182
2025-04-22 16:43:41.289215000,7.883215087890625,0.3107008568972349,-0.3980734354019165,0.2647033680930734
2025-04-22 16:43:41.299187000,7.89318701171875,0.4190969342082739,-0.370229735186696,0.1072379933170974
2025-04-22 16:43:41.309160000,7.903159912109375,0.2495902623742818,-0.2383978372305631,0.0413424295399338
2025-04-22 16:43:41.319132000,7.9131318359375,-0.2842658544361591,-0.063562956111133,-0.0093351799044758
2025-04-22 16:43:41.329105000,7.92310498046875,-0.6890145298182964,0.0551192451536655,-0.1480394478481262
2025-04-22 16:43:41.339077000,7.9330771484375,-0.8697983824700116,0.1398728733316064,-0.1940697429433465
2025-04-22 16:43:41.349049900,7.9430498046875,-0.8993354425996541,0.1708069407775998,-0.1612599447533488
2025-04-22 16:43:41.359021800,7.953021728515625,-0.627511136585474,0.0894531841710209,-0.2265693792056292
2025-04-22 16:43:41.368995000,7.9629951171875,-0.1547521702945232,0.0747320003792643,-0.2166243968397379
2025-04-22 16:43:41.378966800,7.972966796875,0.2125765827536583,0.0768465083152055,-0.1615431456089019
2025-04-22 16:43:41.388938500,7.9829384765625,0.3834592191159724,-0.0227767722144722,-0.115892789741978
2025-04-22 16:43:41.398911500,7.992911376953125,0.4085977520257234,-0.0773404293119907,-0.0573961771097034
2025-04-22 16:43:41.408883500,8.002883544921875,0.2135509807437658,0.0283837984412908,0.0187847799688577
2025-04-22 16:43:41.418856700,8.012856689453125,0.0056213470131158,0.0700727763965725,0.0150398943521082
2025-04-22 16:43:41.428828400,8.022828369140624,-0.0149520699381828,0.0883627585858106,-0.039203810076043
2025-04-22 16:43:41.438801400,8.032801513671876,-0.0697282007426023,0.1683583785817027,-0.0515102608762681
2025-04-22 16:43:41.448773600,8.042773681640625,-0.0598030190557241,0.1084729419395327,-0.1780937367849051
2025-04-22 16:43:41.458746400,8.052746337890625,-0.0012175590962171,0.1284682667419314,-0.1934871938150376
2025-04-22 16:43:41.468718600,8.062718505859374,0.1270610302925109,0.1303314302653074,-0.1201814999118447
2025-04-22 16:43:41.478691600,8.072691650390626,0.2094277633339166,0.0555935846671462,-0.081975249505788
2025-04-22 16:43:41.488663600,8.08266357421875,0.3019248452454805,0.011924831071496,-0.0180160606186836
2025-04-22 16:43:41.498636500,8.092636474609375,0.2837614120453596,0.0290495688736438,0.0299493672575801
2025-04-22 16:43:41.508608500,8.1026083984375,0.1751163284093141,0.0634434213846922,0.0338941593606025
2025-04-22 16:43:41.518581500,8.11258154296875,0.0782861857295036,0.06593728402704,0.0038844402179121
2025-04-22 16:43:41.528553500,8.122553466796875,0.0830120452076196,0.061921910905838,-0.0089490301311016
2025-04-22 16:43:41.538526500,8.1325263671875,0.1067307744473218,0.0735278852865099,-0.0169493081700056
2025-04-22 16:43:41.548498700,8.142498779296876,0.1427548585087061,0.0492260954618453,-0.0156288001559674
2025-04-22 16:43:41.558471400,8.152471435546875,0.1640864003509283,-0.014802432334423,0.0126486153014004
2025-04-22 16:43:41.568443600,8.162443603515625,0.1564969681352377,-0.0479956768840551,0.094754359319061
2025-04-22 16:43:41.578416600,8.172416748046874,0.152516374066472,-0.0663283291712403,0.1085891156651079
2025-04-22 16:43:41.588388400,8.182388427734375,0.0925578721880912,-0.0569850390255451,0.0899607683669775
2025-04-22 16:43:41.598361600,8.192361572265625,0.0231043967336416,-0.0351566535770893,0.1120792228031903
2025-04-22 16:43:41.608333600,8.20233349609375,-0.0199257666975259,-0.0278346401259303,0.1610028281871229
2025-04-22 16:43:41.618306600,8.212306640625,-0.0545434910923242,-0.045591830612719,0.1625859326601028
2025-04-22 16:43:41.628278500,8.222278564453125,-0.1136409922271966,-0.0992868881821632,0.1983054808169603
2025-04-22 16:43:41.638251500,8.23225146484375,-0.0966045172303915,-0.1049339541584253,0.1384153679996728
2025-04-22 16:43:41.648223700,8.2422236328125,0.1258931555569171,-0.1185185351356863,0.1589494758538901
2025-04-22 16:43:41.658196500,8.252196533203126,0.1731143409371376,-0.040705519875884,0.1694740116734057
2025-04-22 16:43:41.668168400,8.26216845703125,0.0985427918165922,-0.0354214419931173,0.0650134471803903
2025-04-22 16:43:41.678141700,8.2721416015625,0.0067430445194244,-0.0494470447361469,0.0096205727171152
2025-04-22 16:43:41.688113400,8.282113525390624,-0.1001695162355899,-0.0301578223764896,0.0414165176894515
2025-04-22 16:43:41.698086400,8.29208642578125,-0.1318231301277875,-0.0411301750287413,0.0782381088040769
2025-04-22 16:43:41.708058600,8.30205859375,-0.1386485922336578,-0.0691883947774767,-0.0864708073593676
2025-04-22 16:43:41.718031600,8.312031494140625,-0.1363929222613573,-0.0765399265840649,-0.1841432460822165
2025-04-22 16:43:41.728003600,8.322003662109376,-0.0134691379040479,-0.1155512097626924,-0.2580094234123826
2025-04-22 16:43:41.737975600,8.3319755859375,0.0629763883948326,-0.0730351333335042,-0.2733838104158639
2025-04-22 16:43:41.747948300,8.3419482421875,0.0733469757616519,-0.0717182055160403,-0.284743043493852
2025-04-22 16:43:41.757920500,8.35192041015625,-0.0262631530255079,-0.113558282379806,-0.1784733106870204
2025-04-22 16:43:41.767893500,8.3618935546875,-0.055868017694354,-0.1139665709197521,0.0135956868931651
2025-04-22 16:43:41.777865500,8.371865478515625,-0.0127063368380069,-0.1157712822541594,0.0565049273584037
2025-04-22 16:43:41.787838500,8.38183837890625,0.0018617022186517,-0.0907090294510126,0.0104055856149643
2025-04-22 16:43:41.797810400,8.391810546875,0.0712292529553175,-0.069337155598402,-0.0840018599625676
2025-04-22 16:43:41.807783700,8.40178369140625,0.1049491517275571,0.0034197453156113,-0.1761971824485808
2025-04-22 16:43:41.817755400,8.41175537109375,0.1064350063711404,0.0511392356067895,-0.2373516161132603
2025-04-22 16:43:41.827728400,8.421728271484374,0.0488286205768585,0.0331301161855459,-0.216805014103651
2025-04-22 16:43:41.837700600,8.43170068359375,0.0223304897516965,-0.0083627546757459,-0.1246070612691342
2025-04-22 16:43:41.847673300,8.44167333984375,0.0073176295369863,-0.0554249501019716,-0.0291555134661495
2025-04-22 16:43:41.857645600,8.4516455078125,0.0263619372248649,-0.1242600013971328,0.0563940873950719
2025-04-22 16:43:41.867618600,8.46161865234375,0.0761836604923009,-0.16617197445333,0.1166824788149446
2025-04-22 16:43:41.877590500,8.471590576171875,0.1488245338112115,-0.2024827665016055,0.1600987920194864
2025-04-22 16:43:41.887563500,8.4815634765625,0.2240320427477359,-0.2212649161219596,0.1624581415619701
2025-04-22 16:43:41.897535500,8.491535400390624,0.2229500927299261,-0.2111523951694369,0.0754321845378726
2025-04-22 16:43:41.907508700,8.5015087890625,0.1609451797157526,-0.1195563537508249,0.0328751915764063
2025-04-22 16:43:41.917480400,8.51148046875,0.0868833336830139,-0.0462456183463335,-0.0503192244607955
2025-04-22 16:43:41.927453400,8.521453369140625,-0.095807229372859,0.0073313658013939,-0.1595231110233813
2025-04-22 16:43:41.937425700,8.53142578125,-0.2745037543565035,0.0778591924890875,-0.0898196063306182
2025-04-22 16:43:41.947398400,8.5413984375,-0.2627390822827816,0.0007265607088804,0.0133425158496946
2025-04-22 16:43:41.957370600,8.55137060546875,-0.178048290207982,-0.0223977097690105,0.0723434978075325
2025-04-22 16:43:41.967343600,8.561343505859375,-0.0138607675701379,-0.0225841722518205,0.0580447772115469
2025-04-22 16:43:41.977315300,8.5713154296875,0.143349901792407,-0.0275800808429718,0.0108010146733373
2025-04-22 16:43:41.987288600,8.58128857421875,0.3128156570941209,-0.0375213368818163,-0.0856399094931781
2025-04-22 16:43:41.997260500,8.591260498046875,0.2771177362471819,-0.0055786769151687,-0.1357263481114059
2025-04-22 16:43:42.007233500,8.601233642578125,0.2577402510821819,0.047723581944406,-0.1794603489629924
2025-04-22 16:43:42.017205500,8.61120556640625,0.3018640549689531,0.1269713061824441,-0.1875267510406673
2025-04-22 16:43:42.027178500,8.621178466796875,0.3050724956214428,0.2145569429159164,-0.1651496456682682
2025-04-22 16:43:42.037150700,8.631150634765625,0.277943665677309,0.2138534708216786,-0.1105086124856025
2025-04-22 16:43:42.047123500,8.64112353515625,0.1797685381293296,0.1563183966979384,-0.0839768716517835
2025-04-22 16:43:42.057095400,8.651095458984376,0.0508668484061956,0.1098734563872218,-0.031496085242927
2025-04-22 16:43:42.067068700,8.661068603515625,-0.1303705932319164,0.0773573804467916,-0.0291855432782322
2025-04-22 16:43:42.077040400,8.671040283203125,-0.2748468687057495,0.016238602617383,0.0753439947977662
2025-04-22 16:43:42.087013400,8.681013427734374,-0.2463087564855813,-0.0516951159238815,0.1876804802976548
2025-04-22 16:43:42.096985600,8.690985595703125,-0.105844639262557,-0.1217690613642334,0.2007075735226273
2025-04-22 16:43:42.106958600,8.70095849609375,0.0242956523448228,-0.1906602267608046,0.1235734804376959
2025-04-22 16:43:42.116930600,8.7109306640625,0.1087713403642177,-0.2198053649634122,0.1203396130830049
2025-04-22 16:43:42.126903600,8.720903564453126,0.1546773514926433,-0.2358691955357789,0.1071097638275474
2025-04-22 16:43:42.136875500,8.73087548828125,0.1211667115569114,-0.2406879939943552,0.0550556783981621
2025-04-22 16:43:42.146848500,8.7408486328125,0.0904249518126249,-0.2037207838639617,0.080833970516175
2025-04-22 16:43:42.156820500,8.750820556640624,0.04448036223948,-0.1590519133150577,0.0559819263976067
2025-04-22 16:43:42.166793500,8.76079345703125,-0.0330044439792633,-0.1598790117889642,0.002147021966055
2025-04-22 16:43:42.176765400,8.770765380859375,-0.0555097057759761,-0.127390992899239,-0.0024907208371907
2025-04-22 16:43:42.186738400,8.780738525390625,-0.1067787052422761,-0.0809133193626999,-0.0053255789369344
2025-04-22 16:43:42.196710700,8.790710693359374,-0.1455050339996814,-0.0525038019582629,-0.0501076275367289
2025-04-22 16:43:42.206683600,8.80068359375,-0.1480447816103696,-0.0579588524937629,-0.0698525577746331
2025-04-22 16:43:42.216655600,8.810655517578125,-0.1372673670083284,-0.0860106425017118,-0.0542602171715348
2025-04-22 16:43:42.226628600,8.820628662109375,-0.0846487064987421,-0.1489490369737148,-0.0381445833466947
2025-04-22 16:43:42.236600600,8.8306005859375,-0.033114918616414,-0.1239028585225343,0.0170339177135378
2025-04-22 16:43:42.246573600,8.840573486328125,-0.0154424838036298,-0.1322916244223713,0.0712043377097696
2025-04-22 16:43:42.256545500,8.850545654296875,-0.0318394918531179,-0.1204983107760548,0.1297041652124375
2025-04-22 16:43:42.266518500,8.8605185546875,-0.01475216345191,-0.1121519227132201,0.1634589161023497
2025-04-22 16:43:42.276490500,8.870490478515626,-0.0211491710126399,-0.104481241954863,0.1352439714219421
2025-04-22 16:43:42.286463500,8.88046337890625,-0.0384884283483028,-0.0658060588628053,0.0429532257374376
2025-04-22 16:43:42.296435700,8.890435791015625,-0.0818745656102895,-0.0468520598068833,-0.0602404606249183
2025-04-22 16:43:42.306408700,8.90040869140625,-0.1727542754530906,-0.0283387902557849,-0.1545551133524626
2025-04-22 16:43:42.316380400,8.91038037109375,-0.1526075594812631,-0.0294426598444581,-0.1742129498288035
2025-04-22 16:43:42.326353700,8.920353759765625,-0.0742407097309827,-0.0430456532612442,-0.0639103082440793
2025-04-22 16:43:42.336325400,8.930325439453124,0.0315466463863849,-0.1577235873207449,0.1262858081363141
2025-04-22 16:43:42.346298400,8.94029833984375,0.1588373937815427,-0.2371937221378088,0.2507229927312582
2025-04-22 16:43:42.356270600,8.9502705078125,0.2930722612261772,-0.2381494154274463,0.2809188090305775
2025-04-22 16:43:42.366243600,8.96024365234375,0.3157178082764149,-0.1958288615703582,0.1960966456610709
2025-04-22 16:43:42.376215600,8.970215576171874,0.3415174354434013,-0.1128761453345418,0.0766546390049159
2025-04-22 16:43:42.386188800,8.980188720703126,0.2962310175180435,-0.00055938744843,-0.0200615949716418
2025-04-22 16:43:42.396160500,8.990160400390625,0.2015834795743226,0.0765709062442183,-0.1174882422398775
2025-04-22 16:43:42.406133800,9.0001337890625,0.1263607730686664,0.1554661637827754,-0.1871612056639045
2025-04-22 16:43:42.416105700,9.010105712890624,0.0790536629706621,0.1932791770875453,-0.1997964500270783
2025-04-22 16:43:42.426078500,9.020078369140624,-0.0517068063616752,0.1214899521619081,-0.1073375081688165
2025-04-22 16:43:42.436050700,9.03005078125,-0.1530897900402545,0.0476201215699315,-0.0046187458418309
2025-04-22 16:43:42.446023700,9.040023681640625,-0.1896516342401504,-0.0007283142745494,0.1088984008099883
2025-04-22 16:43:42.455995600,9.04999560546875,-0.1223217268109321,-0.0512985178217291,0.1856523354709148
2025-04-22 16:43:42.465968600,9.05996875,-0.0415045612990856,-0.04604688090384,0.1236009529665112
2025-04-22 16:43:42.475940600,9.069940673828125,0.046125206837058,0.006283025792241,0.0484671668533235
2025-04-22 16:43:42.485913900,9.079913818359374,0.0617214198976755,-0.0182940738424658,0.0267513018686324
2025-04-22 16:43:42.495885600,9.089885498046876,0.0211012402176857,-0.0118704705357551,-0.0108603436451405
2025-04-22 16:43:42.505858600,9.099858642578123,0.0046346740633249,0.0015393383964896,-0.0362199719596654
2025-04-22 16:43:42.515830800,9.109830810546876,0.0391243881642818,-0.0312967632785439,-0.0107677699908614
2025-04-22 16:43:42.525803500,9.119803466796874,0.1121627363681793,-0.0661158554643392,0.0276892403058707
2025-04-22 16:43:42.535775700,9.129775634765624,0.1889905399829149,-0.1272407707735896,0.126716893029958
2025-04-22 16:43:42.545748700,9.139748779296877,0.1888327190726995,-0.1529068346887827,0.1649128412377089
2025-04-22 16:43:42.555720400,9.149720458984374,0.1438689572304487,-0.1286664196625351,0.1867383040767163
2025-04-22 16:43:42.565693700,9.159693603515626,0.0259580325990915,-0.0958788333043456,0.1284394790388643
2025-04-22 16:43:42.575665700,9.169665771484375,-0.0872574276924133,-0.049631461392343,0.0447325834348797
2025-04-22 16:43:42.585638700,9.179638671875,-0.1954594437360763,0.0162035313040018,-0.0414285734534263
2025-04-22 16:43:42.595610600,9.189610595703124,-0.2373720013141632,0.0657037675321102,-0.100269688674435
2025-04-22 16:43:42.605583600,9.19958349609375,-0.1738490849524736,0.0223912800282239,-0.1045882094606757
2025-04-22 16:43:42.615555800,9.209555908203123,-0.026247955456376,-0.0405804321914911,-0.0733591045908629
2025-04-22 16:43:42.625528600,9.219528564453125,0.118914548715949,-0.086099782089889,0.0149182407338172
2025-04-22 16:43:42.635500500,9.22950048828125,0.207601132428646,-0.1575622592791914,0.0994329455893486
2025-04-22 16:43:42.645473800,9.239473876953124,0.2160959890514612,-0.1316001350268721,0.1263220484934747
2025-04-22 16:43:42.655445500,9.249445556640625,0.1447667828530073,-0.0718538145944476,0.1736853457581251
2025-04-22 16:43:42.665418800,9.259418701171874,0.018733926564455,0.0116030517712235,0.184303185884282
2025-04-22 16:43:42.675390700,9.269390625,-0.1454272925883531,0.1295151454463601,0.0898695829521864
2025-04-22 16:43:42.685363700,9.27936376953125,-0.3300093684792518,0.2109559958145022,-0.0135279554191976
2025-04-22 16:43:42.695335700,9.289335693359376,-0.4982271695464849,0.2319008764266967,-0.034441929436475
2025-04-22 16:43:42.705308700,9.29930859375,-0.5431178661525249,0.0868503081962466,-0.1929500181984156
2025-04-22 16:43:42.715281700,9.30928173828125,-0.3543652265787124,-0.0021150924578309,-0.0615135493006557
2025-04-22 16:43:42.725253600,9.319253662109375,-0.1701677660912275,-0.109058048351109,0.0964094330497086
2025-04-22 16:43:42.735226600,9.3292265625,0.0401747740000486,-0.2652069337010383,0.1638495228551328
2025-04-22 16:43:42.745198800,9.33919873046875,0.2226800436168909,-0.3298074161663651,0.2172005892924964
2025-04-22 16:43:42.755171600,9.349171630859376,0.4587848014742136,-0.2886155740782618,0.0824292768836021
2025-04-22 16:43:42.765143600,9.3591435546875,0.5476467417538166,-0.2303776123821735,-0.0806287302676588
2025-04-22 16:43:42.775116800,9.36911669921875,0.3845324013054371,-0.1181251519039273,-0.163706461122632
2025-04-22 16:43:42.785088500,9.379088623046876,0.0887894595652818,-0.0006523264288902,-0.2124816710118204
2025-04-22 16:43:42.795061500,9.3890615234375,-0.1211386545062065,0.0690671064853668,-0.2161887819014489
2025-04-22 16:43:42.805033700,9.39903369140625,-0.2544078917890787,0.1069081768408417,-0.2012517634019255
2025-04-22 16:43:42.815006700,9.4090068359375,-0.1944359459072351,0.0966767056837678,-0.1464192262351512
2025-04-22 16:43:42.824978700,9.418978759765626,-0.0313075769335031,0.0331537893220782,-0.037860871034488
2025-04-22 16:43:42.834951700,9.42895166015625,0.2172317150831222,-0.0849479817062616,0.0075406977031379
2025-04-22 16:43:42.844923600,9.438923583984376,0.4641670790344476,-0.1369344817921519,0.0806433433149009
2025-04-22 16:43:42.854896600,9.448896728515624,0.5426116701960564,-0.1688759727150201,0.1422330996569246
2025-04-22 16:43:42.864868600,9.45886865234375,0.4356330584675073,-0.1318234223887324,0.1298473730754107
2025-04-22 16:43:42.874841600,9.468841552734377,0.231713829421997,-0.0541331567257642,0.0970747650906443
2025-04-22 16:43:42.884813600,9.4788134765625,0.0706692809849977,0.0162175598293542,0.0633916181322187
2025-04-22 16:43:42.894786600,9.48878662109375,0.0067167410343885,0.0206219322681426,0.0914540756646543
2025-04-22 16:43:42.904758800,9.4987587890625,0.0011070844590663,0.0391644279137253,0.0971164122752845
2025-04-22 16:43:42.914731800,9.508731689453125,0.0862093799442052,-0.0338914559468626,0.1149764786146581
2025-04-22 16:43:42.924703500,9.518703369140624,0.1843523587882518,-0.1340071961686015,0.1550621130265295
2025-04-22 16:43:42.934676700,9.5286767578125,0.2179582757920026,-0.2001929019987583,0.1968322664592415
2025-04-22 16:43:42.944648700,9.538648681640623,0.1857242316633462,-0.2125172537818551,0.1449211696971207
2025-04-22 16:43:42.954621400,9.548621337890625,0.1142898115247487,-0.196155609306693,0.1157151681527495
2025-04-22 16:43:42.964593700,9.55859375,0.0425882648825645,-0.1585997856333851,0.0785421332519501
2025-04-22 16:43:42.974566700,9.568566650390624,-0.0066606269329786,-0.1351134038448333,0.0064634969256818
2025-04-22 16:43:42.984538600,9.57853857421875,-0.0827560246199369,-0.1057499467164278,-0.0442665002930909
2025-04-22 16:43:42.994511600,9.58851171875,-0.1300415074080228,-0.060773033131659,-0.056606561101973
2025-04-22 16:43:43.004483600,9.598483642578126,-0.1957031893640756,-0.0276937703505158,-0.0696883071236312
2025-04-22 16:43:43.014456800,9.608456787109375,-0.2294704344093799,-0.0050587446942925,-0.0723144909087568
2025-04-22 16:43:43.024428500,9.618428466796876,-0.2191962931543588,0.0188104989320039,-0.0536504147101193
2025-04-22 16:43:43.034401500,9.628401611328124,-0.1328308458656072,0.0365416781947016,-0.011023059926182
2025-04-22 16:43:43.044373800,9.638373779296876,-0.0036550153762102,0.0271717923030257,-0.0397700656566768
2025-04-22 16:43:43.054346500,9.648346435546877,0.1742722788006067,-0.0096223993480205,-0.0161259360231459
2025-04-22 16:43:43.064318700,9.658318603515625,0.2776110727220773,-0.0219108030349016,-0.0470281470261514
2025-04-22 16:43:43.074291700,9.668291748046874,0.2771504694730043,0.0053302551120519,-0.1308368955694138
2025-04-22 16:43:43.084263700,9.678263671875,0.1779226180016994,0.0947308323130011,-0.2043611275941133
2025-04-22 16:43:43.094236700,9.688236572265623,0.0401660061717033,0.1941846014946699,-0.3123223206192255
2025-04-22 16:43:43.104208600,9.698208740234374,-0.0289069455325603,0.2434703181892633,-0.4338012399304657
2025-04-22 16:43:43.114181600,9.708181640625,-0.0222182615488767,0.2394116904482245,-0.4335173084225505
2025-04-22 16:43:43.124153600,9.718153564453123,-0.0100227968424558,0.1532946649625897,-0.1734809092272073
2025-04-22 16:43:43.134126600,9.728126708984377,-0.0877121857225894,0.0270072493910789,0.1388418497834354
2025-04-22 16:43:43.144098800,9.738098876953124,-0.0639841041326522,-0.1202300152286887,0.2047371212996542
2025-04-22 16:43:43.154071600,9.748071533203126,0.1369546477973461,-0.1170595684990286,0.1930639999669045
2025-04-22 16:43:43.164043800,9.758043701171877,0.2369914775639772,-0.1133791264206171,0.0407246629677712
2025-04-22 16:43:43.174016800,9.768016845703125,0.224796597379446,-0.1438940916717052,-0.0885131268419325
2025-04-22 16:43:43.183988500,9.777988525390626,0.1326701023459434,-0.1121902088969945,-0.1785487870760262
2025-04-22 16:43:43.193961700,9.787961669921875,0.0023719898283481,-0.0805468241378665,-0.233647354767844
2025-04-22 16:43:43.203934700,9.797934814453123,-0.1238613574683666,-0.0602943097040057,-0.251186956981197
2025-04-22 16:43:43.213906700,9.80790673828125,-0.1572755512923002,-0.0675222151309251,-0.2144650268487632
2025-04-22 16:43:43.223879700,9.817879638671876,-0.1245516778200864,-0.1033458081841468,-0.1522024858117103
2025-04-22 16:43:43.233851600,9.8278515625,-0.035207506981492,-0.1042459718942642,-0.0679478931970894
2025-04-22 16:43:43.243824600,9.83782470703125,0.0352741424769163,-0.1244417877048253,-0.0082165511380881
2025-04-22 16:43:43.253796600,9.847796630859374,0.0758007986545562,-0.1308946171060204,0.0311466142181307
2025-04-22 16:43:43.263769600,9.85776953125,0.1149170035123825,-0.1513207345411181,0.0456948525957763
2025-04-22 16:43:43.273741800,9.867741943359375,0.1357622231423854,-0.1360161979034543,0.0040111353375017
2025-04-22 16:43:43.283714600,9.877714599609376,0.1132511161267757,-0.0963803530856966,-0.0236793470773845
2025-04-22 16:43:43.293686500,9.8876865234375,0.0176332718461751,-0.0897749634712934,-0.0235434457380324
2025-04-22 16:43:43.303659800,9.89765966796875,-0.0861994430720806,-0.1116258530125021,0.032119550903514
2025-04-22 16:43:43.313631500,9.907631591796877,-0.0956049847990274,-0.1662041231572628,0.1614704456988722
2025-04-22 16:43:43.323604500,9.9176044921875,-0.0640484015405178,-0.1852370326682925,0.2350481614764779
2025-04-22 16:43:43.333576700,9.92757666015625,-0.0955605611354112,-0.1806654869690537,0.1716478485811501
2025-04-22 16:43:43.343549700,9.9375498046875,-0.1369540632754564,-0.1247787645742297,0.0912927476231008
2025-04-22 16:43:43.353521700,9.947521728515625,-0.135222124916315,-0.0985512673839926,0.1663527378477156
2025-04-22 16:43:43.363494700,9.95749462890625,-0.1381049868762493,-0.1610015860781073,0.2433922845169901
2025-04-22 16:43:43.373466600,9.967466552734376,-0.0933592516988515,-0.1898579704672098,0.2264139694482088
2025-04-22 16:43:43.383439600,9.977439697265623,-0.0195464119911193,-0.1193573240473866,0.120168786560744
2025-04-22 16:43:43.393411600,9.98741162109375,-0.017187866166234,-0.081150050728023,-0.0217371269684284
2025-04-22 16:43:43.403384300,9.99738427734375,-0.0427788190186023,-0.0658425914809107,-0.0677402417957782
2025-04-22 16:43:43.413356500,10.0073564453125,-0.1057324110597372,-0.0430599740475416,-0.0757985336322337
2025-04-22 16:43:43.423329500,10.01732958984375,-0.189180509597063,-0.0201169053554534,-0.0597762771792709
2025-04-22 16:43:43.433301500,10.027301513671874,-0.1696007798582315,0.0023024317234754,-0.0157793876077979
2025-04-22 16:43:43.443274500,10.0372744140625,-0.0685375296533107,0.0224850957915186,-0.0169656747829169
2025-04-22 16:43:43.453246700,10.047246826171875,0.0464706592738628,0.0102039986282587,-0.0892933904994279
2025-04-22 16:43:43.463219700,10.0572197265625,0.1514133812606334,0.0159594934150576,-0.139082234410569
2025-04-22 16:43:43.473191400,10.06719140625,0.2083534121006727,0.0558268089011311,-0.1431992412753403
2025-04-22 16:43:43.483164700,10.07716455078125,0.2056435686200857,0.0613993483364582,-0.1221843641668558
2025-04-22 16:43:43.493136600,10.08713671875,0.1540244405418634,0.0714139618724584,-0.0954942179009318
2025-04-22 16:43:43.503109400,10.097109375,0.0917804580748081,0.0656005994185805,-0.0491796990368515
2025-04-22 16:43:43.513081600,10.10708154296875,0.0529927545189857,0.0568640429943799,0.0048224517203867
2025-04-22 16:43:43.523054600,10.1170546875,0.0621732553184032,0.0214335409119725,0.0302369520273059
2025-04-22 16:43:43.533027300,10.12702734375,0.0845937614411115,-0.0022106617867946,0.0902861278638243
2025-04-22 16:43:43.542999600,10.13699951171875,0.1166962881445884,-0.028525252738595,0.1556498497866094
2025-04-22 16:43:43.552972500,10.14697265625,0.1316518652141094,-0.0679854487285017,0.1071616401452571
2025-04-22 16:43:43.562944500,10.156944580078124,0.1147638587772846,-0.0399123236715793,0.0134790017109364
2025-04-22 16:43:43.572917500,10.16691748046875,0.061658876055479,-0.0142611650645732,-0.0464925057794898
2025-04-22 16:43:43.582889500,10.176889404296874,0.016014730733633,0.0017693477600812,-0.0857101251851767
2025-04-22 16:43:43.592862700,10.18686279296875,-0.0491962848454713,0.0188859022557735,-0.0820491184595972
2025-04-22 16:43:43.602834400,10.19683447265625,-0.0772305391967296,0.013424129718542,-0.0677495941460132
2025-04-22 16:43:43.612807400,10.206807373046876,-0.0370662865906953,0.022637363743782,-0.0464789887107908
2025-04-22 16:43:43.622779600,10.216779541015624,0.0354687882661819,-0.0161681677296757,-0.0383325071342289
2025-04-22 16:43:43.632752400,10.22675244140625,0.1060720182776451,-0.0408303152993321,-0.0180658911097794
2025-04-22 16:43:43.642724600,10.236724609375,0.1493640475153922,-0.0739949182763695,0.0680406129818409
2025-04-22 16:43:43.652697600,10.246697509765625,0.0972276175647973,-0.0697460286602377,0.113718733638525
2025-04-22 16:43:43.662669300,10.25666943359375,0.0345429055929183,-0.0410012879520654,0.0462864618133753
2025-04-22 16:43:43.672642600,10.266642578125,-0.0082850132644176,-0.0033864275678992,-0.016714476500824
2025-04-22 16:43:43.682614500,10.276614501953125,-0.0567050530403852,0.0505357167556881,-0.0924052754422649
2025-04-22 16:43:43.692587500,10.28658740234375,-0.3033306203901768,0.0969409095779061,-0.1894084000688046
2025-04-22 16:43:43.702559500,10.2965595703125,-0.4481126008123159,0.0733317781925201,-0.234583101247996
2025-04-22 16:43:43.712532500,10.306532470703123,-0.572946602705121,0.1139642328321933,-0.2245401749329641
2025-04-22 16:43:43.722504700,10.316504638671876,-0.417567240422964,0.1275417995467782,-0.2237948729909956
2025-04-22 16:43:43.732477400,10.3264775390625,-0.1746516335070133,0.128515613014996,-0.0810941558223217
2025-04-22 16:43:43.742450400,10.336450439453126,0.1870820760130882,0.006706511901319,0.0477763715775683
2025-04-22 16:43:43.752422700,10.346422607421877,0.5265560229301453,-0.1675432628065347,0.1960009667342528
2025-04-22 16:43:43.762395600,10.356395751953125,0.7881973731040954,-0.1971983963578939,0.3211477609032764
2025-04-22 16:43:43.772367400,10.366367431640626,0.8316665124744176,-0.2037944336220622,0.3096273459142074
2025-04-22 16:43:43.782340600,10.376340576171875,0.5760515829831362,-0.1388116738408804,0.1666611462097615
2025-04-22 16:43:43.792312600,10.3863125,0.2011959415614604,-0.010048515805602,-0.0171876835031434
2025-04-22 16:43:43.802285300,10.396285400390624,-0.0922568434149026,0.0763815211519599,-0.0691147450193762
2025-04-22 16:43:43.812257500,10.406257568359376,-0.2334200488179922,0.0988344682395458,-0.0068922437317669
2025-04-22 16:43:43.822230500,10.41623046875,-0.2912555671930313,0.0369219096839427,0.0298325724774971
2025-04-22 16:43:43.832202500,10.426202392578125,-0.1823988866329193,-0.0070154317200183,0.105254418284446
2025-04-22 16:43:43.842175500,10.436175537109374,-0.0409323143690824,-0.0589507861405611,0.1130499675314873
2025-04-22 16:43:43.852147500,10.4461474609375,0.1082540384918451,-0.0819698426783084,0.0948466041797772
2025-04-22 16:43:43.862120700,10.45612060546875,0.1921539724498987,-0.0816623841643333,0.1189941167581826
2025-04-22 16:43:43.872092400,10.466092529296876,0.2107645648956298,-0.084589085265994,0.1613994262892752
2025-04-22 16:43:43.882065400,10.4760654296875,0.1851531537771225,-0.0925529037520289,0.1746479437125846
2025-04-22 16:43:43.892037600,10.48603759765625,0.142458505910635,-0.0678872490510344,0.1131893394695594
2025-04-22 16:43:43.902010400,10.49601025390625,0.0386842431813478,-0.0311494637623429,0.0423255953583866
2025-04-22 16:43:43.911982600,10.505982666015624,-0.1230401042133569,-0.0008192074283957,0.0265100039260461
2025-04-22 16:43:43.921955600,10.51595556640625,-0.1988385647803545,-0.0113660281449556,0.0365598714385181
2025-04-22 16:43:43.931927600,10.525927490234375,-0.1774526624023914,-0.0441635513752698,0.050467400759831
2025-04-22 16:43:43.941900500,10.535900634765625,-0.0978682535558938,-0.0611228694826364,0.0656102805623784
2025-04-22 16:43:43.951873500,10.54587353515625,0.0428127212882041,-0.0993719361171126,0.0417683998670428
2025-04-22 16:43:43.961845800,10.555845703125,0.1201496434688568,-0.1088344687283039,0.0376598685696721
2025-04-22 16:43:43.971818500,10.565818603515623,0.1530699162960052,-0.0869818256214261,0.0328950653206557
2025-04-22 16:43:43.981790500,10.57579052734375,0.1232066929519176,-0.0388227748692035,0.045872218456678
2025-04-22 16:43:43.991763700,10.585763671875,0.0904506707757711,-0.0552156912654638,0.0480666597610339
2025-04-22 16:43:44.001735400,10.5957353515625,0.0722597650468349,-0.0020034487769007,0.0715335331315174
2025-04-22 16:43:44.011708400,10.60570849609375,0.1313333007842302,0.0145019880831241,-0.0116107236210256
2025-04-22 16:43:44.021680600,10.6156806640625,0.1963070004761219,-0.0507058126255869,-0.057209933822602
2025-04-22 16:43:44.031653600,10.625653564453126,0.1254354749172926,-0.0093123104855418,0.0244600491262972
2025-04-22 16:43:44.041625600,10.63562548828125,0.0087871175676584,-0.0497024808019399,-0.0727793684741482
2025-04-22 16:43:44.051598600,10.6455986328125,-0.0934393311977386,0.0261322201222181,-0.1042760382389649
2025-04-22 16:43:44.061570600,10.655570556640624,-0.1545966874718666,0.0172729141011834,-0.0818329914908856
2025-04-22 16:43:44.071543600,10.66554345703125,-0.1481570098131895,-0.0328869550794363,-0.0713988373685628
2025-04-22 16:43:44.081515500,10.675515625,-0.0674906509488821,-0.0957291957005858,-0.0466987324086949
2025-04-22 16:43:44.091488500,10.685488525390625,0.057082069659233,-0.0891457256570458,-0.0133800348484888
2025-04-22 16:43:44.101461500,10.69546142578125,0.159952077025175,-0.1093102695465087,-0.0504054049069061
2025-04-22 16:43:44.111433500,10.70543359375,0.1777010842055082,-0.0889902428343892,-0.0984579996099695
2025-04-22 16:43:44.121406500,10.715406494140623,0.1152642095148563,-0.0876677620589733,-0.0676429189011454
2025-04-22 16:43:44.131378400,10.72537841796875,-0.0273392578244209,-0.0471048655241727,-0.0445509432576596
2025-04-22 16:43:44.141351400,10.735351318359376,-0.1326543202549219,-0.0166015907108783,-0.0657461453691124
2025-04-22 16:43:44.151323600,10.74532373046875,-0.1671188999146223,-0.005954816751182,-0.0522474891096353
2025-04-22 16:43:44.161296600,10.755296630859377,-0.104427173680067,-0.010727437980473,-0.0312672083904966
2025-04-22 16:43:44.171268400,10.765268310546874,-0.0434124407470226,-0.0306266089320182,-0.0347203810516744
2025-04-22 16:43:44.181241600,10.77524169921875,0.0262122996211051,-0.0620586890280246,-0.0250802268512547
2025-04-22 16:43:44.191213600,10.785213623046875,0.0749590871334075,-0.1041042253360152,-0.0162207016345113
2025-04-22 16:43:44.201186300,10.795186279296876,0.0671451985120773,-0.1148904077664017,-0.031552929996699
2025-04-22 16:43:44.211158500,10.805158447265624,0.0062017772495746,-0.1005436102449894,-0.0351959261415526
2025-04-22 16:43:44.221131500,10.815131591796876,-0.0094347678214311,-0.0740223908051848,-0.0492234285807237
2025-04-22 16:43:44.231103500,10.825103515625,0.0351812034964561,-0.0623933278098702,-0.0688623046282678
2025-04-22 16:43:44.241076500,10.835076416015625,0.0411626159936189,-0.0551139844566583,-0.0700123149136081
2025-04-22 16:43:44.251049500,10.845049560546874,0.1149538283914327,-0.0805550074443221,-0.0347766412835568
2025-04-22 16:43:44.261021700,10.855021728515624,0.1907739162683487,-0.0918070538207888,-0.0605433160290122
2025-04-22 16:43:44.270994400,10.864994384765623,0.1836801586151123,-0.1033762033224105,-0.0417376394025981
2025-04-22 16:43:44.280966400,10.87496630859375,0.1099947446793317,-0.1003495489776134,-0.0306986512549221
2025-04-22 16:43:44.290939600,10.884939697265626,0.0070621934711933,-0.0764583857804536,-0.0367003758877515
2025-04-22 16:43:44.300911400,10.894911376953123,-0.0599871434509754,-0.0794505533337593,-0.0812163208972662
2025-04-22 16:43:44.310884400,10.90488427734375,-0.032145196801424,-0.0842512316137552,-0.1036979460900649
2025-04-22 16:43:44.320856600,10.914856689453124,-0.0021907880425453,-0.1345794430986046,-0.1213896335925906
2025-04-22 16:43:44.330829600,10.92482958984375,-0.0001513911694288,-0.1610109384283423,-0.1357014693984762
2025-04-22 16:43:44.340801500,10.934801513671877,-0.0905938786387443,-0.1761933099910616,-0.1249279272539541
2025-04-22 16:43:44.350774500,10.9447744140625,-0.1493915200442075,-0.1896837829440832,-0.2641524927446618
2025-04-22 16:43:44.360746500,10.95474658203125,-0.1903501378983259,-0.1516106573984026,-0.4150423981204629
2025-04-22 16:43:44.370719500,10.964719482421875,-0.324302096748352,-0.1127624558269977,-0.3720146093094721
2025-04-22 16:43:44.380691500,10.97469140625,-0.2063765590697527,-0.113422088779509,-0.4724370043275877
2025-04-22 16:43:44.390664700,10.984664794921876,-0.180797296655178,-0.1191170855507254,-0.2441770416865125
2025-04-22 16:43:44.400637700,10.9946376953125,-0.4406353967994451,-0.075357438801229,0.0636206045825034
2025-04-22 16:43:44.410609400,11.004609375,-0.5339373653531074,-0.1095201129049062,0.1214144392402842
2025-04-22 16:43:44.420582700,11.014582763671877,-0.3532084577590227,-0.0224193370789289,0.0984102149454876
2025-04-22 16:43:44.430554600,11.0245546875,-0.1190384673565626,0.0747051123723387,0.0604777399795129
2025-04-22 16:43:44.440527600,11.034527587890626,0.100367084634304,0.0961728478148579,-0.0007191080547869
2025-04-22 16:43:44.450499600,11.04449951171875,0.2122556802362203,0.0704936321571469,-0.0308486176522448
2025-04-22 16:43:44.460472600,11.05447265625,0.2789776849001646,0.1036585273951292,-0.0178476452492177
2025-04-22 16:43:44.470444800,11.06444482421875,0.3085457246899604,0.1031485320463776,0.0465999847419559
2025-04-22 16:43:44.480417500,11.07441748046875,0.3220668850421905,0.041776071716845,0.0981163465654477
2025-04-22 16:43:44.490389500,11.084389404296877,0.3415232806622982,0.0637184389337897,0.2104593348713591
2025-04-22 16:43:44.500362800,11.09436279296875,0.3339209889650344,0.0891252673909068,0.2250549925873056
2025-04-22 16:43:44.510334500,11.10433447265625,0.3326911549091338,0.0456534976720809,0.1863853259205818
2025-04-22 16:43:44.520307500,11.114307373046875,0.2868143698751926,0.0583925677359104,0.1828594168167561
2025-04-22 16:43:44.530280700,11.12428076171875,0.2694295198321342,0.0599795446664094,0.2003396169930696
2025-04-22 16:43:44.540252700,11.134252685546874,0.2467442252933979,0.0654527153804898,0.2088414148133248
2025-04-22 16:43:44.550225400,11.144225341796876,0.1925695675134658,0.0527136453166604,0.2361286136569455
2025-04-22 16:43:44.560197600,11.15419775390625,0.1260907239556312,0.0724897744104266,0.2545255998846143
2025-04-22 16:43:44.570170600,11.164170654296877,0.0760316848009824,0.0573857287809252,0.1923880369341001
2025-04-22 16:43:44.580142600,11.174142578125,0.0901923121005296,0.0435737687885761,0.1434076598616316
2025-04-22 16:43:44.590115600,11.184115478515626,0.1453916367530822,0.0227238729834556,0.10535287369024
2025-04-22 16:43:44.600087600,11.194087646484377,0.1680371838033199,-0.019491174672544,0.0488513803979381
2025-04-22 16:43:44.610060500,11.204060546875,0.1542418826848268,-0.0281999663069844,0.0316965031858533
2025-04-22 16:43:44.620032500,11.214032470703126,0.1377075119912624,-0.0303580211237072,0.0111723687363788
2025-04-22 16:43:44.630005500,11.224005615234375,0.1130173073709011,-0.0103834468483924,-0.0346693449841812
2025-04-22 16:43:44.639978800,11.233978759765623,0.0330120427638292,-0.0198050629273056,-0.0256121417708694
2025-04-22 16:43:44.649950500,11.243950439453124,-0.0245931739866733,-0.0348927419438958,-0.0465197225799784
2025-04-22 16:43:44.659923500,11.25392333984375,-0.1188748012274503,-0.0384355291172862,0.0649395416939631
2025-04-22 16:43:44.669895700,11.263895751953124,-0.0984276410043239,-0.0299471022352576,0.1533823797786608
2025-04-22 16:43:44.679868400,11.273868408203125,-0.0392903923809528,-0.0592722731798887,0.0278773467564955
2025-04-22 16:43:44.689840600,11.283840576171874,-0.0153109663784503,-0.026281565465033,-0.0351256739169359
2025-04-22 16:43:44.699813600,11.293813720703126,-0.0589858574539422,0.0052007835134863,-0.0450429280256852
2025-04-22 16:43:44.709785300,11.303785400390623,-0.0965682768732309,0.0772492438971996,-0.1192550692493095
2025-04-22 16:43:44.719758600,11.313758544921876,-0.0836754775524139,0.0620326778039336,-0.1883996979502961
2025-04-22 16:43:44.729730600,11.32373046875,-0.0501607459634542,0.0580456539943814,-0.1603395419728011
2025-04-22 16:43:44.739703600,11.33370361328125,-0.01271919631958,0.0321355521902441,-0.1300540015634149
2025-04-22 16:43:44.749676500,11.343676513671875,-0.0111158527761697,-0.0022732056289911,-0.0995125136315822
2025-04-22 16:43:44.759648500,11.3536484375,0.0086509239673614,-0.016797990065813,-0.0876848227916285
2025-04-22 16:43:44.769621500,11.36362158203125,0.0742255121618509,-0.0111868721857666,-0.0913841157009825
2025-04-22 16:43:44.779593500,11.373593505859375,0.0847621037453413,-0.046589609478414,-0.1138082020202651
2025-04-22 16:43:44.789566500,11.38356640625,0.0868278041034936,-0.0688002722427248,-0.1177856908164918
2025-04-22 16:43:44.799538700,11.39353857421875,0.0831803875118494,-0.1129956800609826,-0.1170996447810903
