time,seconds_elapsed,z,y,x
1746409821595844900,0.029844970703125,7.371130241027474,5.317984244021773,5.727011619636416
1746409821605818000,0.039818115234375,8.585918703487515,5.04845944712162,2.7727295603498816
1746409821615791000,0.049791015625,8.298764726394415,3.9385318735837935,2.007552412827313
1746409821625765000,0.05976513671875,8.545797120979428,3.4351009979143736,1.283868136166036
1746409821635737900,0.06973779296875,8.502793845555185,2.262055289423466,0.9729556823447346
1746409821645710800,0.0797109375,8.518222300833463,2.0612854643195866,1.1397905046209693
1746409821655684000,0.08968408203125,8.823526267123222,2.6574139129087326,1.5305331587433815
1746409821665657000,0.099656982421875,9.389194987779856,3.5536738935858008,1.7867285184711217
1746409821675629800,0.1096298828125,10.03970238454938,4.317280430790782,1.6686223635286093
1746409821685602800,0.119602783203125,9.776128020486235,4.385538851241767,0.5388511486187577
1746409821695576000,0.129576171875,6.374285441312193,2.3781673479393124,-7.186454641634225
1746409821705549000,0.139549072265625,6.427596175739168,1.7613557384140788,-5.854210597094893
1746409821715522000,0.14952197265625,4.2025136494040485,1.5870669468700884,-5.9317357353240245
1746409821725496000,0.15949609375,1.8190777134120464,0.08327332649230956,-4.621122507834435
1746409821735468800,0.16946875,-0.6840507699310779,-1.1885123038224876,-3.404673418685794
1746409821745441800,0.17944189453125,-0.6209662449866533,-1.1371664397276937,-0.9638438628673552
1746409821755415000,0.1894150390625,1.216834289073944,-0.02541851889491081,0.9909100028388201
1746409821765388000,0.199387939453125,1.5025819065004586,0.40121348699331283,0.5782361604806036
1746409821775361000,0.209361083984375,0.07262099957466125,0.4865038523964584,-1.648166289346665
1746409821785333800,0.219333740234375,-1.311319329932332,0.9689857558004558,-2.2472819370530543
1746409821795307000,0.22930712890625,-1.2040168930768966,2.294768641501665,-1.3498470673777163
1746409821805280500,0.239280517578125,-0.7659732663363218,2.4513708235770464,0.650083691464737
1746409821815253200,0.249253173828125,-0.6005851357370615,0.8298764141872524,3.90054847214818
1746409821825226200,0.259226318359375,0.703353436294198,0.5945049390405416,4.008230263710022
1746409821835200300,0.2692001953125,1.5408090535640715,1.3586509899497032,3.2426755150467157
1746409821845173200,0.27917333984375,2.7168285171687603,2.2499349357798692,3.6974785534083843
1746409821855146500,0.289146484375,1.5560235738307238,2.7793919408485293,4.098720681974291
1746409821865119500,0.299119384765625,0.6958943524599075,2.6421771808102728,3.1174361472234127
1746409821875092200,0.30909228515625,1.214558745357394,2.3286624355360863,1.6470286636188625
1746409821885065200,0.319065185546875,2.8249142133563754,2.1709411863029002,0.12861352043151855
1746409821895038500,0.32903857421875,3.8043981284260746,2.0068276056841015,-1.0895675070762634
1746409821905011500,0.339011474609375,4.583222693029046,1.4531795776888727,-1.7321283287554978
1746409821914984200,0.348984130859375,4.771162262654304,1.0024661467283964,-0.9055074092328548
1746409821924958200,0.358958251953125,3.9441099659770726,0.6931663888007402,0.6643669952958822
1746409821934931200,0.36893115234375,2.5190496905744073,1.082099070891738,2.091011325019598
1746409821944904400,0.378904541015625,1.236896249371767,2.2431574044689535,4.472338306033611
1746409821954877400,0.38887744140625,0.5224059175133705,3.9455005435526367,6.034485331180691
1746409821964850400,0.398850341796875,-0.2716483649253845,5.24115176423192,6.165069859424233
1746409821974823200,0.4088232421875,-1.1584662712574005,5.682196910876035,5.618765764451027
1746409821984796200,0.418796142578125,-1.5608397419407962,5.1535927232444285,4.771720481058955
1746409821994769400,0.428769287109375,-1.4841358569666743,4.253838762971759,3.1971640561938286
1746409822004742400,0.438742431640625,-0.7750368627578019,3.8464562319546935,1.6923650581657885
1746409822014715400,0.44871533203125,0.23894670328497886,3.3318303007930514,0.8370593114286661
1746409822024689400,0.458689453125,0.7582733594834804,3.0790158156752585,0.6778899092137813
1746409822034662100,0.468662109375,1.2926704513028264,2.8378426685124634,1.8859084391474723
1746409822044635400,0.478635498046875,1.394092013426125,2.782452789723873,3.719976800942421
1746409822054608400,0.4886083984375,1.2453835072100161,2.881753121909499,5.398560586515068
1746409822064581400,0.498581298828125,0.9077788612961769,2.784802567720413,6.20198358580172
1746409822074554400,0.508554443359375,0.2553770290821791,2.2145547025799748,5.906926288238167
1746409822084527400,0.51852734375,-0.4705570723325014,1.410475869733095,5.008413267937303
1746409822094500400,0.528500244140625,-1.0711311021536587,0.9266735313802957,4.091685376510024
1746409822104473300,0.538473388671875,-1.4800059175550937,0.9569342296093701,3.3911060811042786
1746409822114446300,0.5484462890625,-1.720643350405991,1.0470786109149455,2.871879962670803
1746409822124420400,0.55842041015625,-1.7967548224449157,0.8740788362681865,2.431312954932451
1746409822134393300,0.568393310546875,-1.68407697616145,0.31195874800384044,2.1252461875766513
1746409822144366300,0.578366455078125,-1.32572078025043,-0.07568506332039833,2.031864139524102
1746409822154339300,0.58833935546875,-0.7279619539804756,-0.11824819376170635,2.228714160835743
1746409822164312300,0.598312255859375,-0.022339257580041884,0.11159867274463176,2.5775264294624325
1746409822174285300,0.608285400390625,0.5601825443305075,0.9843658418923615,2.9875229423701763
1746409822184258600,0.618258544921875,0.7599164505153894,1.949078304287791,3.2198709780424832
1746409822194231300,0.628231201171875,0.3973626567840576,2.1023528032451866,3.02412570310235
1746409822204204300,0.638204345703125,-0.45723757203221316,1.746923162305355,2.6775524455741047
1746409822214177300,0.64817724609375,-1.4444886139720678,1.3596692270815371,2.44220727391243
1746409822224151300,0.6581513671875,-2.2133996873259543,1.135538984656334,2.322164013427496
1746409822234124500,0.66812451171875,-2.8294612091362477,1.0944278065890074,2.4340686833813785
1746409822244097300,0.67809716796875,-3.1488135745227335,1.1093488968670369,2.4920517935335633
1746409822254070300,0.6880703125,-3.230670019954443,1.087449199748039,2.5344661631539465
1746409822264043300,0.698043212890625,-3.2991631259441374,0.9716448920071125,2.7047274527475236
1746409822274016300,0.708016357421875,-3.3861516735672947,0.9407909040600061,2.8567940372198817
1746409822283989500,0.717989501953125,-3.366175930248201,0.7481120309531688,2.80325300116837
1746409822293962200,0.727962158203125,-3.3868624521851536,0.48052843124866484,2.7417691894188523
1746409822303935200,0.737935302734375,-3.4612709196984768,0.31892507988512514,2.8000854770481585
1746409822313908200,0.747908203125,-3.4006466473877426,0.3712339437931776,2.9119559524714944
1746409822323882200,0.75788232421875,-3.32985637037158,0.534900657427311,3.0388255518451333
1746409822333855500,0.76785546875,-3.2761762181103227,0.5517401485472917,3.2339173313125964
1746409822343828500,0.777828369140625,-3.2020284473598,0.5553431414753198,3.421924413216114
1746409822353801200,0.78780126953125,-3.0758477070331574,0.47126843547224995,3.4274627581208943
1746409822363774200,0.797774169921875,-2.9079391180455683,0.1533031405299902,3.1723540245860815
1746409822373747500,0.80774755859375,-2.593109783041477,-0.11666589300632477,2.879267150312662
1746409822383720400,0.817720458984375,-2.190797248765081,-0.2531529232919216,2.557283559639752
1746409822393693400,0.827693359375,-1.8748304341636597,-0.33492344400584695,2.267521153613925
1746409822403666200,0.837666259765625,-1.4968682050287723,-0.2307756717890501,2.1245859701022503
1746409822413639400,0.847639404296875,-1.2388624348782002,-0.17032383343577384,1.8900626362174748
1746409822423613200,0.85761328125,-1.1827765366494656,-0.267289000672102,1.4326988074570894
1746409822433586400,0.86758642578125,-1.2265057882606982,-0.34233576608896255,1.0843845514804125
1746409822443559400,0.877559326171875,-1.2307890185378492,-0.4885545013159513,0.9605664486318826
1746409822453532400,0.887532470703125,-1.1206246163800357,-0.541789832419157,0.8711667482137679
1746409822463505200,0.897505126953125,-0.9646399816811084,-0.388325948369503,0.866696324801445
1746409822473478400,0.907478515625,-0.820571848616749,-0.2352016715377569,0.8497481126099824
1746409822483451400,0.917451416015625,-0.6607457360588014,-0.1911912648975849,0.8282990818679332
1746409822493424400,0.92742431640625,-0.4399941762864589,-0.09571487491428851,0.8415355800598859
1746409822503397000,0.937397216796875,-0.09314926220998167,-0.008355155891180037,0.6556622953146696
1746409822513370400,0.947370361328125,0.2823532988131046,0.11540215668082236,0.42120472014248367
1746409822523344400,0.957344482421875,0.6128536656796932,0.3652934478282928,0.22263240508288143
1746409822533317400,0.9673173828125,1.0191383915226906,0.38772681343257426,-0.08454963003844022
1746409822543290400,0.977290283203125,1.3031973982751368,0.12256254982948303,-0.39457565641403197
1746409822553263400,0.987263427734375,1.4304267708718776,-0.01937748516499996,-0.6015417058095336
1746409822563236400,0.997236328125,1.5142799430787564,-0.043506548771262164,-0.8628311738058925
1746409822573209300,1.007209228515625,1.5034768095135689,-0.1331815589994192,-1.14944066875875
1746409822583182300,1.017182373046875,1.4076022139929234,-0.12292670696675777,-1.1623711697414516
1746409822593155300,1.0271552734375,1.3166367255628109,-0.008434066346287726,-0.9753314715653657
1746409822603128300,1.03712841796875,1.226066227799654,0.023590718945860862,-0.7844231152623892
1746409822613101300,1.047101318359375,1.1146177041154355,-0.010433715730905532,-0.6988277755632997
1746409822623075300,1.057075439453125,0.9712765701513737,-0.14642156432271003,-0.7190817513018846
1746409822633048300,1.06704833984375,0.8627424726091325,-0.30392098749876023,-0.7192255436867475
1746409822643021300,1.077021240234375,0.8734523018676787,-0.36278994057476516,-0.7274097269251942
1746409822652994300,1.086994384765625,0.9589408932566642,-0.3516483688354492,-0.7783446721315384
1746409822662967600,1.096967529296875,1.1956231587409973,-0.31303777541220185,-0.9589233575999736
1746409822672940300,1.106940185546875,1.4902081626176833,-0.4262812927544117,-1.1041945828437805
1746409822682913300,1.116913330078125,1.605943496775627,-0.5366495469212532,-1.0816112873747945
1746409822692886300,1.12688623046875,1.6360779382765291,-0.6399737277954817,-1.0612284245595336
1746409822702859500,1.136859619140625,1.5757085175096988,-0.7943021197199821,-1.0553744378343224
1746409822712832500,1.14683251953125,1.4520014738202094,-0.946736660721898,-0.9833698165923357
1746409822722805200,1.15680517578125,1.3639759843647479,-0.9567939443558454,-0.8561363523423671
1746409822732779300,1.166779296875,1.3047756073772907,-0.8969429945051669,-0.7039397117495536
1746409822742752300,1.176752197265625,1.2386685197412968,-0.7980109111100435,-0.4061483130469918
1746409822752725200,1.186725341796875,1.2055108579616993,-0.6178992586314678,-0.07643617394864559
1746409822762698500,1.196698486328125,1.1888777030687778,-0.35124154160022736,0.14145020565092561
1746409822772671500,1.20667138671875,1.122785886067152,-0.13607318878769875,0.24636165571659802
1746409822782644200,1.216644287109375,1.0404583890575916,-0.04690086738467216,0.18180179752260445
1746409822792617200,1.2266171875,1.0210230362255126,-0.010088847815990447,0.009329846142232418
1746409822802590500,1.236590576171875,1.0509972456634045,0.09357143314480781,-0.14530629655718802
1746409822812562700,1.246562744140625,1.131504614573717,0.2712777780473232,-0.19811609572470187
1746409822822535700,1.25653564453125,1.198670855873823,0.5367670358210802,-0.22132219926714897
1746409822832509700,1.266509765625,1.17036596788764,0.8291273493856192,-0.2914110500156879
1746409822842482700,1.276482666015625,1.077490115791559,1.1946604511886834,-0.3517477375566959
1746409822852455700,1.28645556640625,0.8765620313860476,1.9316981304198502,-0.4916343471527099
1746409822862428700,1.2964287109375,0.5379459434073418,2.4084435359984635,-1.0605921724826097
1746409822872401700,1.306401611328125,0.04370112149529159,2.0541537127435205,-1.6186217765629292
1746409822882374700,1.316374755859375,-0.4601311015166342,1.6150427490323782,-1.8163672854095696
1746409822892348000,1.326347900390625,-0.7228209378302097,1.4783224945127964,-1.7939415185898542
1746409822902320600,1.336320556640625,-0.847860545297712,1.4926105475842952,-1.5631389587938784
1746409822912293600,1.346293701171875,-1.0559833635129035,1.1316606819182633,-1.2834686154544352
1746409822922266600,1.3562666015625,-1.227263328629732,0.6593085428625345,-1.0032751250237226
1746409822932240000,1.366239990234375,-1.3263620007634163,0.3896206643551588,-0.6270265679389238
1746409822942214000,1.3762138671875,-1.4435713529966772,0.3022580227226019,-0.27296412369906903
1746409822952187000,1.386186767578125,-1.5015430649720132,0.1593634634822607,0.028804069679975508
1746409822962159600,1.39615966796875,-1.4181249231815338,-0.009148352095484733,0.32086335447132586
1746409822972132600,1.406132568359375,-1.1536042181789874,-0.09895546427071093,0.566931872460246
1746409822982105900,1.41610595703125,-0.7426221282999962,-0.1751058070152998,0.7906538263455033
1746409822992078800,1.426078857421875,-0.25960370686650275,-0.21403730295598505,0.909147519300878
1746409823002051800,1.4360517578125,0.19943295047692952,-0.24565000031590462,0.8614367968380451
1746409823012024600,1.446024658203125,0.634140710793063,-0.3116676561027765,0.7055202589392662
1746409823021997600,1.45599755859375,1.0131482842624187,-0.43875732796788214,0.4814858781039715
1746409823031970800,1.465970703125,1.372810448205471,-0.5883312188416719,0.22583120112419128
1746409823041944800,1.47594482421875,1.690411586010456,-0.5254577062994241,0.002112462109327316
1746409823051917800,1.485917724609375,1.9622937596917152,-0.32357085986435413,-0.2114911256045103
1746409823061890600,1.495890625,2.1059809306144714,-0.05515957716405391,-0.46928047652542587
1746409823071863600,1.505863525390625,2.03645555896759,0.08706161285936832,-0.8662287072896957
1746409823081836800,1.5158369140625,1.8357096992611883,0.004324292939901352,-1.2100631875038146
1746409823091809800,1.525809814453125,1.5940005455255508,-0.01315524964928627,-1.3933470402777195
1746409823101782800,1.53578271484375,1.3149006955504416,0.047044075247645374,-1.452028361827135
1746409823111755500,1.545755615234375,1.0401028536181895,0.07565466818213462,-1.471819688490033
1746409823121728800,1.555728759765625,0.7587491603016853,-0.004676759639382362,-1.4744471143841742
1746409823131701800,1.56570166015625,0.5033902513980865,-0.09696341367065905,-1.3446499371260403
1746409823141674800,1.5756748046875,0.2500654786705971,-0.11932897473573684,-1.1734136650204658
1746409823151648800,1.585648681640625,0.05359831919670105,-0.13935352563261985,-1.022910968863964
1746409823161621800,1.595621826171875,-0.043171690793707966,-0.1956178491681814,-0.850370043900609
1746409823171594500,1.605594482421875,-0.14745266093611717,-0.16829028178155422,-0.6976467490851879
1746409823181567700,1.615567626953125,-0.2129074952084571,-0.10012100091874598,-0.5952548806250095
1746409823191540700,1.625540771484375,-0.23627419614009557,-0.05147241308391094,-0.5373626636266708
1746409823201513700,1.635513671875,-0.23109664737172422,0.16691665534079073,-0.44280923370718955
1746409823211486700,1.64548681640625,-0.20982465369701384,0.41812428978383537,-0.47223523467779155
1746409823221459700,1.655459716796875,-0.19713592558093368,0.43202655840814114,-0.5422890141129494
1746409823231432700,1.6654326171875,-0.19855740975141525,0.34621289978325365,-0.5685697027951478
1746409823241405700,1.67540576171875,-0.14609890823960303,0.29911504852175713,-0.5631161135643721
1746409823251378700,1.685378662109375,-0.01893156802840531,0.23344810586869716,-0.4584983857482671
1746409823261352700,1.695352783203125,0.07993921363353729,0.22056816602945326,-0.29201252304017544
1746409823271326000,1.705325927734375,0.21440372511558234,0.2909890252113342,-0.14711305371820926
1746409823281298700,1.715298583984375,0.23700725965499878,0.32831483952105045,-0.035088264515995976
1746409823291271700,1.725271728515625,0.20825689292363822,0.3798386905312538,0.047104281002283095
1746409823301244700,1.73524462890625,0.23412198654226957,0.4671662608504295,0.15814181273281575
1746409823311217700,1.7452177734375,0.25431261472105976,0.5476695381075144,0.22524434114694594
1746409823321191000,1.75519091796875,0.29732283134274184,0.5157037895262241,0.29877836391329765
1746409823331163600,1.76516357421875,0.35779746604971585,0.5349702155321836,0.4003466410309076
1746409823341136600,1.77513671875,0.41279286562800405,0.6162193427205085,0.5238455949276686
1746409823351109600,1.785109619140625,0.44166247482486065,0.6607172406166791,0.7042074227750301
1746409823361083600,1.795083740234375,0.3690331458132714,0.6307131474971771,0.9195376881510019
1746409823371057000,1.805056884765625,0.259689047062397,0.4787742810577154,1.1594681417763233
1746409823381029600,1.815029541015625,0.18768990571312605,0.4105260897397995,1.4514666362911461
1746409823391002600,1.825002685546875,0.1184113484341651,0.538168134790659,1.786103080049157
1746409823400975600,1.8349755859375,0.07789806319475173,0.8618243348509073,2.021188431730866
1746409823410948900,1.844948974609375,0.14865553391985595,1.3899942227184772,2.2382634949475526
1746409823420921900,1.854921875,0.34888825647234917,2.4742542710363864,2.6804583961486816
1746409823430894600,1.86489453125,0.4680220008969307,4.108205134156346,3.1991368175715205
1746409823440867600,1.87486767578125,0.1999579241991043,5.057071208122372,3.645938920307159
1746409823450840800,1.8848408203125,-0.22158406507372855,4.757326045003533,4.150948297339678
1746409823460813800,1.894813720703125,-0.4959107823628932,3.9310955861032006,4.678448907643556
1746409823470787800,1.904787841796875,-0.5636345844805241,3.085247403541207,5.02850386980772
1746409823480760800,1.9147607421875,-0.357799950267747,2.2535849827200174,5.014864636033773
1746409823490733600,1.924733642578125,-0.04638539214320481,1.4600976865142583,4.8087397136375305
1746409823500706600,1.93470654296875,0.41276130144596096,0.8268325164467096,4.4036534768641
1746409823510679800,1.9446796875,1.0025497333586215,0.398206706392765,3.829961608749628
1746409823520652800,1.95465283203125,1.6257435912668705,0.1594289299339056,3.097955493944883
1746409823530625800,1.964625732421875,2.2161749972581863,0.02943009262382984,2.3344056553632018
1746409823540598500,1.9745986328125,2.7310131098657844,-0.07958791597783565,1.3801894525408744
1746409823550571800,1.98457177734375,3.1589649661809203,-0.3722054191738367,0.3774930041879415
1746409823560544800,1.994544677734375,3.513282846486568,-0.6503869852602482,-0.34983401288986204
1746409823570517800,2.004517822265625,3.7639299244374036,-0.9341671020060777,-1.0182575901001691
1746409823580491800,2.01449169921875,3.862905262452364,-1.393397893682122,-1.6375509334385394
1746409823590464800,2.02446484375,3.9348745201200246,-1.8929355613052843,-2.171424585905671
1746409823600437800,2.034437744140625,3.9808360608279703,-2.321930204671621,-2.5822014355361462
1746409823610410800,2.04441064453125,4.081967115572095,-2.331945987251401,-2.7112872496545313
1746409823620383700,2.0543837890625,4.306210755243897,-1.6720575986742972,-2.692909296920895
1746409823630356700,2.064356689453125,4.205407032757997,-0.9189806387901306,-2.589607327878475
1746409823640329700,2.074329833984375,3.7292087396681306,-0.7912485773682594,-2.368407293686271
1746409823650302700,2.084302734375,3.0923686337232588,-1.320222767356038,-2.1752578804582354
1746409823660275700,2.094275634765625,2.502460959345102,-1.9241385088205336,-1.8315391355782746
1746409823670248700,2.104248779296875,2.0291291616022584,-2.5054221472382543,-1.4944710807591677
1746409823680221700,2.1142216796875,1.6860077980935573,-2.981169189429283,-1.182643265658617
1746409823690194700,2.124194580078125,1.3313994104087352,-3.3844793564409015,-0.852581874731183
1746409823700168700,2.134168701171875,0.947858504358679,-3.7876439775019883,-0.6387240199953317
1746409823710141700,2.1441416015625,0.5302911178052425,-4.308333154225349,-0.621444383892417
1746409823720114700,2.15411474609375,0.0884359699524939,-4.900431616646051,-0.6969581822991371
1746409823730087700,2.164087646484375,-0.3661620473563671,-5.415844898793101,-0.8477969785422086
1746409823740061000,2.17406103515625,-0.7250375909663737,-5.712386297434568,-0.9889777196019888
1746409823750033700,2.18403369140625,-1.0770181143656372,-5.790760161447524,-1.0088093782752752
1746409823760006700,2.194006591796875,-1.4149616368450224,-5.506547498503327,-1.1132570102214812
1746409823769979600,2.203979736328125,-1.7448890261292456,-5.1644753517866135,-1.4303823472082613
1746409823779952600,2.21395263671875,-2.080960763387382,-4.973717802131175,-1.8335241719156503
1746409823789926000,2.22392578125,-2.433696635198593,-5.083693842110038,-2.3974007484585047
1746409823799898600,2.233898681640625,-2.7348692007720468,-5.2999540818125,-2.927270425981283
1746409823809873000,2.243872802734375,-2.9739865844488143,-5.4301119090765715,-3.2471085290580985
1746409823819846000,2.253845947265625,-3.089160777592659,-5.490288437619805,-3.4234652129173275
1746409823829819000,2.26381884765625,-3.129879741472006,-5.58006047848165,-3.4976883869916198
1746409823839792000,2.273792236328125,-3.105279845483601,-5.517425450870395,-3.392401381611824
1746409823849764900,2.283764892578125,-2.9717905357092618,-4.808388123720884,-3.2594939633786675
1746409823859737900,2.29373779296875,-2.7879513871401547,-3.632499593019485,-3.1213030517846345
1746409823869710800,2.3037109375,-2.659933786775172,-2.570211138013005,-2.9307845715820786
1746409823879684000,2.31368408203125,-2.6655554260492322,-1.9598472433224319,-2.7177982389837503
1746409823889657000,2.323656982421875,-2.803058647640049,-1.8770564396500586,-2.534287007194757
1746409823899629800,2.3336298828125,-2.8194585782989856,-2.0490157653331758,-2.606577167379856
1746409823909602800,2.343602783203125,-2.6241964107006788,-2.2224203213885425,-2.89974821280539
1746409823919576800,2.353576904296875,-2.3006328573599455,-2.6675129898577925,-3.703707803186774
1746409823929549800,2.3635498046875,-2.117386413986981,-3.2864638033688065,-5.263932335838676
1746409823939523000,2.373523193359375,-2.092401318073273,-3.6523826896190643,-6.7973553708046675
1746409823949496000,2.38349609375,-2.2776693304017184,-3.6660564101845026,-7.699524575525522
1746409823959468800,2.39346875,-2.69308699157536,-3.559227728320658,-7.6041873017519706
1746409823969441800,2.40344189453125,-3.3547973348826168,-3.534902557620406,-6.944862392276525
1746409823979415000,2.4134150390625,-4.18152142251879,-3.292691884103417,-6.649490037414431
1746409823989388000,2.423387939453125,-5.249734883660078,-3.1854256876051426,-7.14964905180633
1746409823999361000,2.433361083984375,-6.460235293537378,-3.611465865080058,-8.170399627766013
1746409824009333800,2.443333740234375,-7.223532034140825,-4.101010546477139,-9.039956018173694
1746409824019307000,2.45330712890625,-7.540929758328199,-4.21008379239738,-9.323776466929912
1746409824029280000,2.463280029296875,-7.718897969037294,-3.9123412012726067,-9.362543712219596
1746409824039254000,2.47325390625,-8.118814401957392,-3.416092930583656,-8.69915169943571
1746409824049227000,2.48322705078125,-8.796111605975032,-3.07377265432477,-7.375040692469478
1746409824059199700,2.49319970703125,-9.582467735126613,-2.3967511985085905,-5.861576741948723
1746409824069172700,2.5031728515625,-10.081508559143543,-0.9880616276703774,-4.1106384987831115
1746409824079146000,2.51314599609375,-9.999988798320294,1.0183678455416112,-2.8901410110265013
1746409824089119000,2.523118896484375,-9.61343395127654,2.7262121393248435,-2.125271322017908
1746409824099092000,2.533092041015625,-8.694111951702833,4.0452036113202565,-1.8624252722293138
1746409824109064700,2.543064697265625,-6.748773418465256,4.930754274195432,-1.417576057127118
1746409824119038000,2.553037841796875,-3.863796073812246,5.487597298839688,-0.6855839708477258
1746409824129011000,2.563010986328125,-1.2254361132025717,6.730854899936914,0.7200199089348316
1746409824138984000,2.57298388671875,-0.3467944990634918,8.801786729001998,3.9203877296060323
1746409824148957000,2.58295703125,-0.3062169894814491,9.783376091918349,8.213930726456642
1746409824158931000,2.592930908203125,0.3167179252296686,7.611391534042358,9.851528421646355
1746409824168904000,2.602904052734375,2.0939234130740165,3.4249075206801294,7.527224473580717
1746409824178877000,2.612876953125,5.1886067534804345,1.5311910381302236,3.0290099680125713
1746409824188850000,2.622849853515625,9.39795112568736,2.557466222730279,-1.3111913196384906
1746409824198823000,2.632822998046875,13.49561206947565,4.666996370258927,-2.2486726607590914
1746409824208796000,2.6427958984375,16.791666708010435,4.420114197799563,-0.797492294063419
1746409824218769000,2.652768798828125,17.161424734032153,1.6985963537707924,1.2788982387989758
1746409824228742000,2.662741943359375,15.442649807846545,-0.1355031338147819,1.9151304419785737
1746409824238715000,2.67271484375,14.061982216399906,0.3842889479383826,0.06858841959033161
1746409824248687900,2.68268798828125,13.557699984598159,2.4685133892968296,-1.2504352376416326
1746409824258661000,2.6926611328125,13.60922675821781,3.3619542208999396,-0.7190148235455155
1746409824268633900,2.7026337890625,17.936532323938607,4.57302307831496,1.9865993489086626
1746409824278608000,2.71260791015625,73.80793907620907,32.17995481107235,9.610929859501123
1746409824288580900,2.722580810546875,77.69949409456252,32.2685192297101,-9.635947980901598
1746409824298553900,2.732553955078125,0.14615969851613045,-13.029626542842387,-28.05864528067112
1746409824308527000,2.742527099609375,-9.209489578014612,-7.1862886374175545,-18.357386915469167
1746409824318500000,2.7525,8.094433409416675,17.649415171724556,23.332615122163293
1746409824328472800,2.762472900390625,-6.538403405845165,6.841230168366431,7.209636195257306
1746409824338445800,2.77244580078125,-13.865191231799125,0.8760191566810012,-3.4932220552325246
1746409824348419000,2.782419189453125,-9.977413393896818,9.751182379800081,1.245518239505589
1746409824358392000,2.79239208984375,-5.54059765214324,5.490761900350451,0.8929385081041604
1746409824368364800,2.80236474609375,-1.7044518018007278,9.068132895866036,2.5132626316055653
1746409824378337800,2.812337890625,0.42345103776454923,9.737563019770382,2.974295212006569
1746409824388310800,2.822310791015625,4.183120966669917,9.08259689002633,3.033530952568352
1746409824398284800,2.832284912109375,9.667384152650833,5.199579398393631,2.743649888598919
1746409824408258000,2.842258056640625,7.377402745425701,2.4036852355554696,1.062546959812194
1746409824418231000,2.85223095703125,0.10376315681338309,1.2654450291164219,0.849938228354603
1746409824428203800,2.862203857421875,-0.10723287875056266,3.2254075693815945,1.9383985048413275
1746409824438176800,2.8721767578125,-0.04852233110666275,2.7819384104609486,0.18177461725473404
1746409824448150000,2.88214990234375,-2.789297541052103,1.097171844600141,-1.8757646462738513
1746409824458123000,2.892123046875,-1.2373989381968975,1.1443605890154838,-1.0298214789047837
1746409824468096000,2.902095947265625,2.6159762793660164,1.6658353631585836,0.3610924890071153
1746409824478068700,2.91206884765625,2.5938462806224822,1.9657354245781897,-0.7055038923263549
1746409824488042000,2.9220419921875,0.7401601951658725,1.0846715517282486,-3.3932556603536006
1746409824498015000,2.932014892578125,-0.6283370660156011,0.4503603797391057,-4.478548851111531
1746409824507988000,2.941988037109375,-1.8222458220541475,0.6868529678702354,-3.305241569074988
1746409824517961000,2.9519609375,-2.448780807083845,0.23117080858647823,-2.454247255796194
1746409824527935000,2.96193505859375,-2.3703531670570372,-0.5161562094688416,-1.640043334776163
1746409824537907700,2.97190771484375,-1.8068635440051555,-1.1121692149847746,-1.626811951150745
1746409824547881000,2.981880859375,-1.335191203907132,-1.1607190186202525,-2.825245052745938
1746409824557854000,2.99185400390625,-0.9730950908154249,-0.471710334020853,-2.6331656068369744
1746409824567827000,3.001826904296875,-0.7401701320379972,0.3610153321176767,-1.8910696213029323
1746409824577800000,3.011800048828125,-0.45802258493006226,1.0822095455288887,-2.023240688085556
1746409824587773000,3.02177294921875,-0.6127168875575065,1.3327113697901367,-1.401745012397319
1746409824597746000,3.031745849609375,-0.6726642835199832,1.5012056497111916,-1.0781854045793413
1746409824607719000,3.041718994140625,-0.2599824770510197,2.0148343865290284,-0.9638130293376743
1746409824617692000,3.05169189453125,-0.06314706878662109,2.6656556715533135,0.22806904317885637
1746409824627665200,3.0616650390625,0.33033553169369695,2.121382205624878,2.2827274905741213
1746409824637638000,3.071637939453125,1.0504828664004802,1.3938786629363893,5.7622162040084595
1746409824647612000,3.08161181640625,1.3521879314154386,0.08038140444308518,7.906281658345461
1746409824657585000,3.0915849609375,1.256513973033428,-1.24051823926121,7.298576461470127
1746409824667558000,3.101557861328125,0.7307265963882208,-1.7449077308297156,7.100120758527517
1746409824677531000,3.11153076171875,-0.4716156414747238,-0.9683946580395102,5.209578229838609
1746409824687504000,3.12150390625,-1.142144666531682,-0.13681933097988366,0.908520911835134
1746409824697476900,3.131476806640625,-0.5704349121451378,0.4482128463163972,-2.633504045011103
1746409824707449900,3.141449951171875,-0.04288286391496658,0.40474721407741304,-3.537805877846479
1746409824717422800,3.1514228515625,-0.6235585995674133,0.08927402821183204,-2.8754040451437235
1746409824727396000,3.16139599609375,-0.9320669148564338,-0.28977468098551035,-1.3420024913571773
1746409824737368800,3.171368896484375,-0.375843483415246,-0.18906229004487393,0.9610802433729171
1746409824747341800,3.181341796875,0.6441361081719398,0.08344020749181509,2.4797704041093587
1746409824757314800,3.191314697265625,1.443684311851859,0.28723449498340486,2.6185756482094527
1746409824767288800,3.201288818359375,1.87474114844501,0.31988428030610083,1.5915058061003684
1746409824777262000,3.211261962890625,1.1394611265361307,0.14350246200561523,-0.4522960239768028
1746409824787235000,3.221235107421875,-0.39677930393815036,-0.03341813934668898,-1.1534670747306197
1746409824797207800,3.231207763671875,-1.342185008317232,-0.45413712179884314,-0.934889790257439
1746409824807180300,3.24118017578125,-1.0992144563436508,-0.6876280438959598,-0.776619674969837
1746409824817153500,3.251153564453125,-0.19683716183006764,-0.7876894235819578,-1.2482001720659435
1746409824827126500,3.26112646484375,0.8101824104189872,-1.0430391262657939,-1.5890797479972243
1746409824837099300,3.271099365234375,1.3247837916612624,-1.3168242109589279,-1.7079919586256145
1746409824847072300,3.281072265625,0.9957570044785737,-1.972871413937956,-2.535695704948902
1746409824857045500,3.29104541015625,0.5564233379274607,-2.4855711993426084,-3.5908085692375895
1746409824867018500,3.3010185546875,0.4553308616280555,-3.2029826793447134,-5.005817406225204
1746409824876991500,3.310991455078125,0.6088847620487213,-3.7474604356735943,-5.824101290035247
1746409824886965500,3.320965576171875,1.3278104460060596,-4.206425269889832,-6.397550581565499
1746409824896938200,3.330938232421875,1.6146879442453383,-3.5150913572132585,-5.18885751337111
1746409824906911500,3.340911376953125,1.3277145844161509,-3.170776984527707,-3.855547008644044
1746409824916884500,3.350884521484375,1.1535761611282824,-3.877755917842686,-2.9360590048536657
1746409824926857500,3.360857421875,0.9873790522336959,-2.6787071685671804,-1.0292523007147014
1746409824936830500,3.37083056640625,0.7111310845583677,-2.644502116626501,-0.3010337416246533
1746409824946803500,3.380803466796875,0.11145838749110698,-2.1692701843507587,0.7434259189635515
1746409824956776400,3.3907763671875,-1.441824947720766,-0.2893938649743795,1.9603036087878047
1746409824966749400,3.40074951171875,-2.024711345160007,-0.734489748314023,3.240378928542137
1746409824976722400,3.410722412109375,-1.784305090716481,-1.9307870069243012,4.017809408438206
1746409824986695400,3.4206953125,-1.1261433798015117,-2.415484978942573,4.5682069102048874
1746409824996668400,3.43066845703125,-1.370650639823079,-1.730264142318815,5.201339393803477
1746409825006641400,3.440641357421875,-2.622587806460261,-0.14918372251242398,6.098486386448145
1746409825016615400,3.450615478515625,-4.821285014694928,0.8288662142314016,5.7774131886184215
1746409825026588400,3.46058837890625,-6.714199533212184,0.9930249491661787,4.2442666325062515
1746409825036561400,3.4705615234375,-7.58415807467997,0.5548053813368081,2.7638617787614463
1746409825046534700,3.48053466796875,-7.736769141292571,1.3448723477050661,1.9903068251244722
1746409825056507400,3.49050732421875,-8.375811725717783,3.79690923397541,1.2489362312555312
1746409825066480400,3.50048046875,-8.428606911838054,5.742385714378953,-0.3601513356994837
1746409825076453400,3.510453369140625,-5.656445214504004,9.29749986990094,-2.876898375354707
1746409825086426600,3.520426513671875,4.370744894474744,12.40734453908205,-5.725435164099931
1746409825096399600,3.530399658203125,21.54846492974758,11.55431082893014,-7.390744457557797
1746409825106372400,3.540372314453125,29.820595331716536,7.110612341925502,-4.662525946846604
1746409825116345300,3.550345458984375,14.009866244715452,3.7064819440752266,-2.4085399821102618
1746409825126318300,3.560318359375,0.06733692169189452,5.180900416886806,-1.744507187204808
1746409825136291600,3.57029150390625,-3.986453316187858,6.657413231629133,-0.587440553612262
1746409825146265600,3.580265625,-6.6374255056113,4.442417215022444,0.06493051813729107
1746409825156238300,3.59023828125,-7.266665657946467,0.8174094390630722,0.7547112830877304
1746409825166211300,3.60021142578125,-5.649415169736742,-0.4328515379901975,1.2933528806090355
1746409825176184300,3.610184326171875,-2.9294214665353295,-0.5091404124226421,1.3703053335167468
1746409825186157600,3.620157470703125,-0.23578327081799505,-0.9318681774139403,1.2253662628367543
1746409825196130600,3.630130615234375,2.00510531193614,-1.5366522261455655,1.3859901016436516
1746409825206103300,3.640103271484375,3.2980326606094836,-1.8263655323326586,1.6542717666149138
1746409825216076300,3.650076171875,3.1178298227161165,-1.5746812202885747,1.7377511370733378
1746409825226049500,3.660049560546875,1.3546107746481895,-0.8283890251737087,1.193395691949874
1746409825236022500,3.6700224609375,-0.8017664642512797,-0.17537373723648486,0.10839892685525118
1746409825245995500,3.67999560546875,-1.9043617952048777,-0.004853139119595289,-0.8635014742828905
1746409825255968300,3.68996826171875,-1.6739467734217643,0.144613491987437,-1.341733757418394
1746409825265942300,3.6999423828125,-0.7372130357980727,0.2748759486697614,-1.2826125831469892
1746409825275915300,3.709915283203125,0.2441127077460289,0.2707723127432167,-0.8464517014130949
1746409825285888500,3.719888427734375,0.8637199393391609,0.22496077496521175,-0.2958751532850787
1746409825295861500,3.729861572265625,0.9854068753778934,0.19548370139449833,0.15475370466448365
1746409825305834500,3.73983447265625,0.5760416461110115,0.12845540726035834,0.3463931882536039
1746409825315807200,3.74980712890625,-0.018153496327996253,0.05851502507179975,0.2280707602119073
1746409825325780500,3.759780517578125,-0.41593876243829725,0.009178528038039802,-0.07267013594601303
1746409825335753500,3.76975341796875,-0.4482265825808048,0.017043196998536587,-0.2836866663087159
1746409825345726500,3.7797265625,-0.21865677945017814,0.014536840200796722,-0.30035547703690824
1746409825355699500,3.789699462890625,0.06382511417865752,0.024030498602613807,-0.293842624544166
1746409825365672400,3.79967236328125,0.16546411844491957,0.03648483344092965,-0.2415629867305979
1746409825375645400,3.8096455078125,0.12360416783690452,0.04123962675258517,-0.20733773225210606
1746409825385618400,3.819618408203125,0.0009644611179828644,0.015430793365836143,-0.18243578457720577
1746409825395591400,3.82959130859375,-0.13460954597592353,0.002765080799162388,-0.20401077978648244
1746409825405565400,3.8395654296875,-0.17575637987852097,0.003664806117862463,-0.21814053702373057
1746409825415538400,3.849538330078125,-0.12509703674316405,0.024289441799744963,-0.1862597267795354
1746409825425511400,3.859511474609375,-0.036758243554830546,0.02036729991994798,-0.20558025759290902
1746409825435484400,3.869484375,0.007612813091278076,0.046782209441065786,-0.18970617743898183
1746409825445457400,3.87945751953125,0.011140987217426299,0.05809504609405994,-0.19687574027478694
1746409825455430400,3.889430419921875,0.0012286650121212004,0.05661554812602698,-0.1813700915744528
1746409825465403400,3.8994033203125,-0.015993687945604323,0.05388634235784411,-0.19249924222361295
1746409825475376400,3.90937646484375,-0.01813186901807785,0.05114807650037109,-0.19660565462913362
1746409825485349400,3.919349365234375,-0.04319850573539734,0.03946925607919693,-0.2065839547427371
1746409825495322400,3.929322265625,-0.04211363310813904,0.038993089934810994,-0.21231862593721598
1746409825505295600,3.939295654296875,-0.038025487011671064,0.02270107662975788,-0.1807962737418711
1746409825515268400,3.949268310546875,-0.027364976787567136,0.007077829431742429,-0.19488051133695988
1746409825525241300,3.959241455078125,-0.03391863621473312,0.023137568350881335,-0.20286234040372073
1746409825535215400,3.96921533203125,-0.039250644892454147,0.021796529005467892,-0.21263441388811916
1746409825545188400,3.979188232421875,-0.04790390694737434,0.014895736641064285,-0.20365323505308477
1746409825555161600,3.98916162109375,-0.04460135827064514,0.007743892125040292,-0.22952855780478565
1746409825565134600,3.999134521484375,-0.05027005155682564,0.04072049824930727,-0.22074228048734365
1746409825575107300,4.009107421875,-0.040028059005737304,0.018075608786195515,-0.19021803595125675
1746409825585080300,4.019080322265625,-0.014368717092275619,0.03220123783759773,-0.197667329043895
1746409825595053300,4.02905322265625,-0.011090718334913253,0.0571077886223793,-0.1663662549164146
1746409825605026600,4.039026611328125,-0.009442366605997085,0.039300621514022346,-0.15782054488919675
1746409825614999600,4.04899951171875,-0.011395254239439963,0.03452303184866905,-0.1809298735262826
1746409825624972300,4.05897216796875,-0.022633856612443923,0.035720863331109284,-0.1962455891450867
1746409825634945300,4.0689453125,-0.031333880418539045,0.028461978244036436,-0.20227255781702697
1746409825644918500,4.07891845703125,-0.0324164149582386,0.04272467767857015,-0.18355967404060064
1746409825654891500,4.0888916015625,0.0013747954845428467,0.03406673944853246,-0.15560940817836671
1746409825664865500,4.098865478515625,-0.01377133572101593,0.02379924713000655,-0.17545089412592352
1746409825674838500,4.108838623046875,-0.02040975082218647,0.024081352007016537,-0.18108769443649797
1746409825684811300,4.118811279296875,-0.03226794639825821,0.03622216391675174,-0.18148104113563895
1746409825694784500,4.128784423828125,-0.03394610874354839,0.046405923474580044,-0.184182591711916
1746409825704757500,4.138757568359375,-0.04219546617269516,0.039350013613700864,-0.1778723125865683
1746409825714730500,4.14873046875,-0.011031681624054908,0.029614582345262166,-0.14511738638896493
1746409825724703200,4.158703125,0.0010240823507308959,0.03210581463910639,-0.162560688620992
1746409825734676500,4.168676513671875,0.000831190127134323,0.03451426402032375,-0.17086199543308467
1746409825744649500,4.1786494140625,-0.006645429363846779,0.03063742258697748,-0.15563987638186663
1746409825754622500,4.18862255859375,0.019099837267398834,0.03827208218388259,-0.1374082002511248
1746409825764595500,4.198595458984375,0.03302548676729202,-0.011744213807582855,-0.10710680468548088
1746409825774568200,4.208568115234375,0.013662030127644538,-0.02623436532244086,-0.07171725566796958
1746409825784541400,4.21854150390625,0.004320201286673545,-0.011560162477567791,-0.03956467927768826
1746409825794515500,4.228515380859375,0.07273322777748108,-0.04166179768741131,-0.05890066338852048
1746409825804488400,4.238488525390625,0.24154548760652542,0.029212942741811274,-0.04773713554572314
1746409825814462500,4.24846240234375,0.6948492273211478,0.19923837775290013,-0.29775932306386527
1746409825824435200,4.258435302734375,1.331006611698866,0.4416908972017467,-0.5082989931624382
1746409825834408200,4.268408203125,1.8979577733814714,0.4976743579693138,0.10618738828562199
1746409825844381400,4.27838134765625,2.898950340425968,0.6597307137973606,1.3357277950018644
1746409825854354400,4.2883544921875,4.0199171943724155,0.8196795759521425,2.096446940202266
1746409825864327400,4.298327392578125,3.6942718663215635,0.3261969705842435,1.8503221619814634
1746409825874300200,4.308300048828125,0.8830261128336191,-1.001432565896958,0.7530654155768454
1746409825884273400,4.3182734375,-2.7257711175590753,-1.628703463985771,0.6236163211040199
1746409825894246400,4.328246337890625,-4.061110205504298,-0.26605565948486326,1.8917313000820577
1746409825904219400,4.338219482421875,-3.852351135212183,1.0799177813299,1.4276868245139718
1746409825914192400,4.3481923828125,-3.48556598752141,0.6846379221692681,-0.9014347529664635
1746409825924165400,4.358165283203125,-2.737304903486371,0.31868074973523614,-2.402712006609142
1746409825934139100,4.36813916015625,-1.4132973568946123,0.5225483947239816,-2.760910235479474
1746409825944112400,4.3781123046875,0.22690321426987647,0.5267071218386292,-2.8042627627328036
1746409825954085400,4.38808544921875,1.121420442932844,0.3968861253134906,-2.105470058482885
1746409825964058400,4.398058349609375,0.8912859916567802,0.23173399542719125,-0.8157669325530529
1746409825974031400,4.40803125,0.21589783613085745,-0.009020341801643371,0.49243134274929756
1746409825984004400,4.41800439453125,-0.1412549753397703,-0.12667334614917636,1.04249639769122
1746409825993977300,4.427977294921875,-0.2914905449926853,-0.14700097164586184,0.6713270435668528
1746409826003950300,4.437950439453125,-0.24348843836784362,-0.05346680177152156,0.34415465207919477
1746409826013923300,4.44792333984375,0.037416415202617646,0.00015767477974295617,0.22903642690628764
1746409826023896600,4.457896484375,0.23196809644401073,0.22780586219802498,-0.2046848065905273
1746409826033869300,4.467869384765625,0.15493687921166419,0.21640958504527805,-0.5492952396132051
1746409826043842300,4.47784228515625,0.05517068307995796,0.04900163905620575,-0.3455234562143683
1746409826053815300,4.487815185546875,-0.12672785281538962,-0.013238397888094186,-0.08107187092527747
1746409826063789300,4.497789306640625,-0.3103635877668857,-0.02069587428718805,0.008475421269983052
1746409826073762300,4.50776220703125,-0.30375732136964795,-0.05807108069658279,0.03629311026111245
1746409826083735300,4.5177353515625,-0.2789011125326156,0.0073259589739143845,-0.1599865638166666
1746409826093708300,4.527708251953125,-0.16965280230641364,0.2715630247294903,-0.45321299269124865
1746409826103681300,4.537681396484375,0.07610591908097267,0.4248923226140439,-0.7313283616736531
1746409826113654300,4.547654296875,0.2411667174220085,0.43745515932813284,-0.8271526883117855
1746409826123627500,4.55762744140625,0.26798925789594646,0.23943638649806379,-0.5099113237299024
1746409826133600300,4.567600341796875,0.1324935767352581,0.08462795597165823,-0.1212432839244604
1746409826143573200,4.5775732421875,-0.056093643143773075,-0.009321662835776805,0.0895775412030518
1746409826153546200,4.587546142578125,-0.17899872280061244,0.02194806630536914,0.09980711266398429
1746409826163519500,4.59751953125,-0.13931786979734898,0.0327661051787436,-0.10639087496846913
1746409826173492500,4.607492431640625,-0.027590017715096473,0.06538184210136533,-0.2421023908369243
1746409826183465200,4.61746533203125,0.027503508475422857,0.07568520945087075,-0.23781521503701805
1746409826193438200,4.627438232421875,-0.09318097252249717,0.051608606684207914,-0.32872809649705886
1746409826203412200,4.637412109375,-0.26956103725731373,0.036472850742191074,-0.19244243400245903
1746409826213385200,4.64738525390625,-0.25817864249944683,-0.0034663609363138675,-0.0008050327725708485
1746409826223358500,4.6573583984375,-0.128176298058033,0.013049305056780576,-0.2622837397307157
1746409826233331500,4.66733154296875,0.12666589349508284,0.0876420430958271,-0.4381497174635529
1746409826243304200,4.67730419921875,0.20156886652708053,-0.1320966863721609,-0.21016353026255963
1746409826253277200,4.687277099609375,-0.056475335937738416,-0.12211904384568333,-0.09634440498948096
1746409826263250400,4.69725048828125,-0.2812602428793907,-0.040847997086495155,0.0446281001470983
1746409826273223400,4.707223388671875,-0.2853027962684631,0.026791999205201863,0.1355105864688754
1746409826283196400,4.717196533203125,-0.18985037168264388,0.21385113273411988,-0.04455445038899779
1746409826293169200,4.727169189453125,-0.07368833654522895,0.31209932551831004,-0.22966274211108684
1746409826303142400,4.737142333984375,-0.024386253237724302,0.2884673977792263,-0.18958236839622258
1746409826313115400,4.747115478515625,-0.03613046704530716,0.21002529083564878,-0.15756956580281256
1746409826323088400,4.75708837890625,-0.2149327904909849,0.20762539008706807,-0.11459931586533784
1746409826333062400,4.7670625,-0.4820885201722383,0.3825852127604186,0.008469429920613765
1746409826343035400,4.777035400390625,-0.8345797695726156,0.5543237352997065,-0.1807273001588881
1746409826353008400,4.78700830078125,-1.9636381600379942,0.35763811076954005,-0.5005103120476008
1746409826362981400,4.7969814453125,-3.5224493187606334,0.14335297053232787,-0.6802529850833118
1746409826372954400,4.806954345703125,-4.035277845111489,0.3094971801958978,-0.13973178436048328
1746409826382927400,4.81692724609375,-2.8797008655548093,0.6465060521736741,1.2540426144838333
1746409826392900400,4.826900390625,-0.06473053858578205,1.349111884970963,3.5624773777663705
1746409826402873300,4.836873291015625,3.9880326943337914,2.7216777107656,6.31015520670712
1746409826412846300,4.846846435546875,7.953798611801862,3.9662358730673786,7.830891778579354
1746409826422819300,4.8568193359375,10.373353324401378,4.870041446818411,6.958386475238203
1746409826432792300,4.866792236328125,9.653969959804416,5.539827252292633,4.819420097605883
1746409826442765300,4.876765380859375,8.34454097366333,5.357208585429191,2.4357959455654026
1746409826452738300,4.88673828125,8.599012578338384,4.21074459439367,-0.00955919791869819
1746409826462711300,4.896711181640625,9.072107060194014,1.6866894967474042,-1.768438974673301
1746409826472685300,4.906685302734375,7.780508329775929,-0.6531569614302366,-2.916715714219212
1746409826482658300,4.916658203125,5.062159471172094,-1.0271502869341522,-2.8070237518787384
1746409826492631600,4.926631591796875,2.194325569021702,-0.22144688509274274,-1.6840905662953853
1746409826502604300,4.936604248046875,0.6020002632319927,0.29152448379490525,-0.12614756870940327
1746409826512577300,4.946577392578125,-0.3546206626445055,0.4666572518823668,0.8947465073741971
1746409826522550300,4.95655029296875,-0.6318944662362337,0.8309156941071152,1.6188044396534562
1746409826532523500,4.9665234375,1.1324889494359494,2.5323522397398945,2.729301337511837
1746409826542496500,4.97649658203125,3.4271810185700655,5.114467166036367,1.5208555220767854
1746409826552469200,4.98646923828125,4.283586835503578,4.082771417692303,-0.9884984116524458
1746409826562442200,4.996442138671875,4.025775272750854,0.3367206296209246,-2.7791990486249327
1746409826572415200,5.006415283203125,3.155196553558111,-2.30394417386502,-4.083547955022752
1746409826582388500,5.016388427734375,1.3675672868549822,-1.889021310470998,-3.485787813578546
1746409826592361500,5.026361572265625,-0.0772632724225521,-0.13426000188589096,-1.4671487740695475
1746409826602334200,5.036334228515625,-1.022965329399705,0.4688207500591874,-0.1455769301921129
1746409826612307200,5.04630712890625,-2.046530962780118,0.22708573122993111,0.57276189378798
1746409826622281200,5.05628125,-2.720132234889269,-0.3273443870536983,0.9980419005453586
1746409826632254500,5.06625439453125,-2.2472575332641602,-0.676310823328793,2.0122972692668437
1746409826642227500,5.0762275390625,-1.0657610995531082,-0.5181511826783418,2.384816868956387
1746409826652200400,5.086200439453125,-0.6585264525741338,-0.8417227731950581,0.23632278452217578
1746409826662173200,5.096173095703125,-0.5486690705388784,-1.976246004937589,-3.150979812645912
1746409826672146400,5.106146484375,-0.4051578407049179,-3.0327319111451505,-6.588901420938968
1746409826682119400,5.116119384765625,-0.7881880207538604,-2.996999211245775,-9.07664821075499
1746409826692092400,5.126092529296875,-1.7275854246288538,-2.021504658073187,-9.61218424347639
1746409826702065200,5.136065185546875,-2.7933658134043213,-1.2722383425183594,-8.605942085340619
1746409826712038400,5.146038330078125,-4.077438824492693,-1.1759566275015472,-6.941432417827844
1746409826722011400,5.156011474609375,-4.8700773949146265,-1.0654209078133106,-5.090045256963372
1746409826731984400,5.165984375,-4.737501985114813,-0.645499213218689,-3.2685710038036104
1746409826741957400,5.175957275390625,-3.806144679832458,-0.1859086483195424,-2.30551069252938
1746409826751930000,5.18593017578125,-2.894837644410133,-0.3591781798183918,-2.2563895187467335
1746409826761904000,5.195904052734375,-2.4700726014375687,-0.342611806551367,-3.0760505361288786
1746409826771877400,5.20587744140625,-2.779545377844572,0.15959274219349026,-4.1603836496829985
1746409826781850400,5.215850341796875,-3.6502386633276935,1.023278340871632,-4.6760105745807286
1746409826791823400,5.2258232421875,-4.41590505567193,1.661509608913958,-4.839138359032571
1746409826801796400,5.23579638671875,-4.953820677006244,1.6685794011697173,-4.906691846084595
1746409826811769000,5.24576904296875,-5.200996279454231,1.1291498681411147,-4.470656636556983
1746409826821742000,5.2557421875,-4.788863339039683,0.29371728113144635,-3.2468197752445933
1746409826831715000,5.265715087890625,-4.026623414012789,-0.6102525432705879,-2.1302330360785127
1746409826841688000,5.27568798828125,-3.5817701072573658,-1.4052382613405585,-2.311433945098519
1746409826851661000,5.2856611328125,-3.5380566377371547,-1.2755159028843044,-3.235725257517397
1746409826861634000,5.295634033203125,-3.9975235762566323,-0.1243000411465764,-4.025080568484961
1746409826871607000,5.30560693359375,-4.970359139353037,1.5501774781510234,-4.6974537601038815
1746409826881580000,5.315580078125,-5.941608894562721,2.685731075854599,-5.902838726663589
1746409826891553300,5.32555322265625,-6.527417901450395,3.049217766521871,-7.253091890624165
1746409826901526000,5.335526123046875,-6.828301128688454,2.746153980374336,-8.31928962802887
1746409826911500000,5.3455,-6.143531981354951,2.329776534257829,-7.3653335374474524
1746409826921473000,5.35547314453125,-4.092319582760334,2.1804721079751848,-2.8895141112998126
1746409826931446000,5.365446044921875,-1.8492191691756248,1.9772221564933656,1.9634315315499902
1746409826941419000,5.3754189453125,-0.4779150338798761,1.620294678211212,4.451165754145384
1746409826951392000,5.38539208984375,-0.5927934589475393,2.1507406943172214,4.956068163672089
1746409826961365000,5.395364990234375,-1.979579241013527,2.597198513659835,5.042763865828514
1746409826971338000,5.405337890625,-3.8380245036959644,2.8356749690845606,4.623686513103545
1746409826981311000,5.41531103515625,-5.275794038546085,3.5121813149854537,3.7994384601920843
1746409826991284200,5.4252841796875,-5.8359776057899,3.669761694443226,2.6928181115061043
1746409827001257000,5.435257080078125,-4.54591324533224,3.128762135618925,2.9531244136840105
1746409827011230000,5.44522998046875,-1.197270341426134,3.0496909369915723,4.667230763536692
1746409827021203000,5.455202880859375,2.7020108872652053,3.1168548402041196,5.2965989261657
1746409827031176200,5.46517626953125,6.303828926295042,2.8186738576620813,4.9716953563928605
1746409827041149200,5.475149169921875,8.857259609898925,2.0335922784909606,3.897856748846173
1746409827051122000,5.485121826171875,10.100929883450268,0.8050941473692655,2.5928221982717514
1746409827061096000,5.495095947265625,16.376178027427194,-0.24832024243846534,1.814600567997992
1746409827071069000,5.50506884765625,41.656611809206005,-1.6887041975706816,1.6137247983016072
1746409827081042200,5.515042236328125,28.563625431609154,-1.2300129195988176,0.41451713213734326
1746409827091015200,5.52501513671875,3.174291130128503,0.09232128695324063,1.040152172652632
1746409827100988200,5.53498828125,1.0530722983717917,2.336377247697115,0.6085050420161336
1746409827110961000,5.5449609375,-3.4019524692893026,2.716152225342393,0.1031946727430448
1746409827120934000,5.554933837890625,-6.207996562480926,1.9776079409405587,0.23979933805894105
1746409827130907100,5.5649072265625,-6.088198801189661,1.587358915553987,0.8417334407195448
1746409827140880100,5.574880126953125,-1.6924591661900281,1.932021078763902,1.4935408141717315
1746409827150853000,5.58485302734375,-0.1249514907926321,1.583724066182971,1.2412874700680374
1746409827160825900,5.594825927734375,-0.2437596565246582,-2.5430916604191065,-1.8578718467086552
1746409827170799000,5.604799072265625,-0.952490109682083,-4.999412215358019,-2.7007906978204845
1746409827180772000,5.614772216796875,-1.742290241807699,-1.2997760455243288,-0.9148918351065367
1746409827190745000,5.6247451171875,-0.37810733669400215,1.2662801647663116,-1.8030796415522694
1746409827200718000,5.634718017578125,0.09039864832758902,1.8429555787362157,-3.4633258064016696
1746409827210692000,5.644692138671875,-2.1141841108143327,0.2820442328639328,-3.8706826184555885
1746409827220665000,5.6546650390625,-3.240470113956928,-0.4744236846327781,-2.204783834671974
1746409827230638000,5.66463818359375,-0.4961228907436132,0.38699338459149,0.37530448116771875
1746409827240611000,5.674611083984375,2.788207992249727,0.9133183752447366,2.032689922823757
1746409827250584000,5.684583984375,3.009670476770401,0.661102586672455,2.7299162545397877
1746409827260557000,5.69455712890625,1.3455997851967811,0.5003850782327354,2.8225919078886506
1746409827270530000,5.704530029296875,0.05057166485190391,0.26635391177907586,2.147387146105617
1746409827280503000,5.7145029296875,-0.1768400834619999,-0.0264047534532845,1.0902617729507387
1746409827290476000,5.72447607421875,-0.23982816229462622,0.07909282593727111,0.2808075306758284
1746409827300449000,5.734448974609375,-0.42045244047045705,0.10166706131696701,-0.18000351592898367
1746409827310422000,5.744422119140625,-0.47429976599216456,0.09413359707221389,-0.491246224617958
1746409827320395000,5.75439501953125,-0.2569879714101553,0.06498378269448876,-0.7023468165349215
1746409827330368000,5.764367919921875,0.0022539164066314697,-0.018764467833191155,-0.8208191744413227
1746409827340341000,5.774341064453125,0.0948398456454277,-0.11735372914001345,-0.7838358168937265
1746409827350314200,5.784314208984375,-0.07038578786849975,-0.011485855132341384,-0.5834335829932242
1746409827360288300,5.794288330078125,-0.30141806476712224,0.06875614084005355,-0.33210341814905403
1746409827370261000,5.804260986328125,-0.36303953142166134,0.020157529626786706,-0.19959581288844347
1746409827380234000,5.81423388671875,-0.22778701136708257,-0.03811126559898257,-0.09564400163516401
1746409827390207000,5.82420703125,0.07755319527983665,-0.05260200163573026,0.010470613675191998
1746409827400180200,5.83418017578125,0.4072200339317322,-0.04763488074764609,0.028337694277241823
1746409827410153200,5.8441533203125,0.5222919357448816,0.09284180369600653,-0.13605251132585108
1746409827420126000,5.8541259765625,0.4267383888721466,0.31953006004095075,-0.30041086048595605
1746409827430099000,5.864098876953125,0.24000936408042906,0.3515808565571904,-0.43377793212011456
1746409827440072000,5.874072021484375,0.17082301512956619,0.25846637339964507,-0.3929164179649204
1746409827450045200,5.884045166015625,0.2820435022115707,0.18459975767806172,-0.09588073300048708
1746409827460018200,5.89401806640625,0.49857028389573094,0.16974807937443256,0.1506939809449017
1746409827469991000,5.903990966796875,0.4751099133312702,0.16258213326781987,0.12240684781111776
1746409827479964000,5.9139638671875,0.05857961474061012,0.061585956949740644,0.1039380019236356
1746409827489937200,5.923937255859375,-0.23499767339825628,-0.023304595480859277,0.3689658527307212
1746409827499910100,5.93391015625,-0.16169629034399985,0.01594005806222558,0.3311826500423252
1746409827509884200,5.94388427734375,-0.05787935751676559,0.09427797397896646,0.1707616403311491
1746409827519857200,5.953857177734375,0.4279799133658409,0.38035570014268155,0.7705249382913112
1746409827529830000,5.963829833984375,1.4991478403985499,0.687174454909563,1.5070967535763977
1746409827539803100,5.97380322265625,2.3952315877258776,0.9208058083906769,1.3741273760229349
1746409827549776100,5.983776123046875,2.7828806597471236,1.163494182422012,1.0790747546344994
1746409827559749000,5.9937490234375,2.644558230727911,1.209074176466465,0.6551108719769865
1746409827569721900,6.003721923828125,2.144641208398342,1.0128376108780504,-0.06161445239186287
1746409827579695000,6.013695068359375,2.3758581942141053,1.2127587101981043,0.6161353907641023
1746409827589668000,6.023668212890625,3.830632639878988,1.7508112557850777,2.5829014004990456
1746409827599641000,6.03364111328125,5.131127208936214,1.8624764178946613,3.7459944547742605
1746409827609614000,6.043614013671875,7.123757654702663,2.839027202121913,3.224664349798858
1746409827619587000,6.053587158203125,7.83399383624792,2.600267838102579,2.836774747020006
1746409827629560000,6.06356005859375,7.599418187654018,1.9271283382862805,3.5798978836447
1746409827639533000,6.073532958984375,7.141059502637386,0.9077788612961769,4.394385590042174
1746409827649506000,6.083506103515625,5.750516998386383,0.015678630647063256,4.111338756006956
1746409827659479000,6.09347900390625,3.152146518337726,-0.05923311021327972,2.8162083443313835
1746409827669453000,6.103453125,0.36330315079391,0.35158027203530073,1.4384952187761664
1746409827679426000,6.113426025390625,-1.4150474154323338,1.0821911330893634,0.596264276863262
1746409827689399000,6.12339892578125,-1.7445535105645655,2.32123798462376,-0.2649525205485523
1746409827699372000,6.1333720703125,-1.6445172653198241,3.2261782614931462,-1.3795850569069386
1746409827709345000,6.143344970703125,-1.6926368608444928,3.338051659525931,-2.047809458283335
1746409827719318300,6.153318359375,-1.3379431329637765,3.052727528208494,-2.1175266992405057
1746409827729291000,6.163291015625,-0.6192997730791568,2.5877152305215594,-1.7422694912806151
1746409827739264000,6.173263916015625,0.15574819559454917,1.9573732544243334,-1.1184392351649701
1746409827749237000,6.183237060546875,0.3877127849072218,1.452582196317613,-0.7258818597707897
1746409827759210000,6.1932099609375,0.0482978747010231,1.3623817009106278,-0.9956617274105548
1746409827769183200,6.203183349609375,-0.44385435884594915,1.4517385851003228,-1.686559440626949
1746409827779156000,6.213156005859375,-0.9442448439061641,1.2515109040491281,-2.391997135849297
1746409827789129000,6.22312890625,-1.4612299054145812,0.8563876236896961,-2.9497631205573676
1746409827799102000,6.23310205078125,-2.1202105314970017,0.2603406428389251,-3.515245670992136
1746409827809074700,6.24307470703125,-2.9303426730334756,-0.4576925857907161,-3.8506229962453244
1746409827819047700,6.253047607421875,-3.721000298771262,-1.097292475305125,-3.846893454328179
1746409827829021700,6.263021728515625,-4.3818741912543775,-1.65495463431254,-3.57601841186285
1746409827838994400,6.272994384765625,-4.826743280100822,-2.1520628828316926,-3.2860990617096424
1746409827848967700,6.2829677734375,-5.151414210161566,-2.561697868950665,-3.12739143178761
1746409827858940700,6.292940673828125,-5.38276212888062,-2.8009882711067795,-3.333715091626346
1746409827868913700,6.30291357421875,-5.81999327019453,-2.887070809800923,-3.887630538386106
1746409827878886700,6.31288671875,-6.519711564856768,-2.758737567615509,-4.344138042578101
1746409827888859400,6.322859375,-7.26440414275527,-2.2391776871830222,-4.480268514510989
1746409827898832600,6.33283251953125,-8.027608528900146,-1.1634661984365433,-4.300176735776662
1746409827908805600,6.3428056640625,-8.406818858399987,0.005010813899338245,-3.7361990369468927
1746409827918778600,6.352778564453125,-8.140924526956677,0.6146538469694555,-2.679082431620359
1746409827928751600,6.362751708984375,-7.451755098837614,0.7228159693941474,-1.533926600573957
1746409827938724600,6.372724609375,-6.607644115331769,0.6625088002085685,-0.6883800313070416
1746409827948697600,6.382697509765625,-5.26013878877461,1.4847782465234398,-0.46199002725630994
1746409827958670600,6.392670654296875,-3.7155332655370232,2.4097758075155316,-0.4425108352825045
1746409827968643600,6.4026435546875,-2.7794880946993827,2.3601605666056273,-0.2482625209018588
1746409827978616600,6.412616455078125,-2.525263158261776,1.316407008460164,-0.15708791976571082
1746409827988590600,6.422590576171875,-2.108542305535078,0.2609624279990792,0.541241550886631
1746409827998563600,6.4325634765625,-0.20403437985777853,-0.5449867287643253,1.928561585959792
1746409828008536600,6.44253662109375,2.1935767964810133,-1.076274310261011,1.2147875856772063
1746409828018509600,6.452509521484375,3.2589491889774798,-1.894483521399647,1.8353718456089496
1746409828028482600,6.462482666015625,2.4942057566970584,-3.2829116638451814,4.673278227007389
1746409828038455600,6.47245556640625,2.320146243864298,-4.595451475483179,5.195776498979329
1746409828048428500,6.482428466796875,3.1116718846082687,-4.236840866419673,2.943224366438389
1746409828058401500,6.492401611328125,2.6493852124929425,-2.573473939201236,-0.5385635638490319
1746409828068374500,6.50237451171875,0.5215513465106487,-0.6545081568434834,-3.09376505651772
1746409828078347800,6.51234765625,-3.3381694406867024,-0.16403905407786368,-3.4568902203962204
1746409828088320500,6.522320556640625,-10.361521432310342,-3.7299621883839365,-0.40061099105551834
1746409828098293500,6.53229345703125,-9.510330135154723,-6.75469579425156,3.4229958418399096
1746409828108266500,6.5422666015625,0.09256021027565002,-3.5269533521816134,3.6431092498391866
1746409828118239700,6.55223974609375,5.143512058734894,-3.616463234975934,2.4680638919636606
1746409828128212700,6.562212646484375,17.941560381233693,-4.365294812375307,-5.15004584441781
1746409828138185500,6.572185546875,34.010373418188095,-0.7514433673329651,-12.641352032399176
1746409828148159500,6.582159423828125,29.434969874477385,4.516569077426195,-8.796554089045523
1746409828158132500,6.592132568359375,6.966224329257011,5.239052746126055,-3.7815316321015358
1746409828168105700,6.602105712890625,-8.519655548506975,2.6760008322179316,-0.2400136749293655
1746409828178078700,6.61207861328125,-13.156211772316693,-2.102176862156391,2.745563321004808
1746409828188051700,6.6220517578125,-9.249832109797,0.17636019099056718,4.92781120648086
1746409828198024400,6.6320244140625,-3.7380373582899566,0.4549152665644884,3.418239294962585
1746409828207997400,6.64199755859375,0.22171733606457708,-0.2952358690008521,0.14787322443574666
1746409828217970700,6.651970703125,3.9315883380562067,0.15879560046643018,-0.8507423843443394
1746409828227943700,6.661943603515625,3.23634514298141,0.11472761842012405,-1.22268374575451
1746409828237916700,6.671916748046875,0.12881050430834293,0.17568156107664107,-1.2948219302482902
1746409828247889400,6.681889404296875,-1.8077648767590522,0.18578005350381135,-1.1209640774674714
1746409828257862700,6.691862548828125,-2.5590473544418813,0.060979953880608076,-0.43229938400015233
1746409828267835600,6.701835693359375,-2.122746187454462,-0.0068646250724792475,0.34012276621460913
1746409828277808600,6.71180859375,-0.7761737578332424,0.03617489070892334,0.734769442038238
1746409828287781400,6.721781494140625,0.5900362691938876,0.057227615609765047,0.7983077020995318
1746409828297755400,6.73175537109375,1.2352689404308794,0.11334376284629105,0.5094948518835007
1746409828307728600,6.741728759765625,0.9199754950463771,0.1464598505064845,0.1116441193215549
1746409828317701600,6.75170166015625,-0.017129998499155044,0.10152209988832474,-0.3918728271961212
1746409828327674600,6.761674560546875,-0.6678676968932151,0.10616145012676716,-0.4860692603714764
1746409828337647600,6.771647705078125,-0.5924293018102645,0.05897153666764497,0.016018383995443582
1746409828347620600,6.78162060546875,-0.5425707536637783,-0.018392273519933222,0.23011881531551479
1746409828357593600,6.791593505859375,0.02270750637054443,0.06247574539631605,0.11440203972756861
1746409828367566600,6.801566650390625,0.35650808382630345,0.10119096823781729,0.004996054721623659
1746409828377539600,6.81153955078125,0.36549218527078625,0.10331512078493833,-0.3766286424435675
1746409828387512600,6.8215126953125,0.11833937917649745,0.10538228244781493,-0.38072745606452224
1746409828397485600,6.831485595703125,-0.1778980680823326,0.04556728069335222,-0.09131123312786221
1746409828407458600,6.84145849609375,-0.2944102318316698,0.022618074521422386,-0.01900353728607297
1746409828417431600,6.851431640625,-0.23597207138836382,0.052447395595908164,0.013742840278893708
1746409828427404500,6.861404541015625,0.016843582773208618,0.09717413381189108,-0.0974471055343747
1746409828437377800,6.871377685546875,0.25080197625160217,0.07553805606514215,-0.17871069963946937
1746409828447350500,6.8813505859375,0.23924188683927058,0.045969724014401435,-0.12847601165696979
1746409828457323500,6.891323486328125,0.03828735281825065,0.056824295505881306,-0.09756108730286359
1746409828467297500,6.901297607421875,-0.1333773738324642,0.05205839627832174,-0.1544433966062963
1746409828477270500,6.9112705078125,-0.3022796500325203,0.06997779158949852,-0.20613792800828815
1746409828487243800,6.921243896484375,-0.22590251279473303,0.08458148648142814,-0.040360505830496544
1746409828497216800,6.931216796875,0.07809446254968642,0.05538929426670074,-0.017562252436578274
1746409828507189500,6.941189453125,0.3420668860197067,0.07309241647869348,-0.06706102735996246
1746409828517162500,6.95116259765625,0.4828203415781259,0.06547755756080151,-0.009445143084973096
1746409828527135500,6.961135498046875,0.2772287954062223,0.04307634066045284,-0.014041530964523553
1746409828537108700,6.971108642578125,0.2301741987645626,0.09123480689078568,-0.10696224511563777
1746409828547081700,6.981081787109375,0.09055997636914252,0.10752075578123331,-0.25954627759084103
1746409828557054500,6.991054443359375,-0.047538580766320226,0.0528621138766408,-0.20832915444225072
1746409828567027500,7.00102734375,0.30142274094223975,0.0018324761241674422,0.15451719249486923
1746409828577000700,7.011000732421875,0.8175409564882516,-0.01279138477295637,0.4440213859759271
1746409828586973700,7.0209736328125,1.542811625558138,0.08704495398551225,0.6797593563474714
1746409828596946400,7.030946533203125,2.6133903545260426,0.4460045226171612,0.7621183444738387
1746409828606919400,7.04091943359375,4.104568238958716,0.8036731746554374,0.5973533142089843
1746409828616893400,7.0508935546875,5.701214330556988,0.8236816512003541,0.23457557552866637
1746409828626866700,7.06086669921875,6.079261461496353,0.5504083154216408,-0.09121953625641763
1746409828636839700,7.070839599609375,6.082527769815921,0.5232312624216079,-0.04672799503579735
1746409828646812700,7.080812744140625,6.199819101244211,0.7091580309197306,0.1518847616320476
1746409828656785400,7.090785400390625,6.388254929953813,0.5279664742499589,-0.07901246331059374
1746409828666758700,7.100758544921875,6.789771199285983,0.6288795023292303,-0.4014117495117709
1746409828676731600,7.110731689453125,6.843299960377812,1.6877420745402574,0.10685465655531734
1746409828686704600,7.12070458984375,6.182127377209067,2.4036861123383044,1.0258971450679004
1746409828696677600,7.130677734375,4.916456284251809,2.5569708404287694,0.9780193954750895
1746409828706650400,7.140650390625,3.255276053422689,2.681538884861767,0.3104159755412489
1746409828716623600,7.15062353515625,1.9859411772608755,3.122654174132645,-0.23706585797443985
1746409828726596600,7.1605966796875,1.3820295274496077,3.5806016479998823,-0.2695340031199157
1746409828736569600,7.170569580078125,1.2408370959520338,4.125902703410387,-0.15974369497150182
1746409828746542600,7.18054248046875,1.1784767936289309,4.729917521335184,-0.04196647972241044
1746409828756515600,7.190515625,1.3813959057211875,5.489678196766972,0.29667715385034676
1746409828766488600,7.200488525390625,1.42367086687088,6.387871483594179,0.6318520883992313
1746409828776461600,7.210461669921875,1.1500023942947386,6.957112802040577,0.3521443356588483
1746409828786435600,7.220435546875,0.6759680012404918,6.7801628284633155,-0.2709504457890987
1746409828796408600,7.23040869140625,-0.06266776083707809,6.351937415903806,-0.8759981138929724
1746409828806381800,7.2403818359375,-0.9985960272967814,5.728778629308938,-1.9372662859410046
1746409828816354800,7.250354736328125,-1.942579005396366,4.742799799261987,-3.385136943566799
1746409828826327600,7.26032763671875,-2.8598329665243623,3.2990441757395863,-5.220384870535135
1746409828836300500,7.270300537109375,-3.692673198953271,1.691165034726262,-7.1001593369722364
1746409828846273500,7.2802734375,-4.326410662707686,0.2330237429767847,-8.550126674616337
1746409828856246800,7.290246826171875,-4.645663659372926,-0.9741787943989038,-9.184416511556506
1746409828866219800,7.3002197265625,-4.727489709666371,-1.3992439893618225,-8.761229093164205
1746409828876192500,7.310192626953125,-4.919980951246619,-1.1009142459988592,-7.619442738550901
1746409828886165500,7.32016552734375,-5.499038145786524,-1.141411676082015,-5.758842343661189
1746409828896138800,7.330138671875,-6.321383872207999,-1.5606003802269697,-4.109159073880314
1746409828906111700,7.34011181640625,-7.006665645238757,-1.8890926221415398,-3.010471856281161
1746409828916084700,7.350084716796875,-7.664826771631836,-2.2502944167420265,-2.6688100439310074
1746409828926057500,7.360057373046875,-8.26268452823162,-2.70612358328104,-2.931010197031498
1746409828936030700,7.37003076171875,-8.539341661229729,-3.037456893840432,-3.306157514876127
1746409828946003700,7.380003662109375,-8.474784725645184,-2.8564605674818155,-3.6827515243977307
1746409828955977700,7.389977783203125,-8.400324235683678,-2.4438825136482714,-4.154631954288482
1746409828965950700,7.39995068359375,-8.525113813912869,-1.9383929518833756,-4.770232872849703
1746409828975923700,7.409923828125,-8.826331387671829,-1.416645206017792,-4.91041174339056
1746409828985896700,7.419896728515625,-8.840325426232814,-0.8488698684707283,-4.428766290810704
1746409828995869700,7.42986962890625,-8.452947572368384,-0.35861499297767874,-3.387656232911348
1746409829005842700,7.4398427734375,-8.37085556461513,-0.24877134720683097,-1.404142575058341
1746409829015815700,7.449815673828125,-16.1050346894145,-6.85701225938797,5.500028910389542
1746409829025788700,7.45978857421875,-19.540884752130506,-16.12853480746746,13.016867599034308
1746409829035761700,7.46976171875,-3.7826854783117767,2.043384481447935,15.775876384806631
1746409829045734700,7.479734619140625,2.7434716094225644,10.625085859501361,6.361985931709408
1746409829055707600,7.489707763671875,-9.481014024299382,-3.894567059651017,-12.819760972613096
1746409829065680600,7.4996806640625,-10.851513272953033,-7.039798684033751,-25.765156742107866
1746409829075654000,7.50965380859375,28.077436490380762,-7.896476303645968,-24.950826564359662
1746409829085626600,7.519626708984375,119.2008381851673,17.717527169442175,-6.683917207673192
1746409829095599600,7.529599609375,33.3464944986701,16.041504174268244,-14.127066390728949
1746409829105572600,7.539572509765625,-20.117550667619703,21.818878784441946,-11.480593266290425
1746409829115545900,7.5495458984375,-17.594398802423477,4.8028532859474415,8.72781665290594
1746409829125518600,7.5595185546875,-8.421625382387637,4.429476484906673,19.570073437213896
1746409829135491600,7.56949169921875,-6.280012581899761,-4.408502378199994,11.481659434217214
1746409829145465600,7.579465576171875,-7.568301749378442,-4.415031487707793,3.9662420105472203
1746409829155438600,7.5894384765625,-5.547112733125687,0.28613953935354947,-0.504413164705038
1746409829165411600,7.59941162109375,-1.1274363422214984,1.1284531180486082,-3.638189913615584
1746409829175384800,7.609384765625,3.1393758840918538,0.7073615028917789,-4.348319127655029
1746409829185357600,7.619357666015625,2.871846060401201,0.33068039960861206,-1.4525588154420255
1746409829195330600,7.62933056640625,0.4890682960569858,0.07598316948413848,0.278502322473377
1746409829205303600,7.639303466796875,-1.475620834338665,-0.015076865361630916,0.07792334376648068
1746409829215276800,7.64927685546875,-2.338407876741886,0.09462693354710935,-0.7181172901839017
1746409829225249800,7.659249755859375,-1.406902687421441,0.35380978465303775,-1.2056301004271954
1746409829235222500,7.669222412109375,0.351788654088974,0.6802509392566979,-1.5390522730246186
1746409829245195500,7.679195556640625,1.0984539933651685,0.8712868674620986,-1.9100635139778255
1746409829255168800,7.689168701171875,0.6588835954487323,0.7616577412247657,-1.8447708114646375
1746409829265141800,7.699141845703125,-0.6122913556218147,0.6457333142355084,-1.8668490800209343
1746409829275114800,7.70911474609375,-1.5959493415057657,0.6296003639496862,-1.419018803281337
1746409829285087500,7.71908740234375,-1.6584312243819235,0.2397194412231445,0.4651199958451092
1746409829295060700,7.729060791015625,-0.666454322963953,-0.3117999041803181,1.3487873291917145
1746409829305033700,7.73903369140625,0.22109540477395057,-0.8200739820972085,1.490776756285876
1746409829315007700,7.7490078125,0.577114828300476,-0.8280306401900946,1.0938650581397116
1746409829324980700,7.758980712890625,0.8350374502122402,-0.12308701209500432,0.2851877915866673
1746409829334953700,7.76895361328125,0.8060796512752771,0.0728325964987278,0.06224295955374837
1746409829344926700,7.7789267578125,-0.13874679191112518,0.22968933785706758,0.0979169150032103
1746409829354899700,7.788899658203125,-1.3310785078912972,-0.1832103491462767,0.7623154744811356
1746409829364872700,7.798872802734375,-2.209865667980909,-0.9083699590571224,1.5663805710636078
1746409829374845700,7.808845703125,-2.6420184831172224,-1.7330609334304927,2.2008552630513907
1746409829384818700,7.818818603515625,-2.1010417206466196,-1.8925526994675397,2.2164099750578403
1746409829394791700,7.828791748046875,-0.31316110953092574,-1.3257251641646026,0.9105866121932864
1746409829404764700,7.8387646484375,1.528486163085699,-0.5009972187817097,-0.9754402657020836
1746409829414737700,7.848737548828125,2.1955290995925663,-0.5323850213445723,-2.145419937685877
1746409829424710700,7.858710693359375,1.2851391790151596,-1.5647148298084734,-2.4756340349569914
1746409829434683600,7.86868359375,0.16178046149611472,-2.921813329619169,-2.8729698037341236
1746409829444656600,7.87865673828125,-0.22579729885458946,-4.2068139769464725,-3.9477413082167505
1746409829454629600,7.888629638671875,-0.0637742607742548,-5.556470928579569,-3.3370930436268447
1746409829464602600,7.8986025390625,1.0395090524435042,-6.731745126774907,-0.884680602042377
1746409829474576000,7.908575927734375,2.9722108069479463,-5.740123614665865,-0.25672678145701067
1746409829484548600,7.918548583984375,5.264423918747902,-1.5510622981615363,0.8816433532383292
1746409829494521600,7.928521484375,5.759863503402471,-0.5275748445838689,3.0201909940019247
1746409829504495600,7.93849560546875,6.930723976808786,-3.776678346851468,5.820790558052063
1746409829514468600,7.948468505859375,9.392546636295318,-5.971936812809109,8.657845875579119
1746409829524441600,7.958441650390625,10.722302371150255,-4.480287803733349,8.910313739216328
1746409829534414800,7.968414794921875,9.190054225182532,1.352265380565822,8.652084243312478
1746409829544387600,7.9783876953125,5.562389797234535,6.3397694237262,8.84324394402802
1746409829554360600,7.988360595703125,1.0844774904608725,1.9792267743140457,4.464767578518391
1746409829564333600,7.99833349609375,-1.505850552907586,0.09883344532623886,1.6492906172014772
1746409829574306800,8.008306884765625,-1.5639304014325142,3.0197572787597773,3.137999335041642
1746409829584279800,8.01827978515625,-2.378018587118387,3.674570848290622,2.276239589859545
1746409829594252500,8.02825244140625,-3.662782503080368,3.2248701015040275,-1.0200449119083583
1746409829604225500,8.0382255859375,-4.532610696166754,4.279837712103128,-3.8007711701005693
1746409829614198800,8.04819873046875,-5.52155509802103,5.204215241500735,-6.081639881065487
1746409829624171800,8.058171875,-6.053663494381309,5.528801415887474,-6.977363562908768
1746409829634144800,8.068144775390625,-5.968925940555334,6.282240779343247,-5.489425683310627
1746409829644117500,8.078117431640624,-5.8702726741015905,7.48147219170928,-3.7684132073312995
1746409829654090800,8.0880908203125,-4.0363837605267765,8.546915895876287,-2.698564546203613
1746409829664063700,8.098063720703125,-2.0049106661468743,8.552682204318046,-2.5681302400857207
1746409829674036700,8.10803662109375,-1.234915889209509,6.86413524313569,-3.518488598436117
1746409829684010800,8.1180107421875,-0.5245581271111965,4.763454464755952,-5.422584436181188
1746409829693983700,8.127983642578124,0.6347685603678226,3.603793723016977,-7.980482620587945
1746409829703956500,8.13795654296875,0.9612100072324276,2.3370190527319905,-10.43724390503168
1746409829713929700,8.1479296875,0.7085200252771378,0.9704209031701088,-11.793976494139432
1746409829723902700,8.15790283203125,0.35622926688492296,-0.0029357611909508704,-11.82859304949045
1746409829733875700,8.167875732421875,0.2267056458711624,-0.660512365694344,-10.86910621278882
1746409829743848400,8.177848388671874,0.1742033052176237,-1.1790855731770395,-9.009148207455873
1746409829753821700,8.18782177734375,-0.029060090267658233,-1.9698948823451994,-6.6932707269519565
1746409829763794700,8.197794677734375,-0.6577250730633736,-3.025368396639824,-4.641555055010318
1746409829773767700,8.207767578125,-1.6163783815503119,-4.0597199201896785,-3.306850173315406
1746409829783740700,8.21774072265625,-2.763449983090162,-4.794727262637019,-2.4767785288169977
1746409829793713700,8.227713623046874,-3.779906661248207,-4.746267767633498,-1.9408252935968338
1746409829803686700,8.237686767578126,-4.612302072519063,-3.9681390763401985,-1.7594914058469235
1746409829813659100,8.2476591796875,-5.302817654550076,-2.694296367365122,-1.5368319666266441
1746409829823632100,8.257632080078125,-5.362437718254327,-0.5362129090696572,-0.4163067189678549
1746409829833605400,8.26760546875,-5.519474200093746,2.256256247755885,1.442000304287672
1746409829843578400,8.277578369140626,-5.738294645673037,4.431845259864628,3.6250241425722836
1746409829853551400,8.28755126953125,-5.791730467784404,5.385973492142558,5.81387683314085
1746409829863524000,8.297524169921875,-5.8566965686917305,5.195207174658775,8.63714269476831
1746409829873498000,8.307498046875,-5.56956071177721,4.43396765884608,10.747587619054316
1746409829883471400,8.317471435546874,-4.888419691812992,3.477672311662137,11.427669485354423
1746409829893444400,8.3274443359375,-3.929270708763599,2.401523819737881,10.586170730173587
1746409829903417300,8.337417236328125,-2.7616835579395294,1.3291203595608472,8.631183494102954
1746409829913390300,8.347390380859375,-2.5885265469044447,-0.06264043443873524,6.9552855866134164
1746409829923363300,8.35736328125,-4.320004302796721,-12.664707189023494,2.005805423029512
1746409829933336300,8.36733642578125,18.281506621837615,-18.462003474241495,-4.179659720300138
1746409829943309300,8.377309326171876,74.54201907467842,-0.9535323122113942,-4.674183359153568
1746409829953282300,8.3872822265625,16.59752477661371,8.578591137078403,10.219247635316847
1746409829963255300,8.39725537109375,-19.436070624959466,8.550736330947279,12.273816358602046
1746409829973228300,8.407228271484374,-13.115220421236753,-3.434992276842892,1.2726546682342885
1746409829983201300,8.417201171875,-10.98787053937912,-5.081591316872835,-6.256396143990755
1746409829993174300,8.42717431640625,-4.053653459757566,-5.875405360814929,-8.193626774096488
1746409830003147300,8.437147216796875,2.138486192899942,-3.2078689900815487,-9.670119715094566
1746409830013120500,8.44712060546875,0.02154080067873001,1.7759625020459293,-5.296452211171388
1746409830023093200,8.45709326171875,-1.9909867702126502,1.4971607582345603,-1.9049639988817273
1746409830033066200,8.467066162109376,-0.08631576292812823,1.2533315436050294,-0.13626783457696437
1746409830043039200,8.477039306640625,3.480707441574335,1.1783604737728834,2.0448867027044293
1746409830053012500,8.487012451171875,4.7458688314437865,0.4890432346809655,3.315724969166517
1746409830062985500,8.4969853515625,2.260288279750943,-0.3577398541109636,2.8629452533259987
1746409830072958200,8.506958251953124,-0.35866847673058505,-0.6108547104148194,1.4699743528842926
1746409830082932200,8.51693212890625,-1.3499614875376225,-0.5246770407831296,-0.09641564359478652
1746409830092905200,8.5269052734375,-1.5221557910203933,-0.49362508257851,-1.0245352821301668
1746409830102878200,8.536878173828125,-1.1858815169274806,-0.21067816525381058,-0.9685695031497626
1746409830112851500,8.5468515625,-0.43121115037202834,-0.14850688269678503,-0.6840335265353321
1746409830122824200,8.55682421875,0.1928384475827217,-0.1891816055756062,-0.34920988964214916
1746409830132797200,8.566797119140626,0.5673825388371944,-0.13016100560184568,-0.1844431423442438
1746409830142770200,8.576770263671875,0.6087117435693741,-0.019985497528128324,-0.21767248112056403
1746409830152743400,8.586743408203125,0.20955460458397865,0.022534232162870465,-0.17777064231038092
1746409830162716400,8.59671630859375,-0.18897592693567275,-0.019035649457387626,-0.08375705488864332
1746409830172689200,8.606689208984376,-0.2996726824045181,-0.06772544608544558,-0.015116247523948549
1746409830182662100,8.616662109375,-0.2003758573502302,-0.14725344856958836,0.03929638373032212
1746409830192635400,8.626635498046875,-0.014997662645578384,-0.13820249243397265,0.019048143612779674
1746409830202608400,8.6366083984375,0.07660042459964751,-0.10501691973414272,-0.0628020912738517
1746409830212581400,8.646581298828124,0.05432078825235367,-0.1227864947784692,-0.1643442841021344
1746409830222554000,8.65655419921875,-0.07532324427068234,-0.0657327378982678,-0.1997047896882519
1746409830232527400,8.66652734375,-0.11520926445722579,-0.055138278647698456,-0.2236130136180669
1746409830242500400,8.676500244140625,-0.14288169975876808,-0.03263941005915403,-0.18761713273786007
1746409830252473300,8.686473388671875,-0.14136778806447983,-0.05479520083107054,-0.06800276518948375
1746409830262446300,8.6964462890625,-0.0644973143517971,-0.03448850852455944,0.012223448691889642
1746409830272419300,8.70641943359375,-0.001992635121941566,-0.018256993235088885,0.046543505314365026
1746409830282392300,8.716392333984375,0.04261106123626232,-0.042213878612220285,-0.010366020789556205
1746409830292365300,8.726365234375,0.03861819220781326,-0.04859028177633881,-0.0713886813007295
1746409830302339300,8.73633935546875,-0.0032160394370555874,-0.0814812554437667,-0.13171309388205407
1746409830312312300,8.746312255859374,-0.02840308766365051,-0.10229940440375357,-0.13556041695997118
1746409830322285300,8.756285400390626,-0.042620998108386994,-0.10069101935904473,-0.13355313225816934
1746409830332258300,8.76625830078125,-0.021033435678482055,-0.1073303112430498,-0.13036599012203515
1746409830342231300,8.776231201171875,0.002376666003465652,-0.08747001099716871,-0.17061287951022386
1746409830352204300,8.786204345703124,-0.0298632233440876,-0.09599080577883869,-0.16763280425351113
1746409830362177300,8.79617724609375,-0.05926642796099186,-0.11383198475465178,-0.162792195821926
1746409830372150500,8.806150634765626,-0.05321721092462539,-0.10570391561761498,-0.15904058820344508
1746409830382123300,8.816123291015625,-0.03292962517738342,-0.11422343175765126,-0.1850074251635
1746409830392096300,8.82609619140625,-0.006487023931741714,-0.09547481908071785,-0.17586835235301404
1746409830402069200,8.8360693359375,-0.02388064180314541,-0.11720931570064276,-0.16380820446405558
1746409830412042500,8.84604248046875,-0.0610726006001234,-0.1134978939620778,-0.1712578263502568
1746409830422015200,8.85601513671875,-0.08741232599318027,-0.11801372741870582,-0.1264475015040487
1746409830431988200,8.86598828125,-0.06726970167458057,-0.08848970943372696,-0.12338113620337098
1746409830441961200,8.875961181640625,-0.04743570491373539,-0.07387330119069666,-0.10962222157251089
1746409830451934500,8.8859345703125,-0.01128127247095108,-0.08630429168604314,-0.1137855517970398
1746409830461907500,8.895907470703126,-0.010574585506319999,-0.08871712498143315,-0.12162826465405523
1746409830471880200,8.905880126953125,-0.040678047347068785,-0.09203987619597465,-0.10329776779133826
1746409830481853200,8.915853271484375,-0.03275309956669807,-0.09214677063655108,-0.11245543570443987
1746409830491826200,8.925826171875,0.00022445640563964844,-0.08394011983796953,-0.12040376436039804
1746409830501799400,8.93579931640625,0.01755845304429531,-0.06019976328834891,-0.12318181423898786
1746409830511773400,8.9457734375,-0.03078209175467491,-0.08375270750708877,-0.09799399882741272
1746409830521746400,8.955746337890625,-0.05578793819546699,-0.09974146354924887,-0.12811064894329754
1746409830531719200,8.96571923828125,-0.017056348741054533,-0.1051180420210585,-0.1476027369312942
1746409830541692200,8.975692138671874,-0.06817746416926383,-0.11284081829283386,-0.13311514269970356
1746409830551665400,8.98566552734375,-0.0999111575603485,-0.09199979991391301,-0.1619477808870375
1746409830561638400,8.995638427734375,-0.03318272315561771,-0.09567790390476584,-0.14573044025339185
1746409830571611400,9.005611328125,0.010734744504094123,-0.09115556764211505,-0.13647026181388647
1746409830581584100,9.015584228515625,0.044699557948112485,-0.061618105653673406,-0.1270793696667999
1746409830591557400,9.025557373046874,-0.0234060100287199,-0.11299922372493892,-0.10767024725452065
1746409830601530400,9.0355302734375,-0.12498130140900611,-0.11006726192627102,-0.158531798431091
1746409830611503400,9.04550341796875,-0.0822130037844181,-0.09800539700426161,-0.16920608145222066
1746409830621476400,9.055476318359375,-0.013240589845180511,-0.07704995846543461,-0.13991258428748696
1746409830631449300,9.065449462890625,0.02109071882367134,-0.07754150484204292,-0.12552443184237927
1746409830641422300,9.07542236328125,0.03593056055903435,-0.0719746279625222,-0.12110559248682111
1746409830651395300,9.085395263671876,0.03480009522438049,-0.07533913595955818,-0.13760478226915002
1746409830661368300,9.095368408203125,-0.052426352807879446,-0.11090612390320748,-0.1578950714301318
1746409830671341300,9.10534130859375,-0.1101028812289238,-0.10898414286468178,-0.16319284904468803
1746409830681314300,9.115314208984374,-0.10694763206839561,-0.12007526305839418,-0.14029997616987674
1746409830691287300,9.125287353515626,-0.05306114358007907,-0.08845178857613355,-0.11900887593589722
1746409830701260300,9.13526025390625,0.006550152295827865,-0.08644187352582812,-0.11973967442847788
1746409830711233300,9.1452333984375,-0.015963292807340622,-0.09020721740871668,-0.13781966712884605
1746409830721206300,9.155206298828125,-0.038919220981001854,-0.08359101413935423,-0.13743026595246047
1746409830731179300,9.16517919921875,-0.0395838223695755,-0.10414262111764401,-0.11103179610949009
1746409830741153300,9.1751533203125,-0.054928691017627713,-0.09967727573923767,-0.13869853232260793
1746409830751126300,9.185126220703125,-0.04602876072525978,-0.08545326434727758,-0.14222597579639404
1746409830761099300,9.195099365234375,-0.030057284611463547,-0.08843344920184462,-0.1276552698586136
1746409830771072500,9.205072509765625,0.005126256972551346,-0.07116495554745197,-0.12139420016985386
1746409830781045200,9.215045166015624,0.017459668844938277,-0.0755384213913232,-0.14079999811388552
1746409830791018200,9.225018310546876,-0.03472410737872123,-0.0929928660718724,-0.15180398801341652
1746409830800991200,9.2349912109375,-0.08637304607331753,-0.10300273036751896,-0.14382237814236432
1746409830810964200,9.244964111328125,-0.08720482072234154,-0.09557064413800835,-0.1340854855692014
1746409830820937700,9.254937744140625,-0.05915244619250297,-0.07626019632723181,-0.13557524920292197
1746409830830910700,9.26491064453125,0.0009749825119972228,-0.08267952531762421,-0.1390607897637412
1746409830840883700,9.2748837890625,0.03376899861097336,-0.0949025721507147,-0.13248057112321257
1746409830850856700,9.284856689453125,-0.02754384048581123,-0.11093754195477813,-0.1176159968053922
1746409830860829700,9.29482958984375,-0.05838087729811668,-0.0993520989054814,-0.13048702268581835
1746409830870802700,9.304802734375,-0.12164251237511634,-0.1016602662499994,-0.14805818908121435
1746409830880775700,9.314775634765626,-0.10687456683218478,-0.0847175704838708,-0.1301672892121598
1746409830890748700,9.324748779296876,-0.012809797212481497,-0.06298435250557959,-0.15271635361798105
1746409830900721700,9.3347216796875,-0.0062742579638957975,-0.057237917808070776,-0.12425119703616946
1746409830910694700,9.344694580078125,-0.03803951553702354,-0.09849255946669727,-0.11797306661475448
1746409830920667600,9.354667724609374,-0.0765618461549282,-0.09265238207112997,-0.14334522561728955
1746409830930640600,9.364640625,-0.07487491598129271,-0.10555500866621732,-0.1478155394317582
1746409830940613600,9.374613525390625,-0.04221066374182701,-0.09492244589496403,-0.13465886501036584
1746409830950587000,9.3845869140625,-0.019257658177614212,-0.09638411594536155,-0.13768018559291959
1746409830960559600,9.3945595703125,-0.02889057891964912,-0.09478157611954957,-0.1418828979797661
1746409830970533600,9.40453369140625,-0.04851414780020714,-0.0914921061201021,-0.1276868705732748
1746409830980506600,9.414506591796876,-0.03130933049917221,-0.10263696579504758,-0.12114829911738634
1746409830990479600,9.424479736328125,-0.0380371774494648,-0.09543689822312444,-0.13725454405937343
1746409831000452900,9.434452880859375,-0.05763970354199409,-0.09418686162941158,-0.15709836809448896
1746409831010425600,9.444425537109375,-0.03894084829092025,-0.10817118251398206,-0.15345219361186027
1746409831020398600,9.454398681640624,-0.03342763782739639,-0.09446421726606785,-0.1191282279992476
1746409831030371600,9.46437158203125,-0.05037409645318985,-0.0896599222568795,-0.15221461464092134
1746409831040344800,9.4743447265625,-0.05248538951873779,-0.08521941905878484,-0.15339246278125793
1746409831050317800,9.48431787109375,-0.05715221228599548,-0.08833685695957393,-0.11135500018186867
1746409831060290600,9.49429052734375,-0.02655015327334404,-0.09097984574902802,-0.11149144951049238
1746409831070263600,9.504263671875,0.005357727640867233,-0.04625971993692219,-0.12313647725991904
1746409831080236800,9.51423681640625,0.035952772390842436,-0.07412800660412758,-0.10059384259488433
1746409831090209800,9.524209716796875,-0.013371522748470305,-0.08284231466390192,-0.11271032378096132
1746409831100182800,9.534182861328125,-0.11310381661057471,-0.09823478531334548,-0.1399432351540774
1746409831110155500,9.544155517578124,-0.08690028481781482,-0.0959342167533934,-0.1698252727964893
1746409831120128500,9.55412841796875,-0.02523030284643173,-0.07344992467947303,-0.1413973429525271
1746409831130101800,9.564101806640625,0.015240823751688002,-0.0781415530944243,-0.10859894293937832
1746409831140074800,9.57407470703125,-0.0036561844199895855,-0.07781586480401456,-0.10153357113040982
1746409831150047700,9.5840478515625,-0.05175590620040893,-0.0890036503052339,-0.1260593424366787
1746409831160020500,9.5940205078125,-0.054531216132640836,-0.09530589225459843,-0.12897782369926572
1746409831169993700,9.60399365234375,-0.03768880240321159,-0.07494882146771997,-0.12578494594208894
1746409831179966700,9.613966796875,-0.017819734328985214,-0.08048566853515804,-0.11955649988129734
1746409831189939700,9.623939697265625,-0.01196399403810501,-0.0742557246370241,-0.1154199845984578
1746409831199912700,9.63391259765625,-0.0024807108998298644,-0.07934051708802581,-0.11430073477756231
1746409831209886700,9.64388671875,-0.015582184535264968,-0.07762348403707146,-0.10991693020276724
1746409831219859700,9.653859619140626,-0.034683190846443175,-0.0732269295785576,-0.1303090357704088
1746409831229832700,9.663832763671875,-0.04018587991595268,-0.08002630739510058,-0.1655965491855517
1746409831239805700,9.6738056640625,-0.052417584979534144,-0.06696392366103827,-0.1378943763328716
1746409831249778700,9.68377880859375,-0.033786534267663954,-0.09496935377661138,-0.10390172503385692
1746409831259751700,9.693751708984376,-0.00206043966114521,-0.06756371618509292,-0.1458374442918226
1746409831269724700,9.703724609375,0.007324059277772903,-0.05630659177470952,-0.13384568546395748
1746409831279697700,9.71369775390625,-0.0043634559065103525,-0.07656195575278252,-0.11752543244510888
1746409831289670700,9.723670654296875,-0.03730769413113594,-0.07866638068612665,-0.12256686067841946
1746409831299643600,9.7336435546875,-0.07167641220092773,-0.10457600756622851,-0.12248484495077282
1746409831309616600,9.74361669921875,-0.08022562935948371,-0.08571724904570728,-0.13066310990508645
1746409831319589600,9.753589599609375,-0.03414952236115932,-0.07879219902288168,-0.13647625316325573
1746409831329562600,9.763562744140625,0.0070423197269439694,-0.08917243100088089,-0.11169581297617405
1746409831339535600,9.77353564453125,0.04023205714523792,-0.0860177663622424,-0.04618544912431389
1746409831349508900,9.7835087890625,0.08994622838497161,-0.04017806193567812,-0.03895115048922598
1746409831359481600,9.793481689453126,0.03760872290432453,-0.061117316524684426,-0.20477350778728723
1746409831369454600,9.80345458984375,-0.13472177417874334,-0.05046444161776453,-0.2072252483209595
1746409831379427600,9.813427490234375,-0.18146365160942077,-0.11415493309870361,-0.1095513848260045
1746409831389400800,9.82340087890625,-0.0997241105556488,-0.1011255383187905,-0.10902063895016909
1746409831399373800,9.833373779296876,-0.02593406720161438,-0.0777492293085903,-0.10856354283243418
1746409831409346600,9.8433466796875,-0.07848609221577645,-0.09158489897008985,-0.12774941441547125
1746409831419319600,9.853319580078125,-0.10941665253043174,-0.07929766432698816,-0.12372688090112059
1746409831429292800,9.863292724609375,-0.05418459465205669,-0.05571231567598879,-0.12406235993318258
1746409831439265800,9.873265869140624,-0.020627777487039565,-0.0577774680448696,-0.11630356249995528
1746409831449238800,9.88323876953125,-0.015339023429155349,-0.07394841225352138,-0.1134938753740862
1746409831459211500,9.89321142578125,-0.029020342779159543,-0.08097348858471959,-0.1184700198188424
1746409831469185500,9.903185546875,-0.04449439076483249,-0.09891483999937772,-0.135389152046293
1746409831479158500,9.913158447265625,-0.040215106010437006,-0.09248414936475455,-0.1241501478144899
1746409831489131800,9.9231318359375,-0.024830489873886107,-0.08190642205327749,-0.12843173412382602
1746409831499104800,9.933104736328126,-0.0124263508528471,-0.07371997379250823,-0.12289006475079804
1746409831509077800,9.943077880859375,-0.013931494718790053,-0.08428005584944039,-0.10594923214819282
1746409831519050500,9.953050537109375,-0.02680968099236488,-0.08628653683364391,-0.1203298588739708
1746409831529023700,9.963023681640625,-0.036683424752950666,-0.0797191411420703,-0.13152367225717754
1746409831538996700,9.972996826171874,-0.013926234021782875,-0.07404558901768177,-0.13652955425307153
1746409831548969700,9.9829697265625,-0.04233049072921276,-0.09206939455140381,-0.10741287495996803
1746409831558942700,9.992942626953125,-0.03677928634285926,-0.06842135592773556,-0.1239233533212915
1746409831568915700,10.002915771484375,-0.04799509236216545,-0.06645451283417642,-0.11260025100260972
1746409831578888700,10.012888671875,-0.047215340161323546,-0.0824209839792922,-0.10561371658351272
1746409831588861700,10.02286181640625,-0.02986263882219791,-0.0815514346031472,-0.10951013950016349
1746409831598834700,10.032834716796875,-0.029569793355464932,-0.06761318135000766,-0.09972940778527409
1746409831608807700,10.0428076171875,-0.04320668904185295,-0.065910249889642,-0.09685461953394114
1746409831618780700,10.05278076171875,-0.03126081518232822,-0.08830193177666515,-0.104268074128218
1746409831628753700,10.062753662109374,-0.029670331120491025,-0.06286105491947383,-0.10626293773986399
1746409831638726700,10.0727265625,-0.02524257780611515,-0.057914209634438156,-0.11234371895827353
1746409831648699600,10.08269970703125,-0.02858312040567398,-0.07302223731931298,-0.10171393266599625
1746409831658672600,10.092672607421875,-0.020365327158570288,-0.06707220634110271,-0.10546590561065822
1746409831668645600,10.102645751953125,-0.026186580657958983,-0.06774488143827766,-0.10661598896123468
1746409831678618600,10.11261865234375,-0.030834114202857015,-0.05768120459616184,-0.09546331130601465
1746409831688591600,10.122591552734375,-0.03189619047641754,-0.0603158274160698,-0.07443513632453978
1746409831698564900,10.13256494140625,-0.045810734060406685,-0.05957764933463185,-0.0952009705753997
1746409831708537600,10.14253759765625,-0.028761984103918073,-0.053617389223352074,-0.09120561732891946
1746409831718510600,10.152510498046874,-0.02698503755927086,-0.05921546495873481,-0.0918404811663553
1746409831728484600,10.162484619140624,-0.021912556600570676,-0.05197353100646287,-0.08072868351079523
1746409831738457600,10.17245751953125,-0.024902970588207243,-0.05482884737234563,-0.08958079260606318
1746409831748430800,10.182430908203125,-0.025496844828128813,-0.053704921376332634,-0.07020056749470531
1746409831758403800,10.19240380859375,-0.030738837134838104,-0.04725643935669213,-0.08369001753441989
1746409831768376600,10.20237646484375,-0.04333002316057682,-0.04376026780400425,-0.08074373494945467
1746409831778349600,10.212349609375,-0.01741641422510147,-0.04889226039759814,-0.07631357048228382
1746409831788322600,10.222322509765625,0.007324059277772903,-0.03444054119698703,-0.06275036108661443
1746409831798295800,10.2322958984375,-0.02315641918182373,-0.05505787035524845,-0.07765672871954739
1746409831808268800,10.242268798828125,-0.05995557926893234,-0.05118884690217673,-0.09641100395228713
1746409831818242300,10.2522421875,-0.04980886378586292,-0.05433540129959583,-0.07667787375003099
1746409831828215300,10.26221533203125,-0.03820551975369453,-0.0414896194582805,-0.07287015203014016
1746409831838188300,10.272188232421875,-0.028678981995582577,-0.02995126695372164,-0.07927267601620405
1746409831848161500,10.28216162109375,-0.02828501424193382,-0.04781513268537819,-0.06800598005987703
1746409831858134500,10.292134521484375,-0.03523381046652794,-0.04738163663893938,-0.07282244043089449
1746409831868107300,10.302107177734374,-0.03052490212321281,-0.0537228954244405,-0.062282049455121155
1746409831878080300,10.312080322265626,-0.022643793484568596,-0.049948418387025594,-0.06282667772583662
1746409831888053500,10.322053466796875,-0.021768764215707778,-0.030086766434274614,-0.06557214050907641
1746409831898026500,10.332026611328125,-0.01282324121594429,-0.033299846729263664,-0.0651561435867101
1746409831907999500,10.34199951171875,-0.022449147695302964,-0.055359300987236196,-0.06771507082190364
1746409831917972200,10.35197216796875,-0.038383214408159255,-0.04106975007839501,-0.05572495596185326
1746409831927945500,10.361945556640626,-0.03306640329957008,-0.0412573816049844,-0.07529365285001695
1746409831937918500,10.37191845703125,-0.028804069679975508,-0.02989084200337529,-0.07104322886392474
1746409831947891500,10.381891357421875,-0.021370120286941525,-0.02596318369824439,-0.07467420577742159
1746409831957864400,10.391864501953124,-0.032799861317873,-0.03368446213267744,-0.06627089989557862
1746409831967837400,10.40183740234375,-0.04200374299287796,-0.04561568641234189,-0.057434974750131366
1746409831977810400,10.411810546875,-0.03517418923377991,-0.04679189058486372,-0.0567095100197941
1746409831987783400,10.421783447265625,-0.034012159717082976,-0.048888826331496237,-0.04035940985195338
1746409831997756400,10.43175634765625,-0.035573417684435844,-0.04985288559067994,-0.03167830994203687
1746409832007729400,10.4417294921875,-0.023504794228076935,-0.033042803228273986,-0.06732062814421952
1746409832017703400,10.451703369140626,-0.023256372424960134,-0.03782894152626395,-0.05250716295912861
1746409832027676400,10.461676513671875,-0.030656419548392294,-0.045275677335634826,-0.05672112739235163
1746409832037649400,10.4716494140625,-0.031029344514012337,-0.046424299381487066,-0.0502596762932837
1746409832047622400,10.481622314453125,-0.038137130692601204,-0.030605785339698193,-0.04805646716058254
1746409832057595400,10.491595458984374,-0.02459200494289398,-0.025141272856108843,-0.061911900968477124
1746409832067568600,10.501568603515626,-0.006122282272577285,-0.021050058019720017,-0.07343721132837236
1746409832077541400,10.511541259765625,-0.016996142986416815,-0.03952073053810745,-0.06114493518397212
1746409832087514400,10.521514404296875,-0.037866497057676314,-0.036476284808292986,-0.03923544732332229
1746409832097487400,10.5314873046875,-0.05113046777844429,-0.04614917223453521,-0.046891880360618234
1746409832107460600,10.541460693359374,-0.027582418930530546,-0.02866867979727685,-0.04115918192751705
1746409832117433300,10.551433349609376,-0.01868599576950073,-0.04445752935316413,-0.04190283990167081
1746409832127406300,10.56140625,-0.01892448070049286,-0.031007790269330142,-0.057820028544962404
1746409832137379300,10.57137939453125,-0.0369651643037796,-0.017009806185588238,-0.05998444003723562
1746409832147352600,10.5813525390625,-0.027618659287691114,-0.02242653400469571,-0.04626322706826031
1746409832157325600,10.59132568359375,-0.03370119407176971,-0.02993153933994472,-0.059927887544408434
1746409832167298300,10.60129833984375,-0.022749591946601866,-0.04299107352979481,-0.05177212668284774
1746409832177271300,10.611271240234375,-0.025854572224617,-0.031119945406913756,-0.05735029214136302
1746409832187244300,10.621244384765625,-0.02762450450658798,-0.029487302703782914,-0.05227320807278156
1746409832197217500,10.631217529296874,-0.022189035454392433,-0.025398973944224416,-0.06392031818144023
1746409832207190500,10.6411904296875,-0.030083003574609756,-0.03350771732628345,-0.04187456365525722
1746409832217163300,10.651163330078125,-0.025278233641386032,-0.02508994452767074,-0.059782195463404054
1746409832227136300,10.66113623046875,-0.02301905653774738,-0.039943230266496536,-0.04501563815996051
1746409832237109500,10.671109619140625,-0.022680033841729164,-0.028078056960366665,-0.05127696357704699
1746409832247082500,10.68108251953125,-0.03385024715363979,-0.02577434659525752,-0.0462233334492892
1746409832257055500,10.691055419921875,-0.011225158369541167,-0.02710731223206967,-0.03698628015704453
1746409832267028200,10.7010283203125,0.005649988585710525,-0.02468720894567668,-0.045991278259083626
1746409832277001500,10.71100146484375,0.028084523233771322,0.0011554171128198504,-0.062408233118057245
1746409832286974500,10.720974365234374,-0.00877425808608532,-0.03804335146192461,-0.03319090646207332
1746409832296947500,10.730947509765626,-0.19631869091391563,-0.07847527856081724,-0.0402521500851959
1746409832306920400,10.74092041015625,-0.20882278317809103,-0.029935484862700104,0.015483875259943306
1746409832316894500,10.75089453125,-0.05218611431121826,-0.025354879074171183,-0.09180252377614379
1746409832326867500,10.760867431640625,0.06263736569881438,-0.019492818640358744,-0.1305453287443146
1746409832336840400,10.77084033203125,0.044829321807622904,-0.0096686131099239,-0.05068948254529387
1746409832346813400,10.7808134765625,-0.18733342042565346,-0.02531078420411795,-0.043676608108542854
1746409832356786400,10.790786376953125,-0.2807540469229221,-0.05320354772545397,0.12218465642780064
1746409832366759400,10.800759521484375,-0.1521346812725067,-0.0840768979601562,0.43020803774408994
1746409832376732400,10.810732421875,0.1412473765552044,-0.08271152789108455,0.5938165183849632
1746409832386705400,10.820705322265624,-0.1792190875530243,-0.1892375004813075,0.34271234431639314
1746409832396678400,10.830678466796876,-0.5180839626610279,-0.10562485903203486,-0.18589546004440635
1746409832406651400,10.8406513671875,-0.11814882504045962,0.15239844677522776,-0.5684377469785511
1746409832416624600,10.850624755859375,1.0050047252953052,0.322691227485612,-0.16786827524350956
1746409832426597400,10.860597412109374,2.0944021365016696,0.4318115274179727,0.5424692295180633
1746409832436570400,10.8705703125,2.105996128183603,0.5607944291511551,1.2121395553864538
1746409832446543400,10.88054345703125,2.128651027584076,0.720361781175062,0.9764552148982882
1746409832456516600,10.8905166015625,2.315787464132905,0.38013157253060487,0.6818257142927497
1746409832466489300,10.9004892578125,3.2608366101592776,0.06634663201291113,0.09635368427447974
1746409832476462300,10.91046240234375,5.265283165925741,0.2847944448875263,-1.8989970533013343
1746409832486435300,10.920435302734376,5.626724614500999,-0.03083488138783723,-3.0865836205810306
1746409832496408600,10.93040869140625,4.65298479604125,-0.46799266520459204,-3.4254961342230437
1746409832506381600,10.940381591796875,3.5378444562911984,0.023332725596800444,-3.3764018484473226
1746409832516354300,10.950354248046875,1.952989340251684,1.168240134840086,-2.61096195833534
1746409832526327300,10.960327392578124,0.9353642028361558,1.9509727397322654,-2.7185864667519923
1746409832536300500,10.970300537109376,0.528604187631607,1.6106040359325706,-4.30265306276232
1746409832546273500,10.9802734375,0.1974398038983345,1.2659616003364325,-5.10379379633069
1746409832556246500,10.99024658203125,0.29388825378417965,1.1567292183317244,-4.920704589346051
1746409832566219300,11.00021923828125,-0.3033031478613615,0.7009148840356618,-3.718054892969131
1746409832576192300,11.010192138671876,-0.18792203396856783,0.057898281412944196,-2.044650555860996
1746409832586165500,11.02016552734375,0.5459557199269532,-0.784226569776982,-2.879367688077688
1746409832596138500,11.030138427734375,2.361037641701102,-1.8169367558605969,-5.365991026821733
1746409832606111500,11.040111572265625,1.7315362080812453,0.06758183636367321,-5.340984595859051
1746409832616084200,11.050084228515624,2.557410108628869,3.0476497865527867,-5.134515682330727
1746409832626057500,11.060057373046876,3.179072519186139,6.0695788563936945,-4.256361559447646
1746409832636031500,11.070031494140625,2.2622946511372923,8.412990240511297,-2.6381992170900106
1746409832646004500,11.08000439453125,-0.10243015464395284,7.0692392980515955,-1.8533213437974452
1746409832655977500,11.0899775390625,-1.488344852963835,2.910907320201397,-3.4637048688471315
1746409832665950500,11.099950439453124,-1.8070402157463132,0.26342328342096877,-4.147557485857606
1746409832675923500,11.10992333984375,-2.0137503906846046,-1.1573118405252694,-2.9101339977413416
1746409832685896400,11.119896484375,-3.3266946914702653,-2.7951819229155777,0.6970978830307721
1746409832695869400,11.129869384765625,-5.544889796379208,-3.5453888803213833,4.610598775732517
1746409832705842400,11.139842529296875,-4.749335630771517,-1.1409680239677429,4.599055052933097
1746409832715815400,11.1498154296875,-1.849188774037361,0.07066469614142551,1.4557120187759398
1746409832725788400,11.159788330078126,-0.3616061376176774,-0.7809716596342623,0.2482031919300556
1746409832735761400,11.169761474609375,0.30329204194545745,-0.04108366900589317,-1.1804402026563883
1746409832745734400,11.179734375,-0.46541737135648725,0.4618634417345747,-3.0081957280427214
1746409832755707400,11.189707275390624,-1.5182590758427976,-0.01853106093611568,-3.570962297517061
1746409832765680400,11.199680419921876,-3.212404003162682,-1.425510795649141,-4.0874060917556285
1746409832775653400,11.2096533203125,-5.238568177479506,-1.9602933796547353,-2.6803783166497945
1746409832785626400,11.21962646484375,-6.896224325835704,-2.1142533766582607,-0.7496499080449343
1746409832795599400,11.229599365234375,-5.875587147122621,-1.773677752109617,-0.17376082214713096
1746409832805572600,11.239572509765624,-2.507737438443303,-1.0473259367395191,-0.6849065099775791
1746409832815544300,11.24954443359375,0.2411997429087758,-0.4601836354214698,-0.7406903565198183
1746409832825517300,11.259517333984375,1.6632932774603366,-0.13209822074212133,-0.1833142479121685
1746409832835490600,11.269490478515625,2.0408429802715777,0.09468639951623044,0.5617080003321171
1746409832845463600,11.279463623046874,1.4501993928343058,0.4265791797224432,1.3558733419299125
1746409832855436300,11.289436279296876,-0.2929027498781681,0.9111311673987657,1.4203595503658055
1746409832865409300,11.2994091796875,-1.7013310394316912,0.7149037349648774,0.7318477093726397
1746409832875382500,11.309382568359375,-0.32531419640034437,0.46940702551454305,0.435486343473196
1746409832885355500,11.31935546875,0.6671706545397639,0.17793845489164814,0.16985270879268646
1746409832895328500,11.32932861328125,0.8067156110912561,0.5052655437506735,-0.104934538680315
1746409832905301200,11.33930126953125,0.010824176353216171,0.6632718204703182,0.12777180891036988
1746409832915274500,11.3492744140625,-0.9290122034609317,0.598564114770852,-0.0068956047326326365
1746409832925247500,11.35924755859375,-1.4522665544971822,0.20075932197617366,0.12475392239391803
1746409832935220500,11.369220458984374,-1.2748834501996635,-0.2555638751574792,0.7046411380171775
1746409832945193500,11.379193359375,-0.3850456115245819,-0.3279554316241294,0.891886880159378
1746409832955166500,11.38916650390625,0.43937984378039835,-0.3334711993709206,0.4066641536146402
1746409832965140200,11.39914013671875,0.5737099882930516,-0.3468780126284808,-0.1056359649479389
1746409832975112400,11.409112548828125,0.24642741442918775,-0.021893596171773968,-0.6221890647798777
1746409832985086500,11.41908642578125,0.22886545425355434,0.19424796732077373,-0.7466086406528949
1746409832995059500,11.4290595703125,0.21008476593792438,0.12325500733936205,-0.4090577707529068
1746409833005032400,11.439032470703125,-0.07976210350096226,0.04051206139670685,-0.12232757202982902
1746409833015005400,11.44900537109375,-0.5993558862030506,-0.1295861283233389,-0.22097733135223388
1746409833024978400,11.458978515625,-1.128410740211606,-0.3928724326927215,-0.5408171879947186
1746409833034951400,11.468951416015624,-1.3552695308178662,-0.530182469798997,-0.5896487311810255
1746409833044924400,11.47892431640625,-1.285468557099998,-0.4822604426730424,-0.25661387740075586
1746409833054897400,11.4888974609375,-0.8037465321525931,-0.42855088165421035,0.3062257573097944
1746409833064870400,11.498870361328125,-0.13065963930636643,-0.09601283494755625,0.27851883521676063
1746409833074843400,11.508843505859375,0.21637363694906234,0.25808829733487215,-0.09370411961376666
1746409833084816400,11.51881640625,0.42659576553106304,0.2640410865257494,-0.08389818039238453
1746409833094789600,11.52878955078125,1.096649866552651,0.2012392327139154,0.19827742376625537
1746409833104762400,11.538762451171875,1.2502099044531583,0.13408225243249908,0.11573825676739215
1746409833114735400,11.5487353515625,0.6112637661397456,0.003094458884000778,0.04287877226173877
1746409833124708400,11.558708251953124,0.06713584616184234,-0.013022398783545941,0.1189864449083805
1746409833134681300,11.568681396484376,0.21254384952783584,-0.11975958470534533,0.176726101693511
1746409833144654600,11.578654541015625,0.19192630117386578,-0.2810207167687826,-0.05928747074902057
1746409833154627300,11.58862744140625,0.27340339189916846,-0.3040662594546564,-0.13693769666254518
1746409833164600300,11.598600341796875,0.5479933632344007,-0.17920823736544697,-0.06650923869609833
1746409833174573300,11.6085732421875,0.5290902175828814,0.07907450482929125,-0.08654664907455444
1746409833184546600,11.618546630859376,0.436312565164268,0.39659159934632476,-0.037246319332718845
1746409833194519600,11.62851953125,0.5808788570091128,0.6455922983296215,0.05451251143217087
1746409833204492300,11.6384921875,-0.11907120058238506,0.01519976108893752,0.2926443912029266
1746409833214465300,11.64846533203125,-1.419129716309905,-0.23489757402464745,0.4460381326258182
1746409833224438500,11.6584384765625,-0.8830798888474702,-0.10261628833319991,0.43731297437846656
1746409833234411500,11.66841162109375,0.18678630793690681,-0.17174012997448443,0.04259761723279953
1746409833244384500,11.678384521484375,0.7290311906471848,-0.2445508799675852,-0.3938315600484609
1746409833254357200,11.688357177734375,1.1599281605035066,0.17250092174652962,-0.5076362184047699
1746409833264330500,11.69833056640625,0.41162206828296183,-0.05531549837812781,-0.2592781281739473
1746409833274303500,11.708303466796876,-0.596962269064784,-0.4111673467854038,0.03140051591396332
1746409833284276500,11.7182763671875,-1.5825465468361972,-0.13618041202183812,-0.19894611680805682
1746409833294249500,11.72824951171875,-1.9091455223500728,0.07586663043238222,0.01196399403810501
1746409833304222500,11.738222412109375,-0.7106593753933906,0.18625713296364993,0.10936229199469089
1746409833314195500,11.748195556640624,0.431103598344326,-0.1501661211458966,-0.06026420682668686
1746409833324168400,11.75816845703125,0.6568149724811315,-0.2473063344218768,-0.13802899903059004
1746409833334141400,11.768141357421875,0.5594000156506895,-0.10394534497987479,0.02285655945241451
1746409833344114400,11.778114501953125,0.45081396872550245,0.025340357358474282,0.09444178623855114
1746409833354087400,11.78808740234375,0.29036738618165253,0.07500004019830375,0.034358196675777435
1746409833364061400,11.7980615234375,0.07947071933895349,0.05904672079570591,-0.014214987835288047
1746409833374034400,11.808034423828126,-0.09913432796895504,0.049306047096569085,0.035386370679736136
1746409833384007400,11.81800732421875,-0.15304682768136263,0.036422874120622874,0.14307985267937182
1746409833393980400,11.82798046875,-0.038567046542465684,0.08197660121265798,0.1651665968030691
1746409833403953400,11.837953369140624,0.07896686147004366,0.03829040329186246,0.08771627737581729
1746409833413926400,11.847926513671876,0.18390987571775913,-0.06061678312402218,0.056792146801948544
1746409833423899400,11.8578994140625,0.33608225865215063,-0.06060945833409205,0.03860124107301235
1746409833433872400,11.867872314453125,0.26250644257068634,-0.08679700710643082,-0.05488485187590122
1746409833443845600,11.877845703125,-0.020054361513257027,-0.08684692892907186,-0.14973171178400516
1746409833453818400,11.887818359375,-0.0002899228572845459,-0.1159721751211211,-0.10713234098553658
1746409833463791400,11.897791259765626,0.05143880307525396,-0.10717961419336497,-0.10917699855566024
1746409833473764400,11.907764404296875,-0.10215864422619342,-0.05809166682688519,-0.10209610038399695
1746409833483737300,11.9177373046875,-0.140375269895792,0.01826872020550072,-0.014966682985424995
1746409833493710600,11.927710693359375,-0.044534722775220865,0.050962819593958555,0.11532909144461154
1746409833503683300,11.937683349609374,0.08789046489894389,0.01501397445956245,0.13052023083567618
1746409833513656300,11.94765625,0.21993074490875003,-0.06221512169875204,0.06742576901912689
1746409833523629300,11.95762939453125,0.2770437942281365,-0.09727532916404306,0.041810850769281385
1746409833533602600,11.9676025390625,0.2757669061601162,-0.09059208854045718,-0.04457797739505768
1746409833543575600,11.977575439453124,0.0880322114571929,-0.005327515165694058,-0.074775547260046
1746409833553548300,11.98754833984375,-0.15900047538876533,0.030233170901332047,-0.05872925234436988
1746409833563521300,11.997521240234375,-0.16947656895667312,-0.030722433989308774,0.017826164069771767
1746409833573494500,12.00749462890625,-0.04180120615810155,-0.07216140097258612,0.010177695143222809
1746409833583467500,12.017467529296875,0.05326309589296579,-0.06686850046254694,-0.022093173864483832
1746409833593440500,12.0274404296875,0.08014642664343118,-0.05192149029197171,0.021290040788054465
1746409833603413200,12.037413330078126,0.12412497684061527,-0.029265093054156747,0.06774374892711639
1746409833613386500,12.047386474609375,0.08918108923137187,0.0169548611279577,0.05813537810444831
1746409833623359500,12.057359375,-0.010115443561971187,0.03784472361728549,0.033224224209785456
1746409833633332500,12.06733251953125,0.0658630497470498,-0.005190572646725923,0.039943303331732745
1746409833643305500,12.077305419921874,0.17240502362400292,-0.07758771860394627,0.05726677857637405
1746409833653278500,12.087278564453126,0.09866115749925375,-0.032867410128749906,-0.037142858958244325
1746409833663251500,12.09725146484375,-0.02076426334828138,-0.04868102879971266,-0.048040685069561
1746409833673224400,12.107224365234375,0.0353226577937603,-0.0454044182818383,0.03874620250165462
1746409833683197400,12.117197509765624,0.12070260117650031,-0.07604364923341199,0.01474339562356472
1746409833693170400,12.12717041015625,0.09696692080199718,-0.07280516050253064,-0.005105214184522628
1746409833703143400,12.137143310546875,0.047184068240225314,0.02687642608564347,0.053722237837314606
1746409833713116400,12.147116455078125,0.10976941149085759,0.05752552084410563,0.0763964264601469
1746409833723089400,12.15708935546875,0.10263269147872925,-0.04086905814083293,0.04244973319470882
1746409833733062400,12.1670625,0.053369186615943906,-0.10091609681919217,-0.023148820397257804
1746409833743035400,12.177035400390626,0.011679331877827643,-0.09946202555336058,-0.038215456625819204
1746409833753008400,12.18700830078125,-0.09420476261228322,-0.11019560101367533,-0.06303191797435283
1746409833762981400,12.1969814453125,-0.19101415476500988,-0.03620744127165526,-0.07431260592341422
1746409833772955400,12.206955322265625,-0.23440818307250738,0.10008662372510879,-0.045938744354248044
1746409833782928400,12.216928466796874,-0.24871786345392463,0.09934784285547212,0.060490416797995564
1746409833792901600,12.226901611328126,-0.0924871450394392,-0.007366144853830337,0.18603811991810798
1746409833802874400,12.236874267578125,0.10526888520121573,-0.048753107655234634,0.14745382997989653
1746409833812847400,12.246847412109375,0.14745996745973824,-0.12926202920181676,0.04061491898298263
1746409833822820400,12.2568203125,0.07070464455932378,-0.13315531031331046,-0.05000643218457698
1746409833832793600,12.266793701171874,-0.0036889176458120344,-0.09533133722310885,-0.06434241605103015
1746409833842766600,12.2767666015625,0.06282324365973473,-0.10959389052717014,-0.06957271791994571
1746409833852739300,12.2867392578125,0.15366875897198914,-0.1765009694344364,-0.12185527834296225
1746409833862712300,12.29671240234375,0.20984832683354615,-0.18504916367968544,-0.15218495015501976
1746409833872685300,12.306685302734374,0.30839024186730385,-0.12613622533148153,-0.10765198094546795
1746409833882658600,12.316658447265626,0.2457175125941634,0.0964850190365687,-0.048021395847201345
1746409833892631600,12.326631591796875,-0.0710483434304595,0.278589671963267,-0.019030863684415818
1746409833902604300,12.336604248046875,-0.37821079706847666,0.14465367786735295,0.17773381743133068
1746409833912577300,12.346577392578125,-0.5846428857177496,-0.004426511205360293,0.24902093805372713
1746409833922550500,12.356550537109374,-0.6739566614180803,-0.01225373423229903,0.2139958019018173
1746409833932523500,12.3665234375,-0.5877633558258414,0.06509889697413891,0.09618658407926559
1746409833942496500,12.37649658203125,-0.07230652679800986,0.03541627262765541,0.06377075364291668
1746409833952469200,12.38646923828125,0.513460394513607,-0.04501364713227376,0.05431669659912586
1746409833962442500,12.3964423828125,0.6348351958632469,-0.12812624837122857,-0.09229425281584262
1746409833972415500,12.40641552734375,0.3875441503420472,-0.11849807686954736,-0.17422785513699054
