time,seconds_elapsed,z,y,x
1746410360977851600,0.0458515625,-4.089319816422462,-0.951585196731612,-0.30885435224771496
1746410360987823400,0.0558232421875,-4.532185164231062,-0.1833819063208997,0.38428748663365836
1746410360997796600,0.065796630859375,-5.37000435411632,-0.012081629068404435,0.5186269834965467
1746410361007769600,0.07576953125,-6.071108550179004,-0.13049173539355396,-0.0682534520149231
1746410361017742600,0.08574267578125,-5.842557568702102,0.4444654764816165,-0.9883224705636501
1746410361027714600,0.095714599609375,-5.548618461513519,-1.2896136940807104,0.45736207519471644
1746410361037687600,0.1056875,-4.426183873102069,-1.0597807099692522,1.5575743104040622
1746410361047660500,0.11566064453125,-3.0474557252854106,0.35371114658415315,1.6284066729962825
1746410361057632500,0.125632568359375,-2.7713901284396645,-0.41477351805120705,1.5999182451367377
1746410361067605500,0.13560546875,-2.456128831759095,-0.8880255285561084,1.0282231037974356
1746410361077578500,0.14557861328125,-2.2253718646705147,-0.7428998492628336,0.6866273424208164
1746410361087551500,0.155551513671875,-2.475672321140766,-0.7176850362464785,1.1591016465514898
1746410361097523500,0.1655234375,-2.7844232130140063,-0.159064480535686,1.691636743891239
1746410361107496400,0.175496337890625,-2.897645103046298,0.5872396242126822,1.7770394836276768
1746410361117469400,0.185469482421875,-2.943400892049074,0.6325155207440256,1.6307506057739256
1746410361127441400,0.19544140625,-2.8479607424229383,0.37019583291709424,1.7852058389484882
1746410361137414400,0.205414306640625,-2.5375831261307,0.33691169521361586,2.077028976896405
1746410361147387400,0.215387451171875,-2.008497876983881,0.24564035570472478,2.0621248377531765
1746410361157359600,0.225359619140625,-1.4829665209263563,-0.07467033331990242,1.799424918437004
1746410361167332400,0.235332275390625,-0.8844061690151691,-0.43318624983727927,1.3626350911498069
1746410361177305300,0.245305419921875,-0.050202831539511675,-0.8511378134027123,1.2871663009285925
1746410361187278600,0.255278564453125,-0.0830932937502861,-0.9034916854962706,1.7842822943627834
1746410361197250600,0.26525048828125,-0.27135844206809995,-0.631869624055922,2.211097255602479
1746410361207223300,0.275223388671875,-0.5618506236732006,-0.5171259312838316,2.2398346897870303
1746410361217196500,0.285196533203125,-1.147280860376358,-0.5634063286826014,1.9290964234888552
1746410361227168500,0.29516845703125,-1.446006032797694,-0.5483487525433302,1.7551660899937152
1746410361237141500,0.3051416015625,-1.4826123006612062,-0.5363549478888512,1.8739584736347197
1746410361247114500,0.315114501953125,-1.4326982229351997,-0.5168640654772519,1.97524618024528
1746410361257087500,0.32508740234375,-1.3715093024790286,-0.6381932741194963,2.0921628331422806
1746410361267059500,0.3350595703125,-1.2083756728082895,-0.7410328863471746,2.2363182060986757
1746410361277032700,0.34503271484375,-0.8297592175483703,-0.7523474765658378,2.295956974503398
1746410361287005400,0.35500537109375,-0.48161505744159216,-0.86006609300673,2.288732283946872
1746410361296977400,0.364977294921875,-0.023076339682936667,-0.8453998542726039,2.2490993617385624
1746410361306950700,0.37495068359375,0.2706429872751236,-0.905190013846755,2.308706565961242
1746410361316923600,0.384923583984375,0.09660101009905338,-1.1256500433266161,2.5405636032462118
1746410361326896400,0.394896484375,-0.025413842719793318,-1.260357788980007,2.6807804677098988
1746410361336868600,0.40486865234375,-0.02530921330153942,-1.2756769386649132,2.591187290546298
1746410361346841600,0.414841552734375,-0.1497463248312473,-1.4585253226310013,2.4522785860717295
1746410361356814600,0.424814697265625,-0.3779290575176477,-1.6404378870517013,2.1775702490538356
1746410361366786600,0.43478662109375,-0.4989385326862335,-1.5948165380835533,1.852687722069025
1746410361376759600,0.444759521484375,-0.45295185753703116,-1.2948328900337218,1.5679150871545076
1746410361386732500,0.454732666015625,-0.40253567550778385,-0.8590940331041812,1.4962322452127932
1746410361396704500,0.46470458984375,-0.17168167778551577,-0.503503064122796,1.156754791164398
1746410361406677500,0.474677490234375,0.20377719022631643,-0.27318098132014274,0.8422188861489296
1746410361416650500,0.484650390625,0.3624766368418932,-0.35256665272414683,0.9726853409707545
1746410361426623500,0.49462353515625,0.007118307572603225,-0.21186288152635097,0.8723889834851026
1746410361436595500,0.504595458984375,-1.0747966389238834,-0.23007190743386743,0.23595862738490103
1746410361446568400,0.514568359375,-1.6124381194919346,-0.6068827745765447,-0.3290478299707174
1746410361456541400,0.52454150390625,-1.4008406109035014,-0.37398002763092514,-0.5226344655722379
1746410361466513700,0.534513671875,-0.863715847685933,0.10283142892122268,-0.41845746726095673
1746410361476486400,0.544486328125,-0.3471387824565172,0.23823650918900965,-0.6546791294962168
1746410361486459400,0.55445947265625,-0.01097147586941719,0.19226152447760103,-1.0366706141471862
1746410361496432600,0.5644326171875,0.22415128521323202,0.11051496916115283,-1.162111349761486
1746410361506404400,0.574404296875,0.1703863772779703,0.050555298238992685,-1.0160434211820364
1746410361516377300,0.58437744140625,0.19286358202397821,-0.085154317933321,-0.919835794314742
1746410361526350600,0.5943505859375,0.025574001717567442,-0.212304780074954,-0.4994441441208124
1746410361536322600,0.604322509765625,-0.38265082534253597,-0.2478068860888481,-0.2373410216540098
1746410361546295300,0.61429541015625,-0.28680092587172984,-0.5045072727292775,-0.537496519139409
1746410361556268500,0.6242685546875,0.2481634444415569,-0.6241524738073349,-0.94091423817873
1746410361566241500,0.634241455078125,0.5979746609777212,-0.45418929037749767,-1.0759937397539614
1746410361576213500,0.644213623046875,0.39764907251000403,-0.06385784740447997,-1.074036760467291
1746410361586186500,0.6541865234375,-0.3345651320874691,0.43544484241902826,-0.8398264380544423
1746410361596159500,0.664159423828125,-1.2378817532777786,0.8103367241978645,-0.5730027168065309
1746410361606131500,0.67413134765625,-1.7194985642850398,0.617867109927535,-0.4336030139446258
1746410361616104700,0.684104736328125,-1.383192726010084,0.27930677072405813,-0.30155250480175017
1746410361626077400,0.694077392578125,-0.4962666831284761,0.09087854079902172,-0.5042950912833214
1746410361636050400,0.704050537109375,0.4215910891115665,-0.4092845652461052,-0.848589005702734
1746410361646022700,0.714022705078125,0.8439777125149964,-0.4448445389270782,-0.8885235412061214
1746410361655995600,0.72399560546875,0.5544780490785837,-0.35529286281764505,-0.4057499613791704
1746410361665968400,0.733968505859375,0.10625438910722732,-0.058655018064379685,-0.15439853455126284
1746410361675940600,0.743940673828125,-0.15968787313103674,0.16677227843403816,-0.10345336021184921
1746410361685913600,0.75391357421875,-0.3717395552277565,0.11736848831772803,-0.08456687343418598
1746410361695886600,0.763886474609375,-0.6140601188600063,0.06069967563450336,-0.02907411879301071
1746410361705859300,0.773859375,-0.6794084970831871,-0.0049169981360435485,0.1772621082663536
1746410361715831600,0.78383154296875,-0.3903127382725477,0.26810265514254566,0.1121808565467596
1746410361725804500,0.793804443359375,0.043484921461343765,0.47220133240818973,-0.23830080659687516
1746410361735777500,0.803777587890625,0.1844037967145443,0.33658933139145375,-0.6150017836242914
1746410361745749500,0.81374951171875,-0.1792488981693983,-0.009153028270602225,-0.6776788968116044
1746410361755722500,0.823722412109375,-0.6597656389802694,-0.3988607863873243,-0.4720616316765546
1746410361765695500,0.833695556640625,-0.7042693820953368,-0.10753507656753063,-0.05815875898003578
1746410361775668700,0.843668701171875,-0.46326749984622,0.20229075106084346,0.33208617475330826
1746410361785640400,0.853640380859375,-0.03336334041953087,0.12330021645426749,0.5765308909326792
1746410361795613400,0.863613525390625,0.39751755508482456,0.18637772713601589,0.5549129333645105
1746410361805586700,0.873586669921875,0.5486556265354157,0.2576578334957361,0.03466857779920101
1746410361815558400,0.883558349609375,0.5993079554080962,-0.004926350486278533,-0.3230623258203268
1746410361825531400,0.893531494140625,0.3529910156160593,-0.09714110832512378,-0.10842296531796455
1746410361835504600,0.903504638671875,-0.10428688842654228,-0.06940671370327473,0.026375965750217435
1746410361845477600,0.9134775390625,-0.19235972415506838,-0.11524258220493792,-0.032899814561009405
1746410361855449300,0.923449462890625,0.16550503497719762,-0.13834756346046923,-0.6011714111924171
1746410361865422600,0.933422607421875,0.6143143858820199,0.1742594193190336,-1.0430407337009906
1746410361875395600,0.9433955078125,0.9611468788683414,0.7979553815305233,-0.9629770169049501
1746410361885368600,0.95336865234375,0.9788362648159264,0.4753799624443054,-0.6124620360136032
1746410361895340500,0.963340576171875,0.46346506824493405,-0.1289507895618677,-0.1545446650236845
1746410361905313500,0.9733134765625,-0.8188006011605262,-0.6727502082377672,0.5767535937726498
1746410361915286500,0.98328662109375,-1.6221920362651348,-0.8043722628355026,0.8691331965595483
1746410361925258800,0.9932587890625,-1.424922328236699,-0.5748802011162042,0.5996130758345126
1746410361935231500,1.0032314453125,-0.5313163691997528,-0.6157201610267162,0.3480219950318336
1746410361945204500,1.01320458984375,0.30013094756603237,-0.04793254851996898,0.2240390570104122
1746410361955177500,1.023177490234375,0.5088438406288623,0.3245265531539917,0.1370645379126072
1746410361965149200,1.033149169921875,0.1607663160175085,0.31825346423387524,-0.18924129987359045
1746410361975122200,1.0431220703125,-0.26186989823281764,-0.057283729711174965,-0.4092909949868917
1746410361985095200,1.05309521484375,-0.6779834327161312,-0.30573125179111954,-0.109522450992465
1746410361995067100,1.063067138671875,-0.867986949133873,-0.05815992802381515,0.4319096540302038
1746410362005040000,1.0730400390625,-0.6056687226116657,0.15709844115972518,0.5646937381446361
1746410362015013000,1.08301318359375,-0.36964112164378166,-0.036947628647089004,0.33141689718961714
1746410362024986400,1.092986328125,-0.38842414804697034,-0.20543080265223979,0.04525602278709411
1746410362034958000,1.1029580078125,-0.3595966974914074,-0.326825477746129,-0.23219722902476786
1746410362044931000,1.11293115234375,-0.2944850506335497,-0.23117490023970602,-0.2837777786582708
1746410362054904300,1.122904296875,-0.35618250513374805,-0.047613984090089795,-0.197884625056386
1746410362064876300,1.132876220703125,-0.1917015525072813,-0.1295300507545471,-0.21839082199037074
1746410362074849000,1.14284912109375,0.022073884642124175,-0.1520388196825981,-0.14784078347086907
1746410362084822300,1.152822265625,0.27608605511188505,-0.10978548584282398,0.018724574214220045
1746410362094795300,1.162795166015625,0.3755763569116592,-0.13779928192794322,0.06450140600502491
1746410362104767200,1.172767333984375,0.2774269483268261,-0.20324878243803976,0.0995019922375679
1746410362114740200,1.182740234375,0.08412029871046543,-0.25592706418037414,0.1559305664241314
1746410362124713200,1.192713134765625,-0.06395429351627827,-0.22560616019666194,0.21960662752091883
1746410362134685200,1.202685302734375,-0.05899813241362571,-0.27209435512721536,0.18160919755995272
1746410362144658400,1.212658447265625,0.06980477311015129,-0.23461247347295283,0.17103695014119147
1746410362154631200,1.222631103515625,0.2130634894877672,-0.14375263737440108,0.23919103343486783
1746410362164604200,1.232604248046875,0.30766543472409247,-0.1750496929138899,0.16436112563908098
1746410362174576400,1.242576416015625,0.22566636595129966,-0.27706162214577196,0.1641249787956476
1746410362184549400,1.25254931640625,-0.04325169722735882,-0.14517536365389824,0.2483954996317625
1746410362194522000,1.262522216796875,-0.2676420518934727,-0.06580956599414348,0.24714111565649508
1746410362204495000,1.2724951171875,-0.3715039929062128,-0.021122283005714414,0.1301052202939987
1746410362214467300,1.28246728515625,-0.33725393278002735,-0.02305529689490795,-0.07181494388878346
1746410362224440300,1.2924404296875,-0.1908697778582573,0.08562544257640838,-0.20518062728345393
1746410362234413000,1.3024130859375,-0.11307926669120788,0.15459961008131504,-0.2848147204905748
1746410362244385300,1.31238525390625,0.022720950374007225,0.11735445979237556,-0.4069441395998001
1746410362254358300,1.322358154296875,0.1336748954743147,0.08668401171863079,-0.41541970700025554
1746410362264331300,1.332331298828125,0.06210311269164085,0.08462941727638244,-0.2613835760205984
1746410362274304300,1.34230419921875,-0.03602700667083263,0.061274260652065274,-0.21896482248604296
1746410362284276200,1.352276123046875,-0.003610591712594032,0.05289630840718746,-0.22492928384840488
1746410362294249200,1.362249267578125,0.06661386811435223,0.008254618126153945,-0.16556290264427662
1746410362304222200,1.37222216796875,0.13810381783246994,0.025416180807352064,-0.13108721706867218
1746410362314194200,1.382194091796875,0.07836334261894226,0.03734276544451713,0.023107903864979743
1746410362324167200,1.392167236328125,-0.11147533862590789,0.06015665479898452,0.08759703491032123
1746410362334140400,1.402140380859375,-0.16681611757576464,0.06169453189074993,0.12062661333084106
1746410362344113200,1.412113037109375,-0.02467909870445728,0.09298574221134186,0.17772037342786787
1746410362354085000,1.422085205078125,0.1367979959309101,0.11627309429645538,0.1801642594486475
1746410362364058400,1.432058349609375,0.2524947516441345,0.08460603640079498,0.1139934589266777
1746410362374031400,1.44203125,0.35229075839221474,-0.009827566531300545,0.01899111619591713
1746410362384003000,1.452003173828125,0.4762701892822981,-0.03055062108635902,-0.019460487273335457
1746410362393976300,1.461976318359375,0.44141047282516954,-0.019417232653498647,0.01883680241703987
1746410362403949300,1.47194921875,0.3127835083901882,-0.009727028766274452,-0.01971826142668724
1746410362413922300,1.48192236328125,0.19492168359756468,0.008349310672283172,-0.03399170145094395
1746410362423894300,1.491894287109375,-0.03714636608958244,-0.01959843443930149,0.08062427328824996
1746410362433867300,1.5018671875,-0.215865102905035,0.02010112326443195,0.18411445837914941
1746410362443840300,1.51184033203125,-0.3051882309556007,0.0438011478036642,0.33168285464942454
1746410362453813200,1.521813232421875,-0.43185996966958046,-0.025396891584992407,0.45673371416330333
1746410362463785200,1.53178515625,-0.4772130230903625,-0.17523673991858957,0.5515554396301507
1746410362473758200,1.54175830078125,-0.3979167835354805,-0.22982465467453,0.7618097169160842
1746410362483731200,1.551731201171875,-0.36059155374765395,-0.2531143448472023,1.0215770899116992
1746410362493703200,1.561703125,-0.4994786309123039,-0.27914018198549745,1.3195739480584858
1746410362503676200,1.57167626953125,-0.7432973241478205,-0.42807752852141856,1.4512532858014107
1746410362513649200,1.581649169921875,-0.8000023771882057,-0.5312836359739304,1.3963415459185837
1746410362523622400,1.591622314453125,-0.5990536883860826,-0.46407764718532557,1.1950456511139869
1746410362533594000,1.601593994140625,-0.31379239317178725,-0.29667759224176404,0.8304097904115915
1746410362543567000,1.611567138671875,0.038488428348302836,-0.23007658360898495,0.41525428730547426
1746410362553540400,1.621540283203125,0.45295039623230693,-0.23130407957732677,0.06055296064019203
1746410362563513300,1.631513427734375,0.810251676262915,-0.18113339674174783,-0.14051730871498583
1746410362573485000,1.641485107421875,1.1491343792885542,0.012113339380919932,-0.2760007149159908
1746410362583458300,1.651458251953125,1.2908686625778674,0.13343494923859833,-0.5048866274356841
1746410362593431300,1.661431396484375,1.3118228955402969,0.09955693729519843,-0.7164128243535757
1746410362603403300,1.6714033203125,1.0470406169921158,0.028638942246139047,-0.6938526174992322
1746410362613376300,1.681376220703125,0.5841957264721394,0.062410571205615994,-0.5165735580980777
1746410362623349200,1.691349365234375,0.10501403365731239,0.03744739486277103,-0.38123102167248724
1746410362633322200,1.701322265625,-0.3463336035534739,0.042464053981006146,-0.27556816871762274
1746410362643294200,1.711294189453125,-0.7589034740805626,0.06608049189001321,-0.14395137481689452
1746410362653267200,1.72126708984375,-0.9866063142955303,0.06907704335749149,-0.11050737037658691
1746410362663240200,1.731240234375,-1.0417471867591142,0.08003887461572885,-0.24401509259045123
1746410362673213200,1.741213134765625,-1.0335404994279145,0.08614800514578819,-0.39415889230668544
1746410362683185400,1.751185302734375,-0.9715601363331079,0.03058949179202318,-0.4125035272926092
1746410362693158100,1.761158203125,-0.8732835942372679,-0.014606325240433215,-0.38035599240362644
1746410362703131100,1.771131103515625,-0.7758627921879291,-0.04656418277621269,-0.39138358237445353
1746410362713103400,1.781103271484375,-0.631446137946844,-0.10896715519726276,-0.4266542177200317
1746410362723076400,1.791076416015625,-0.4802922844052315,-0.19384148714542387,-0.48939796640276906
1746410362733049000,1.801049072265625,-0.36565468235611914,-0.2774351316332817,-0.44295185704827306
1746410362743022000,1.81102197265625,-0.4291033644378185,-0.25275515614598987,-0.2749146732449531
1746410362752994300,1.820994384765625,-0.5444055678755044,-0.22473960649520158,-0.1199146656692028
1746410362762967000,1.830967041015625,-0.5740381973341107,-0.2378048397734761,-0.05463000033199787
1746410362772940000,1.84093994140625,-0.5032072960466146,-0.21878800461441278,-0.0371305839985609
1746410362782912300,1.850912353515625,-0.41113282346129415,-0.17967881401926278,-0.03366962988972664
1746410362792885200,1.86088525390625,-0.30840310134887694,-0.10835896017104386,-0.051534956926107406
1746410362802858200,1.870858154296875,-0.22268033587783573,-0.03319061420112848,-0.10655717144608497
1746410362812831200,1.880831298828125,-0.10808452714383601,-0.06488543688654899,-0.19893968706727028
1746410362822803200,1.89080322265625,0.01653553973734379,-0.10800444764494896,-0.3163736418366432
1746410362832776200,1.900776123046875,0.13511574193239212,-0.13057254554480313,-0.46503801665008065
1746410362842749200,1.910749267578125,0.21256839944720268,-0.2129357714548707,-0.6111562141120434
1746410362852722200,1.92072216796875,0.22257775228619575,-0.32246991288512944,-0.6872820069372654
1746410362862694100,1.930694091796875,0.2332251107677817,-0.3900210618495941,-0.744525404638052
1746410362872667400,1.94066748046875,0.26866291937381026,-0.3393310313150287,-0.7434504688829183
1746410362882640100,1.95064013671875,0.2822396093055606,-0.28226182113736864,-0.7252963880330324
1746410362892612000,1.960612060546875,0.37776246877908704,-0.23427578886449335,-0.7219733810901642
1746410362902585300,1.97058544921875,0.4817886604428291,-0.1944499744325876,-0.7324491823971271
1746410362912558300,1.980558349609375,0.6273012932270765,-0.10689327153265475,-0.74521923212111
1746410362922531000,1.990531005859375,0.808140675458312,-0.03505377772450447,-0.778022600570321
1746410362932503300,2.00050341796875,1.0549690719038247,-0.019512509721517562,-0.9080997638136148
1746410362942476300,2.010476318359375,1.2566443214148282,-0.010958031865954398,-1.0491887349367142
1746410362952449300,2.02044921875,1.2662129447489976,0.004790156885981559,-1.0799696576476097
1746410362962422300,2.03042236328125,1.1525798435673118,-0.0019306758016347885,-1.0027741897642612
1746410362972394500,2.04039453125,0.922792013771832,-0.026742460975050925,-0.7343886260271072
1746410362982367200,2.0503671875,0.5339639610990882,-0.007830255234241485,-0.1973784290999174
1746410362992340200,2.06034033203125,0.09523322887718677,0.04471300195157528,0.3477449316561222
1746410363002313500,2.0703134765625,-0.2537178636983037,0.060418520605564116,0.7740028435349464
1746410363012285200,2.08028515625,-0.4623810724005103,0.059062429821491236,0.9884346987664699
1746410363022258200,2.090258056640625,-0.5967191079586744,-0.030507366466522214,1.1156880367606878
1746410363032231400,2.1002314453125,-0.6768810244321822,-0.14880875172019004,1.1966577624857424
1746410363042203400,2.110203369140625,-0.6594663637727498,-0.37387130655944345,1.0678355677396059
1746410363052176100,2.120176025390625,-0.6087129126131534,-0.6742950995922088,0.865778625434637
1746410363062149400,2.1301494140625,-0.5579617995411157,-0.9710492642015218,0.5883797341585159
1746410363072122400,2.140122314453125,-0.5162906495034695,-1.1879688445955514,0.36521453737318516
1746410363082094300,2.15009423828125,-0.5481085140466689,-1.192904547432065,0.2280348486483097
1746410363092067300,2.1600673828125,-0.6794853617116808,-1.0783142916560173,0.13143968376815318
1746410363102040300,2.170040283203125,-0.88981299649477,-0.8886749323755502,0.08949731557369231
1746410363112013300,2.180013427734375,-1.140820432190597,-0.6305752003312111,0.049131987437605856
1746410363121985500,2.189985595703125,-1.4154296927481889,-0.4319172528147697,0.007392448338866233
1746410363131958300,2.199958251953125,-1.6821821023255585,-0.24312194314301014,0.003122515934705734
1746410363141931300,2.20993115234375,-1.840036184158176,-0.05998889701664448,0.0006669394761323928
1746410363151903500,2.219903564453125,-1.9091390926092862,0.06089139881432056,0.006089549046754837
1746410363161876500,2.22987646484375,-1.9664863890759645,0.028783611413836476,0.07134557281136512
1746410363171849200,2.23984912109375,-1.9021948264293371,-0.14844517910480498,0.2200830128610134
1746410363181822200,2.249822265625,-1.5946953959219157,-0.1798497866719961,0.49482174501717086
1746410363191794400,2.25979443359375,-1.380872758629918,-0.28553777406811715,0.6955863094240426
1746410363201767400,2.269767333984375,-1.265665832260251,-0.55797232093513,0.6941255892217159
1746410363211740200,2.279740234375,-1.195364507804811,-0.9179115482538938,0.5913730707556009
1746410363221713400,2.28971337890625,-1.1600906575888394,-1.2293085707217455,0.5151888257414102
1746410363231685400,2.299685302734375,-1.209394786722958,-1.350484634628892,0.4926052380114794
1746410363241658400,2.309658447265625,-1.2988444637626408,-1.4749451270341871,0.46793081548213955
1746410363251631400,2.31963134765625,-1.4740648370683191,-1.581954133901,0.47881461306810374
1746410363261604400,2.329604248046875,-1.5439267471931875,-1.6729373041182756,0.4768792610913515
1746410363271576300,2.339576416015625,-1.5103893653810023,-1.7530875301539897,0.4124643643260002
1746410363281549600,2.349549560546875,-1.4017548031389713,-1.7656050664216278,0.2983516629338264
1746410363291522300,2.359522216796875,-1.2632310063287615,-1.7829454928010702,0.14240005372166634
1746410363301494300,2.369494384765625,-1.1575900729447604,-1.8673545453250406,-0.0910492211908102
1746410363311467500,2.379467529296875,-1.0812380701482296,-2.0039999810427425,-0.40765784082710743
1746410363321440500,2.3894404296875,-1.0131015225112439,-2.1800550516068933,-0.6984054584980011
1746410363331413200,2.399413330078125,-0.9543027120620011,-2.3779040208280087,-0.8993290128588676
1746410363341385500,2.409385498046875,-0.9097710580267011,-2.518035545095801,-0.9776970316529273
1746410363351358500,2.4193583984375,-0.9102700935900211,-2.7150504015803336,-0.93949677259624
1746410363361331500,2.42933154296875,-0.9309604149192571,-3.096063396587968,-0.7379682380795478
1746410363371304200,2.43930419921875,-0.836976455450803,-3.6142782921522856,-0.521990906971693
1746410363381276400,2.4492763671875,-0.6761625008992851,-4.145098986789584,-0.4459790959149599
1746410363391249400,2.45924951171875,-0.5957632685385644,-4.768400981247424,-0.3684206399381161
1746410363401222400,2.469222412109375,-0.6790552997313439,-5.533762253165245,-0.08843582382202148
1746410363411195400,2.4791953125,-0.8353630289047956,-6.1629655806213615,0.24414953262507913
1746410363421167400,2.48916748046875,-0.7017208666563034,-6.229094295567274,0.40434301719069476
1746410363431140400,2.499140380859375,-0.2658813258312642,-6.331095118883252,0.19995032541453836
1746410363441113300,2.50911328125,0.18317695833332837,-6.721099229598045,-0.3255103034943342
1746410363451085300,2.519085205078125,0.7542156085252761,-7.0471835335880515,-1.0985066003352404
1746410363461058300,2.529058349609375,1.3851929599165915,-7.625429411745071,-2.017910432973504
1746410363471031600,2.539031494140625,1.9293898534774778,-8.387444295844436,-2.5522230613797903
1746410363481004300,2.54900439453125,2.2329279791384935,-8.993385405656694,-2.8575743739426134
1746410363490976300,2.558976318359375,2.3745903662353753,-9.508642620459199,-3.327344095289707
1746410363500949500,2.568949462890625,2.403337737292051,-9.82442414162159,-3.947626449665427
1746410363510922500,2.578922607421875,2.2690134379982947,-9.76459365003705,-4.459765240186453
1746410363520895200,2.588895263671875,1.9864765993118285,-9.309377939221262,-4.332424223908782
1746410363530867500,2.598867431640625,1.612995168852806,-8.275788339954614,-3.9106127700448035
1746410363540840400,2.60884033203125,1.222808102786541,-6.856580882233381,-3.4592519810914992
1746410363550813400,2.6188134765625,0.8462754680633544,-5.422431291446089,-3.1099393617272377
1746410363560786200,2.6287861328125,0.4852958648461848,-4.1943204060763115,-2.8651410098046064
1746410363570758400,2.63875830078125,0.06760119865126907,-3.4654391452938316,-2.75659120323658
1746410363580731400,2.6487314453125,-0.5473778616845607,-3.4332021785557267,-2.6748949168026446
1746410363590704400,2.658704345703125,-1.0749135433018207,-3.9366701713651415,-2.6082991688668726
1746410363600677400,2.668677490234375,-1.2402889605499803,-4.466692409101128,-2.4711674109369515
1746410363610649300,2.6786494140625,-1.032746280310303,-4.347588475292921,-2.098703633087873
1746410363620622300,2.688622314453125,-0.9182648917362093,-3.643384559649229,-1.2879963220119475
1746410363630595300,2.69859521484375,-1.3678078176125883,-2.659975580090284,-0.6266892988085746
1746410363640567300,2.7085673828125,-2.4491996170178054,-2.1278250981539486,-0.28397768514454363
1746410363650540300,2.718540283203125,-3.493974919426441,-2.047735662394762,-0.10000643462836742
1746410363660513300,2.72851318359375,-3.785228733053803,-2.3473709353983403,0.13927636874318122
1746410363670486500,2.738486572265625,-3.167020846864581,-2.9035218861252066,0.5638923586338758
1746410363680458200,2.748458251953125,-1.9293173727631567,-3.2566596167355772,1.0675754554986954
1746410363690431200,2.75843115234375,-0.5894967554897069,-3.017518267661333,1.6293348937571048
1746410363700404500,2.768404541015625,0.17799042254090308,-3.2954303691565987,2.28642283796072
1746410363710377500,2.77837744140625,0.5880255138933658,-3.9843174732029434,3.583690846186876
1746410363720349200,2.78834912109375,0.8887316309988498,-3.374776293072104,5.206508905395865
1746410363730322400,2.798322509765625,0.7632938179939985,-0.6799085555598139,6.631698360136151
1746410363740295400,2.80829541015625,0.18132745800912378,3.2304955401703714,7.173195931610465
1746410363750268400,2.818268310546875,-0.5255278489261865,6.252853356817364,6.421376862832903
1746410363760240400,2.828240478515625,-0.7664531588077544,7.820275107496976,5.0678632357716555
1746410363770213400,2.83821337890625,-0.6563128681778907,8.886808360466361,3.8868630611449477
1746410363780186400,2.848186279296875,-0.024158289700746533,8.68701117978692,4.26262003532052
1746410363790159400,2.858159423828125,1.5226175633132457,8.070173997429013,5.566675511729717
1746410363800131300,2.86813134765625,4.709505724686384,7.701079988273978,7.409628606247901
1746410363810104300,2.878104248046875,8.742510948690771,7.025185636791586,10.352602797317504
1746410363820077300,2.888077392578125,12.086177817749977,8.240442301285267,11.801698028302193
1746410363830050600,2.898050537109375,13.188704175120591,9.845724119281769,11.006140355563163
1746410363840022300,2.908022216796875,11.356668780457973,9.90605496160388,8.196074751770496
1746410363849995300,2.917995361328125,9.839126036190986,11.313194380390643,4.628294883681834
1746410363859968500,2.927968505859375,15.417431195437906,21.682283033084868,-1.8820067555338142
1746410363869941200,2.937941162109375,14.99780059274435,23.523290838754175,-5.6347869249254465
1746410363879913200,2.947913330078125,21.392928331077098,9.20701178972423,-0.2859743753870949
1746410363889886500,2.957886474609375,36.16504736030102,6.299754224202037,5.891543425667286
1746410363899859500,2.967859375,16.172261720991134,3.9002266928479075,2.111835501861572
1746410363909831200,2.9778310546875,-6.774501733961701,11.210315020674466,7.336385090860724
1746410363919804400,2.987804443359375,-14.987852030181884,5.123371772503853,4.753021918068826
1746410363929777400,2.99777734375,-13.318402568179367,8.872267209416627,3.7191029407173395
1746410363939750400,3.00775048828125,-12.838494899177551,0.8302113452300429,0.036592823860049244
1746410363949722400,3.017722412109375,-3.2329531624555585,-0.9138518975995481,-3.326361513993144
1746410363959695400,3.0276953125,5.790779450669884,0.4831786534965038,-1.9325372115924953
1746410363969668400,3.03766845703125,9.781813664907217,-0.10020254172235726,-0.4416241886410862
1746410363979641300,3.047641357421875,6.71111208859086,-0.6189892458252608,1.2747323512911797
1746410363989613600,3.057613525390625,-0.6999333987176418,-1.5669016723282634,1.9508739555329084
1746410363999586600,3.067586669921875,-4.35096525824964,-1.650776325714588,1.862337009423971
1746410364009559300,3.077559326171875,-3.180435039710998,-1.3468918708339332,0.926715909217298
1746410364019532500,3.087532470703125,-0.5415899259328841,-1.6664422430105506,0.7191701602376998
1746410364029504500,3.09750439453125,1.7375883477270602,-1.7377924919970333,1.5798105460010468
1746410364039477500,3.1074775390625,1.8921300901412963,-2.3882693474978205,0.970984528402239
1746410364049450500,3.117450439453125,0.48123453369140623,-2.576744339174032,1.0417145996637642
1746410364059423500,3.127423583984375,-0.23520810127854347,-2.8782474518761036,0.09139072810485958
1746410364069395500,3.1373955078125,-0.7492226225435733,-3.6109248900711535,-1.5568157471217214
1746410364079368700,3.14736865234375,-1.5226228240102528,-4.255308543263376,-1.1997440380632876
1746410364089341400,3.157341552734375,-1.2683704150438309,-4.453895179109275,-0.8010084854908287
1746410364099314400,3.167314453125,-1.0356512079715727,-2.92617620100379,1.2066229839220641
1746410364109286700,3.17728662109375,-0.9833645558953285,0.6101645727261901,1.2990034537166357
1746410364119259400,3.18725927734375,-1.2466945898085833,1.2766584970481694,-2.447073272513598
1746410364129232400,3.197232421875,-0.2561988668590784,0.10123115411773323,-4.795551438501477
1746410364139205400,3.207205322265625,0.40122225482165813,-1.4398840427860617,-6.2631637384295455
1746410364149177600,3.217177490234375,-0.10924304952919482,-2.1234793240346015,-4.589173125866055
1746410364159150300,3.227150390625,-0.16666823353767393,-2.7554546004220843,-0.8473093411557376
1746410364169123300,3.237123291015625,-0.5601169317483902,-3.3898139954671263,0.9740509302355348
1746410364179096600,3.2470966796875,-0.11420564037263392,-3.4351924755901098,3.4588615204691884
1746410364189068500,3.257068603515625,0.6256932735085488,-1.3312578099809587,4.162732550896704
1746410364199041300,3.267041259765625,1.2054805358886718,0.3746858378127217,0.7582707291349768
1746410364209014500,3.2770146484375,0.2092073985815048,3.1923487648665905,-2.90040053923428
1746410364218987500,3.286987548828125,-1.3624813618928193,4.332387399029732,-6.27652824691534
1746410364228959500,3.29695947265625,-0.6708259621769189,4.531640974351763,-6.9198372566133735
1746410364238932500,3.306932373046875,0.1544084714233875,4.552973685237765,-6.113206985718011
1746410364248905500,3.316905517578125,0.14524433723688124,4.3112475803673265,-3.663471069866419
1746410364258878500,3.32687841796875,1.2844430134445428,3.0851819370895623,-0.7356010705567896
1746410364268850700,3.3368505859375,1.6799053895652294,2.840335362111032,2.453676470170915
1746410364278823400,3.346823486328125,1.3073849130928517,3.22146204662621,4.185143412408232
1746410364288796400,3.35679638671875,0.07034954751133918,4.432120277413725,5.1585909699231385
1746410364298769400,3.366769287109375,-0.981619758054614,5.125327582746744,3.1017782671034335
1746410364308741600,3.37674169921875,-1.6520342168211937,5.317782583969831,-0.03468691717348993
1746410364318714400,3.38671435546875,-1.5661504155695438,3.425916989983618,-1.845545595229417
1746410364328687400,3.396687255859375,-0.22189503071904182,1.5517784836068749,-1.6617808270707726
1746410364338660400,3.406660400390625,0.9144482560575008,-0.11554112676009536,-1.4361996551848948
1746410364348632600,3.416632568359375,1.4043191006690263,-1.015581648889184,-0.96872381692864
1746410364358605300,3.426605224609375,1.2005296354830264,-1.0447706262335181,0.23175511128045617
1746410364368578600,3.43657861328125,0.5988830079942942,-0.7109380462042987,0.48688671423420304
1746410364378551600,3.446551513671875,-0.2958428949832916,-0.26442681617401537,0.6637604077048599
1746410364388523500,3.4565234375,-0.7601654568403959,0.09438384550623595,1.0032990904211998
1746410364398496500,3.46649658203125,-0.7318424486756324,0.8440810998242348,1.6314128690749405
1746410364408469500,3.476469482421875,-0.7327373516887425,1.2345255747176707,1.8912220353856681
1746410364418442500,3.4864423828125,-0.40521278576254843,1.3279597913488745,2.0108897405564785
1746410364428414500,3.49641455078125,0.1459481015920639,1.3117571368277072,2.2407930134251712
1746410364438387500,3.506387451171875,0.4857154784977436,0.8572182292949407,1.9146707155123353
1746410364448360400,3.5163603515625,0.8306599657803774,0.19293240947648882,0.6652019848152995
1746410364458333400,3.52633349609375,0.8547095344096421,0.12892675109915436,-0.05570384010858834
1746410364468305700,3.5363056640625,0.2578419578909874,0.14002777163237332,0.1856175929510966
1746410364478278400,3.5462783203125,-0.26940613895654675,0.23028854585923253,-0.22952570826057345
1746410364488251400,3.55625146484375,-0.5840133556425571,0.5919172606348991,-0.7332943279843777
1746410364498224400,3.566224365234375,-0.577620439735055,1.0106414160080253,-1.1107687005370854
1746410364508196600,3.576196533203125,-0.1919353612631559,1.354230835419893,-1.4132738298885523
1746410364518169300,3.58616943359375,0.4210217647910118,1.471036429157853,-1.8187194014936685
1746410364528142300,3.596142333984375,0.8964145867168902,1.1350180295221506,-2.7517911094784737
1746410364538115600,3.606115478515625,0.5932032087922096,0.5163953885195777,-2.5919316791728138
1746410364548087300,3.61608740234375,0.02990530892014503,0.19403927473984658,-1.6883064304247497
1746410364558060300,3.626060302734375,-0.013597148197889328,-0.06292809227369725,-0.6240171569898724
1746410364568033500,3.636033447265625,-0.004285129973292351,-0.3833169245684519,0.6619701632872224
1746410364578006500,3.646006591796875,-0.22778408875763415,-0.33828860959000884,1.607085068026185
1746410364587978200,3.655978271484375,-0.2752852601230144,0.15238964241426436,1.4833273170627652
1746410364597951500,3.665951416015625,-0.2614408591657877,0.7856045801319181,0.1387265619738493
1746410364607924500,3.675924560546875,-0.25941198368668555,1.2137241942293941,-1.1895941807750612
1746410364617897500,3.6858974609375,-0.03525368421077728,1.2739569830045103,-1.6065397091031073
1746410364627869400,3.695869384765625,0.28162030836343765,0.9957458985626697,-1.267548138875514
1746410364637842400,3.705842529296875,0.5116612361371516,0.4562829016558826,-0.003934033246990293
1746410364647815400,3.7158154296875,0.5490063396692275,-0.1055832483800128,1.3503366044603287
1746410364657788400,3.725788330078125,0.02712006211578846,-0.754931940101087,1.8510143820293246
1746410364667760400,3.735760498046875,-0.3237842103540897,-1.4585167009331286,2.0466732938602568
1746410364677733400,3.7457333984375,-0.32971769205629825,-2.029853676484525,1.8852406228885052
1746410364687706400,3.755706298828125,-0.06933657107651234,-2.4794533009842037,1.883030691754073
1746410364697679600,3.7656796875,0.14306991580724715,-2.5835315150961278,1.6140098988533018
1746410364707651300,3.7756513671875,0.10996961023807525,-2.2598756072968245,1.6121822450347243
1746410364717624300,3.785624267578125,-0.11919453470110893,-1.4033270208917556,1.413191558432579
1746410364727597600,3.79559765625,-0.36206513343155383,-0.3769834472306072,0.4597247492054477
1746410364737570600,3.805570556640625,-0.29151977108716964,-0.03140168495774269,-0.05543081358717754
1746410364747542300,3.815542236328125,0.02724105814695358,0.013632329109124838,0.0039406479341560045
1746410364757515500,3.825515625,0.26152327675223347,0.08618917740639298,-0.3213612575234845
1746410364767488500,3.835488525390625,0.20420272216200827,0.00844630477335304,-0.31794162180572744
1746410364777461500,3.84546142578125,0.05186579631567001,-0.08931114535182715,-0.0463368539934745
1746410364787433500,3.85543359375,-0.10649638116955756,-0.1771642739150673,-0.0016635858306661246
1746410364797406500,3.865406494140625,-0.15222119051218033,-0.2977507013659924,-0.008641678931692149
1746410364807379500,3.87537939453125,-0.1005348424166441,-0.4156889158630743,-0.058039676344743926
1746410364817352400,3.8853525390625,-0.07367021636664867,-0.4354484956808388,-0.18728274968434125
1746410364827324400,3.895324462890625,-0.05636895295381546,-0.4346620214782655,-0.3527568415340036
1746410364837297400,3.90529736328125,0.031159108373522756,-0.44520792887937277,-0.42210229003671557
1746410364847270400,3.9152705078125,0.0953624082148075,-0.3944219636896625,-0.42767457374371587
1746410364857243600,3.92524365234375,0.08429039458036422,-0.2901084795171395,-0.4251443976789713
1746410364867216600,3.935216552734375,0.05138941097557544,-0.19210257105622439,-0.33468506867270914
1746410364877188400,3.945188232421875,0.028838556471467016,-0.178203188508749,-0.1988608862100169
1746410364887161600,3.95516162109375,0.031149171501398086,-0.0829488072456792,0.08873097997684963
1746410364897134600,3.965134521484375,-0.014408464580774306,0.11113156668953597,0.37683910685647276
1746410364907107600,3.975107666015625,-0.016260229927301407,0.31196269352659584,0.6137113054223359
1746410364917079600,3.98507958984375,0.026050971579551694,0.5365727918906137,0.6150636698793619
1746410364927052500,3.995052490234375,0.08140519453287125,0.6526318415775895,0.3993111970359459
1746410364937025500,4.005025634765625,0.06913081937134266,0.6990398839440196,0.13957321453159674
1746410364946998300,4.014998291015625,0.012245733588933943,0.5830724580632523,0.008366805229778401
1746410364956970500,4.024970458984375,-0.021607436174154282,0.2700439619360491,0.07018041975582018
1746410364966943200,4.034943115234375,-0.021366613155603408,0.026685543156042695,0.11679003084264696
1746410364976916200,4.044916259765625,-0.0552735589325428,-0.060315389024652534,0.04806080997555982
1746410364986889500,4.054889404296875,-0.081877488219738,-0.07319993197377771,-0.006866159442439675
1746410364996861400,4.064861328125,-0.09054302523434161,-0.049236689921095964,-0.04948444043735507
1746410365006834200,4.074834228515625,-0.048931496429443354,-0.0599418064719066,-0.054519662692165
1746410365016807400,4.084807373046875,0.016918986096978186,-0.04359999920837581,-0.02080845411645714
1746410365026780400,4.094780517578125,-0.016905542093515396,-0.024241985928826034,-0.0026969657327048477
1746410365036752400,4.10475244140625,-0.024984803652763364,0.037706338059902186,-0.07348763547451236
1746410365046725400,4.114725341796875,0.027701076874136924,0.01370714791100472,-0.05121889498056843
1746410365056698400,4.124698486328125,-0.004602525359392166,-0.04716565580070019,0.043043566335435025
1746410365066671400,4.13467138671875,-0.028967151287198064,-0.03079571842122823,0.018704741569166072
1746410365076643600,4.1446435546875,0.005786182186007499,-0.04138484390955418,0.008656792019144632
1746410365086616300,4.1546162109375,0.002393032616376877,-0.0394414182242006,-0.0046176544298650694
1746410365096589300,4.16458935546875,-0.024344167661666867,-0.04491451587304473,0.004774767520604655
1746410365106562300,4.174562255859375,-0.038221886366605756,-0.04966554632503539,-0.003303585289767943
1746410365116535600,4.18453564453125,-0.014402034839987754,-0.043949287570081645,-0.03125734458360821
1746410365126507300,4.19450732421875,-0.03428688500523567,-0.03892287424281239,-0.0456697546871379
1746410365136480300,4.204480224609375,-0.03831424082517624,-0.05336202622279525,-0.03042910903196316
1746410365146453500,4.21445361328125,-0.04819733693599701,-0.06035583063289523,-0.02884681284315884
1746410365156425200,4.22442529296875,-0.0477402408182621,-0.05167958956118673,-0.01831614411037881
1746410365166398200,4.234398193359375,0.003159340813755989,-0.02158624725565314,0.007836799139459618
1746410365176371500,4.244371337890625,0.03162906397283077,-0.0038511955354362725,-0.009921505592181346
1746410365186344400,4.254344482421875,0.027497078734636304,0.02068243028372526,0.004856107394816353
1746410365196317400,4.2643173828125,0.0438712904304266,-0.0052358913594856855,-0.003943463229038753
1746410365206289400,4.274289306640625,-0.01040858128964901,-0.018979973747394976,0.012070956977340392
1746410365216262400,4.284262451171875,-0.06605214257836342,-0.0375491382041946,0.0015377857602201402
1746410365226235400,4.2942353515625,-0.07712474073469638,-0.04729107227865606,-0.024167345223459414
1746410365236208400,4.30420849609375,-0.06290799933373928,-0.038221594105660915,-0.0006156157142715528
1746410365246180400,4.314180419921875,-0.006928337958455085,-0.017110453548468647,0.027291975483437998
1746410365256153300,4.3241533203125,0.008362170153856277,-0.0035859321953728793,0.06166204069352243
1746410365266126300,4.334126220703125,0.010046177718043326,0.00016973054371774196,0.03681415672684088
1746410365276099300,4.344099365234375,0.012190788531303405,0.008271898054517805,0.02198760829789098
1746410365286071300,4.3540712890625,0.012540332621335982,-0.024481859099306166,0.04558985785134136
1746410365296044300,4.364044189453125,-0.02467968322634697,-0.049561026504635806,0.039340652130311356
1746410365306017300,4.374017333984375,-0.04992635268568992,-0.040024076950363814,0.015772030851827
1746410365315990500,4.383990478515625,-0.03717559218406677,-0.04064535065386444,-0.048096484077139755
1746410365325962200,4.393962158203125,-0.02489011110663414,-0.042561011549457906,-0.041916274771979074
1746410365335935200,4.403935302734375,-0.03925181393623352,-0.018734620684199035,-0.056307605554861945
1746410365345908500,4.413908447265625,-0.0277238732278347,-0.022242226946353912,-0.05361173580070026
1746410365355881500,4.423881591796875,-0.012165069568157195,-0.05700352453030646,-0.04704498856309801
1746410365365853200,4.433853271484375,-0.032523966985940934,-0.04893346919082105,-0.013542326437844894
1746410365375826400,4.443826416015625,-0.038970074385404584,-0.04825549686402082,-0.02491910887225531
1746410365385799400,4.45379931640625,-0.01787351034283638,-0.041940724226646124,-0.015472942873975262
1746410365395772400,4.4637724609375,0.001717325311899185,-0.0399173286402598,-0.0354809718943201
1746410365405745200,4.4737451171875,-0.025673370438814163,-0.032848047841154034,-0.04784906692102085
1746410365415717400,4.48371728515625,-0.018651508978009223,-0.02549074388090521,-0.024761132698412982
1746410365425690400,4.4936904296875,-0.0429039067029953,-0.04273936379104852,-0.03422677058214321
1746410365435663400,4.503663330078125,-0.030192893689870832,-0.04707308214642107,-0.03934219563342631
1746410365445636400,4.51363623046875,0.00587853664457798,-0.02837985291853547,-0.020135619189077986
1746410365455608300,4.5236083984375,-0.010873276191949844,-0.03644508595243096,-0.047510843376023695
1746410365465581300,4.533581298828125,-0.022085575079917905,-0.03652717474531382,-0.022381941377720795
1746410365475554600,4.543554443359375,-0.025953356423974037,-0.03689611765556037,-0.025708953208848834
1746410365485527300,4.55352734375,0.0069815294504165645,-0.023637042305618524,-0.03449623973986599
1746410365495499300,4.563499267578125,0.0020744681864976883,-0.01601768987569958,-0.03899178389371372
1746410365505472500,4.573472412109375,-0.001785129851102829,-0.04879442604631185,-0.013603194346185774
1746410365515445200,4.5834453125,-0.007439794611930847,-0.06523903609719127,-0.053619457882852294
1746410365525418200,4.593418212890625,-0.060113400179147715,-0.03675367697756737,-0.059591435831389386
1746410365535390500,4.603390380859375,-0.0637134704977274,-0.05372512391414493,-0.044628611603751776
1746410365545363500,4.613363525390625,-0.03842763807177543,-0.03295676891263574,-0.03675436653073411
1746410365555336200,4.623336181640625,-0.008493687579035758,0.009219809896498917,-0.017024711493775248
1746410365565309200,4.63330908203125,0.01156885724067688,0.009616225335560738,0.012199314331053755
1746410365575282400,4.643282470703125,-0.02507248193621635,-0.012595752603001891,0.010742023628251626
1746410365585254400,4.65325439453125,-0.028200843089818954,-0.02191730584092438,0.004599963509547524
1746410365595227100,4.66322705078125,-0.0311877499461174,-0.03295264072678983,-0.003428015387034975
1746410365605200400,4.673200439453125,-0.02667641000151634,-0.016283793465979395,-0.024643794495635665
1746410365615173400,4.68317333984375,0.043380292043089866,0.0007172814238816499,-0.04742620643302798
1746410365625145300,4.693145263671875,0.0008943184912204742,-0.006121843881160021,-0.03880255406508222
1746410365635118300,4.703118408203125,-0.03904372414350509,-0.018565109336189923,-0.024797674449672923
1746410365645091300,4.71309130859375,-0.037707507103681565,-0.0454395626604557,-0.00920494568750728
1746410365655064300,4.723064208984375,-0.03201894007325172,-0.02206427656356245,-0.0174756016330095
1746410365665036500,4.73303662109375,0.010479308438301086,-0.0371872826218605,0.0012946155209559948
1746410365675009300,4.74300927734375,-0.02963525980710983,-0.026706001422181724,-0.0599207865167642
1746410365684982300,4.752982177734375,-0.06588204670846462,-0.038718583842366934,-0.04995365625114646
1746410365694955300,4.762955322265625,-0.046908466169238085,-0.06509999295268207,0.015809746213443575
1746410365704927500,4.772927490234375,0.01232522856593132,-0.0007084770629182457,-0.05847501728839706
1746410365714900200,4.782900146484375,-0.0275146143913269,-0.02480086192060262,-0.04557129471476655
1746410365724873200,4.792873291015625,-0.0416097752392292,-0.04843165714852512,0.01739236662923358
1746410365734846500,4.802846435546875,-0.011260229682922363,-0.01757112986277789,0.01911481107424479
1746410365744819500,4.8128193359375,0.004440028274059296,-0.018474654573760924,-0.012142095117946155
1746410365754791200,4.822791259765625,-0.020861586242914197,-0.019071816749311982,-0.011369101451453752
1746410365764764400,4.832764404296875,-0.017881693649291992,-0.022736805530264973,0.003134530599485151
1746410365774737400,4.8427373046875,-0.02208791316747665,-0.033803229674138124,0.02016336571252905
1746410365784710400,4.85271044921875,-0.018957798448204992,-0.016215002546086908,-0.02291422162351664
1746410365794682400,4.862682373046875,-0.03649111705124378,-0.030589126465842126,-0.022367753022164105
1746410365804655400,4.8726552734375,-0.04220598756670951,-0.04994922210462391,0.01770727779730223
1746410365814628400,4.88262841796875,-0.009605448213219642,-0.01896346100401133,-0.03654625390511937
1746410365824601300,4.892601318359375,0.0026402853757143017,-0.025944771258719263,-0.009645643226290121
1746410365834573300,4.9025732421875,-0.010244330638647079,-0.0314780746622011,-0.01703955286988057
1746410365844546300,4.91254638671875,-0.009212649503350257,-0.03567183655761182,-0.04681543129065539
1746410365854519300,4.922519287109375,-0.0053355158090591425,-0.03203373578358441,-0.010424427312752232
1746410365864492500,4.932492431640625,-0.030187048470973966,-0.02631444482132792,-0.022845549434632993
1746410365874464300,4.94246435546875,-0.022722703939676285,-0.03179985396247357,0.0063946877394802865
1746410365884437200,4.952437255859375,-0.016003040295839308,-0.016346008514612913,-0.013263984420499763
1746410365894410500,4.962410400390625,-0.009587328034639358,-0.03696140144411474,-0.02642222061131615
1746410365904383500,4.972383544921875,-0.01843114422559738,-0.029367621846869585,-0.0017852303158026187
1746410365914356500,4.9823564453125,-0.019934534525871277,-0.023223493068665266,-0.015476559603167697
1746410365924328400,4.992328369140625,0.0032569559693336487,-0.0036501200053840875,-0.013334560872102155
1746410365934301400,5.002301513671875,-0.01395253750681877,-0.008867270131781697,-0.0009987058808794244
1746410365944274400,5.0122744140625,-0.006471826362609863,-0.019705401945114134,-0.027191113491426222
1746410365954247200,5.0222470703125,-0.01710194144845009,-0.033163360868021845,-0.0008802032008999958
1746410365964219400,5.032219482421875,-0.031326866155862804,-0.024424502888880668,-0.018711933928355573
1746410365974192000,5.042192138671875,-0.020699089157581327,-0.030247875280119477,0.00795605530468747
1746410365984165000,5.0521650390625,-0.005126256972551346,-0.010521101753413677,-0.013076923716068268
1746410365994138000,5.06213818359375,-0.006177811852097511,-0.005244001600705087,0.003129342967714183
1746410366004111000,5.072111083984375,-0.008428805649280547,-0.012151625564694403,-0.00448974916730076
1746410366014083000,5.0820830078125,0.008176292192935943,-0.0056846580402925605,-0.01685364750949666
1746410366024056300,5.092056396484375,-0.03117722855210304,-0.021562172260321675,0.005529490311467089
1746410366034029000,5.102029052734375,-0.03191197256743908,-0.025117526654340326,0.002964452995895408
1746410366044002000,5.112001953125,-0.033550387424230575,-0.028987682618573308,-0.02256354045574553
1746410366053974300,5.121974365234375,-0.0203822782933712,-0.03589691401775926,-0.01864658620771952
1746410366063947300,5.131947265625,-0.012753098589181899,-0.023564269330352543,-0.013410886644478887
1746410366073920000,5.141919921875,-0.019042554122209548,-0.01455174550898373,-0.0018543774287216365
1746410366083893000,5.15189306640625,-0.014256488889455795,-0.023433920948952434,-0.021230784881487486
1746410366093865200,5.161865234375,-0.0066261401414871215,-0.02994385083224624,-0.01215154793288093
1746410366103838200,5.171838134765625,-0.00497486580312252,-0.022794125208072363,0.0031635831640334797
1746410366113811000,5.18181103515625,-0.02352057631909847,-0.023780688560009002,-0.022434657945646905
1746410366123784200,5.1917841796875,-0.013633388555049895,-0.03193151751812547,-0.006516409856430255
1746410366133757200,5.201757080078125,-0.01661912636756897,-0.03209547590818256,-0.007625900901714339
1746410366143729200,5.211729248046875,-0.023202011889219283,-0.03476542576979846,-0.012578075382416136
1746410366153702100,5.2217021484375,-0.02979658784866333,-0.029356333267875016,-0.02804908659420907
1746410366163675100,5.231675048828125,-0.02740355523228645,-0.029122159185819327,-0.010345571656571701
1746410366173648100,5.241648193359375,-0.025612580162286756,-0.03627151948381215,-0.009661589714093134
1746410366183620000,5.2516201171875,-0.008407762861251831,-0.030368579050339756,-0.014603311299439519
1746410366193593000,5.261593017578125,-0.0247217688024044,-0.011633483442105352,0.004881109405332245
1746410366203566000,5.271566162109375,-0.00511690462231636,-0.004402180481702089,-0.00409117830377072
1746410366213539000,5.2815390625,-0.009162965142726898,-0.012623152066580951,-0.020138350002281365
1746410366223511300,5.29151123046875,-0.03836217162013054,-0.03159139884356409,-0.0046816047778585924
1746410366233484000,5.301484130859375,-0.03119476420879364,-0.02304448323994875,0.019043567902361974
1746410366243457000,5.31145703125,-0.023424130207300185,0.010963256030343472,-0.024600567275262435
1746410366253430000,5.321429931640625,-0.0009738134682178497,0.009926277665421366,-0.010946738720382564
1746410366263403300,5.3314033203125,0.0026209961533546445,-0.00017247049007564782,-0.00497584305065684
1746410366273375000,5.341375,0.004719429737329483,-0.010556574925594031,-0.005773400336247869
1746410366283348000,5.351347900390625,-0.022668927925825116,-0.016501454804651438,0.009125528342323377
1746410366293321200,5.3613212890625,-0.027456162202358244,-0.022204927143268285,-0.009939000149676575
1746410366303294200,5.371294189453125,-0.02850245638489723,-0.018845460647530853,-0.005932367457356304
1746410366313266000,5.381265869140625,0.0008276829957962036,-0.019536438586376607,-0.01186571672882419
1746410366323239200,5.3912392578125,-0.011747720938920974,-0.011002272866480051,-0.007390096551575698
1746410366333212200,5.401212158203125,-0.020419687694311142,-0.01338423609957099,-0.0049487404145998875
1746410366343185200,5.41118505859375,-0.0027408231407403945,-0.01570939111150801,-0.002741800388274714
1746410366353157000,5.4211572265625,-0.012283142989873885,-0.01970781309790909,-0.008728975905943662
1746410366363130000,5.431130126953125,-0.013607085070014,-0.026029088541306554,0.000967584656830877
1746410366373103000,5.44110302734375,-0.05639233382940292,-0.01102068530600518,0.005755736815393902
1746410366383076000,5.451076171875,-0.04606207847297191,-0.006636478872410953,-0.02267968678185716
1746410366393049000,5.461049072265625,-0.019702479335665702,-0.043836511377990245,0.022928775305254383
1746410366403021000,5.47102099609375,0.016541384956240652,-0.008581986916996538,-0.015674575526453554
1746410366412994000,5.480994140625,-0.02224573407769203,-0.013819449179060757,-0.030616005339613183
1746410366422967300,5.49096728515625,-0.12202478969097137,-0.04674962234571576,-0.005328917104913853
1746410366432940000,5.50093994140625,-0.2436719782412052,-0.046932066240534184,0.025830668475932905
1746410366442912000,5.510912109375,-0.29374679948687554,-0.005101999314129352,-0.035609870387439145
1746410366452885200,5.52088525390625,-0.23769173478782177,-0.09539360707066953,0.01956197716972092
1746410366462858200,5.530858154296875,0.02300911966562271,-0.11798709514010697,-0.046563337959419
1746410366472831000,5.5408310546875,0.15737433549165725,-0.008018069423921406,-0.147543060899619
1746410366482804000,5.550803955078125,0.21148001968860625,-0.04214706045370549,-0.05352285194084979
1746410366492776200,5.560776123046875,0.14588964940309523,-0.004649433241039514,-0.04778913516101893
1746410366502749200,5.570749267578125,-0.061275429695844645,-0.03655435501318425,0.0035022633667569606
1746410366512722000,5.580721923828125,-0.10617489413022994,-0.049488034333661196,-0.011626012521702795
1746410366522695200,5.590695068359375,0.01587795261144638,-0.06165763394646346,-0.15660771676702423
1746410366532667100,5.600667236328125,-0.07357201668918133,-0.19719108983427286,-0.28238307289686054
1746410366542640000,5.61064013671875,-0.13277356272041796,-0.20507281952742487,-0.4026803081428632
1746410366552613000,5.620613037109375,0.20540333012342452,-0.1788687032127753,-0.17649457622626796
1746410366562586000,5.630586181640625,0.45629707631170746,-0.06197214325573295,-0.1609209951225668
1746410366572559000,5.64055908203125,0.2659364170193672,0.03039729368817061,-0.18377117963312192
1746410366582531300,5.65053125,-0.03637479719519615,0.038618301805667575,-0.03272281402628869
1746410366592504000,5.660504150390625,-0.021952304089069365,-0.05926454653115943,-0.19106924595311284
1746410366602477000,5.67047705078125,0.3058522478222847,-0.1198768909420818,-0.12066036946997045
1746410366612450000,5.680449951171875,0.48881461355686184,-0.037642424244526775,-0.11479418085031211
1746410366622422300,5.69042236328125,0.5676046571552753,-0.020796302454359827,-0.29021351079419255
1746410366632395000,5.70039501953125,0.26794366518855095,-0.012525354247912764,-0.11517784640565513
1746410366642368000,5.710367919921875,-0.026414544194936752,0.02942961769979447,-0.024548604192584752
1746410366652341200,5.72034130859375,-0.29641923356652256,0.05550946831395849,-0.11406221331395208
1746410366662314200,5.730314208984375,-0.27751170400083064,-0.12430458945753052,0.10298829998336732
1746410366672286000,5.740285888671875,-0.15306056394577025,-0.32121355614848435,0.777644122646749
1746410366682259200,5.75025927734375,-0.15949965708255767,-0.28088194761890917,1.0474765972565858
1746410366692232200,5.760232177734375,-0.004675006073713303,-0.01858702890705317,0.8374934650622308
1746410366702205200,5.770205078125,0.37745968644022937,0.12311908773370087,0.356737362537533
1746410366712177200,5.78017724609375,0.5805518170118331,0.31731048429533837,-0.07175371522083879
1746410366722150100,5.790150146484375,0.17945640344023703,0.5741022024810314,-0.26519875039458274
1746410366732123100,5.800123046875,-0.5034896201193333,0.41730917400866746,-0.6489572447180748
1746410366742096100,5.81009619140625,-0.8137596843838691,0.0036541385933756827,-0.9990772349424659
1746410366752068000,5.820068115234375,-0.861492910939455,-0.03931298780525103,-0.9127722856692969
1746410366762041000,5.830041015625,-0.6527817714422941,-0.028571192505862562,-0.3992649832740426
1746410366772014000,5.84001416015625,-0.014008651608228683,-0.09127091938378289,-0.09499299038052558
1746410366781987000,5.849987060546875,0.31346506091356274,-0.1919861233360134,-0.118125736425817
1746410366791960000,5.8599599609375,0.20850714135766027,-0.26308110065348445,-0.17728870401233435
1746410366801932000,5.86993212890625,0.01954524294734001,-0.17167396940309554,-0.17058394567668436
1746410366811905000,5.879905029296875,-0.14795418071746824,-0.08644801100566983,-0.08894172751754521
1746410366821878300,5.889878173828125,-0.255462953799963,-0.02775708137769252,0.026448738725483416
1746410366831851000,5.89985107421875,-0.2036521025419235,0.022888799487892537,0.004879442604631185
1746410366841823000,5.909822998046875,-0.17754384781718252,0.009740162242483348,0.015551643266528845
1746410366851796200,5.919796142578125,-0.2602630475580692,-0.002579440300259739,0.04775003155991435
1746410366861769200,5.929769287109375,-0.11798691247701644,0.08149130191374569,0.07731105708703398
1746410366871742000,5.939741943359375,0.12906827846169472,0.058505398726928975,0.032690409594029184
1746410366881715000,5.94971484375,0.2909557074636221,-0.020081432183273136,-0.00971621511131525
1746410366891687200,5.959687255859375,0.3400537926316261,-0.007902315823454409,-0.06413286495357752
1746410366901660200,5.96966015625,0.23857845449447632,0.029869397356547412,-0.04489332695454359
1746410366911633000,5.9796328125,0.05864975736737251,-0.0015922193611972034,0.029191753823310136
1746410366921606100,5.989606201171875,-0.24708441703319547,-0.05236519720517099,0.041515082693099975
1746410366931578000,5.999578125,-0.35404607762694357,0.07279420071709901,0.053097383937239645
1746410366941551000,6.009551025390625,-0.11467968762516975,0.042240821418073025,0.11483443979546427
1746410366951524000,6.019524169921875,0.08603168528974056,-0.08374795826673508,0.004036269778758287
1746410366961497000,6.0294970703125,0.17265081507861613,-0.03497283970909193,-0.07826148967966437
1746410366971470000,6.039469970703125,0.3216244019716978,-0.02040869137626141,-0.11826514489650726
1746410366981442300,6.0494423828125,0.38220132800936696,-0.036208062326163054,-0.09015767917856574
1746410366991415000,6.0594150390625,0.11401917788982391,-0.04859813628923148,-0.0814035870976746
1746410367001388000,6.069387939453125,-0.23707623323798177,-0.1104175366686657,-0.025851941876113414
1746410367011361000,6.079361083984375,-0.456654219186306,-0.08718836277788504,0.0723674632050097
1746410367021333200,6.089333251953125,-0.46136663466095923,0.002044730635359883,0.07410203191265463
1746410367031306000,6.099305908203125,-0.24508535217046737,-0.03972757822182029,-0.010261135642975568
1746410367041279000,6.109279052734375,0.033304888230562206,-0.06971475673913956,-0.026387217796593903
1746410367051252200,6.119252197265625,0.23770634783506392,0.01753340993458405,-0.060817749056220054
1746410367061225200,6.12922509765625,0.4177390898585319,0.11344738761754705,-0.06129647248387336
1746410367071197000,6.139197021484375,0.3861865982532501,0.1023555915703997,0.07945873664021491
1746410367081170200,6.149170166015625,0.05400865356326103,0.06050196110531687,0.00434723542407155
1746410367091143200,6.15914306640625,-0.0276104759812355,0.07411185918692499,-0.007527326764911413
1746410367101116200,6.1691162109375,0.15225567730367182,0.003886906169634312,-0.029131109677255154
1746410367111089200,6.179089111328125,0.1897404815673828,-0.010732936139497905,-0.05635200181901454
1746410367121061000,6.18906103515625,0.10972001939117908,-0.010923928666952997,-0.039400867018103594
1746410367131034000,6.1990341796875,0.1021031146466732,-0.03717265130830928,-0.13060688620582223
1746410367141007000,6.209007080078125,0.16501345206797122,-0.079558233225625,-0.14669190569669008
1746410367150980400,6.21898046875,0.12326163800954817,-0.10670973165929316,-0.14318243627101182
1746410367160952000,6.2289521484375,-0.03847673791050911,-0.038858284574002026,-0.13043942068442702
1746410367170925000,6.238925048828125,-0.1603659185230732,-0.08136120926067232,-0.06686068248227238
1746410367180898300,6.248898193359375,-0.13379472246170043,-0.1296376575811766,-0.10152882189005613
1746410367190871300,6.258871337890625,-0.048616439130902286,-0.07774669942478649,-0.08774813381880521
1746410367200843000,6.268843017578125,-0.05285714544057846,-0.055003729015216225,-0.0482540355592966
1746410367210816300,6.278816162109375,-0.13941957660615442,-0.051513557945052156,-0.04127703615352511
1746410367220789200,6.288789306640625,-0.24102818573415277,0.003727185563277453,0.005266834487020969
1746410367230762200,6.29876220703125,-0.23997195467948912,0.012609543666336685,0.058701633685082195
1746410367240735000,6.30873486328125,-0.05964110649228096,-0.010635777641646563,0.02732186829820275
1746410367250707200,6.318707275390625,-0.04206453326940536,0.010636910152807832,0.012106617379188537
1746410367260680200,6.32868017578125,-0.09406710770726204,0.06370754308043979,0.07575769016519189
1746410367270653200,6.338653076171875,-0.13472177417874334,-0.0283304425525479,0.04631210771128535
1746410367280626200,6.348626220703125,-0.021869886502623555,-0.015268625074066221,-0.05215615756437182
1746410367290599200,6.35859912109375,0.10540215619206428,-0.04302157826591283,0.011080196940898894
1746410367300571100,6.368571044921875,-0.01592237627506256,-0.08270101563022471,-0.08497443132176995
1746410367310544100,6.378544189453125,-0.005613748228549957,-0.06519199121822603,-0.05250847813338041
1746410367320517000,6.38851708984375,-0.05941665008664131,-0.016803113765502347,-0.03975435663089156
1746410367330490000,6.398489990234375,-0.09894435835480689,0.007007577207125723,0.010245499682426452
1746410367340462000,6.408462158203125,-0.04559036930799484,-0.0010113050675485283,0.03378799557238817
1746410367350435300,6.418435302734375,0.015443068325519562,0.014701593175297602,-0.003741524615883827
1746410367360408000,6.428407958984375,0.11622750158905983,-0.005453105173585936,-0.03502075223773718
1746410367370381000,6.438381103515625,0.36496553104817864,-0.02924838851452805,-0.07522928237691522
1746410367380354000,6.44835400390625,0.5813017585963011,0.01568663129042834,-0.19532909535467624
1746410367390326300,6.458326171875,0.7593179001003504,0.07646154585191979,-0.17078502120673655
1746410367400299000,6.468299072265625,0.7428641934275627,0.06069547438342124,-0.20996508508101105
1746410367410272000,6.47827197265625,0.540872133052349,0.009177048467006534,-0.24633608288392422
1746410367420245200,6.488245361328125,0.5591080469667912,0.026318828735500573,-0.44524654385671014
1746410367430217000,6.498217041015625,0.6149789872705936,-0.14182528604101388,-0.4491416515991091
1746410367440190000,6.50818994140625,0.8131856838881969,-0.1769846795644611,-0.628954613392055
1746410367450163200,6.5181630859375,1.8222165959596632,-0.11115487449988722,-0.9535825810939073
1746410367460136200,6.52813623046875,2.44472422516942,-0.3339902913415804,-1.3731933100432157
1746410367470109200,6.538109130859375,3.154816029807925,-0.318857786802575,-1.9533128731176257
1746410367480081200,6.5480810546875,3.633846331453323,-0.25461134193930773,-2.2712968727603555
1746410367490054100,6.55805419921875,3.339466494759917,-0.037230318045988677,-1.7961562720298767
1746410367500027100,6.568027099609375,2.563732297387719,0.2923652820006013,-1.119813007736206
1746410367510000000,6.578000244140625,1.42969494946599,0.3900616130556911,-1.0356602680608629
1746410367519973000,6.58797314453125,0.3747632869631052,0.33131350988037883,-1.5541975274473427
1746410367529945000,6.597945068359375,-0.18212533038854598,0.19420104117281733,-1.8899474854052065
1746410367539918000,6.60791796875,-1.0399474438607692,-0.07784852496460079,-1.9884183810293674
1746410367549891300,6.617891357421875,-1.5076771838128566,-0.12976590533703564,-1.7850936107456683
1746410367559864000,6.627864013671875,-1.5433867950975895,-0.11720672188475727,-1.167081539389491
1746410367569836000,6.6378359375,-1.3104431316196918,-0.09630699558854103,-0.6259305893957614
1746410367579809300,6.647809326171875,-1.2529980738669633,0.30025347796715796,-0.10998422328531741
1746410367589782300,6.6577822265625,-1.149331947687268,0.3018651509474963,0.2696539762377739
1746410367599755000,6.667755126953125,-0.44688802745342254,0.36860819839946923,0.20551555832624435
1746410367609728000,6.67772802734375,0.2058843916386366,0.579599046331644,-0.023403087419271468
1746410367619700200,6.6877001953125,0.5761743325799703,0.23918365384601056,-0.31738603374958035
1746410367629673200,6.697673095703125,0.7951824096858501,0.46323936973027885,-0.4962047238081693
1746410367639646000,6.70764599609375,0.8296434822142124,0.5619887900348752,-0.7831599634587765
1746410367649619200,6.717619140625,-0.055177112820744514,0.34715595278702677,-0.727458534502983
1746410367659592200,6.72759228515625,-0.6711930419236422,0.23864004848860204,-0.8663555485397577
1746410367669564200,6.737564208984375,-0.9555062426328659,0.1696330016274005,-0.9480781384587287
1746410367679537200,6.747537109375,-1.1840987251639365,0.09562347030378877,-0.9458090244829654
1746410367689510100,6.75751025390625,-1.1142188409909606,0.09106383423805237,-0.5551163469821214
1746410367699483100,6.767483154296875,-1.140893205165863,0.02621398012153804,-0.05324468345344066
1746410367709456100,6.7774560546875,-1.2893839769780635,-0.030284517496079206,0.10773439853191374
1746410367719428000,6.787427978515625,-1.0616057334393263,0.23857348605841397,0.029122634109854696
1746410367729401000,6.797401123046875,-0.9025555736899376,0.140063354402408,-0.15099837071895597
1746410367739374000,6.8073740234375,-0.1290831837698817,-0.3056965458039194,-0.47365679191350935
1746410367749347300,6.817347412109375,1.0431810189545154,-0.3261415506025776,-0.5187216760426759
1746410367759319000,6.827319091796875,1.5069465314507484,-0.2777622812284157,-0.585645340758562
1746410367769292000,6.8372919921875,0.9838210674911737,-0.09217234346922487,-0.20107085387706755
1746410367779265300,6.847265380859375,-0.0744859166637063,-0.10869878658466041,0.16391981161236763
1746410367789238300,6.85723828125,-0.608413345144689,-0.0004432867880910635,0.1965770495891571
1746410367799211000,6.8672109375,-0.09010434155613184,0.09926179027352482,0.04603519046604633
1746410367809183200,6.877183349609375,-0.325313027356565,0.3413272101009264,0.2847334719479084
1746410367819156200,6.88715625,-1.0896081313475965,0.18257051687277853,0.19317337862551212
1746410367829129200,6.897129150390625,-0.6005798750400543,0.03819076057597995,-0.03841127145886421
1746410367839102000,6.90710205078125,0.4202826368615031,0.016708265955746173,-0.1322656131982803
1746410367849075200,6.9170751953125,0.4621791200876236,-0.1249988005330786,0.13406886322796344
1746410367859047200,6.927047119140625,-0.2801446828529239,0.0627555487183854,0.2910164977401495
1746410367869020200,6.937020263671875,-0.7485077522724867,0.3336228828012943,0.38456805714070796
1746410367878993200,6.9469931640625,-0.6206415430769324,0.13780742870178073,0.0721481213659048
1746410367888966100,6.956966064453125,-1.3422139421507715,-0.40374209215547885,-0.43372810162901876
1746410367898939100,6.966939208984375,-3.0529335721746085,-0.2685809036461636,0.37973172302544117
1746410367908911000,6.9769111328125,-2.7909689813956615,0.6038474254686385,0.42727205735743046
1746410367918884000,6.986884033203125,-1.3429378725111483,0.5272506541308015,0.42111119664013386
1746410367928857000,6.996857177734375,-0.6392182332530617,0.5593413077333942,0.7127548863679171
1746410367938830000,7.006830078125,-0.6516024985298514,0.8068700710006058,0.6054635554283857
1746410367948802300,7.01680224609375,-0.15115823745578527,0.9021975540325045,0.6482488041877746
1746410367958775000,7.026775146484375,0.6328080739498138,0.9062216949820519,1.2875696210324763
1746410367968748000,7.036748046875,-0.1272089143306017,0.23545323514603078,0.46361295228302474
1746410367978721000,7.046720947265625,0.1481292450234294,-1.2799648451171814,-1.6173942805945873
1746410367988694300,7.0566943359375,0.5251157609939575,-0.4273264178931713,-0.7897107002764939
1746410367998666000,7.066666015625,0.20892916616201399,1.067485585258156,1.2753887693732977
1746410368008639000,7.076638916015625,0.6752206900045276,0.7663331856898963,1.3023825747609137
1746410368018612200,7.0866123046875,0.9616121582925319,0.5141239729888737,0.4326765467494726
1746410368028585200,7.096585205078125,0.7378253224775194,0.4901988344568759,0.3305529738366604
1746410368038558200,7.10655810546875,0.36741613907068965,0.3657723173864186,0.32431320266425606
1746410368048530200,7.1165302734375,0.10589023196995258,0.74473196006082,0.3836667243868112
1746410368058503200,7.126503173828125,-0.6530185028076172,0.8610088537495583,1.0511357773512602
1746410368068476200,7.13647607421875,-1.3974924695193767,0.4270314535345882,1.413064717182517
1746410368078449200,7.14644921875,-1.689533049610257,0.0044089755486696955,0.9679694183647632
1746410368088421000,7.156421142578125,-1.4731705185770987,0.045182665289938445,0.42545770141184325
1746410368098394000,7.16639404296875,-1.0781284136950968,0.4591976200588047,0.32479484870135783
1746410368108367000,7.1763671875,-0.7054805114507675,0.4543865665152669,0.48663551595211024
1746410368118340400,7.18634033203125,-0.3571323532044887,0.45547056235969063,-0.29143676897883414
1746410368128313000,7.19631298828125,0.04153437191545963,-0.1993659496553242,-0.42936464572250843
1746410368138285000,7.20628515625,0.6372697295337915,-0.39870647260844705,-0.6258738907724618
1746410368148258300,7.21625830078125,0.9492501048475503,-0.32667233301103116,-1.0848831486523152
1746410368158231300,7.226231201171875,1.0766562953159213,-0.4498670432642102,-1.5136393070876597
1746410368168204000,7.2362041015625,1.1779624143660068,-0.7648387093484401,-1.7897107491523025
1746410368178177000,7.246177001953125,1.3568670291423797,-0.6038488137081265,-1.8493091855466364
1746410368188149200,7.256149169921875,1.5471896945118904,-0.3994475002340972,-1.1199953785657881
1746410368198122000,7.2661220703125,1.5282143604069947,-0.1197708732843399,-0.32745793043076993
1746410368208095000,7.276094970703125,1.1144818758413195,0.2298177865423262,0.3852373347043991
1746410368218068200,7.286068115234375,0.36530981444120403,0.3840843652769923,0.8317015837877988
1746410368228041200,7.296041259765625,-0.21614713471680877,0.18696166450381277,0.6061807637870311
1746410368238013000,7.306012939453125,-0.45351767472624777,0.08164221815913915,0.02490823128521442
1746410368247986200,7.315986083984375,-0.45659927412867546,-0.22053514054268597,-0.35496143890619275
1746410368257959200,7.325959228515625,-0.07442395734339952,-0.17351020838692782,-0.7285521749585866
1746410368267932200,7.33593212890625,0.31214725631326434,-0.270754046434164,-0.45387715568840503
1746410368277905200,7.3459052734375,0.5162146616578102,-0.22087430936917662,-0.4579162019461393
1746410368287877000,7.355877197265625,0.55078299395293,-0.11632833161503076,-0.5089344415217638
1746410368297850000,7.36585009765625,0.44062896705865856,0.04935469027757644,-0.13573358156979085
1746410368307823000,7.375822998046875,0.3633119186222553,0.05832300963103771,0.2091431011736393
1746410368317796400,7.38579638671875,0.35636896761655806,-0.11999050738438963,-0.07925766111016273
1746410368327768000,7.39576806640625,0.3499357196986675,-0.09530234859064221,-0.3167588417619467
1746410368337741000,7.405740966796875,0.28281682467162605,0.195285694604367,0.11577625069022178
1746410368347714300,7.41571435546875,0.11331658257842063,0.2558351481132209,0.47026364234387874
1746410368357687300,7.425687255859375,-0.0637134704977274,0.3406654947891831,0.35747488303184505
1746410368367660000,7.435659912109375,-0.27297727544158695,0.18891119113638996,0.37595980327129364
1746410368377632300,7.44563232421875,-0.40160803926885125,-0.004216448651254177,0.06418284157514571
1746410368387605200,7.455605224609375,-0.4354869279950857,-0.42796822292804715,-0.6443231551766395
1746410368397578200,7.465578125,-0.0878594852387905,-0.5690427271343768,-1.40155197404325
1746410368407551000,7.475551025390625,0.34301702635139225,-0.37804713093936443,-1.1653911020845173
1746410368417524200,7.485524169921875,0.434335712133348,0.1329290455430746,-0.0242296013712883
1746410368427496200,7.49549609375,0.3132376818984747,0.660662441689521,1.24321317743361
1746410368437469200,7.50546923828125,0.15420388876199723,0.5425181466937065,1.3203653906971216
1746410368447442200,7.515442138671875,-0.11916443182379007,0.37684783815219997,0.6455407142728566
1746410368457415200,7.525415283203125,-0.3423360583499074,0.1765485531695187,0.03885726166069507
1746410368467387100,7.53538720703125,-0.4417246533408761,0.052677843350917096,-0.4034048595577478
1746410368477360000,7.545360107421875,-0.274196880364418,-0.07829641486257315,-0.45916941687762736
1746410368487333000,7.5553330078125,-0.05815846671909094,0.030477409719675778,-0.17810323526561259
1746410368497306000,7.56530615234375,-0.14926789366453885,0.18794015414714813,0.4121031297981739
1746410368507279000,7.575279052734375,-0.5794903252601623,0.23930238485485314,0.8489812198907136
1746410368517251300,7.585251220703125,-1.1475079471305012,0.25341888075172897,0.9556699087619781
1746410368527224000,7.59522412109375,-1.2478431753218173,0.17822846908047793,0.6493085423737764
1746410368537197000,7.605197021484375,-0.8803224068328738,-0.021201193460822103,0.10732874034047127
1746410368547170000,7.615170166015625,-0.20442571726292372,-0.17689502851963043,-0.579977816516161
1746410368557143300,7.625143310546875,0.7291396194577217,-0.28341815156564115,-1.2954729415029287
1746410368567115000,7.635114990234375,1.5574828327283263,-0.41678412722125646,-1.2593430589795112
1746410368577088000,7.645087890625,2.0180545176193116,-0.523357080758363,-0.916198899117112
1746410368587061200,7.655061279296875,1.964682992915809,-0.4642551957093179,-0.47939504330456256
1746410368597034200,7.6650341796875,1.1164777258336542,-0.29587358238250017,-0.7828273705035448
1746410368607007000,7.675007080078125,-0.09833616332858801,-0.04983867440223694,0.05300736756622791
1746410368616979200,7.684979248046875,-1.0262389442428945,-0.029061843833327293,0.5059451965779066
1746410368626952200,7.6949521484375,-1.1783216030672192,-0.062477645092457526,0.15625497607290745
1746410368636925200,7.70492529296875,-0.6311378026500344,0.1483886266119778,0.33813480726778505
1746410368646898000,7.71489794921875,-0.024291560691595077,0.11070654621049761,0.275233822196722
1746410368656871200,7.72487109375,0.22578648519963024,-0.269814135235548,-0.08881927018165588
1746410368666843100,7.734843017578125,0.14456658410578965,-0.156134564563632,-0.3435200074374676
1746410368676816100,7.744816162109375,-0.2042035989448428,-0.1090882973589003,-0.1878226652473211
