time,seconds_elapsed,z,y,x
1746289525835365400,0.017365478515625,-3.5653514718979595,-0.580274169114232,0.44842860795892775
1746289525845337300,0.02733740234375,-2.4177456173509357,-0.4030366107672453,0.7883047790013253
1746289525855309300,0.037309326171875,-1.1426403410941361,-0.020687983241677282,-0.8251533311881124
1746289525865280500,0.047280517578125,0.17403671647906302,0.2218167047858238,-1.614491691020876
1746289525875252200,0.057252197265625,0.8905150072842836,-0.3353226724565029,-0.8852106172658503
1746289525885224400,0.067224365234375,0.7894511725574731,-0.24833470935523508,-0.07283055067211389
1746289525895195100,0.077195068359375,0.4968167182266712,-0.10401742383539676,-0.04817439445182681
1746289525905167400,0.08716748046875,0.43653029956817624,-0.2982394347310066,-0.5677810366354883
1746289525915138300,0.09713818359375,0.15322715268433093,-0.4301683633208275,-0.6454618768829852
1746289525925110300,0.1071103515625,-0.1206295359402895,-0.6067448274105787,-0.7549170347929001
1746289525935082500,0.11708251953125,-0.24165830033123492,-0.6070248133957385,-0.9502106204427778
1746289525945053400,0.127053466796875,-0.26555063257217404,-0.5517039081901312,-0.645548459187895
1746289525955025400,0.137025390625,-0.5326005637913942,-0.5154647200733423,-0.8756026848345995
1746289525964997400,0.146997314453125,-0.5434446138888597,-0.5358832387238741,-1.1982496347870677
1746289525974968300,0.15696826171875,-0.3853063082873821,-0.6100327630400657,-1.4483800684526562
1746289525984940300,0.166940185546875,-0.28554654189646245,-0.5026794727802276,-1.5023725015334783
1746289525994911500,0.176911376953125,-0.44390638129413124,-0.6948398749709129,-1.506150997158885
1746289526004883200,0.18688330078125,-0.6480196716070175,-0.5888759932428598,-1.386574915794283
1746289526014855400,0.19685546875,-0.4608095853000879,-0.3915671222478151,-1.2730983203485606
1746289526024826400,0.206826416015625,-0.15624036302566527,-0.26010931830108164,-1.226407296322286
1746289526034798300,0.21679833984375,0.19385726923644542,-0.2138742213487625,-1.1886771389953792
1746289526044770600,0.2267705078125,0.3226262724906206,-0.23287410537302491,-1.0136788109425454
1746289526054741500,0.236741455078125,0.49434302158951754,-0.2758312035679817,-0.8174328930038959
1746289526064713500,0.24671337890625,0.7038070252805948,-0.3453665120869875,-0.5292864708073437
1746289526074685400,0.256685546875,0.40163901892900467,-0.46143853085339065,-0.34910431037582457
1746289526084656400,0.266656494140625,0.10160334843099117,-0.3016150486439466,-0.05625548264198005
1746289526094628400,0.27662841796875,-0.26430034025013444,-0.12576923691630362,0.061350686889141796
1746289526104599600,0.286599609375,-0.37460488153100013,-0.006106500181555748,-0.016142229570820926
1746289526114571300,0.2965712890625,-0.42936698381006716,0.13966156866848467,0.14056458192281424
1746289526124543500,0.30654345703125,-0.27205168502926824,0.14078501974046229,0.32186383675076063
1746289526134514400,0.316514404296875,0.07604512880444526,0.09055880732536316,0.3399998704873025
1746289526144486400,0.326486328125,0.36573768446445465,0.11499006874859333,0.1252472588688135
1746289526154458400,0.336458251953125,0.4950818572580814,0.0126572369992733,-0.10368490394540131
1746289526164429300,0.34642919921875,0.5071604175865649,-0.05009118785858154,-0.2039977741744369
1746289526174401300,0.3564013671875,0.22522563644647597,0.017457915279269216,-0.19114844866916536
1746289526184373500,0.36637353515625,-0.07698796261250972,0.039841012001037596,-0.19083660624101756
1746289526194344200,0.37634423828125,-0.23993220719099043,0.11177461383342742,-0.12153569099977611
1746289526204316400,0.38631640625,-0.38926995122134683,0.17545593562722206,0.00596285392716527
1746289526214287400,0.396287353515625,-0.3348533013790846,0.14276479538083076,0.0918168445624411
1746289526224259300,0.40625927734375,0.05912555818557739,0.11455459994077682,0.03197261671349406
1746289526234231600,0.4162314453125,0.5531412475168704,0.10231821870207786,-0.029274390605464575
1746289526244202500,0.426202392578125,0.9743073892146349,0.0009159458011388778,-0.12589184038266538
1746289526254174500,0.436174560546875,1.0221347237944602,-0.047076808473467825,-0.21927038130387663
1746289526264146400,0.446146484375,0.8445365154415369,-0.016112930411100387,-0.19297792911864817
1746289526274117400,0.456117431640625,0.5898270103573798,-0.07146130814552307,-0.12165763687901199
1746289526284089300,0.46608935546875,0.3837725228488445,-0.09563654898107052,-0.030698358993977305
1746289526294061300,0.476061279296875,0.3088011607557535,-0.055717211046814916,0.09007431174404919
1746289526304032300,0.4860322265625,0.2651969968289137,-0.031764673051238056,0.10688523435667156
1746289526314004500,0.49600439453125,0.39553544135689733,-0.06962357132434845,0.09010996757932006
1746289526323975400,0.505975341796875,0.6871019741952419,-0.1315951665908098,0.04995367908403277
1746289526333947400,0.515947509765625,0.8791244292199611,-0.05449380673170089,0.10139503944255411
1746289526343919400,0.52591943359375,0.8171271149903535,0.03695464290976524,0.07882767219506204
1746289526353890300,0.535890380859375,0.5426040714114904,0.08832125753164291,0.08196545876413583
1746289526363862300,0.5458623046875,0.18522154283821582,0.08558920221924782,0.2215466556727886
1746289526373834500,0.55583447265625,-0.09238134657740592,0.05241700045764446,0.3617601591356098
1746289526383805200,0.56580517578125,-0.23953648587167262,0.05272504349350929,0.32802608570754527
1746289526393777400,0.57577734375,-0.34587621517479417,0.09605448213219642,0.2651748580623418
1746289526403748400,0.585748291015625,-0.3501169214844703,0.06791852097213268,0.24020634795725343
1746289526413720300,0.59572021484375,-0.21212124020159243,-0.010767477729916573,0.2355985619008541
1746289526423692500,0.605692626953125,-0.007797522008419037,-0.04819733693599701,0.20027612330280242
1746289526433663500,0.61566357421875,0.3440203581750393,-0.12207155144214629,0.1624985466375947
1746289526443635500,0.625635498046875,0.5183282928109169,-0.18772037391662597,0.13313238609544933
1746289526453607700,0.635607666015625,0.4992939219951629,-0.23239479742348193,0.04618592404834926
1746289526463578600,0.64557861328125,0.45201545346975325,-0.3388344799697399,0.000517813329026103
1746289526473550800,0.65555078125,0.2097264540195465,-0.3878688522517681,0.0076570175591856235
1746289526483522600,0.6655224609375,0.12327274392545222,-0.4137450517863035,0.13341880182139576
1746289526493493800,0.67549365234375,0.3439560607671737,-0.41729368417859075,0.3295048530232161
1746289526503465700,0.6854658203125,0.32418694593608377,-0.4789461304932832,0.16923494222052393
1746289526513436700,0.695436767578125,0.19597382299900054,-0.524601966252923,0.11615706670135259
1746289526523408600,0.70540869140625,0.1286415774822235,-0.7189052256911993,0.02876424912624061
1746289526533380900,0.715380859375,-0.04669219307005405,-1.1408680707246064,-0.14137896704562009
1746289526543351600,0.7253515625,-0.2772989380329847,-1.6819067925155162,-0.03343720937334001
1746289526553323800,0.73532373046875,-0.4171294335275888,-2.110815511164069,0.36573702687732873
1746289526563295500,0.74529541015625,-0.38122693001925945,-2.49785843398571,0.7676306050892919
1746289526573266700,0.7552666015625,-0.7309720955818891,-3.4361838247150183,0.7527324572954326
1746289526583238700,0.76523876953125,-1.3852864834189413,-2.9658307505220174,0.9882013284020126
1746289526593210600,0.775210693359375,-1.1936737782388924,-3.4716257249742744,1.0381239547606558
1746289526603181600,0.785181640625,-1.2938228362083435,-3.6927217142701148,0.7854112495169043
1746289526613153800,0.79515380859375,-1.2191460731476544,-3.7334927005976435,0.5872014841593801
1746289526623124500,0.80512451171875,-1.3312754917681215,-3.724496908715367,1.0881472650147974
1746289526633096700,0.8150966796875,-1.5455290678232907,-4.156634526282549,2.584258368065953
1746289526643068700,0.825068603515625,-1.59180098965466,-3.7790930067777633,3.030817601956427
1746289526653039600,0.83503955078125,-1.1155670407295226,-2.6565911983489987,2.0047145590528843
1746289526663011800,0.84501171875,-0.8829846117794513,-3.2005712342888115,2.49904238307327
1746289526672983600,0.854983642578125,-1.1770511447399854,-2.2703110765933987,2.927887388835847
1746289526682954800,0.864954833984375,-1.2899632381707429,-1.0056798480778932,2.798189872559905
1746289526692926700,0.8749267578125,-0.463258147495985,0.2521720955610275,3.0170915666818616
1746289526702898700,0.884898681640625,0.5290016625165939,1.4594143804252147,3.221734141565859
1746289526712869600,0.89486962890625,1.3932453334689139,2.2023417022168634,2.737199981807172
1746289526722841900,0.904841796875,2.361977552899718,3.867923967397213,2.5137813947826624
1746289526732812500,0.9148125,2.881891653597355,5.2917912336230275,2.0577469149298966
1746289526742784800,0.92478466796875,2.6698855642080304,5.75011192471683,0.6345405237656087
1746289526752756500,0.934756591796875,2.8882699564576146,6.407343661305308,-0.39135271231215446
1746289526762727700,0.944727783203125,4.9152673667281865,8.730928647446632,-0.20339597235638648
1746289526772699600,0.95469970703125,5.605325852641463,9.26866832769215,0.3386397976478562
1746289526782671600,0.964671630859375,5.170291929110884,9.12461758415401,0.2907281457854435
1746289526792642600,0.974642578125,4.974579971918463,9.0826722933501,0.2973002541847527
1746289526802614800,0.98461474609375,5.304167900115251,9.239678380051254,0.37120051644761115
1746289526812585500,0.99458544921875,7.595676663038134,9.585511925128102,0.24145419259387998
1746289526822557700,1.0045576171875,8.0309946642071,9.016756344372034,0.25087277646549044
1746289526832529700,1.01452978515625,5.230839629054069,8.439478434464334,1.035515379697457
1746289526842500600,1.02450048828125,4.792400280994176,8.495448743489384,2.435355654451996
1746289526852472800,1.034472900390625,5.123758725994825,7.564349796882271,4.245569531798362
1746289526862444500,1.044444580078125,4.786745616233349,6.243914848080277,6.5672881395459175
1746289526872415700,1.054415771484375,3.8764270073264835,5.8266603268682955,7.930077544474601
1746289526882387700,1.0643876953125,-5.792563995999098,6.776341224348545,-0.9383297746434808
1746289526892359700,1.074359619140625,-15.065221685588359,3.018521307224035,-10.133798718351125
1746289526902330600,1.08433056640625,-9.791384041807055,5.848894955030083,-0.870417829542607
1746289526912302800,1.094302734375,-11.046680455744266,10.549694226169585,4.607942416004836
1746289526922273500,1.1042734375,-6.0881824345767495,14.012114315903187,11.132691682767867
1746289526932245800,1.114245849609375,-2.940616229766607,16.025048714029786,12.8304951325953
1746289526942217500,1.124217529296875,-0.037245150288939474,17.849046932709214,7.58960523416996
1746289526952188700,1.134188720703125,3.3662752989694473,20.11373490872383,-1.2982555579587816
1746289526962160600,1.14416064453125,7.51625358223319,22.050349452757835,-7.978128750938176
1746289526972132600,1.154132568359375,12.462349217945336,21.831803732466696,-11.832319961059092
1746289526982103600,1.164103515625,13.5178262393713,19.987625480067727,-11.70317335666418
1746289526992075800,1.17407568359375,11.019226631629467,17.877469894117116,-10.16157753663659
1746289527002047700,1.1840478515625,7.724105474552512,16.632853279626367,-8.910265223899483
1746289527012018700,1.194018798828125,5.084164966753125,15.747655667972564,-8.103330417099595
1746289527021990700,1.20399072265625,3.1831840461581944,15.087054747211932,-7.697253707984089
1746289527031961600,1.213961669921875,2.350793895584345,14.80272108823657,-8.034139976495505
1746289527041933800,1.223933837890625,2.141910322129726,14.585714998602866,-9.071907738229632
1746289527051905500,1.233905517578125,2.0517326230764388,14.30319686461687,-10.307098937249183
1746289527061876700,1.243876708984375,1.913573714055866,14.322196164119243,-11.582279032307863
1746289527071848700,1.2538486328125,1.4815771123945711,14.207936163210867,-12.130117497241496
1746289527081820700,1.263820556640625,0.2257841471120715,13.961772952675819,-10.776712006729841
1746289527091791600,1.27379150390625,-1.051070895421505,13.919916509199142,-7.965811705678701
1746289527101763800,1.283763916015625,-1.680495172151923,14.717145914542675,-3.346042950540781
1746289527111734500,1.293734619140625,-1.77658589464128,16.41275974537134,0.6786259684033692
1746289527121706800,1.303706787109375,-1.7208809585541485,17.624892140364647,2.86420168312788
1746289527131678500,1.313678466796875,-1.0143892242342234,16.783324411600827,2.714889365799725
1746289527141649700,1.323649658203125,0.15441139403283596,14.326145194005965,1.6901853760391472
1746289527151621600,1.33362158203125,2.969012887689471,11.935282322883605,2.767094477072358
1746289527161593600,1.343593505859375,10.173229395985603,10.064924504089355,4.236135056237877
1746289527171564500,1.353564453125,20.294737957084177,7.020961881616711,1.879963559268415
1746289527181536800,1.363536865234375,28.126559709990023,0.9478726790145039,-2.9280805733203885
1746289527191507500,1.373507568359375,30.459477757143972,-4.998852243387699,-5.378000613567233
1746289527201479700,1.383479736328125,25.642128912854194,-6.158977387768029,-5.10737457742691
1746289527211451600,1.39345166015625,18.963256713610885,-6.310497152012586,-1.4994129210755227
1746289527221422600,1.403422607421875,15.394237366855144,-7.815667905962466,3.2312823066338896
1746289527231394800,1.413394775390625,12.332062795865536,-9.651749361145496,5.518936439955234
1746289527241366500,1.423366455078125,9.099668436336517,-11.777353860640526,3.8921956543445586
1746289527251337700,1.433337646484375,7.479539762341976,-13.730256691652535,0.1418874645570293
1746289527261309700,1.443309814453125,8.004749046838283,-13.740690407383441,-1.4699867739744483
1746289527271280600,1.45328076171875,11.731517992138862,-14.245630810832976,0.6291435600928962
1746289527281252600,1.463252685546875,16.87531529755592,-14.461826753127575,2.1434977374516424
1746289527291224800,1.473224853515625,20.600622938132286,-16.140940700054166,3.358273486560583
1746289527301195500,1.483195556640625,25.086000758481024,-19.423139831715822,7.571443554535508
1746289527311167700,1.493167724609375,34.78191425552368,-21.32992856180668,11.446507456815242
1746289527321139700,1.5031396484375,41.48468755483627,-3.753477211745083,10.930394501966237
1746289527331110700,1.513110595703125,106.11382328319549,11.677004311662913,15.893784971350431
1746289527341083000,1.523082763671875,88.31414974546432,0.6887609934486448,13.629397439587116
1746289527351053800,1.5330537109375,-7.099037054944038,23.399103318071365,17.959680559813975
1746289527361025800,1.54302587890625,-16.927717684966325,10.20781204906702,11.421648909890651
1746289527370997800,1.552997802734375,-23.08705280013084,13.818304392939805,4.6725271163791415
1746289527380968700,1.56296875,-25.438841551971436,14.334796117973326,0.09929112596586347
1746289527390940700,1.572940673828125,-19.999624545419216,12.028520578551293,-3.339198199212551
1746289527400912600,1.58291259765625,-12.272836699914931,7.953674693161249,-7.292423784059285
1746289527410883600,1.592883544921875,-5.663868642503023,5.856116722977161,-6.844820886334777
1746289527420855800,1.602855712890625,1.43924369905591,4.168229102486372,-4.159944089221954
1746289527430826800,1.61282666015625,10.921878018033503,1.4656768018208444,-1.2716152421839535
1746289527440798700,1.622798828125,15.000524464750288,-2.8057179299771784,3.658548518772423
1746289527450771200,1.632771240234375,14.556547356307506,-6.490647967457771,8.99829772761762
1746289527460742000,1.642741943359375,11.127025327569246,-3.908447993226349,10.759452244371175
1746289527470714000,1.652714111328125,3.1110651508867737,-0.20473142221122978,6.515414744445681
1746289527480686000,1.66268603515625,-2.365894434082508,0.8756411171488463,0.931267435041815
1746289527490657000,1.672656982421875,-4.378149617773294,0.013106295941025019,-1.399139506074041
1746289527500629200,1.682629150390625,-4.7250405629485845,-1.0599803241945802,-2.2781806409247216
1746289527510600200,1.69260009765625,-3.5061961030960083,-0.8610898830965161,-1.900707656611502
1746289527520572200,1.702572265625,-1.960487002530694,-0.2521108668930828,-1.92871473069489
1746289527530544000,1.712544189453125,-0.5447124418675899,0.48314036731272936,-0.9392803533665836
1746289527540515000,1.72251513671875,1.7297873185873032,1.8168693897128103,1.8130951318711042
1746289527550487000,1.732487060546875,3.3762358442306515,1.0001347811713814,2.9579923119813203
1746289527560459300,1.742459228515625,2.5736270839363335,-0.49778863199874757,1.923734896455705
1746289527570430000,1.752429931640625,0.6746680245578288,-1.5341710768543182,-0.31035555059090253
1746289527580402200,1.762402099609375,-1.495956350880861,-1.8736374249868093,-2.865286555755138
1746289527590373000,1.772373046875,-3.6559663933247326,-2.7873662807285786,-5.630537450787425
1746289527600345000,1.782344970703125,-4.963029234856367,-4.3361093421623105,-8.180369817638397
1746289527610317000,1.792317138671875,-4.672134902191162,-3.4101837065398692,-6.6037476924151175
1746289527620288300,1.802288330078125,-2.2690146070420742,-0.7755551875434815,-2.9387630031153558
1746289527630260000,1.812260009765625,1.6285352678120135,2.361979160334915,0.9518621870420872
1746289527640232200,1.822232177734375,4.221231793877482,4.089470038548112,5.2785132343769074
1746289527650203000,1.832202880859375,5.195292514854669,4.30088196143657,8.492724286961556
1746289527660175000,1.842175048828125,4.783413841462135,3.9445784602716563,8.910629381036758
1746289527670146000,1.85214599609375,2.436546763932705,0.85155706172809,3.6753137756124135
1746289527680118000,1.862117919921875,-0.8692302271932363,-1.566602397120744,-2.2548060489475725
1746289527690090200,1.87209033203125,-3.080104195433855,-2.2188488926425576,-4.173166558888554
1746289527700061200,1.882061279296875,-4.547957902902365,-0.28699264905154703,-1.9439346577890215
1746289527710033200,1.892033203125,-2.882321861708164,1.3644780886679886,0.5611290314003825
1746289527720005000,1.902005126953125,2.882331214058399,3.882376855641603,5.476985888454318
1746289527729976000,1.91197607421875,5.798070192199945,1.6729691605612635,4.599418041026592
1746289527739948000,1.921947998046875,4.405727360528707,-0.7342867730878293,0.025135756430774925
1746289527749919200,1.931919189453125,-0.7909013713657855,-0.256416016741097,-1.816736849374324
1746289527759891000,1.941890869140625,-4.3297886147081845,-0.14445713238194585,-1.0810508770130574
1746289527769863200,1.95186328125,-3.4595863276123997,0.34217809130921956,-0.928210677819699
1746289527779834000,1.961834228515625,0.0809668031156063,0.5513268915712833,0.08408815000653266
1746289527789806000,1.97180615234375,2.521667179596424,0.3524835044853389,0.6310678061537445
1746289527799777000,1.981777099609375,3.359840005224943,-0.02484130352884531,2.2289285342387855
1746289527809749200,1.991749267578125,0.969099883699417,0.08282616724669933,-0.05202624757438898
1746289527819721000,2.001720947265625,-1.4004711930692195,-0.0052110126465559,-0.5461911361180245
1746289527829692200,2.011692138671875,-1.6920143450319767,-0.13266615682318805,0.06920768399983644
1746289527839663900,2.021663818359375,-0.6485434032201767,-0.10422229875773191,-0.47977717448994517
1746289527849636000,2.031635986328125,-0.1985024646937847,0.1012592111684382,-0.4339655636467039
1746289527859607000,2.04160693359375,-0.13930910196900367,0.13352949565425515,0.11005421978160738
1746289527869579000,2.0515791015625,0.016077274575829505,0.010194500147551298,-0.08444266253262758
1746289527879550000,2.061550048828125,0.14469371761679647,-0.07540522346571088,0.3494058506056666
1746289527889522200,2.071522216796875,0.3769581666588783,-0.07975070532411337,0.7352341369405389
1746289527899494100,2.081494140625,0.05594809719324111,0.014388152445107697,0.05327917024493217
1746289527909465000,2.091465087890625,-0.1003822822034359,-0.017570143482089042,-0.024335107572376728
1746289527919437000,2.10143701171875,-0.15568389818668366,0.014425269585102795,0.056985623547434805
1746289527929409000,2.111408935546875,0.09448562538027763,0.05133490430936217,0.21017697426602244
1746289527939380200,2.121380126953125,0.326814371830225,0.14985519203320144,0.03358545873761177
1746289527949352000,2.13135205078125,0.39661446876525874,0.1845268385723233,-0.053357350047677755
1746289527959324200,2.14132421875,0.2640133400022983,0.14600728443339467,0.1515492825999856
1746289527969295000,2.151295166015625,0.33633155723810193,0.14349384030774234,0.42931233101338145
1746289527979267000,2.16126708984375,0.38454292269945145,0.11425503247231245,0.13292583067268132
1746289527989238000,2.171238037109375,-0.08965981265902519,0.07400617032274603,-0.10251870971024035
1746289527999210200,2.181210205078125,-0.24518062923848627,0.02809504462778568,-0.00282031811773777
1746289528009182000,2.191181884765625,0.04358312113881111,0.036870764018595216,0.06417085887640714
1746289528019153200,2.201153076171875,0.1827028380155563,0.06562894873023033,0.04386617586389184
1746289528029124900,2.211124755859375,0.06342004050910473,0.04031549764499068,0.07875263419747353
1746289528039097000,2.22109716796875,-0.08656360020935534,0.02574877376258373,0.08763298300653695
1746289528049068000,2.231068115234375,-0.10880758072137832,0.0757929076090455,0.04528203401118517
1746289528059040000,2.2410400390625,0.1608919882237911,0.11292086125910282,0.14161767117232082
1746289528069011000,2.251010986328125,0.29863866318166254,0.08711626565605401,0.12038827453032135
1746289528078983200,2.260983154296875,0.09358779975771904,0.07952464148327708,0.08142609119042754
1746289528088955100,2.270955078125,-0.16355623899698257,0.05938304007798433,0.052162879566103215
1746289528098926000,2.280926025390625,-0.32460546360909937,0.043294075064361094,-0.04231587768197059
1746289528108898000,2.29089794921875,-0.2662859611093998,0.056957274235785005,-0.07162365910038351
1746289528118870000,2.3008701171875,-0.0805225664794445,0.05116714652702212,0.0513661762304604
1746289528128841200,2.31084130859375,-0.004362871384620666,0.03861234698891639,0.05150602309256792
1746289528138813000,2.32081298828125,-0.06573416267037391,0.03037467999756336,0.060176236282289026
1746289528148784000,2.3307841796875,-0.09470540561079978,0.03996463838070631,0.011321750611811876
1746289528158756000,2.340756103515625,-0.11843231815695762,0.036586540249735115,-0.04507642843648791
1746289528168728000,2.35072802734375,-0.09619944356083869,0.012125029818713664,-0.04365472507029772
1746289528178699000,2.360698974609375,-0.07784896335601806,0.019409779999405144,-0.008701923502236605
1746289528188671200,2.370671142578125,-0.03447568557560444,0.030484131721407175,-0.01251958209425211
1746289528198642000,2.380641845703125,-0.013128361642360687,0.03362301426902413,-0.05668970934078097
1746289528208614100,2.3906142578125,0.1263198565363884,0.03234510328769684,0.1898896807797253
1746289528218585900,2.4005859375,0.2026426332384348,0.03437207907065749,0.07499342779442668
1746289528228557000,2.41055712890625,0.058386722517013545,0.06054550798609853,-0.015851941387355326
1746289528238529000,2.420529052734375,-0.03836450970768928,0.08905512476414441,0.10448387230336666
1746289528248501000,2.4305009765625,0.2369663431227207,0.11674947963654994,0.0876224616125226
1746289528258472000,2.440471923828125,0.4304442576527595,0.10888400695845483,0.08501111007034778
1746289528268444200,2.450444091796875,0.14035890328288078,0.06507569876164197,0.07592223307713866
1746289528278414800,2.460414794921875,-0.13603694843053818,0.045365182249993086,0.12452332850843667
1746289528288387000,2.470386962890625,-0.05858955161273479,0.07491670929640531,0.05758855787664652
1746289528298359000,2.480359130859375,0.03237199129462242,0.11500088240355252,-0.13310951667651533
1746289528308330000,2.490330078125,0.026205285358428955,0.1637907784052193,-0.13598551050424576
1746289528318302200,2.50030224609375,-0.000481061515212059,0.027574235624074933,-0.08076806567311287
1746289528328274000,2.51027392578125,-0.16553367654979229,-0.1385593065150082,0.09912161461785435
1746289528338245000,2.5202451171875,-0.39948037959039207,-0.10991159644052385,0.2699827698007226
1746289528348217000,2.530217041015625,-0.37447277958393094,-0.014946224719285963,0.14776786436513065
1746289528358188000,2.54018798828125,0.046156186497211454,0.0820874777086079,0.11528729812949895
1746289528368160000,2.550159912109375,0.28570027115345,0.06623568245172501,0.08733546136468648
1746289528378132200,2.56013232421875,0.20288754791021346,0.004471007934212685,0.012093319506198167
1746289528388103000,2.57010302734375,-0.14706161579191684,0.05558978527486324,0.06267565188258886
1746289528398075100,2.5800751953125,-0.21743688226640223,0.10899155898615717,0.01886091394498944
1746289528408046800,2.590046875,-0.030762802532315253,0.0545370613515377,-0.08689239377230405
1746289528418018000,2.60001806640625,0.0587198999941349,-0.062137599483132355,-0.049432870080322024
1746289528427990000,2.609989990234375,-0.20524492469131944,-0.2259926752962172,-0.30369653109312056
1746289528437961200,2.619961181640625,-0.3636901042848825,-0.20136589130088686,-0.33197000102773305
1746289528447933000,2.629932861328125,0.1289338384270668,0.21305925170406698,0.25871187259331346
1746289528457905200,2.6399052734375,0.8995511311769485,0.4848272974863648,0.38358021514713764
1746289528467875800,2.649875732421875,0.6758242088556289,0.2993983955077827,-0.18455401884019373
1746289528477848000,2.65984814453125,-0.15419512093365192,0.08378288344964384,-0.2611763630107045
1746289528487820000,2.669820068359375,-0.6960317151039839,-0.027852321913093326,0.05157061276137829
1746289528497791000,2.679791015625,-0.635601504060626,-0.06342647024989127,0.31781258859857914
1746289528507763000,2.689762939453125,0.0859118583023548,0.007285773093998432,0.22360592629015444
1746289528517734100,2.699734130859375,0.38293841011226176,0.08568184893876314,0.028119156155735254
1746289528527705900,2.709705810546875,0.21858312969207763,0.10552607483267784,0.08560103878751396
1746289528537678000,2.719677978515625,0.0854804811477661,0.0301420402854681,0.26174305698275563
1746289528547649000,2.72964892578125,0.171366035965085,-0.11229600735902785,0.350055108294636
1746289528557621000,2.73962109375,0.12449848632812499,-0.1782283229500055,-0.06319456119015812
1746289528567593000,2.749593017578125,0.15418810667097568,0.1095864561393857,-0.04698401562348008
1746289528577564000,2.75956396484375,-0.01803951455950737,0.08572627260237932,0.41396877753958106
1746289528587536000,2.769535888671875,-0.13988251794278622,0.09633417585641145,0.1430330909281969
1746289528597507000,2.779507080078125,-0.1986205381155014,0.16163067776188253,-0.2553152158923447
1746289528607478800,2.789478759765625,-0.35356209350228307,0.16608444230034947,-0.07744067481607199
1746289528617451000,2.799450927734375,-0.2636310626864433,0.06456584954336285,0.20216990116015077
1746289528627422000,2.809421875,0.1804033289015293,0.0551776973426342,0.2099653773419559
1746289528637394000,2.819393798828125,0.453319521805644,0.024941987424343823,0.2045046277180314
1746289528647366100,2.8293662109375,0.4166729219317436,-0.023010434839874503,0.27890461966395375
1746289528657336800,2.8393369140625,0.2528624159127474,0.002704728914052248,0.37467034798264504
1746289528667309000,2.84930908203125,0.12195113993287086,0.023241613247245548,0.1907505353927612
1746289528677280000,2.859280029296875,0.12109598440825939,0.06648775751665234,-0.024487375524640084
1746289528687252000,2.869251953125,0.23333529314398765,0.11437500559017061,-0.05506999918445944
1746289528697224000,2.879223876953125,0.13847908088564873,0.0885527281999588,-0.07354191381186247
1746289528707195100,2.889195068359375,-0.23755320309996603,0.014669599734991788,-0.2298793074712157
1746289528717166800,2.899166748046875,-0.4956161102652549,0.040211306618154044,-0.12383520011380314
1746289528727138000,2.909137939453125,-0.6271972483307123,0.03306611103862524,-0.06294292451664805
1746289528737110000,2.919110107421875,-0.868479116564989,0.042014702778309584,-0.08545198570564388
1746289528747082000,2.92908203125,-0.40667993570566174,0.02813055433258414,0.11579875478297472
1746289528757053000,2.939052978515625,0.25676526857018467,0.05977291617840528,0.25314927003011106
1746289528767025000,2.94902490234375,0.476561281183362,0.05005158650055527,0.2506118605069816
1746289528776996900,2.958996826171875,0.36446459578871726,0.03282207314968109,0.3460999409280717
1746289528786968000,2.968968017578125,0.2864285854279995,-0.04608472869619727,0.3982311101816594
1746289528796939800,2.978939697265625,0.07482756970822811,-0.044131110410392284,0.36264293331950903
1746289528806911000,2.988910888671875,-0.12584697832763195,-0.06649316434413194,0.5702919965431094
1746289528816883000,2.998883056640625,-0.12346154449582099,-0.05914557806029915,0.5826366604618728
1746289528826855000,3.00885498046875,0.07379471952915191,-0.029546850871294734,0.28638796115666626
1746289528836825900,3.018825927734375,0.05341127219200134,-0.010331716661155224,-0.060411214081943033
1746289528846797800,3.0287978515625,-0.33414310728311536,0.13299728847369552,-0.3963656085707247
1746289528856770000,3.03877001953125,-0.32479426417946816,0.3443973747938871,-0.7236829614870249
1746289528866741000,3.048740966796875,0.08437456573247909,0.311331994407624,-1.1006390823192893
1746289528876713000,3.058712890625,0.17947686170637606,0.20667875688672063,-0.6592856003783643
1746289528886684000,3.068683837890625,0.048741526815295214,-0.08739084481373428,0.27670915544629093
1746289528896656100,3.07865625,-0.017287819409370422,-0.18694865889176726,0.5476769907616078
1746289528906627800,3.0886279296875,-0.026048633491992948,-0.0017507891900837421,0.20449775958582758
1746289528916599000,3.09859912109375,0.09130816438794136,0.15163827605769037,-0.07556991250813007
1746289528926571000,3.108571044921875,0.24222470204234123,0.20699878262132404,-0.20025588423237203
1746289528936543000,3.11854296875,0.2593359958410263,0.18803382377997038,-0.19760580811500547
1746289528946514000,3.128513916015625,0.06968026994764805,0.04836246436983346,-0.07301730541586876
1746289528956486000,3.13848583984375,-0.31790625823140145,-0.08474734456762671,0.1139597027875483
1746289528966456800,3.148456787109375,-0.5900152264058589,-0.11505378163456915,0.36173809343427415
1746289528976429000,3.158428955078125,-0.27103929311633107,0.020940204437077045,0.11765724213123321
1746289528986400800,3.16840087890625,0.29001871887445446,0.19877076024115084,-0.21356384022533892
1746289528996372000,3.1783720703125,0.4601332934737205,0.20350451076477766,-0.17233093547448514
1746289529006344000,3.188343994140625,0.2677086873888969,0.2024564630165696,-0.11809446450471878
1746289529016316000,3.19831591796875,0.06169628545641899,0.16262655693143604,-0.2574175949990749
1746289529026286800,3.208286865234375,-0.21648118897676466,0.06005597090348601,-0.22588643844276665
1746289529036258800,3.2182587890625,-0.507270307701826,-0.13480740663558244,0.1619322910569608
1746289529046229800,3.228229736328125,-0.5070248085081577,-0.24473989973366259,0.5863575806811452
1746289529056202000,3.238201904296875,-0.060139119142293924,-0.16305413469374178,0.6534612781390547
1746289529066174000,3.248174072265625,0.594034398919344,0.08487915425375103,0.1463660347431898
1746289529076145000,3.258144775390625,0.9127128105670214,0.22389088071137667,-0.18688567665815353
1746289529086117000,3.2681171875,0.7199813304901123,0.13546134049966932,0.20113982746005057
1746289529096087800,3.278087890625,0.46064182751774785,0.07539747855067253,0.4485249810054898
1746289529106060000,3.28806005859375,0.03540215277075767,-0.006777092919498681,0.2988645808920264
1746289529116032000,3.298031982421875,-0.358890595048666,-0.11315057836174965,0.3528654895402491
1746289529126003000,3.3080029296875,-0.5792687914639711,-0.06587883183807135,0.5338476412430405
1746289529135975000,3.317974853515625,-0.5757084686338901,0.13075769285336136,-0.46068055209293957
1746289529145947000,3.32794677734375,-0.10343114838004111,0.185835729213804,-0.7622589219883084
1746289529155917800,3.337917724609375,-0.03857435306608677,0.18597323798835277,-0.44363677057251333
1746289529165890000,3.34789013671875,-0.03387771968245506,0.15827362241894005,-0.3583203939452767
1746289529175861000,3.357861083984375,0.07130173366963863,0.06606120266765356,-0.09119184453189373
1746289529185833000,3.3678330078125,-0.0027332243561744686,-0.04361307788565755,0.18711480923891066
1746289529195805000,3.377804931640625,-0.274127906781435,-0.08194529275894165,0.20045389102250336
1746289529205776000,3.38777587890625,-0.5674626183360815,-0.04031272116601467,0.1290709088101983
1746289529215747800,3.397747802734375,-0.4209340865075588,0.031601883704960344,-0.021819033098220825
1746289529225719800,3.4077197265625,0.03392214334607124,0.06681450525298714,-0.16549276001751423
1746289529235690800,3.417690673828125,0.21254151144027708,0.021163930190354584,-0.09913330505564809
1746289529245663000,3.4276630859375,-0.073982935577631,-0.04081716355681419,0.09649784198552369
1746289529255634000,3.437634033203125,-0.41966333591938015,-0.05076718742400407,0.22624080483838915
1746289529265606000,3.44760595703125,-0.2820926020503044,-0.025858517747372387,0.22831015845835206
1746289529275578000,3.457578125,0.1465314544379711,0.015744243229180572,0.1585007091730833
1746289529285548800,3.467548828125,0.6055494801461696,0.10418678905293345,0.18558993775919078
1746289529295521000,3.47752099609375,0.8641694366723298,0.10455796045288443,-0.04364873372092843
1746289529305493000,3.487492919921875,0.22142799772918223,0.11513210756778716,-0.23852394782826303
1746289529315464000,3.4974638671875,-1.0192097762584686,0.025558511887490747,-0.20942849398627875
1746289529325436000,3.507435791015625,-1.6460528043240308,-0.0947501215353608,-0.09126505589857697
1746289529335407000,3.517406982421875,-1.3692214838027954,-0.09451353630051017,0.10070596119984984
1746289529345378800,3.52737890625,-0.34628187336623667,0.06451616518273949,0.22919614751264453
1746289529355351000,3.53735107421875,1.2395640072762966,0.031969694104045626,0.4281197602279484
1746289529365322000,3.547322021484375,2.4658839175760745,-0.03155862908512354,0.9492851761609316
1746289529375294000,3.5572939453125,1.9257073655724524,0.04219985008686781,1.112521827814728
1746289529385265000,3.567264892578125,0.17976035482287406,-0.010372487062960862,1.025097519122809
1746289529395236900,3.57723681640625,-0.8857961620688438,-0.2999985533580184,1.152334198243171
1746289529405209000,3.587208984375,-1.1810352459400892,-0.4707251223757863,1.3616205072797833
1746289529415180000,3.597179931640625,-1.0865116266369819,-0.3076892539910972,1.3427953953005374
1746289529425152000,3.607152099609375,-0.6976420729100704,-0.14339067219421267,1.1129419529229403
1746289529435124000,3.6171240234375,-0.20183774659633635,-0.06371712375953793,1.0454293824031948
1746289529445095200,3.62709521484375,0.09817045137286186,-0.023835998943820595,0.8363169686287641
1746289529455067100,3.637067138671875,-0.07980711168646812,0.021509017300978303,0.42319574782922864
1746289529465038000,3.6470380859375,-0.39384383500814435,0.030844854792580007,0.12306085474044084
1746289529475010000,3.657010009765625,-0.6401672045409679,0.0659514586828649,-0.36652561997175215
1746289529484982000,3.66698193359375,-0.5716156463623047,0.2595904820587486,-0.6651222706425934
1746289529494953200,3.676953125,-0.3376613445371389,0.3155857063293457,-1.4401716275557874
1746289529504925000,3.686925048828125,0.7158978605687618,0.4923058532061055,-2.6883997105419635
1746289529514896100,3.696896240234375,0.6115244629025459,1.05786406269297,-2.4252155148401857
1746289529524868000,3.7068681640625,-0.034735797816514966,0.9334447060156613,-1.0628156937509774
1746289529534840000,3.716840087890625,0.8616764508128165,0.2877491299746558,-0.4724412786439061
1746289529544811000,3.72681103515625,1.3374001121282577,-0.08113309959322214,-0.6052318290317431
1746289529554783200,3.736783203125,0.954748702263832,-0.278012273934111,-0.5955879850368947
1746289529564755000,3.7467548828125,0.2713818229436874,-0.4352789112675935,-0.42307789360322057
1746289529574726100,3.75672607421875,-0.28688158989250656,-0.3977286405522376,-0.07448648291928693
1746289529584697900,3.76669775390625,-0.4020271414637565,-0.08919908154578879,0.21163292696168645
1746289529594669000,3.7766689453125,-0.06305705241560935,0.1068692696025595,0.1462195389445871
1746289529604641000,3.78664111328125,0.24214520706534384,0.016454437325149774,0.19460858079409227
1746289529614613000,3.796613037109375,0.1301011286407709,-0.1879890165238641,0.9943217840436845
1746289529624584000,3.806583984375,0.2530336808264255,0.6089001422809437,2.157904886858165
1746289529634556200,3.81655615234375,1.92317521674633,2.0636250131830574,-1.8838390855275093
1746289529644528000,3.826528076171875,1.2529308538496493,1.4424211600482464,-2.4095910985983906
1746289529654499000,3.8364990234375,-0.45389235325753685,-1.069383381703496,0.33139888660889116
1746289529664471000,3.846470947265625,0.6141185710489749,-1.772448502575606,1.3353313430301845
1746289529674442000,3.85644189453125,1.8327847517251967,-0.6630790013119578,0.9916342985253781
1746289529684414200,3.866414306640625,1.8221710032522678,0.8091421806510537,0.21201204420607536
1746289529694386000,3.876385986328125,1.5052829821527003,1.2897051717564463,-0.2193228056108579
1746289529704357000,3.886357177734375,2.8286697664976117,1.2834471342749894,0.39936380400601773
1746289529714329000,3.8963291015625,3.9828199281215664,1.1262637182455508,0.4471493087381124
1746289529724300000,3.906300048828125,5.116833895167708,1.388751675311476,-0.13894041478708385
1746289529734272000,3.91627197265625,6.789157451301813,1.935309014393389,0.043092268881946796
1746289529744244200,3.926244140625,6.8330082834661,1.9494484527744351,0.39689781575128436
1746289529754215000,3.93621484375,5.648847598981857,1.8351552802488207,0.12015724225342272
1746289529764187100,3.946187255859375,4.011253410923481,2.669666953021288,1.0502864670455456
1746289529774158800,3.956158935546875,1.3153788344562052,3.3593203652650114,2.391798982928693
1746289529784130000,3.966130126953125,-1.646199519318342,3.465387415106594,3.073697251001
1746289529794102000,3.97610205078125,-3.385187212449312,3.7221155665367838,2.331384846237302
1746289529804073200,3.9860732421875,-2.501170335012674,4.733531035657227,0.32118396472781896
1746289529814045000,3.996044921875,-1.1518868928670882,5.082463423532247,-1.2373691275805234
1746289529824017200,4.00601708984375,-0.2685433846473694,4.7226288256317375,-0.8310863744989037
1746289529833988000,4.015988037109375,0.33791561155915256,4.7867368484050035,0.5873886772945522
1746289529843960000,4.0259599609375,-1.0989964296787977,4.3164404728353025,0.05800152259171009
1746289529853931300,4.03593115234375,-1.4768629433542488,3.700933077776432,-1.0383315330967307
1746289529863903000,4.045903076171875,-1.5955951212406156,3.6934029745325443,-0.8791314434826374
1746289529873875200,4.055875244140625,-1.7521809367030858,3.9844983827278018,-0.09550736964344977
1746289529883846100,4.06584619140625,2.163684931564331,5.082772051090002,3.183573045475781
1746289529893818000,4.075818115234375,3.9167788914591073,3.7058719954833386,5.458922408497333
1746289529903790000,4.0857900390625,1.3113742749899624,1.353191409369558,2.245853219424188
1746289529913761000,4.095760986328125,0.17607494430840015,1.8717367059320211,-3.4841420921981334
1746289529923733000,4.10573291015625,0.776202399405837,3.7647596532598135,-5.16753941553235
1746289529933704200,4.1157041015625,0.3794254335552454,4.162397327592969,-3.626573125579953
1746289529943676000,4.125676025390625,-0.34832769998013974,3.899994345396757,-0.871910844579339
1746289529953648000,4.135648193359375,-1.1319506047755479,3.7392204305946826,1.8696435330450534
1746289529963619000,4.145619140625,-1.444374047681689,3.522554240439832,2.366489477366209
1746289529973591000,4.155591064453125,-1.4732874229550361,3.6214509602606295,0.498786556994915
1746289529983563300,4.165563232421875,-1.033198554122448,3.9862621775299307,-1.163756194359064
1746289529993534200,4.1755341796875,-0.13990414525270461,4.547647814039886,-0.7038134550213814
1746289530003506200,4.185506103515625,1.1273580162882804,4.688017530977726,0.35665187621116634
1746289530013477000,4.19547705078125,2.4659283412396906,3.9852480320513246,0.2782657372385263
1746289530023449000,4.205448974609375,3.1878672355383633,2.726064547547698,-0.039462826338410376
1746289530033421000,4.215421142578125,3.2761908311575647,1.795946720932424,0.24702421127855775
1746289530043392300,4.225392333984375,3.085281305810809,1.42042136355564,0.43557168366909027
1746289530053364000,4.235364013671875,3.062890025782585,1.2343965415105222,0.3731219494968652
1746289530063335200,4.245335205078125,2.961874121850729,0.6098118137657642,0.43711832858920097
1746289530073307100,4.25530712890625,4.227378626069426,0.3487663836583495,0.019779051703214645
1746289530083279000,4.265279052734375,6.006945582348108,-0.17674919030815361,-0.15797639303803443
1746289530093250000,4.27525,6.59632017276287,-1.2330763988226652,0.8617220435202121
1746289530103222000,4.285221923828125,6.608695670211315,-2.278040794062614,2.4626848292738197
1746289530113194000,4.295194091796875,6.372679175159335,-2.732250542706251,3.5444103906780478
1746289530123165200,4.305165283203125,6.068156130114198,-3.0587726535916326,3.7908740454643963
1746289530133137000,4.315136962890625,5.670071588796377,-3.508147529424727,3.406256303963065
1746289530143108000,4.325108154296875,5.261510077127814,-3.8475267837956544,3.144495126801729
1746289530153080000,4.335080078125,5.008467043951153,-4.157151535893976,3.1115473814457655
1746289530163052000,4.345052001953125,5.409239216917753,-4.14953580019325,2.9141327119886875
1746289530173023000,4.35502294921875,4.680693471699953,-4.109953146867454,1.9485715238094328
1746289530182995200,4.3649951171875,2.843655154183507,-3.8902000966131687,1.4373790742278099
1746289530192966000,4.3749658203125,1.6092402002334594,-3.1620795910701154,1.2069810035794972
1746289530202938000,4.384938232421875,1.0689508355051278,-2.50281985578537,1.401876383692026
1746289530212910000,4.39491015625,1.0767471884697675,-2.2617796873524783,2.024374660551548
1746289530222881000,4.404881103515625,0.9146329649746417,-2.4174328981399533,3.0072844584167
1746289530232853200,4.414853271484375,0.5098994871616364,-2.569153445653617,4.2909032959967845
1746289530242825000,4.424824951171875,-0.23364450522363184,-2.9037866745412346,5.6748974015176294
1746289530252796200,4.434796142578125,-0.874318490242958,-3.2865120264247056,6.471144810086488
1746289530262768000,4.44476806640625,-1.066175525572896,-3.453527173703909,6.262818285992741
1746289530272739000,4.454739013671875,-1.0597890394061804,-3.5103321799874303,5.462184040641785
1746289530282711000,4.4647109375,-1.4190841236025094,-3.5166488157883284,4.30480731818676
1746289530292683000,4.47468310546875,-1.9131898293048142,-3.4304905815094706,3.1497330274552104
1746289530302654000,4.484654052734375,-2.2851631932884455,-3.0783903772532937,2.5663345888406037
1746289530312626200,4.494626220703125,-2.5734108108371494,-2.6527067581310866,2.5753946781307455
1746289530322597000,4.50459716796875,-2.8002608336150643,-2.348747192187607,3.170129334273934
1746289530332569000,4.514569091796875,-2.952373887577653,-2.1569380876526236,4.277404347476363
1746289530342541000,4.524541015625,-2.9786423013001677,-1.9955374192543327,5.673573459437489
1746289530352512000,4.534511962890625,-2.9032915845006704,-1.7690107832118869,6.440535152289271
1746289530362484000,4.54448388671875,-2.8567659801691767,-1.5867799466222523,5.939554300120473
1746289530372456200,4.554456298828125,-2.9121038365095853,-1.3813959057211875,4.549468307465315
1746289530382427000,4.564427001953125,-3.1319460263520478,-1.0232804597634821,2.538427760261297
1746289530392399000,4.574399169921875,-3.3322739529073235,-0.5222772496324032,0.7150029575556516
1746289530402370000,4.5843701171875,-3.3510505495697256,-0.2196277251078747,-0.16995383107960224
1746289530412342000,4.594342041015625,-3.3504467384576797,-0.2905001091832295,-0.6199672970771789
1746289530422314200,4.604314208984375,-3.256293121510744,-0.5159166285593062,-1.2241665316581725
1746289530432285200,4.61428515625,-2.953372835487127,-0.7458489813920111,-1.6971797649711369
1746289530442257200,4.624257080078125,-2.5816280195623635,-0.8319177838217466,-2.2354379161328075
1746289530452227800,4.634227783203125,-2.111811536464095,-0.8686070537935942,-2.851006685990095
1746289530462199800,4.64419970703125,-1.3472943141549825,-0.8427117842324078,-3.3178748406767844
1746289530472171800,4.654171875,-0.7006082292392849,-0.6280810454279184,-3.7950697435885665
1746289530482143000,4.66414306640625,-0.24571605128943919,-0.29513007053881885,-4.454961639297008
1746289530492114700,4.67411474609375,0.016610943061113357,-0.138584879347682,-5.19887095786333
1746289530502087000,4.6840869140625,0.11709931598752736,0.10747896246612071,-6.022836394441128
1746289530512057900,4.694057861328125,-0.21486089429855346,0.5869876952782273,-6.3403305647403
1746289530522029800,4.70402978515625,-0.8110001565426588,0.8933961156785487,-6.105939625063538
1746289530532000800,4.714000732421875,-1.4595456055894493,1.0580798974007368,-5.467200992020964
1746289530541973000,4.723972900390625,-1.8927090590730309,1.4917036618724464,-4.531168096143007
1746289530551945000,4.733945068359375,-1.6494026992738247,1.9066177574381231,-3.3429999295830726
1746289530561916000,4.743916015625,-1.3212260991796851,2.0736396267190575,-2.0398791036754846
1746289530571887900,4.753887939453125,-0.49116672964096064,2.1845558701574803,-0.8469184421420097
1746289530581858800,4.76385888671875,0.5585698484368622,2.192580771180987,-0.919785525432229
1746289530591831000,4.7738310546875,1.0380815038584172,2.1426959195494653,-2.3287112431138755
1746289530601802800,4.783802734375,1.065817213654518,2.2009335889846087,-3.9397254672825333
1746289530611774000,4.79377392578125,0.9465046055316925,2.4662261551424858,-5.0725049240976565
1746289530621746000,4.803745849609375,0.6918482919394969,2.56007552844584,-5.865763087722659
1746289530631718000,4.8137177734375,0.22386691531389952,2.218688149122894,-6.506264054262638
1746289530641688800,4.823688720703125,-0.4270739775020629,2.166802771323919,-6.712534814870357
1746289530651660800,4.833660888671875,-0.5623347539283335,2.728037601186335,-6.349725000551342
1746289530661631700,4.8436318359375,-0.32722119906544683,3.2684818642154334,-5.823795585086941
1746289530671604000,4.85360400390625,0.16088153989501297,3.5793390807181593,-5.182227281576394
1746289530681575700,4.86357568359375,1.1208240844748913,3.5216076072394844,-3.6199060689061877
1746289530691547000,4.873546875,2.014105779993534,3.0300001480937,-2.4898048913896083
1746289530701518800,4.883518798828125,2.2766402796149254,2.2117028202801943,-2.8420979878693817
1746289530711489800,4.89348974609375,1.7108710211932658,1.2214286311268805,-3.6621623253554105
1746289530721461800,4.903461669921875,0.7067208669006824,0.43901393307745457,-4.478159559533
1746289530731434000,4.91343408203125,-0.06354107307288795,0.18982377593666314,-5.499037561264633
1746289530741404700,4.92340478515625,-0.5785223570108413,0.6530135343715548,-6.349650766271353
1746289530751377000,4.933376953125,-0.8803221145719289,1.411784468113631,-6.611681992545724
1746289530761348900,4.943348876953125,-1.2083891168117522,2.132990079701692,-4.799803835248947
1746289530771319800,4.95331982421875,-1.5945990959405898,1.7360265052378177,1.2699375182300805
1746289530781292000,4.9632919921875,-2.1493290739536284,-0.04587240111976862,11.901715568846463
1746289530791263000,4.973262939453125,-3.8806156911879777,-1.7634043415069578,19.048228660714624
1746289530801235000,4.98323486328125,-5.009711491054296,-3.0147441267728805,19.669334606432912
1746289530811207000,4.99320703125,-4.877220252406597,-3.723161860719323,15.428202764821052
1746289530821177900,5.003177734375,-3.2854864827692505,-2.935857637062669,9.709739193299413
1746289530831149800,5.01314990234375,-0.6582500467855483,-0.8871579519413411,5.031917477643489
1746289530841121000,5.02312109375,1.3412065186738966,1.4311891335465012,1.6351415342092512
1746289530851092700,5.0330927734375,2.465719082403183,2.7624808457970618,-1.7809189554095268
1746289530861065000,5.04306494140625,2.607995217484236,2.740016208271682,-4.078236696872115
1746289530871036000,5.053035888671875,1.4836157786153257,2.2989890356756746,-4.289797380581498
1746289530881007900,5.0630078125,0.8958498655062168,2.5382553263038394,-2.044874427744746
1746289530890978800,5.072978759765625,1.318530430354923,2.9684137527525425,1.0328910956084727
1746289530900950800,5.08295068359375,1.2730477592051028,2.425254093284905,3.366374959951639
1746289530910922800,5.0929228515625,0.8539875768106431,1.5709635149396954,5.8945250718265765
1746289530920894000,5.10289404296875,0.589909866335243,0.7402100256569684,7.106805935379862
1746289530930865700,5.11286572265625,0.47068990493193263,0.19120052591627462,6.3662780759453765
1746289530940838000,5.122837890625,0.5199754754960537,-0.007155990968178957,4.635045819246769
1746289530950808800,5.132808837890625,0.74529828870669,0.18686094407569617,2.656825591626763
1746289530960780800,5.14278076171875,1.0066868331633507,0.9352687796376645,0.7687754642754793
1746289530970751700,5.152751708984375,1.3735411005675793,1.9120406592696904,-0.6122820032715797
1746289530980724000,5.162723876953125,1.7039710325464605,2.5414327872961757,-1.3857611151933669
1746289530990696000,5.172696044921875,2.0034242269814015,2.681705181339383,-1.6295318776339291
1746289531000667000,5.1826669921875,2.3245757507443425,2.304964310692996,-1.320159054470062
1746289531010638800,5.192638916015625,2.572397834402323,1.5134341399043798,0.03501110762655735
1746289531020609800,5.20260986328125,2.5780712038636207,0.7845889733485877,0.9787947637617588
1746289531030582000,5.21258203125,2.381463613005727,0.2860839001761749,0.8504150520861148
1746289531040553700,5.2225537109375,2.2485116249784824,0.06426182509548961,0.4314519733905792
1746289531050525000,5.23252490234375,1.9793992082715033,0.08602163881976158,-0.14530688107907772
1746289531060497000,5.242496826171875,1.0730533023878932,0.05387647855095565,-0.7088572944074869
1746289531070468900,5.25246875,0.23604367531985043,0.10220178924817591,-0.6609317601501942
1746289531080439800,5.262439697265625,-0.41401685446500774,0.3361302625123411,-0.23170213898420333
1746289531090411800,5.272411865234375,-0.7878615652784705,0.7290333826042711,0.28047347641587256
1746289531100382700,5.2823828125,-0.8160159388780593,0.9942460153937339,0.605657032173872
1746289531110355000,5.29235498046875,-0.7768409895703197,0.8404689737416803,0.881319893437624
1746289531120326700,5.30232666015625,-0.7321008073508739,0.41302082916498184,1.1062871712088584
1746289531130297900,5.3122978515625,-0.5246659713998436,-0.1133994020236656,1.229177053296566
1746289531140269800,5.322269775390625,-0.4108706653937697,-0.6401068526558578,1.0023013115555048
1746289531150241000,5.332240966796875,-0.37820933576375243,-1.1513810622368008,0.31055940259993076
1746289531160212700,5.342212646484375,-0.5404159137174487,-1.462843185830116,-0.5879629700511694
1746289531170185000,5.35218505859375,-0.7807575784921645,-1.4880023231364785,-1.2670990799337625
1746289531180155600,5.36215576171875,-0.9990554615020751,-1.2638565908811985,-1.7187883701890705
1746289531190127900,5.3721279296875,-1.274729720942676,-0.8931349805243313,-1.9883026456952093
1746289531200099800,5.382099853515625,-1.4888096939966082,-0.4709468023024499,-1.8607319123148918
1746289531210070800,5.39207080078125,-1.607230613976717,-0.08032906233449466,-1.0061825369030237
1746289531220043000,5.40204296875,-1.7402581514582036,-0.009278115954995154,0.2279611988902092
1746289531230014000,5.412013916015625,-1.9380977683290839,-0.46208245478011667,1.304034433621168
1746289531239986000,5.42198583984375,-2.2522888054296373,-0.9785022105559706,1.9142916530668734
1746289531249958000,5.4319580078125,-2.445138358928263,-1.347884389002621,1.9486480961769819
1746289531259928800,5.4419287109375,-2.5140812545120714,-1.5979301400594412,1.4328274022728205
1746289531269900800,5.45190087890625,-2.4623627577126026,-1.7185589453473686,0.5661527047812939
1746289531279872000,5.4618720703125,-2.274680669979751,-1.6169801468357443,-0.33783377849459645
1746289531289843700,5.47184375,-2.092243789424002,-1.3672000609777868,-1.1437778206914662
1746289531299816000,5.48181591796875,-2.0491177644029257,-1.145441954511404,-1.874655223727226
1746289531309787000,5.491786865234375,-2.0857930058494207,-0.9803493727926165,-2.503819388216734
1746289531319758800,5.5017587890625,-2.1585472764149305,-0.8022368582420051,-2.8761405427247286
1746289531329729800,5.511729736328125,-2.2711811374261974,-0.6877598535820841,-3.091964144575596
1746289531339702000,5.521701904296875,-2.4737425221219658,-0.6274581642892211,-3.3222067324012516
1746289531349673700,5.531673828125,-2.5435668767154214,-0.5138827481115237,-3.3106618405580517
1746289531359645000,5.54164501953125,-2.419519787416607,-0.4509526100112125,-3.056263301119208
1746289531369616600,5.55161669921875,-2.3222785797178744,-0.4367971338108182,-2.8573604389309883
1746289531379588900,5.5615888671875,-2.3729914066061375,-0.5032859873060137,-2.926005520612001
1746289531389559800,5.571559814453125,-2.3972728842951354,-0.7361918760567903,-3.046272068458795
1746289531399531800,5.58153173828125,-2.396815788177401,-0.99551450095959,-2.985164396545291
1746289531409502700,5.591502685546875,-2.3100353303469716,-1.1472153208594769,-2.603466341882944
1746289531419475000,5.601474853515625,-2.257624467369169,-1.2230577666986733,-2.1017285338670013
1746289531429447000,5.611447021484375,-2.1592039867579937,-1.2007581104766576,-1.8430647381991148
1746289531439417900,5.62141796875,-1.9780138913929461,-1.046145421718061,-1.340157886403799
1746289531449389800,5.631389892578125,-1.7383610856652258,-1.0003310343958436,-0.31139643794596195
1746289531459360500,5.641360595703125,-1.4970634353399277,-1.0516036871239542,0.9030518327742815
1746289531469332700,5.651332763671875,-1.3091829024255275,-0.9281208075791597,1.8712959764271972
1746289531479304700,5.6613046875,-1.5293243674755095,-0.8489087391763925,2.5242285545170304
1746289531489275600,5.671275634765625,-1.6703005258738994,-0.5867386889532208,3.1614252188146112
1746289531499247900,5.681247802734375,-1.6971324186980723,-0.771460611706227,3.5857939559459684
1746289531509218800,5.69121875,-1.6738737081855535,-1.5988824723482131,3.3324750284373756
1746289531519190800,5.701190673828125,-1.5551087970733641,-2.2667291264533995,3.2723891007870436
1746289531529162800,5.711162841796875,-1.1256459516733883,-2.3620639160089194,4.182532937648892
1746289531539133700,5.7211337890625,-0.9546551787614822,-2.5244617787510153,5.049773452329635
1746289531549105700,5.731105712890625,-0.8652215760737657,-2.209711646462977,5.582331930544972
1746289531559076900,5.741076904296875,-1.313331546537578,-1.7078927360348402,6.104568336710334
1746289531569048600,5.751048583984375,-2.0565131353512407,-1.1935864652816206,7.053159100866317
1746289531579020800,5.761020751953125,-3.6486850041449066,-0.8118832229875028,7.681877859675883
1746289531588991700,5.77099169921875,-6.515522880995273,-1.9033780448645352,6.98429716156423
1746289531598963700,5.780963623046875,-8.718125864496827,-3.2159698789507147,6.728240333524346
1746289531608935700,5.790935791015625,-7.0228165695726865,-3.182056503432989,6.847376416036486
1746289531618906600,5.80090673828125,-4.875077395159006,-2.073030116518587,6.142652860432863
1746289531628878600,5.810878662109375,-3.950945949476957,-1.041194302116707,5.2868286427795885
1746289531638849800,5.820849853515625,-2.936233484637737,-0.7732213377684354,3.8558927533417937
1746289531648821500,5.830821533203125,-1.5656120709091423,-0.6936983767855912,2.578377493333816
1746289531658793700,5.840793701171875,-0.6817553524702787,-0.20733177743535489,2.613786075845361
1746289531668764700,5.8507646484375,-1.213488485777378,0.20346257131919263,2.9708067853689193
1746289531678736600,5.860736572265625,-2.461669514751434,0.25556531819589434,3.13522402510941
1746289531688707600,5.87070751953125,-3.371645593830943,0.5399282032657414,2.965833088609576
1746289531698679800,5.8806796875,-3.662495502832532,1.2092124158933757,2.775813205578923
1746289531708651800,5.89065185546875,-3.4719618250608444,1.8949087610743938,2.670895618033409
1746289531718622700,5.900622802734375,-2.809728334662318,2.285281851232052,2.32877670956552
1746289531728594700,5.9105947265625,-2.1348802773624658,2.4667887574613094,1.6305506992876528
1746289531738566700,5.920566650390625,-1.5483657525539398,2.6120243268698453,1.1073597688764334
1746289531748537900,5.930537841796875,-0.9085574444532394,2.774008201983571,0.9257540784478187
1746289531758509600,5.940509521484375,-0.10585574517846107,2.864283223931491,1.0892208855956793
1746289531768480800,5.950480712890625,0.5859440314441919,2.8277973675772548,1.4477414782881737
1746289531778452700,5.96045263671875,0.9578712181985378,2.9348893765524027,1.575266034439206
1746289531788424700,5.9704248046875,0.6812199304193258,3.1785122549548745,1.3264318511292337
1746289531798395600,5.980395751953125,0.1388058286219835,3.2932433805063366,0.828942932729423
1746289531808367600,5.99036767578125,-0.17214987981915472,3.615356735038757,0.3787897660002112
1746289531818338600,6.000338623046875,-0.2564005269110203,3.9470328676864503,0.04808189386278391
1746289531828310800,6.010310791015625,-0.061573535859584805,4.006943731030821,-0.0815811356216669
1746289531838282500,6.020282470703125,0.3484253151357174,3.9442531738400457,0.2197948435693979
1746289531848253700,6.030253662109375,0.27834757030308244,3.433891914385557,0.22211948712468146
1746289531858225700,6.0402255859375,0.4549672890126705,3.0902853977084157,0.6117962655812501
1746289531868196600,6.050196533203125,0.9225912305027246,3.2747365406960247,1.0591010571420192
1746289531878168600,6.06016845703125,1.5532260520666836,3.682189798861742,1.0157949993789195
1746289531888140800,6.070140869140625,1.7550725664913653,4.006449810034036,0.605076894198358
1746289531898111500,6.080111572265625,1.5396394252628087,4.186809299793839,0.18724574214220047
1746289531908083700,6.090083740234375,0.9958931980788707,4.001720443424582,-0.27878917659074065
1746289531918055700,6.1000556640625,0.9872130480170249,3.761795250496268,-0.10416457722112536
1746289531928026600,6.110026611328125,1.3018278634876013,3.632710605421662,0.571303511673212
1746289531937998800,6.119998779296875,1.795424450623989,3.3303327557116744,1.3519671282716095
1746289531947969800,6.1299697265625,2.170937679171562,3.01013809428215,1.7182707760557532
1746289531957941800,6.139941650390625,2.622410696327686,2.9242841036468743,1.9075896712101994
1746289531967913700,6.149913818359375,2.798320220941305,3.0487223842203615,1.756657351464778
1746289531977884700,6.159884765625,2.5823417207896706,3.2481291042774916,1.414294989629835
1746289531987856600,6.169856689453125,2.2456910145998,3.5136084251791235,1.093859359051287
1746289531997827800,6.179827880859375,1.980211109176278,3.6872891678273674,1.0054216355331242
1746289532007799600,6.189799560546875,1.9430214884668588,3.410938908821344,1.110148522812128
1746289532017771800,6.199771728515625,2.3132664212226866,2.9388918901920316,1.39450687783733
1746289532027742700,6.20974267578125,2.783927538451552,2.5861837831705805,1.724223400849849
1746289532037714700,6.219714599609375,3.394092403438687,2.5672195549815893,2.0135677275940775
1746289532047685600,6.229685546875,3.781034788495302,2.693614814841747,1.9421384220220148
1746289532057657600,6.23965771484375,3.650422787722945,2.7887311393409964,1.188937397366762
1746289532067629800,6.2496298828125,2.639755214360356,2.8574305815577503,0.6343059843573718
1746289532077600800,6.259600830078125,1.559023924690485,2.9394869334757328,0.528628116496466
1746289532087572700,6.26957275390625,1.4209557626932858,2.9698014077186583,0.6578685001220553
1746289532097543700,6.279543701171875,2.01411279425621,2.887574375408888,0.7573400241561233
1746289532107516000,6.289515869140625,2.7338684992969036,2.6388673256099224,0.7595615726631134
1746289532117487600,6.299487548828125,3.1340608265489336,2.192226550915837,0.7642135631874203
1746289532127458800,6.309458740234375,3.039174803674221,1.8603654170900583,0.6298585764944553
1746289532137430800,6.3194306640625,2.317684237664938,1.7767565750330685,0.5166481942368671
1746289532147401700,6.329401611328125,1.2777262724101544,1.7503537212759255,0.4665418088091537
1746289532157373700,6.339373779296875,0.5608551828950643,1.4164678036242722,0.4455870278574526
1746289532167345700,6.349345703125,-0.21408523375093935,1.1462035865336655,1.2650029844373465
1746289532177316600,6.359316650390625,-1.04539168074131,1.0404472100764512,1.3261916126325726
1746289532187288800,6.369288818359375,-0.7473895618975162,0.4316051181256771,0.7366746911376715
1746289532197260500,6.379260498046875,-0.6532125640749931,0.7512006446182727,-0.09012326545231043
1746289532207231700,6.389231689453125,-1.327346920147538,1.9292665193587542,-0.3076820205327123
1746289532217203700,6.39920361328125,-2.0503344467163083,2.188705975574255,-0.5812488593652844
1746289532227174700,6.409174560546875,-2.073575621572137,1.2047720953583716,-0.2826548025103286
1746289532237146600,6.419146728515625,-1.4256383675515651,0.2705307590723038,0.10122592995334416
1746289532247118600,6.42911865234375,-0.29419571229815483,0.27005612729787826,0.18534863981660454
1746289532257089500,6.439089599609375,-0.5307043747812509,0.6116857909440994,0.28203531890511513
1746289532267061800,6.449061767578125,-0.4635375489592552,0.7712871548354625,-0.049372591260448094
1746289532277032700,6.45903271484375,-0.3327507761418819,0.4989256732046604,-0.3560737109970301
1746289532287004700,6.469004638671875,-0.4430091401934623,0.31820494891703127,-0.33596455055661495
1746289532296977000,6.478976806640625,-0.21194296102523802,0.47398178608417507,-0.18591628363672644
1746289532306947600,6.488947509765625,0.1732230620086193,0.7361012751638889,0.09702124480511992
1746289532316919800,6.498919921875,0.4801876549869776,0.7917869220286607,-0.13236078066844492
1746289532326890800,6.508890869140625,1.015710243704915,0.4228063101202249,-0.14599555746298282
1746289532336862700,6.51886279296875,1.4219295761615036,0.38371407065987584,-0.010070325778611004
1746289532346834700,6.528834716796875,1.445031050285697,0.403576124471426,-0.06372187299989164
1746289532356806000,6.538805908203125,1.0126356585651635,0.2907517093241215,0.03614376491829753
1746289532366777600,6.548777587890625,0.5026636906892061,0.06293605638444423,0.022346564103662966
1746289532376748800,6.558748779296875,0.25189503218531606,0.09316752851903438,-0.3517119355909526
1746289532386720800,6.568720703125,0.43966859759390353,0.21655542325675486,-0.49353302038088437
1746289532396692700,6.578692626953125,0.6193383515238762,0.1933002198755741,-0.5441838148836046
1746289532406663700,6.58866357421875,0.7675076362967491,0.1738677896529436,-0.4763648818284273
1746289532416635600,6.5986357421875,0.9895826997578143,0.33693127669692036,-0.3463016740452498
1746289532426606600,6.608606689453125,1.003033717483282,0.25018589017987247,-0.01059160970635712
1746289532436578800,6.618578857421875,0.9174334093481302,-0.21927345004379747,0.8696437033649533
1746289532446550500,6.628550537109375,0.10483750804662705,-0.3564496316373348,1.0222260553397238
1746289532456521200,6.638521240234375,-0.6285094999730587,-0.00647065731883049,0.6292803382150829
1746289532466493400,6.648493408203125,-0.8128817325055598,0.2425561259537935,0.17388488691821694
1746289532476465400,6.65846533203125,-0.6261082840502262,0.3361731518059969,-0.12959537107571958
1746289532486436400,6.668436279296875,-0.1455547183603048,0.24061551328003405,0.0175097915969789
1746289532496408600,6.67840869140625,0.44786651709675784,0.02771218279004097,0.45886882649585603
1746289532506379300,6.688379150390625,0.8394897534459829,-0.11562193691134452,0.9287233035169541
1746289532516351500,6.6983515625,0.8326800734311341,-0.097802787104249,1.0223725511383264
1746289532526323200,6.7083232421875,0.6471680232137441,0.09406184701025486,0.691631361253187
1746289532536294400,6.71829443359375,0.49726563103795046,0.2616208919078111,0.3167081344880163
1746289532546266400,6.728266357421875,0.23148235875368117,0.23542145176827906,0.14291377539746464
1746289532556237600,6.738237548828125,-0.02345043369233608,0.11621581115126609,0.3148378105714917
1746289532566209300,6.748209228515625,-0.12453121955394744,-0.03705401163101196,0.6014698096171021
1746289532576181500,6.758181396484375,-0.10212766456604003,0.07082651737332343,0.6018642888274044
1746289532586152200,6.768152099609375,0.22518705800175665,0.09292553645670414,0.5589500068608672
1746289532596124400,6.77812451171875,0.5945382567882538,0.15147884771227835,0.5339376576140523
1746289532606095400,6.788095458984375,0.5254921930909157,0.24973522380292415,0.37413251477889714
1746289532616067300,6.7980673828125,0.11820903079509734,0.30320377914011476,0.1845349488135427
1746289532626039300,6.808039306640625,-0.26579028654694553,0.3195458421319723,0.019839622784033416
1746289532636010500,6.818010498046875,-0.6216460439443587,0.519036733341217,-0.13374021579548714
1746289532645982200,6.827982177734375,-1.045384666478634,0.7265548636615276,-0.21854820450916884
1746289532655953400,6.837953369140625,-1.4188029685735701,0.8713613940030336,-0.3251714269287884
1746289532665925400,6.84792529296875,-1.522443375790119,0.9583885200709104,-0.3876548441749066
1746289532675897300,6.8578974609375,-1.3720926553249357,0.9192775759100913,-0.4467017111010849
1746289532685868300,6.867868408203125,-0.9903799876153468,0.80098262039721,-0.45647718211896715
1746289532695840300,6.87784033203125,-0.5984007774353027,0.651705666643381,-0.33120084328614174
1746289532705811200,6.887811279296875,-0.220619019433856,0.4765589430958032,-0.2232639809846878
1746289532715783400,6.897783447265625,0.09000409605205059,0.4074357225090265,-0.2602042300429195
1746289532725755400,6.90775537109375,0.25170447804927826,0.32670681980252264,-0.28992680280730126
1746289532735726300,6.917726318359375,0.27486206627488136,0.26573183435797687,-0.29095906846448777
1746289532745698600,6.927698486328125,0.27137714676856994,0.2572615276545286,-0.25571670936532315
1746289532755670300,6.937670166015625,0.3571738542586565,0.16409399913549422,-0.22668182660415767
1746289532765641500,6.947641357421875,0.46184302000105376,0.15371464394032955,-0.1597793508067727
1746289532775613200,6.95761328125,0.46915597336292264,0.13506547304987906,-0.11497538263611495
1746289532785584400,6.96758447265625,0.41019641939401624,0.09510814119279384,-0.15345555461272598
1746289532795556400,6.977556396484375,0.40835868257284164,0.09043722677230834,-0.2222157871060073
1746289532805528300,6.9875283203125,0.5040694658339023,0.07713000143170357,-0.3653250120103359
1746289532815499300,6.997499267578125,0.6085106680393219,0.07029343340992927,-0.4385214733853936
1746289532825471500,7.007471435546875,0.5587140792131423,0.054279871720075604,-0.41995369716808195
1746289532835442400,7.0174423828125,0.4041027786940336,0.06505845536589622,-0.43110579030141233
1746289532845414400,7.027414306640625,0.198472069555521,0.07585866632163524,-0.46269547211192547
1746289532855386400,7.037386474609375,0.12205167769789695,0.029859131690859794,-0.49716151307635004
1746289532865357300,7.047357421875,0.11678688903748989,-0.04057809410393238,-0.5157555927786975
1746289532875329300,7.057329345703125,0.10327741912305355,-0.004482698372006416,-0.5857772235099226
1746289532885300500,7.067300537109375,0.13343173436820507,0.03976385511159897,-0.6150050715599209
1746289532895272200,7.077272216796875,0.19610534042418,0.05659983910024166,-0.5686964709799737
1746289532905244400,7.087244384765625,0.31962475258708,0.08506430156230926,-0.3980297423906624
1746289532915215400,7.09721533203125,0.3154243782877922,0.07508417481780051,-0.29457192519940434
1746289532925187300,7.107187255859375,0.2104664587318897,0.09608955344557761,-0.2576043497428298
1746289532935158300,7.117158203125,0.05150631535351276,0.15634966861903665,-0.15800211200118064
1746289532945130200,7.127130126953125,-0.14354922375679016,0.16354864021241663,-0.08474412969723344
1746289532955102500,7.1371025390625,-0.2338081713527441,0.1993564511746168,-0.02766103712469339
1746289532965073400,7.147073486328125,-0.21780746914446353,0.2717535788655281,-0.06395706999525427
1746289532975045400,7.15704541015625,-0.08059913884699345,0.3840425719618797,-0.2179449779190123
1746289532985016300,7.167016357421875,0.11725333750545978,0.41170273230373855,-0.2950065902896225
1746289532994988500,7.176988525390625,0.2995300590634346,0.39684477038979526,-0.27799006210230287
1746289533004960300,7.186960205078125,0.43803018273711203,0.3619266017436981,-0.1571601082190871
1746289533014931500,7.196931396484375,0.4583446564912796,0.2787672570198774,-0.09883921747989952
1746289533024903400,7.2069033203125,0.35877427519261834,0.24119886612594127,-0.1593351872358471
1746289533034874400,7.216874267578125,0.2537462130099535,0.1887567312270403,-0.21130539377406238
1746289533044846300,7.226846435546875,0.14399462943673133,0.15392331825494765,-0.33019568483158945
1746289533054818300,7.236818359375,-0.005881459254026412,0.1924585083544254,-0.47327473379336293
1746289533064789200,7.246789306640625,-0.13141338028311728,0.2721943083703518,-0.580211113815382
1746289533074761500,7.256761474609375,-0.2471615739226341,0.23863398407399652,-0.6170747174408286
1746289533084732400,7.266732421875,-0.317315891122818,0.19248890349268913,-0.5862775011822581
1746289533094704400,7.276704345703125,-0.40602293310165405,0.11542086138129233,-0.5826282579597085
1746289533104676400,7.28667626953125,-0.5143675724864005,0.05589256761372089,-0.603670826792717
1746289533114647300,7.296647216796875,-0.4289806148409843,0.007543254986405372,-0.5460480743855237
1746289533124619300,7.306619384765625,-0.3222381499558687,0.013633973076939582,-0.4933906893007457
1746289533134590500,7.316590576171875,-0.3495265543758869,0.04914484691917896,-0.5011100315064192
1746289533144562200,7.326562255859375,-0.5554816731631755,0.10189327128827572,-0.5251570428524166
1746289533154534400,7.336534423828125,-0.703248806875944,0.173096805280447,-0.5651867823585868
1746289533164505600,7.346505615234375,-0.5760381389796734,0.1676812099725008,-0.5397534312207252
1746289533174477300,7.356477294921875,-0.4515501740455627,0.1024123267263174,-0.41012810339815914
1746289533184448500,7.366448486328125,-0.36886604561805725,0.056044543305039406,-0.2111907544184476
1746289533194420200,7.376420166015625,-0.3079308076620102,0.01844458822906017,-0.1705531121470034
1746289533204392400,7.386392333984375,-0.23031565306186674,-0.0011906710892915725,-0.20570202080905436
1746289533214363400,7.39636328125,-0.19848259094953535,0.015416180318593977,-0.20984898442067204
1746289533224335400,7.40633544921875,-0.30924715095758437,0.04192658610343933,-0.23790048216767606
1746289533234307300,7.416307373046875,-0.5111760829687119,0.07659107224941253,-0.31662096766121683
1746289533244278500,7.426278564453125,-0.5382172346293926,0.0850491039931774,-0.360980772260949
1746289533254250200,7.436250244140625,-0.17595161018967628,0.09269348126649855,-0.26920769377499815
1746289533264221400,7.446221435546875,0.13261866441965103,0.04866144731640815,-0.19427717514894902
1746289533274193400,7.456193359375,0.20254969425797462,0.09305705388188362,-0.2954608368631452
1746289533284165400,7.466165283203125,0.051989714956283566,0.23853286178708075,-0.5200423301871866
1746289533294136300,7.47613623046875,-0.08002923000454902,0.32069793477654457,-0.6031630234010518
1746289533304108300,7.4861083984375,-0.3139332629472017,0.12241700387895106,-0.5093734174609184
