time,seconds_elapsed,z,y,x
1746409998338372000,0.0273720703125,-1.093109709727764,-0.022810382223129273,0.6759095490515231
1746409998348345000,0.037344970703125,-1.3915391140729187,-0.27384149105548855,1.2833689544722438
1746409998358318000,0.047318115234375,-1.4298188681066035,0.2918506104767322,1.7666376243397592
1746409998368291000,0.057291015625,-1.4806070983186363,0.6887433116614818,1.6009575250566004
1746409998378264000,0.06726416015625,-1.3016074987351893,0.34195173520743843,0.339610140517354
1746409998388237000,0.077237060546875,-1.1138330565437673,-0.14898819994032383,-0.8652779824361204
1746409998398210000,0.0872099609375,-0.9388204807698726,-0.19758476532697677,-1.2106564772218464
1746409998408183000,0.09718310546875,-0.6507195782154798,0.27830022403001786,-1.1264213199600577
1746409998418156000,0.107156005859375,-0.3330930137082934,0.6323351957410573,-0.8787693321719765
1746409998428129000,0.11712890625,-0.08540273973643779,0.5259013584136962,-0.5205038832843303
1746409998438102000,0.12710205078125,0.13959844030439852,0.24622867698669432,-0.2346992749735713
1746409998448075000,0.137074951171875,0.2797653281465173,0.07142448326647281,0.16336714616566894
1746409998458048000,0.147048095703125,0.3050038142994046,0.311573548078537,0.47807373157292604
1746409998468021200,0.157021240234375,0.27702158239632846,0.2523117962926626,0.27585166183412074
1746409998477994000,0.166993896484375,0.24290596230477093,-0.3503542373716831,-0.07645254056155681
1746409998487967000,0.176967041015625,0.22783289633542297,-0.28720424597561356,0.024543489626049995
1746409998497940000,0.18693994140625,0.2402797054544091,-0.04440437439382076,0.1718140719935298
1746409998507913200,0.196913330078125,0.3445119410842657,-0.22750410277247426,0.09951602076292038
1746409998517886200,0.20688623046875,0.49546062744259833,-0.3936941974043846,0.2394473462834954
1746409998527859000,0.21685888671875,0.582103722628951,-0.16461013196408747,0.7377943428173661
1746409998537832000,0.22683203125,0.5079179579555988,-0.10518529857099056,1.030881801612675
1746409998547805200,0.23680517578125,0.4694935347542166,-0.38714579867422577,0.9631833531320094
1746409998557778200,0.246778076171875,0.5083788534656166,-0.23214579109847544,0.8012304576784371
1746409998567751200,0.256751220703125,0.5372302694186568,-0.2359387536406517,0.44058074400275943
1746409998577725200,0.26672509765625,0.5696998758688568,-0.33699791219234465,0.1822144699767232
1746409998587698000,0.276697998046875,0.6131897657662629,-0.118306645950675,0.21167057382464408
1746409998597671000,0.2866708984375,0.5149000719279051,-0.008530512458086014,0.35453532244861125
1746409998607644200,0.29664404296875,0.3389639515683055,-0.10290390963554381,0.4244894409015775
1746409998617617200,0.3066171875,0.15871698227226733,-0.10100421349406241,0.4045671813353896
1746409998627590000,0.31658984375,-0.1545244990184903,0.0003647416591644287,0.4378630094766617
1746409998637563000,0.32656298828125,-0.42931350005716085,-0.04544365431368351,0.35594898863881824
1746409998647536000,0.3365361328125,-0.5214458403095603,0.05912672722935676,0.0721089583992958
1746409998657509000,0.346509033203125,-0.5607870860949158,-0.14637714065909385,-0.13597849624156952
1746409998667482000,0.356482177734375,-0.40661242342740295,-0.26652210795283315,-0.06902589769214391
1746409998677454800,0.366454833984375,-0.1806950053244829,-0.01977320648431778,0.23086335007250308
1746409998687428000,0.376427978515625,-0.03421089715957641,0.09390577966570854,0.2924979684695601
1746409998697401000,0.386401123046875,0.021324819840490818,0.08334463816285133,0.0839323749229312
1746409998707374000,0.3963740234375,0.10513502968847752,-0.017671850290894506,-0.18263094182312486
1746409998717347000,0.40634716796875,0.12608663230240344,-0.07391688460409641,-0.25688714138418434
1746409998727320000,0.416320068359375,0.06661942107230424,-0.023925065466761587,-0.17932605505883692
1746409998737293000,0.42629296875,0.09254296687990426,0.07415478501319885,-0.013174538871645927
1746409998747266000,0.43626611328125,0.06047843409925699,0.0264472774207592,-0.024856208837032316
1746409998757239000,0.446239013671875,0.027616321200132368,-0.1306722065269947,-0.1968357005253434
1746409998767212000,0.4562119140625,0.15703472827374934,-0.43665480273067947,-0.3560249764844775
1746409998777185000,0.46618505859375,0.060840545409917825,-0.17749825510978698,-0.012760989634692669
1746409998787158000,0.476157958984375,-0.24215280584990978,0.09696107558310031,0.31782939360290763
1746409998797131000,0.486131103515625,-0.5194020595222711,-0.08615501940846443,0.3384691537886858
1746409998807104000,0.49610400390625,-0.8792489323824644,0.03963759838342666,0.2797960155457258
1746409998817077200,0.5060771484375,-1.3827198478013276,0.36346798596680163,0.2845093078032136
1746409998827050000,0.516050048828125,-1.5879232714384792,0.5100023630142212,-0.033684535197913645
1746409998837023000,0.52602294921875,-1.0740636484742163,0.4486240574657917,-0.6032520168587565
1746409998846996000,0.535995849609375,-0.37312779471576213,0.38936581281125543,-0.745608815960586
1746409998856969200,0.54596923828125,0.12592208939045668,-0.12057342183887958,-0.561722905640304
1746409998866942200,0.555942138671875,0.31136954993903637,-0.36871757705807684,0.0885831233382225
1746409998876915000,0.5659150390625,0.2413192776352167,-0.30785598886013027,0.676609221753478
1746409998886888000,0.575887939453125,-0.009381868590414524,-0.46074996406733987,0.8143649568006396
1746409998896861200,0.585861083984375,-0.35425650550723076,-0.7772498626321553,0.5071256385341286
1746409998906834200,0.595834228515625,-0.4433426099315285,-0.4876479078650474,0.4511886472567916
1746409998916807200,0.60580712890625,-0.4913049690678715,-0.10191665216386317,0.4904012982264161
1746409998926780000,0.61577978515625,-0.3705973994553089,0.0048848494321107865,0.29828005900233984
1746409998936753200,0.625753173828125,0.04333703742325306,0.08620528829097747,0.18312047890573738
1746409998946726100,0.63572607421875,0.29741204399615523,0.08043371915221213,0.2906426959916949
1746409998956699100,0.64569921875,0.49863925747871396,0.22978081553280352,0.06779577137529849
1746409998966672000,0.655671875,0.6398147378414869,0.3078466365098953,-0.25680413927584883
1746409998976645000,0.66564501953125,0.3424988476961851,0.25804420246481896,0.00400280590057373
1746409998986618000,0.6756181640625,-0.13192162206619978,0.18365560869574546,0.33449323589503765
1746409998996591000,0.685591064453125,-0.40482612453252076,-0.0854331348747015,0.5285571336194873
1746409999006564000,0.695564208984375,-0.7154001401796937,-0.07711305029690266,0.8264695283532142
1746409999016536800,0.705536865234375,-0.8133172013133764,0.05542787271142006,0.817150495865941
1746409999026510000,0.715510009765625,-0.5073708454668522,-0.22221768680214882,0.3614136837854981
1746409999036483000,0.725483154296875,-0.017191957819461822,-0.24732640909552572,-0.045049978820979594
1746409999046456000,0.7354560546875,0.4605658396720886,-0.018172201028466225,-0.19837328535616397
1746409999056429000,0.745428955078125,0.892625423566997,0.12233166368305683,-0.4144590452745557
1746409999066402000,0.755402099609375,1.274408818425238,0.33934184496998787,-0.7091790737077593
1746409999076375000,0.765375,1.2705255472511052,0.4232435324937105,-0.8298577094867825
1746409999086348000,0.77534814453125,1.014100762681663,0.016845920860767364,-0.8076169438451528
1746409999096321000,0.785321044921875,0.7253346742168069,-0.03998363534212112,-0.5084332140013575
1746409999106294300,0.795294189453125,0.3620785774350166,0.21498481293916702,-0.030559096653759478
1746409999116267000,0.80526708984375,0.01071224041134119,0.08821370550394057,0.15456044711470604
1746409999126240000,0.815239990234375,-0.2258645188719034,-0.2050298206359148,0.21774843243360517
1746409999136213000,0.825212890625,-0.4174339694321155,0.07639818002581596,0.3604845862418413
1746409999146186200,0.835186279296875,-0.4188946896344423,0.40336861920058725,0.17057342428267
1746409999156159200,0.8451591796875,-0.17738924177736043,0.31467268313765523,-0.49165422089695926
1746409999166132000,0.855132080078125,0.17196487864106894,0.27632687813043594,-1.037694696497917
1746409999176105000,0.86510498046875,0.40508185285925863,0.504041993305087,-1.1018640940696
1746409999186078000,0.875077880859375,0.4784285363599658,0.4317325438976288,-1.0314888275951146
1746409999196052000,0.885052001953125,0.500908955976367,-0.06294248612523079,-1.0801225101217626
1746409999206025200,0.895025146484375,0.5825067504718899,-0.2810813791811466,-0.8542448395073413
1746409999215998200,0.904998291015625,0.5736144189640879,-0.020904840862751007,-0.3088949765190482
1746409999225971000,0.914970947265625,0.49670858167707915,0.06109948860704899,0.012830840000510215
1746409999235944000,0.92494384765625,0.40093087065964933,-0.03313420783877372,0.021505729365348815
1746409999245917200,0.934917236328125,0.37847207835316654,-0.043050037175416944,-0.02566168000102043
1746409999255890200,0.94489013671875,0.42566929833590983,0.050827685439586635,-0.052229953452944754
1746409999265863000,0.95486279296875,0.4389259625330567,0.14119301601946352,0.004482406111061573
1746409999275836000,0.9648359375,0.4038002886161208,0.11241408078074455,-0.08747633114010095
1746409999285809200,0.97480908203125,0.37519787898808715,0.0111801501840353,-0.32279344575107094
1746409999295782100,0.9847822265625,0.4334738346070051,-0.04420505242943763,-0.4409782188877463
1746409999305755100,0.994755126953125,0.45934477344453334,0.047912090253829955,-0.33419103807806966
1746409999315728000,1.004727783203125,0.3327504838809371,0.13042027759253977,-0.15598580374270676
1746409999325701000,1.014701171875,0.05775982279032468,0.0424199225783348,-0.06633271308541297
1746409999335674000,1.024674072265625,-0.1764601442337036,0.01913081692755222,-0.11096797362565994
1746409999345647000,1.034647216796875,-0.25148323651403187,-0.0773854374974966,-0.2003022075921297
1746409999355620000,1.0446201171875,-0.21563070962727068,-0.08584522280693054,-0.17434066786170005
1746409999365592800,1.0545927734375,-0.14303601353764533,0.002264437800645828,-0.04794745382815599
1746409999375566000,1.064566162109375,-0.06464665969461202,0.13669628912210463,-0.003001227642595768
1746409999385539000,1.0745390625,0.03962853829413652,0.23896599250733852,-0.06411123764365911
1746409999395512000,1.084511962890625,0.08564823893010616,0.11400924101769923,-0.2508946229711175
1746409999405485000,1.094485107421875,0.11304039598554372,-0.016965163326263428,-0.33237171369642016
1746409999415458000,1.1044580078125,0.09595832828134297,0.02022153477370739,-0.32996172994524237
1746409999425431000,1.11443115234375,-0.0039770869374275205,-0.0018669629156589508,-0.2929620788499713
1746409999435404000,1.124404052734375,-0.12051876904219389,-0.11065291632711886,-0.21713059279620647
1746409999445377000,1.134376953125,-0.1499263575732708,-0.10242927786111831,-0.06389496454447507
1746409999455350300,1.144350341796875,-0.12058628132045268,-0.001277180328965187,0.12375438996255397
1746409999465323000,1.154322998046875,-0.1899848117172718,0.019582067826390267,0.16787468671798705
1746409999475296000,1.1642958984375,-0.2275476496532559,-0.009869652107357978,0.08061930485218763
1746409999485269000,1.17426904296875,-0.18508359567224977,0.05578618462979793,0.0012137597039341926
1746409999495242200,1.1842421875,-0.21102292357087135,0.056768181404471395,-0.07443973943442106
1746409999505215200,1.19421533203125,-0.22836393447220324,-0.014542320093512534,-0.19375380886197088
1746409999515188000,1.20418798828125,-0.20054946035146712,-0.027640286597609517,-0.21032675800025463
1746409999525161000,1.214160888671875,-0.1383136611908674,0.05289513936340808,-0.10225742842555045
1746409999535134000,1.224134033203125,-0.10896014093458652,0.21270108591616152,0.01919832920581102
1746409999545107200,1.234107177734375,-0.21974457468688488,0.29721710594594475,-0.07325140643268824
1746409999555080200,1.244080078125,-0.45362084283977744,0.14791910940408706,-0.29182722960114477
1746409999565053000,1.254052978515625,-0.3627914018794894,0.15401684175729752,-0.2825403458178043
1746409999575026000,1.26402587890625,-0.07349632110446691,0.45266953346431255,-0.02183218484073877
1746409999584999200,1.273999267578125,0.13116057456582783,0.3539297577708959,0.24952801079303025
1746409999594972200,1.28397216796875,0.27202596606612206,0.06187690272033214,0.3071668375521898
1746409999604945000,1.29394482421875,0.45622488785833115,-0.11391747108101843,0.36000294020473955
1746409999614918000,1.30391796875,0.556698647737503,-0.19514672452509402,0.4830678865984082
1746409999624891100,1.31389111328125,0.5943915417939424,-0.2336380754828453,0.5631152367815375
1746409999634864000,1.323864013671875,0.5780260979264974,-0.2405430325657129,0.5694146291866898
1746409999644837000,1.333837158203125,0.5693216902062297,-0.2799082437485456,0.6027081192404031
1746409999654809900,1.343809814453125,0.641754181471467,-0.13220014674663544,0.6124190736547113
1746409999664783000,1.353783203125,0.7219868250936269,-0.02816226464509964,0.29830870057493447
1746409999674756000,1.363756103515625,0.686950583025813,0.020898411121964455,0.0240203425347805
1746409999684729000,1.37372900390625,0.4563789093762636,0.05910042374432087,0.16398147867172955
1746409999694702000,1.3837021484375,0.12793094499483704,0.02429974399805069,0.32062486954033376
1746409999704675000,1.393675048828125,-0.24132220024466514,-0.18955051195323466,0.31309798116683957
1746409999714648000,1.40364794921875,-0.5054734874129295,-0.315437822291255,0.3790843650326133
1746409999724621000,1.41362109375,-0.6963225147441029,-0.2928068882882595,0.4459738352179527
1746409999734594000,1.423593994140625,-0.7926625358194113,-0.19076164130866527,0.3744900229796767
1746409999744567000,1.433567138671875,-0.7116084928117692,-0.1044382795959711,0.20458675304353235
1746409999754540000,1.4435400390625,-0.6139145729094744,-0.032635026144981386,0.11027268483787775
1746409999764513000,1.453512939453125,-0.466225472868979,0.041945290803909296,-0.010064590157568455
1746409999774486000,1.463486083984375,-0.3785752464666962,0.019305004450678825,-0.13625760544389484
1746409999784459000,1.473458984375,-0.2899070751935243,-0.006536708292365074,-0.20626345408409832
1746409999794432300,1.483432373046875,-0.2086287219107151,0.011177227574586867,-0.23764760338515042
1746409999804405000,1.493405029296875,-0.2526543261200189,0.020365911680459974,-0.19734511135220525
1746409999814378000,1.5033779296875,-0.3436410034686327,-0.005695581293106078,-0.17290478983968496
1746409999824351000,1.51335107421875,-0.4767997661143541,-0.016198855128884315,-0.16579904948771
1746409999834324200,1.52332421875,-0.5472179949477315,0.01167991639971733,-0.1336588211223483
1746409999844297200,1.533297119140625,-0.47382338065207,-0.02617372117638588,-0.06978285353928804
1746409999854270000,1.54327001953125,-0.3041039428502321,-0.07378595170080661,-0.0502718051224947
1746409999864243000,1.553242919921875,-0.06316109731197357,-0.05284077882766723,-0.11727087316215037
1746409999874216200,1.56321630859375,0.04404197082221508,-0.08940262302756309,-0.12237900995612144
1746409999884189200,1.573189208984375,0.09016600861549377,-0.15397650974690913,-0.08356091126203537
1746409999894162000,1.583161865234375,0.14714052624702453,-0.20339257482290266,-0.009437398169934748
1746409999904135000,1.593135009765625,0.06859364375472068,-0.14880407554507255,0.045429041266441345
1746409999914108200,1.603108154296875,-0.10713058741986752,-0.1606008963227272,0.03688596158772707
1746409999924081200,1.6130810546875,-0.26803485060334203,-0.11273381425440311,0.03348462871164083
1746409999934054100,1.62305419921875,-0.3357831295751035,-0.035196985587477685,0.02713642872869968
1746409999944027000,1.63302685546875,-0.3499754671871662,-0.029066520008444785,-0.025298984168469905
1746409999954000000,1.642999755859375,-0.2928448822110891,-0.024531214666366576,-0.05994301204830408
1746409999963973000,1.65297314453125,-0.15704627258107065,0.014468085813522338,-0.12341361370086669
1746409999973946000,1.662946044921875,-0.019408172564208508,-0.09160802411735057,-0.10845073010772466
1746409999983919000,1.672919189453125,0.07861059537827968,-0.1096235732793808,-0.053856385610997676
1746409999993891800,1.682891845703125,0.18744301827996968,-0.1057978775113821,-0.04499386471956968
1746410000003865000,1.692864990234375,0.13696779953986404,-0.05041559750735759,-0.05163140303790569
1746410000013838000,1.702838134765625,0.05514321055114269,0.04424012374281883,-0.08764350440055131
1746410000023812000,1.71281201171875,-0.03720511053949594,0.09501812482178211,-0.09902794498503208
1746410000033785000,1.72278515625,-0.12899974327012895,0.10338555567264557,-0.08342325635701417
1746410000043758000,1.732758056640625,-0.17299392942786215,0.18044599899947641,-0.06012684418261051
1746410000053731000,1.74273095703125,-0.15329086557030677,0.24581308192312715,-0.18159984520971775
1746410000063704000,1.7527041015625,-0.14260025246888397,0.22868191438019275,-0.2358639348387718
1746410000073677000,1.762677001953125,-0.14695990898311137,0.16779226913154124,-0.13715426202267408
1746410000083650000,1.772650146484375,-0.087218849247694,0.07647241430580616,-0.09454203174263238
1746410000093623000,1.782623046875,-0.019511925199627876,-0.004518938729166984,-0.08042816619426012
1746410000103596000,1.792595947265625,0.023868951365351675,-0.03918985461592674,-0.04138414978981018
1746410000113569000,1.802569091796875,0.05797083519250154,-0.04551730407178402,0.01378916363865137
1746410000123542000,1.8125419921875,0.11282938358336686,-0.04979249717295169,0.0515416789278388
1746410000133515000,1.822514892578125,0.09827245044261217,-0.013351064482331275,0.0882145822867751
1746410000143488300,1.83248828125,0.16083835834041238,0.035850481060147286,0.10490823519527911
1746410000153461000,1.8424609375,0.18816022663861512,0.028567922836542126,0.13448504281342027
1746410000163434000,1.85243408203125,0.1677171580687165,0.08706044381558894,0.2166948317274451
1746410000173407000,1.862406982421875,0.1473030233323574,0.05556289726793766,0.3181649091675877
1746410000183380200,1.872380126953125,0.14112375017553566,0.03212415401339531,0.42981472757756706
1746410000193353000,1.88235302734375,0.12723814042508602,0.07597323261201382,0.5011816354379057
1746410000203326000,1.892325927734375,0.10310147803425788,0.04333996003270149,0.5128659357517957
1746410000213299000,1.902298828125,0.04145794567838311,0.0636170243859291,0.4636065225422382
1746410000223272200,1.912272216796875,-0.04560848948657512,0.059926937696337695,0.42910745609104634
1746410000233245200,1.9222451171875,-0.11289660360068082,0.07742635402977466,0.39614246733933683
1746410000243218000,1.932218017578125,-0.15574761107265947,0.08608896843492984,0.3125412240669131
1746410000253191000,1.94219091796875,-0.20209610527157781,0.10102408723831176,0.26132512383162976
1746410000263164200,1.9521640625,-0.26130291199982164,0.08640694834291934,0.21352263143211603
1746410000273137200,1.96213720703125,-0.2657426480129361,0.037467853128910066,0.17241759084463118
1746410000283110100,1.972110107421875,-0.2525117027789354,-0.021733108380436895,0.16896014386713504
1746410000293083000,1.982082763671875,-0.22233400665819644,-0.050824762830138204,0.1483177533328533
1746410000303056100,1.99205615234375,-0.2052566151291132,-0.15490765311717986,0.026365152095258235
1746410000313029000,2.002029052734375,-0.19761165333390235,-0.20824352198541163,-0.08882540766149759
1746410000323002000,2.012002197265625,-0.27136355663463474,-0.16989128723740576,-0.12088321844041347
1746410000332975000,2.02197509765625,-0.4362637575864792,-0.2653554022610187,-0.2155430313438177
1746410000342947800,2.03194775390625,-0.5737824690073728,-0.41161563854217526,-0.2980965191289782
1746410000352921000,2.041921142578125,-0.6506072038821875,-0.5738613794624805,-0.3068982497438788
1746410000362894000,2.05189404296875,-0.6406750079326331,-0.7138911969214677,-0.3319417978465557
1746410000372867000,2.0618671875,-0.5026537538170814,-0.95889296246171,-0.2928121489852667
1746410000382840000,2.071840087890625,-0.42127018659412857,-1.312544487813115,-0.2086950651451945
1746410000392813000,2.08181298828125,-0.21571955695450304,-1.9630776035457849,-0.22554273957163093
1746410000402786000,2.0917861328125,0.012930793243646621,-2.7768179987072945,-0.3287380333691835
1746410000412759000,2.101759033203125,0.24252280820608138,-3.5900627193063497,-0.37681671236157416
1746410000422732000,2.11173193359375,0.400515567857027,-4.283402711108327,-0.2596981071516871
1746410000432705300,2.121705322265625,0.617145225393772,-4.697430671489238,-0.09646540102064609
1746410000442678000,2.131677978515625,0.8542571144670248,-4.860017188671231,-0.018068156132102012
1746410000452651000,2.141651123046875,1.0380683521158993,-4.931605338066816,0.0359478039547801
1746410000462624000,2.1516240234375,1.105581361027062,-4.903413847327232,0.03837181623131036
1746410000472597200,2.16159716796875,1.2793467132188379,-4.606084513178468,0.18423516214936972
1746410000482570200,2.1715703125,1.5238666865915058,-4.680485966429114,-0.09045330112427473
1746410000492543000,2.18154296875,1.5537334170669317,-4.873219784593582,-0.015602935062348841
1746410000502516000,2.191515869140625,1.3506338338412345,-4.933568162572383,0.3048863253995776
1746410000512489000,2.201489013671875,1.3033213169157505,-4.790681786638498,0.2587406602963805
1746410000522462200,2.211462158203125,1.1253735644727945,-5.029400526386499,-0.017822656938433646
1746410000532435000,2.22143505859375,1.0540484499275684,-5.381151771074533,-0.18420622831583022
1746410000542408000,2.231407958984375,1.3253537005037068,-5.348180060321092,-0.14310703294724225
1746410000552381000,2.241380859375,1.4709864525362848,-4.550421662667393,0.3396332291319966
1746410000562354200,2.251354248046875,1.4649687996819614,-3.5802661324352023,0.7953025289341807
1746410000572327200,2.2613271484375,1.356644326302409,-3.4604034892141815,0.9023828474715352
1746410000582300000,2.2712998046875,1.105764024117589,-3.910853008541465,0.410204310439527
1746410000592273000,2.28127294921875,0.8419529286891222,-4.055732604119181,-0.2605100080564618
1746410000602246100,2.29124609375,0.5741249988347291,-4.032818176999688,-0.6719885762155056
1746410000612219100,2.30121923828125,0.9770056883879006,-3.807200910887122,-0.05164455478042364
1746410000622192000,2.311192138671875,1.4642146203137933,-2.698520122539997,0.6606207945048809
1746410000632164900,2.321164794921875,1.7316437601089476,-2.007449829235673,-0.2008496123418212
1746410000642138000,2.33113818359375,1.6776462124615907,-1.6686609419733285,-1.6173475188434123
1746410000652111000,2.341111083984375,1.342514240271598,-0.8370312543779611,-2.618488554447889
1746410000662084000,2.351083984375,1.1535536570355296,-1.008279801443219,-3.6504499679908156
1746410000672057000,2.36105712890625,0.9468342758774757,-1.8105208974689244,-4.03065018531084
1746410000682030000,2.371030029296875,1.2989946858882904,-1.80646373103261,-3.2057673416271806
1746410000692003000,2.381003173828125,2.0052552418008447,-1.5489830076694489,-2.043081699109077
1746410000701976000,2.39097607421875,2.7111072169125077,-1.4611696996599435,-1.1424290364310146
1746410000711949000,2.400948974609375,3.1394357975855467,-0.3084656451910734,-0.21291268284022807
1746410000721922000,2.410922119140625,2.9617177622452378,1.0999567991435528,-1.0082029368147254
1746410000731895000,2.42089501953125,1.9199505556114016,0.9488438621342181,-3.8018230172410603
1746410000741868000,2.430867919921875,0.6042199851080775,0.6912725378781557,-5.367936900192499
1746410000751841000,2.440841064453125,-0.47332010730504986,0.27975042283833024,-4.995495918697118
1746410000761814000,2.45081396484375,-1.2084668582230806,-0.04536006768345833,-3.229403361019492
1746410000771787300,2.460787353515625,-1.9510380600534378,0.16435586494207383,-1.5553464052215218
1746410000781760000,2.470760009765625,-2.666318227115273,0.7207558219939469,-0.9895791926264762
1746410000791733000,2.48073291015625,-3.0415795267283916,1.9013135135501622,-1.006666813288629
1746410000801706000,2.4907060546875,-3.42439284915626,3.5110125634670255,-0.6725508862733841
1746410000811679200,2.50067919921875,-4.063995990073681,4.43916142809689,-0.5506202046066522
1746410000821652200,2.51065234375,-4.559295289474726,4.872137834575772,-0.3490729653894901
1746410000831625000,2.520625,-4.435464327144622,6.014284839195013,-0.3680009532213211
1746410000841598000,2.530597900390625,-3.9621909815907475,7.759696427893638,-1.159433070462942
1746410000851571200,2.5405712890625,-3.9475697510421273,8.85987768344283,-2.496205990603566
1746410000861544200,2.550544189453125,-4.4298549628302455,9.135001615524292,-3.301693521204591
1746410000871517000,2.560516845703125,-4.984989722251892,10.103415270525216,-3.280315802133083
1746410000881490000,2.570489990234375,-5.810283777084947,11.474068832957744,-3.1173008304059504
1746410000891463200,2.580463134765625,-7.065591881459951,13.124496783626078,-3.4036370613753792
1746410000901436200,2.590436279296875,-8.950047199189662,14.01466283134222,-4.241786506128311
1746410000911409200,2.6004091796875,-10.631141506278514,13.21506143617034,-4.327697195386886
1746410000921382000,2.6103818359375,-11.024213772392272,11.21138937190771,-2.1913889310479164
1746410000931355000,2.62035498046875,-9.379032490205764,8.835663279640674,0.9106710756063461
1746410000941328100,2.630328125,-6.827933464419841,6.9418883449018,2.9656770212650296
1746410000951301000,2.640301025390625,-4.617032023650408,5.560151078397035,3.8936797554224727
1746410000961274000,2.650274169921875,-2.463857964706421,4.66838870140016,4.128013411954045
1746410000971246800,2.660246826171875,-0.7323983289927244,4.763201074516773,3.8955280136376618
1746410000981220900,2.670220947265625,0.7853069123595953,4.3033007130160925,3.2871874414682387
1746410000991193900,2.68019384765625,3.328563992473483,3.653706631699204,2.91515328720808
1746410001001166800,2.690166748046875,6.062594988855719,3.6034295658797024,2.360737781971693
1746410001011139800,2.700139892578125,8.16451115424931,3.208356481337547,0.9320622386813163
1746410001021112800,2.71011279296875,9.677268417805433,3.0581074676811695,-0.6573690992325544
1746410001031085800,2.7200859375,10.02658805143237,3.4642961127385496,-1.1582540898114442
1746410001041058800,2.730058837890625,8.980741612660884,4.099737750062347,-0.440592726701498
1746410001051031800,2.74003173828125,6.746026750105619,5.376006809401511,0.522099043521285
1746410001061004800,2.7500048828125,3.789483467888832,5.782696097457409,0.2847410707324743
1746410001070978000,2.75997802734375,0.2811521063297987,4.458966783285141,-0.8601040869295596
1746410001080950800,2.76995068359375,-3.2224305993974207,3.4691657646015286,-2.801117742705345
1746410001090923800,2.779923828125,-5.695220643100142,1.4384727146834133,-5.078016965517401
1746410001100896800,2.789896728515625,-6.793644241327047,-0.36574926530439406,-5.079952902016044
1746410001110869800,2.799869873046875,-7.007478715187311,-1.9593197123169899,-1.9224860654383897
1746410001120843000,2.809843017578125,-6.487644693988561,-3.2473192491993306,2.191470764112472
1746410001130815700,2.819815673828125,-5.936954346755146,-2.830768200081587,4.354928316661716
1746410001140788700,2.829788818359375,-6.011123744815587,-2.27104611286968,4.288474023023247
1746410001150761700,2.83976171875,-6.535143527266383,-1.597259401191026,2.642947872921824
1746410001160735000,2.84973486328125,-7.848470689889788,-1.4215376542344689,0.023543957194685935
1746410001170708000,2.8597080078125,-9.865195712471008,-2.588874337428808,-2.8844156191170214
1746410001180680700,2.8696806640625,-11.24745904867649,-4.982327809566259,-5.601289728993177
1746410001190653700,2.87965380859375,-10.09305871168375,-7.050469131129979,-6.383325656858086
1746410001200627000,2.889626953125,-7.665100912398099,-8.011347129929066,-3.680203593480587
1746410001210600000,2.899599853515625,-6.191022631326318,-7.918984488052129,0.8761199867069721
1746410001220573000,2.909572998046875,-5.2131011432677505,-7.676842788118123,5.491355774590373
1746410001230545700,2.919545654296875,-4.0379742445886135,-7.2420087710738175,8.461803663519024
1746410001240519000,2.929518798828125,-2.922511248755455,-6.044262044307589,8.845297369426488
1746410001250492000,2.939491943359375,-2.6064450654327866,-4.381078364701569,5.564409320363402
1746410001260465000,2.94946484375,-0.983477368620038,-2.4477502949923275,0.1966372553437948
1746410001270438000,2.95943798828125,2.2408178556054827,-0.6316331849515437,-3.6779034998446702
1746410001280411000,2.969410888671875,4.963960962748527,-0.23950550621151923,-5.086109671080112
1746410001290384000,2.9793837890625,4.871183894851804,-0.8187249055758118,-3.1287966224104165
1746410001300356900,2.98935693359375,2.608722362715006,-1.6504527928486465,0.1615770478785038
1746410001310329900,2.999329833984375,0.330768077892065,-1.8645815734803675,1.6641893495172262
1746410001320302800,3.009302734375,-0.8689291984200477,-1.866082041171193,1.661845124478638
1746410001330275800,3.01927587890625,-0.830339647784829,-1.335931793141365,1.5993933444797992
1746410001340248800,3.029248779296875,1.0486106427878141,0.8082099413022399,-0.2523880763992667
1746410001350221800,3.039221923828125,4.515300664925575,3.4448759574756025,-5.1345373096406455
1746410001360194800,3.04919482421875,6.936307914420962,3.9114384072139856,-8.896123885822295
1746410001370167800,3.059167724609375,6.766750389182567,2.200885950450599,-8.909441632556915
1746410001380140800,3.069140869140625,5.40758501996994,-0.1319914724320173,-5.531241794776916
1746410001390113800,3.07911376953125,4.275528616732359,-3.7311265559881925,-0.5575587716981768
1746410001400086800,3.089086669921875,4.484620279979706,-5.821128411704302,4.20432157560885
1746410001410060000,3.09906005859375,5.300126515769958,-3.4848376732468602,5.935141744375229
1746410001420032800,3.10903271484375,4.35180521620512,-2.2164099750578403,4.352682583561539
1746410001430005800,3.119005859375,2.163436509761214,-2.4881302361756563,2.2295544110521672
1746410001439978800,3.128978759765625,-0.04188333148360252,-2.172846873793751,-0.5947054300487041
1746410001449952000,3.138951904296875,-2.391504676157236,-2.6100299381822345,-3.5654543477505443
1746410001459925000,3.148925048828125,-4.242817602741718,-3.565093113222718,-4.336270962464809
1746410001469897700,3.158897705078125,-4.4370963122606275,-3.4222073218107223,-1.667141769582033
1746410001479870700,3.16887060546875,-3.5340789662778374,-1.8484202738828956,1.684544885934144
1746410001489844000,3.178843994140625,-3.2328567163437603,0.030598405750840902,2.3159030533365903
1746410001499817000,3.18881689453125,-3.802331259024143,0.5106298472627997,0.5417204204447568
1746410001509790000,3.1987900390625,-4.688429034388065,0.601738032099232,-1.378758689085394
1746410001519762700,3.2087626953125,-6.019447336524725,2.810116164936125,-1.7419430358052252
1746410001529735700,3.218735595703125,-17.233821277201173,20.87986073527336,12.248731017184257
1746410001539709000,3.228708984375,26.088568027496336,1.0140198794651776,-17.605654355931282
1746410001549682000,3.238681884765625,44.63028508992195,-17.378882074564693,-29.920094985866545
1746410001559655000,3.248655029296875,1.092896943759918,-8.173530911529063,-4.969085466155409
1746410001569627600,3.258627685546875,-10.303267980784177,8.641320857235788,-0.7301079530332237
1746410001579601000,3.268600830078125,-5.5628281886518,11.961115852320194,2.4210437821134922
1746410001589574000,3.278573974609375,-5.697442995324731,0.6124984955664724,-1.057647789593786
1746410001599547000,3.288546875,-6.28993776358664,-4.647102167743444,-2.143460035789758
1746410001609519900,3.298519775390625,-5.45003241507709,-1.9375915723726151,0.6111279743982478
1746410001619492900,3.308492919921875,-2.245164944899082,0.4164422184484079,4.0609839487761255
1746410001629465900,3.3184658203125,5.12007506904602,-0.09873939210092648,8.4552646171391
1746410001639438800,3.32843896484375,16.73762882835269,-2.900760020196438,13.608671462422608
1746410001649411800,3.338411865234375,12.301312268292904,-4.195984247635304,8.67744314097464
1746410001659385000,3.348385009765625,-2.6990917849481106,-1.10307639246881,-0.49913595495447516
1746410001669357800,3.35835791015625,-7.853474781787395,1.7832687334060668,-2.157483738836646
1746410001679330800,3.368330810546875,-8.391064239907264,0.13633128260145894,-3.4517069725394247
1746410001689303800,3.3783037109375,-3.467762619805336,-2.158995166312903,-1.2811271668948232
1746410001699276800,3.38827685546875,8.279942537024617,-2.303307045005262,3.895998846019804
1746410001709249800,3.398249755859375,6.28167437763214,-0.9797642663810402,1.0131433888915926
1746410001719222800,3.408222900390625,-3.0429765340447426,0.3666157824732363,-1.442951321402192
1746410001729195800,3.41819580078125,-0.21546236732304094,1.153708409205824,0.24153927706144748
1746410001739168800,3.428168701171875,1.0462503433972596,0.7814804859392345,0.6954935165740549
1746410001749142000,3.43814208984375,-0.04070084370076656,1.1637872470844537,0.3047561962138861
1746410001759114800,3.44811474609375,0.1193476794362068,1.4654258957996964,-0.1251644942224957
1746410001769087700,3.458087646484375,0.3291536284327507,1.124229728199914,0.010663314102543517
1746410001779060700,3.468060791015625,0.21332360172867773,0.7421217044971883,0.17129620386557654
1746410001789034000,3.478033935546875,0.09479659102559089,0.590579436159879,0.16896838197251782
1746410001799007000,3.488007080078125,0.014877251136302947,0.5327108557654544,0.11284385050013661
1746410001808979700,3.497979736328125,0.0719955611526966,0.4553169061679393,0.22626045938692985
1746410001818952700,3.50795263671875,0.24663667326569555,0.63492981534414,0.44463228441588576
1746410001828926000,3.517926025390625,0.18235680105686186,0.9400738418318331,0.3627501200210303
1746410001838899000,3.52789892578125,-0.04632745141088962,0.9735531367812306,0.2518314836961217
1746410001848872000,3.537871826171875,-0.16796996378600595,0.5805712158320472,0.18607841539587824
1746410001858844700,3.5478447265625,-0.21754034264087677,0.07343295527836308,0.13145402282075955
1746410001868818000,3.55781787109375,-0.14911504119038582,-0.467319953574799,0.2271484577352181
1746410001878791000,3.567791015625,-0.08404255729913711,-0.7292021632999182,0.2523644397953525
1746410001888764000,3.577763916015625,-0.19277473469674586,-0.7338432671040296,0.393306184467487
1746410001898737000,3.58773681640625,-0.45443303600549695,-0.645532823227346,0.35588896554727106
1746410001908710000,3.5977099609375,-0.7300596569120884,-0.6054022902278229,0.16446939005283637
1746410001918683000,3.607682861328125,-0.5016483761668205,-0.6074882296564057,0.030019290688633918
1746410001928656000,3.61765576171875,-0.012518120789527892,-0.528771580087766,-0.15307680269451812
1746410001938628900,3.62762890625,0.09654606504142284,-0.1954063983745873,0.010709463932365179
1746410001948601900,3.637601806640625,-0.013902853146195411,0.04120787990745157,0.25137181202881037
1746410001958574800,3.647574951171875,0.10598784712553024,0.18649114264892414,0.4019240464154631
1746410001968547800,3.6575478515625,0.33127953454554077,0.513756052991934,0.5750633391307667
1746410001978520000,3.66752001953125,0.26973990095555783,0.4613285311402753,0.8593973268996924
1746410001988493300,3.677493408203125,0.20415245327949522,0.36901703492868687,0.9435617570128292
1746410001998466300,3.68746630859375,0.12959493268430233,0.3194763570923358,0.6981106402698903
1746410002008439300,3.697439208984375,-0.11625614316165446,0.13050149873574263,0.045306730061024425
1746410002018412000,3.707412109375,-0.4710065696656704,-0.22602650450058281,-0.8816793743997812
1746410002028385300,3.71738525390625,-0.5055471371710301,-0.3639540889833122,-1.0082887154020368
1746410002038358300,3.727358154296875,-0.08812836530804634,-0.15540427752770483,-0.44655941655356435
1746410002048331300,3.737331298828125,0.20500001001954077,0.07151362285465002,0.21828546191975473
1746410002058304300,3.74730419921875,0.18316402578651905,0.2697199724123813,0.4493520794793963
1746410002068277200,3.75727734375,0.06107727677524089,0.2591068815265782,0.277485838907212
1746410002078250200,3.767250244140625,-0.033927988564968106,0.16816400678707286,0.01608425458917627
1746410002088223200,3.77722314453125,-0.08001578600108623,0.06896734503847546,-0.1593585498451255
1746410002098196200,3.7871962890625,-0.08167173651456833,-0.042800482861138876,-0.19942374425716697
1746410002108169200,3.797169189453125,-0.056090720534324644,-0.06832672731368802,-0.1764818994077854
1746410002118142200,3.80714208984375,-0.00790975021123886,-0.02195580208725296,-0.07841078022355213
1746410002128115200,3.817115234375,0.028318916511535643,0.08662105688448063,-0.01582418573074974
1746410002138088200,3.827088134765625,0.06546060642600059,0.19025391098223626,0.03232388696973212
1746410002148061200,3.837061279296875,-0.01965980923771858,0.05305571848629042,-0.03506749115602579
1746410002158034400,3.847034423828125,-0.0982125369489193,-0.050870264205988495,-0.14516157259056345
1746410002168007200,3.857007080078125,-0.03954758201241493,-0.1051062602517195,-0.1485257974598091
1746410002177980200,3.866980224609375,-0.06439326945543289,-0.177737744687777,-0.20184744600644333
1746410002187953200,3.876953125,-0.10735562834739684,-0.13247582188285886,-0.17389730800837278
1746410002197926400,3.886926513671875,-0.06352233183979988,-0.026345314883626996,-0.024330513595649972
1746410002207899400,3.8968994140625,-0.03150339176654816,0.0024586725979577747,0.03664107431541197
1746410002217872100,3.9068720703125,-0.031044542083144187,-0.0271535899260547,-0.008617779749585315
1746410002227845000,3.91684521484375,-0.06872983735501766,-0.04353062376659363,-0.024668422046815974
1746410002237818400,3.926818359375,-0.07197919453978538,-0.03542519571962766,0.002139888972369954
1746410002247791400,3.936791259765625,0.019527122768759727,0.03236126897120848,0.07229952166848816
1746410002257764400,3.946764404296875,0.11945055528879164,0.11632146348282695,0.14695788142280652
1746410002267737000,3.956737060546875,0.14446926121115683,0.2167170070266351,0.19611432744823395
1746410002277710000,3.9667099609375,0.1447550924152136,0.2511543150869198,0.1451717469247058
1746410002287683300,3.976683349609375,0.16561960126757622,0.23776584120364858,0.11913076701620592
1746410002297656300,3.98665625,-0.12280687997937202,0.28313876836868,0.2774360266824253
1746410002307629000,3.996629150390625,-0.3212964851915836,0.2268993783449754,0.3382888653183356
1746410002317602000,4.00660205078125,-0.37599253649711606,-0.03494708649661624,0.1002631676021032
1746410002327575300,4.0165751953125,-0.3854161984026432,-0.6181465844560414,-0.43329164644051343
1746410002337548300,4.02654833984375,-0.324261180216074,-0.4721191340174526,-0.08845680267796852
1746410002347521300,4.036521240234375,-0.002755436187982559,0.4247692076910287,0.4612602151444182
1746410002357494000,4.046493896484375,0.31710780133008953,0.21193024767413735,-0.023882760694995522
1746410002367467300,4.05646728515625,0.31799978173375126,-0.002568562713218853,0.019470958434999918
1746410002377440300,4.066440185546875,-0.03342179260849953,-0.020165893313044216,0.128895616175374
1746410002387413200,4.076413330078125,0.003071078008413315,0.19082637710794806,0.03215204895060742
1746410002397386200,4.08638623046875,0.23112229326963424,0.18960231520570814,-0.10659638921162112
1746410002407359200,4.096359130859375,0.01759410887956619,0.012465367688983679,0.041077467593969776
1746410002417332200,4.106332275390625,-0.15642974811792373,0.11640049266894348,0.10501769605227745
1746410002427305200,4.11630517578125,0.07312251935601234,0.08747788377637043,0.06585052819219417
1746410002437278200,4.1262783203125,0.029586744490265843,0.0629308778858278,0.06994797183996998
1746410002447251200,4.136251220703125,0.014036708658933639,0.12672432741774245,0.10559363277670927
1746410002457224200,4.14622412109375,0.04682137240767479,0.09691432296507992,0.07648154289375525
1746410002467197200,4.156197265625,0.023943185645341872,0.06960106266501825,0.07816015733019448
1746410002477170200,4.166170166015625,0.010490998876094818,0.07615218307522591,0.06377873145339545
1746410002487142400,4.176142333984375,-0.008496025666594504,0.062499706227215936,0.058258917719149025
1746410002497115100,4.186115234375,-0.006831891846656799,0.06022389308260753,0.08053350799856707
1746410002507089200,4.196089111328125,-0.018334113591909406,0.059840834882040506,0.08628548652087338
1746410002517061000,4.20606103515625,-0.030883798563480374,0.059545646761171515,0.07737336346721276
1746410002527034400,4.216034423828125,-0.02173603098988533,0.05869570626779459,0.08330987737672403
1746410002537007400,4.22600732421875,-0.039673254218697544,0.05440270808187779,0.07593824806360061
1746410002546980000,4.23597998046875,-0.026636662513017655,0.05209166379368398,0.056602999171707774
1746410002556953000,4.245953125,-0.0385901351571083,0.042571966768312264,0.06506642860979772
1746410002566926300,4.25592626953125,-0.04665653723478317,0.049885943043488076,0.06141018482430372
1746410002576899300,4.2658994140625,-0.05472527740001678,0.04124047613595612,0.06954926397912203
1746410002586872300,4.275872314453125,-0.04154781591892242,0.04865826441205572,0.05071395483284723
1746410002596845000,4.285844970703125,-0.0400455946624279,0.05147513933053705,0.05711514081177301
1746410002606818300,4.295818359375,-0.04198620733618736,0.04904804918093141,0.04350032909302972
1746410002616791300,4.305791259765625,-0.03135843033790588,0.05678789988509379,0.06266987516235094
1746410002626764300,4.315764404296875,-0.024324293917417524,0.0670068540538894,0.05316137081785127
1746410002636737000,4.325737060546875,-0.026866964137554166,0.042350588235748,0.046062119572167284
1746410002646710300,4.335710205078125,-0.025070143848657606,0.0407921615462983,0.06482291587723885
1746410002656683300,4.345683349609375,-0.025965631383657452,0.06861308367413002,0.0557614977131132
1746410002666656300,4.35565625,-0.022822072660923003,0.057497267430578355,0.05281476303699892
1746410002676629200,4.365629150390625,-0.03030278380513191,0.05085395239200443,0.04322295519006438
1746410002686602200,4.375602294921875,-0.03359481108784675,0.04786012717115227,0.056766007713694125
1746410002696575200,4.3855751953125,-0.03149930011332035,0.047604901167913334,0.03770520098216366
1746410002706548200,4.39554833984375,-0.037785833036899565,0.04880190153329167,0.05164666453911922
1746410002716521200,4.405521240234375,-0.016389993786811826,0.03431945383427665,0.048905973829119466
1746410002726494200,4.415494140625,-0.031205285602807997,0.04185661700661294,0.05116885442691855
1746410002736467200,4.42546728515625,-0.03973813614845276,0.0514919991337927,0.06064733352591283
1746410002746440200,4.435440185546875,-0.02911854245662689,0.050631747308955526,0.04736754418150522
1746410002756413200,4.4454130859375,-0.024784897166490554,0.03357384136505425,0.057035627568466585
1746410002766386200,4.45538623046875,-0.021796821266412733,0.03506425801932346,0.05312896181901451
1746410002776359400,4.465359375,-0.03272621155977249,0.044662952264770864,0.057612696804059664
1746410002786332200,4.475332275390625,-0.03871872997283935,0.04077595019701402,0.05296374762021005
1746410002796305200,4.48530517578125,-0.045157823109626766,0.05084075955029111,0.04196799582606181
1746410002806278100,4.495278076171875,-0.03319149098396301,0.05160062887372915,0.04497792736492119
1746410002816251400,4.50525146484375,-0.024517186141014096,0.0372694033807842,0.023640348507557064
1746410002826224400,4.515224365234375,-0.012550854015350341,0.044349406503303906,0.03988630331433378
1746410002836197000,4.525197021484375,-0.012255085939168929,0.0435161431500921,0.056864645782578736
1746410002846170000,4.535170166015625,-0.03186111916303634,0.0537611039764015,0.0416232055429602
1746410002856143400,4.545143310546875,-0.015851064604520796,0.03987924795246217,0.045061285666283216
1746410002866116400,4.555116455078125,-0.010467618000507354,0.033275292243319564,0.04549601925516035
1746410002876089300,4.56508935546875,-0.011367781710624695,0.03648439048293512,0.02207333208627533
1746410002886062000,4.57506201171875,-0.006432078874111175,0.04422644227733835,0.043327630274090916
1746410002896035000,4.58503515625,-0.018704700469970702,0.032373895557341166,0.038017742096632716
1746410002906008300,4.59500830078125,-0.004188683861494064,0.04214562654844485,0.03829074121857993
1746410002915981300,4.604981201171875,-0.020945757395029067,0.04712958897347562,0.03766309257321991
1746410002925954300,4.614954345703125,-0.013162263911962508,0.04506679295846261,0.03984853315379005
1746410002935927000,4.624927001953125,-0.005376432341337204,0.04233006147095002,0.048424738783971404
1746410002945900300,4.634900390625,-0.014649872121214866,0.04043895506130066,0.024500230439635923
1746410002955873300,4.644873291015625,-0.007165069323778152,0.05685210139483679,0.02022759005515836
1746410002965846300,4.65484619140625,0.0006201777249574661,0.04311871393087786,0.04800292860874906
1746410002975819000,4.664819091796875,-0.019727029255032537,0.03656605915070977,0.06171778033559676
1746410002985792500,4.67479248046875,-0.020621347746253012,0.036610996554268055,0.03206769741869066
1746410002995765500,4.684765625,-0.03797814073860645,0.022781514604960102,0.03577450234764255
1746410003005738200,4.69473828125,-0.03513327270150184,0.028851292655454015,0.021154961432609705
1746410003015711200,4.704711181640625,-0.030191724646091458,0.02558294079256011,0.03281581237225328
1746410003025684500,4.7146845703125,-0.016572949138283728,0.040668786328379065,0.025282526224013415
1746410003035657500,4.724657470703125,-0.0345294615894556,0.029896920117712576,0.030622910004435105
1746410003045630500,4.73463037109375,-0.017466683107614515,0.024145934825961012,0.02031985774876084
1746410003055603200,4.744603271484375,-0.007286065354943275,0.028480970638873986,0.012605031888000667
1746410003065576200,4.754576171875,-0.016261398971080778,0.007539115384116303,0.023732488336996174
1746410003075549400,4.764549560546875,-0.011171382355690002,0.026795513186405877,0.03785004824637435
1746410003085522400,4.7745224609375,-0.01999707836806774,0.034618669676291756,0.035244660654105246
1746410003095495400,4.784495361328125,-0.021490531796216964,0.021659581919922493,0.029339720059791578
1746410003105468200,4.79446826171875,-0.02044189952611923,0.0172481564025511,0.04410676598700229
1746410003115441400,4.80444140625,-0.03181201932430267,0.04329371887133456,0.020573864475870503
1746410003125414400,4.814414306640625,-0.03450432714819908,0.023532223374408204,0.024835777970356864
1746410003135387400,4.824387451171875,-0.027770634979009626,0.02094683967384044,0.033323341769282706
1746410003145360100,4.834360107421875,-0.013702362138032912,0.023405094429978634,0.0493036268106196
1746410003155333400,4.84433349609375,-0.018189152163267136,0.029664876343950163,0.018127101511415094
1746410003165306400,4.854306396484375,-0.013999299257993697,0.035180687473225405,0.03439104863260872
1746410003175279400,4.864279296875,-0.021779870131611822,0.028831482843286356,0.03248976332223974
1746410003185252400,4.87425244140625,-0.03374912486672401,0.03660921787242405,0.037682317863497884
1746410003195225300,4.884225341796875,-0.03210194218158722,0.015390712517197242,0.03005967749794945
1746410003205198300,4.8941982421875,-0.03374795582294464,0.02540257469039643,0.0426809938004706
1746410003215171300,4.90417138671875,-0.01893091044127941,0.018483913309162017,0.03196835153033025
1746410003225144300,4.914144287109375,-0.02641103706359863,0.02492382386327954,0.026117104751477018
1746410003235117300,4.924117431640625,-0.026409868019819257,0.031160496613010763,0.038107164812600236
1746410003245090300,4.93409033203125,-0.02371580663025379,0.02615154131061863,0.017863080280367285
1746410003255063300,4.944063232421875,-0.03957680810689926,0.014631436848803423,0.04350311470516026
1746410003265036300,4.954036376953125,-0.020273557221889494,0.026331969061575363,0.036274843952059745
1746410003275009300,4.96400927734375,-0.023715222108364103,0.026963373716734348,0.01990840457077138
1746410003284982500,4.973982421875,-0.03493687334656715,0.023371842897636816,0.032174870420480145
1746410003294955300,4.983955322265625,-0.00815115775167942,0.014179030605917796,0.021827947057038544
1746410003304928300,4.99392822265625,-0.012789923468232154,0.024957630234758835,0.027271745546162126
1746410003314901200,5.0039013671875,-0.01712882945537567,0.026113008531671946,0.020666894787875933
1746410003324874500,5.01387451171875,-0.006952303355932235,0.04202246595965698,0.01976045660059899
1746410003334847500,5.023847412109375,-0.011289455777406691,0.03095357586406171,0.0139637073548045
1746410003344820200,5.0338203125,-0.027449147939682006,0.022278028912097216,0.014631587545853107
1746410003354793200,5.043793212890625,-0.010239654463529587,0.017718112001859115,0.04016790586784482
1746410003364766500,5.053766357421875,-0.02071194863915443,0.027207196976547127,0.02959621557150967
1746410003374739500,5.063739501953125,-0.019065350475907326,0.011081596596830058,0.01820286102821119
1746410003384712400,5.07371240234375,-0.009040215545892715,0.02366390519636916,0.03791956981862895
1746410003394685200,5.083685302734375,-0.012333411872386933,0.016062583896773865,0.03475773565368727
1746410003404658400,5.093658447265625,-0.02520283031761646,0.009439350381714756,0.009005135099356994
1746410003414631400,5.10363134765625,-0.03104045042991638,0.002057631216128357,0.026621063085086643
1746410003424604400,5.1136044921875,-0.0316366627573967,0.011847005178488324,0.019947832398861644
1746410003434577400,5.123577392578125,-0.01711713901758194,0.02206568306935951,0.004382142340671271
1746410003444550400,5.13355029296875,-0.000353051221370697,0.02599307422972051,0.02063402456473559
1746410003454523400,5.1435234375,-0.018005612289905548,0.03030281348788412,0.017661310630571095
1746410003464496400,5.153496337890625,-0.01635375342965126,0.02023133921509143,0.029016187193850053
1746410003474469400,5.163469482421875,-0.033705870246887204,0.016702397903962992,0.02417819084445946
1746410003484442000,5.173442138671875,-0.026520927178859708,0.02852665239452617,0.004467509936029092
1746410003494415400,5.183415283203125,-0.031156185764074324,0.025480128872056956,0.026447441817540673
1746410003504387300,5.19338720703125,-0.02965747163891792,0.01494143209644826,0.014574569262145086
1746410003514360300,5.2033603515625,-0.008261632388830185,0.0262987723281607,0.028658532862598073
1746410003524333300,5.213333251953125,-0.025170681613683698,0.02180214817879023,0.013834327087784185
1746410003534306300,5.223306396484375,-0.014696633872389793,0.019447627791762352,0.016722687206743286
1746410003544279300,5.233279296875,-0.037141105392575265,0.019417241786653175,0.021178798965923486
1746410003554252300,5.243252197265625,-0.029357611909508703,0.014650860785192343,0.013138809971138834
1746410003564225500,5.2532255859375,-0.013044190490245819,0.023203639874013606,0.015980928928731007
1746410003574198300,5.2631982421875,-0.014086977541446685,0.017236354083614423,0.021330299733206628
1746410003584171300,5.273171142578125,-0.03263911779820919,0.01819518689512042,0.014345317950379103
1746410003594144300,5.283144287109375,-0.01632452733516693,0.024267892121640034,0.013344068485964089
1746410003604117500,5.293117431640625,-0.02021276694536209,0.02098532678701449,0.02721835312480107
1746410003614090500,5.303090576171875,-0.02829202850461006,0.017959980766603257,0.026445761317107824
1746410003624063200,5.313063232421875,-0.025596213549375534,0.016853560744528658,0.029703192210476844
1746410003634036200,5.3230361328125,-0.03711713999509811,0.02184648507743841,0.012670717535354196
1746410003644009500,5.333009521484375,-0.02379939326047897,0.024074095715745352,0.024818799436092377
1746410003653982500,5.342982421875,-0.02424947511553764,0.008951653629739303,0.03198834400558844
1746410003663955500,5.35295556640625,-0.01781681171953678,0.025061216190108097,0.008784578550700098
1746410003673928200,5.36292822265625,-0.004051321217417717,0.009896165654947981,0.016510195233533156
1746410003683901200,5.372901123046875,-0.039815877559781075,0.00005900702810613438,0.0333907672825735
1746410003693874400,5.38287451171875,-0.013781272593140602,0.008234216942230704,0.017416204162547362
1746410003703847400,5.392847412109375,-0.027098434805870056,0.005158576923131476,0.01879773991513066
1746410003713820400,5.4028203125,-0.0226087221711874,0.02650239829161437,0.009132679602317511
1746410003723793200,5.412793212890625,-0.0067465516507625575,0.016637910983141047,0.007359788178279996
1746410003733766400,5.422766357421875,-0.023951368951797485,0.022108286951936316,0.020873386278562247
1746410003743739400,5.432739501953125,-0.025146131694316863,0.014410871166992,0.010810513154044746
1746410003753712400,5.44271240234375,-0.023348142361640928,0.01648637596652843,0.005529083886090666
1746410003763685400,5.452685302734375,-0.028584289449453352,0.022323071346932555,0.021663879069127142
1746410003773658400,5.462658447265625,-0.018558569997549054,0.019615129845775663,0.01928262822208926
1746410003783631400,5.47263134765625,-0.016462474501132963,0.013805416087131015,0.011752433646656572
1746410003793604400,5.482604248046875,-0.03082826898396015,0.015123129355884156,0.010962297049118205
1746410003803577300,5.492577392578125,-0.02858312040567398,0.03151289938041009,0.02604041365291923
1746410003813550300,5.50255029296875,-0.02633738730549812,0.030795629372971596,0.03163180391918868
1746410003823523300,5.5125234375,-0.011073182678222656,0.019746023933158722,0.018541417933348566
1746410003833496300,5.522496337890625,-0.01675765805542469,0.0177369331500493,0.021539942162204534
1746410003843469300,5.53246923828125,-0.01870119333863258,0.029572770763840524,0.02143913040254265
1746410003853442300,5.5424423828125,-0.014352350479364393,0.011327929190848953,0.00906664689509198
1746410003863415300,5.552415283203125,-0.006956979531049728,0.019518722549884113,-0.01888328104042448
1746410003873388300,5.56238818359375,0.0209966107994318,-0.008599424392275977,-0.12735866153221576
1746410003883361300,5.572361328125,-0.0884001679867506,0.003099128209252376,-0.14566965911001897
1746410003893334300,5.582334228515625,-0.18148937057256698,-0.08162451810566708,-0.11761313812802544
1746410003903307500,5.5923076171875,-0.16703297519683838,-0.140056952061085,-0.20660024829041213
1746410003913280300,5.6022802734375,-0.08760112656354904,-0.17057673048460856,-0.08067794883740134
1746410003923253200,5.612253173828125,0.020430793610215187,-0.09980510336998849,0.03890509199094958
1746410003933226200,5.622226318359375,0.25439327874183654,-0.1356481043765787,-0.07014284595809876
1746410003943199500,5.632199462890625,0.11167758319973944,0.10434889341262168,0.19999741595927625
1746410003953172500,5.64217236328125,-0.07570259897708892,0.3109115770384669,0.37131007776930924
1746410003963145200,5.652145263671875,-0.0516483541727066,0.21694769224366173,0.17858608687911182
1746410003973118200,5.6621181640625,0.027758944541215896,0.03689341424182057,0.01674654300636612
1746410003983091200,5.67209130859375,-0.1352256320476532,-0.0438125322807813,0.034012716839509086
1746410003993064200,5.682064208984375,0.032255086916685105,0.07134826252537313,-0.0475839725443162
1746410004003037200,5.692037109375,0.11263736814260482,0.14622538416348396,-0.010402690404979511
1746410004013010200,5.70201025390625,-0.12768179253935813,0.03585771680182079,0.08701904322612099
1746410004022983200,5.711983154296875,-0.054341246518492696,0.029049673904920928,0.008121283203223719
1746410004032956200,5.7219560546875,0.03158288674354553,-0.018376548511127473,-0.05499823998934589
1746410004042929200,5.73192919921875,-0.06714870564341545,-0.011970180608652299,-0.008410913799563421
1746410004052902100,5.741902099609375,-0.02282441074848175,0.033866166241979224,0.02600589032880962
1746410004062875400,5.75187548828125,0.009088730862736701,0.05524639236440416,0.029410346743743866
1746410004072848100,5.76184814453125,0.04383797268271446,0.08121394627708942,0.01772080399915576
1746410004082821000,5.771821044921875,0.0151145670235157,0.045724941773363385,0.06881602693428285
1746410004092794000,5.781794189453125,-0.05762275240719318,0.008465654502861434,0.031689927314594385
1746410004102767000,5.79176708984375,-0.013043021446466446,-0.008670823969430056,0.03877994037447497
1746410004112740400,5.801740234375,-0.003170446729660034,0.017159142395248635,-0.002244454458542168
1746410004122713000,5.811713134765625,0.0017804536759853363,0.023927364738413597,-0.018207427605474367
1746410004132686000,5.82168603515625,0.0032651392757892606,0.01742985822856426,0.01848468277743086
1746410004142659000,5.8316591796875,-0.09640753335356712,0.011388571053615305,0.04860419157068245
1746410004152632300,5.84163232421875,-0.002594108146429062,0.020832113553257658,-0.030103151313494888
1746410004162605300,5.851605224609375,0.010702011278271674,0.009427888272784185,0.01773064040658064
1746410004172578000,5.861578125,-0.06772796683609485,0.03259660753046628,0.034623149488586934
1746410004182550300,5.87155029296875,0.0036368951976299283,0.017800937155325665,-0.0006221504863351583
1746410004192523300,5.881523193359375,0.0012204817056655883,0.013922476870339595,0.03113726186789572
1746410004202496300,5.891496337890625,-0.025292846688628197,0.025756699057423973,0.04038728423956781
1746410004212469000,5.901468994140625,-0.011105331382155418,0.030537423678068443,0.006980862730136141
1746410004222442200,5.911442138671875,-0.03072714669704437,0.01946587126792874,-0.007872879666415974
1746410004232415200,5.921415283203125,-0.03778174138367176,0.017937071390118214,-0.007608465709723532
1746410004242388200,5.93138818359375,-0.032117724272608755,0.008029912842053453,0.0267362138973549
1746410004252361200,5.941361328125,-0.023904607200622558,0.02010500257181702,0.02281358796036802
1746410004262334200,5.951334228515625,-0.024962591820955275,0.011682094657071866,0.0005552957952022552
1746410004272307200,5.96130712890625,-0.015095277801156043,0.028700696070468983,0.0059780514962971204
1746410004282280200,5.9712802734375,-0.02692307823896408,0.019947197644622064,0.02306546209589578
1746410004292253200,5.981253173828125,0.0034510172367095944,0.025831762171187437,0.018631662633223457
1746410004302226200,5.99122607421875,-0.010616086560487747,0.030311782245629,0.029657243310054763
1746410004312199200,6.00119921875,-0.012858312529325485,0.018651354856026592,0.017243258748436345
1746410004322172200,6.011172119140625,-0.0007329904496669769,0.012896965180925325,0.000010777122341096401
1746410004332145200,6.021145263671875,-0.00732639736533165,0.0061581573035567995,0.027057116414792835
1746410004342118100,6.0311181640625,-0.006315174496173858,-0.01079615583512932,0.039832326371083034
1746410004352091100,6.041091064453125,-0.03464344335794449,-0.0033998224806564394,0.05466656034956686
1746410004362064100,6.051064208984375,-0.06161094526052475,0.008661061768885701,0.01844888081168756
1746410004372037000,6.061037109375,-0.027354455393552777,0.013163233167986618,-0.00781661943453364
1746410004382010000,6.071010009765625,-0.02750292395353317,0.030726388645218684,-0.040236495858337724
1746410004391983400,6.0809833984375,-0.02899579285979271,0.052994476118613965,-0.02724436434889212
1746410004401956000,6.0909560546875,-0.015377601873874663,0.05561261816117912,-0.0019004724596161395
1746410004411929000,6.10092919921875,-0.019274024790525434,0.04150139209446497,0.011787769821519032
1746410004421902000,6.110902099609375,-0.02137479646205902,0.03796235864758491,0.025156497824704274
1746410004431875300,6.120875244140625,-0.014350012391805647,0.018523193865135543,0.028549674793798475
1746410004441848300,6.130848388671875,-0.0040343700826168056,0.019487852487585042,0.01784566335468553
1746410004451821000,6.140821044921875,-0.005693827727437019,0.014502678777935216,0.023727058676630258
1746410004461794000,6.1507939453125,-0.03533960892856121,0.01773172611032496,0.030048845576681193
1746410004471767300,6.160767333984375,-0.006775777745246887,0.014914085148507727,0.010052068602712825
1746410004481740300,6.170740234375,-0.01591419296860695,0.011674035789846675,0.014023794378433376
1746410004491713300,6.18071337890625,-0.029084640187025067,0.028435556027991696,0.00012191847977228462
1746410004501686000,6.19068603515625,-0.005588029265403747,0.025018299496988763,-0.004584615243365988
1746410004511659300,6.2006591796875,-0.0160556472659111,0.017561787787341746,0.0050542785817291585
1746410004521632300,6.21063232421875,-0.01679682102203369,0.028676602808828465,0.00026969292000867426
1746410004531605200,6.220605224609375,-0.00945522608757019,0.021763179291714913,0.011668079831451177
1746410004541578200,6.230578125,-0.024856208837032316,0.02457591689119581,0.0069352060906589024
1746410004551551000,6.240551025390625,-0.0161690445125103,0.022137732242129275,0.016191621670499444
1746410004561524200,6.250524169921875,-0.01242109015583992,0.0208541701214388,0.012679814157262444
1746410004571497200,6.260497314453125,-0.02828033806681633,0.0021818375511094925,0.018439044404262677
1746410004581470200,6.27047021484375,-0.019897125124931334,-0.02210665440056473,0.009301633827900514
1746410004591443200,6.280443115234375,-0.0029670331120491026,-0.024015216551802585,-0.010038012677896767
1746410004601416200,6.290416259765625,0.060378773117065423,-0.021547872023622038,-0.0015860818813554943
1746410004611389200,6.30038916015625,0.12478256396651267,0.041308280675159764,0.02642068167477846
1746410004621362200,6.310362060546875,0.07152794364094733,0.15916162076722828,0.08505459301904775
1746410004631335200,6.320335205078125,-0.04490764774084091,0.40574623505212365,0.28569325689077374
1746410004641308200,6.33030810546875,-0.2283352928996086,-0.32937465077228845,-0.2831950833994895
1746410004651281200,6.34028125,-0.10216916562020778,0.022455652784614356,-0.06432218611375429
1746410004661254100,6.350254150390625,0.12214403215646744,0.04103054601259064,0.08965121836061589
1746410004671227100,6.36022705078125,-0.11936287700533867,0.037666885115636976,0.03582468903176486
1746410004681200400,6.370200439453125,-0.07536123819351195,0.003045324795937631,0.020132513916539026
1746410004691173000,6.380173095703125,0.06156184542179107,0.028829535198083612,-0.027130355180939657
1746410004701146000,6.39014599609375,-0.02821837874650955,0.03451767982011661,0.009903262116014958
1746410004711119000,6.400119140625,-0.040784430330991744,0.006049408832611515,0.013174310542782768
1746410004721092400,6.41009228515625,-0.012500585132837295,-0.0029577743766480125,0.015361792383389547
1746410004731065300,6.4200654296875,-0.01953355250954628,0.021402230174967552,0.010954150275280699
1746410004741038000,6.4300380859375,-0.04093991315364837,0.02514136875423137,0.03056189139904454
1746410004751011000,6.440010986328125,-0.02000584619641304,-0.008619300419813953,-0.010744252117956057
1746410004760984000,6.449984130859375,-0.042616321933269495,-0.024518889474333262,-0.010800539749301969
1746410004770957300,6.459957275390625,-0.04382511320114135,-0.007518410522805061,0.0025024569407571104
1746410004780929000,6.469928955078125,-0.0480278255879879,-0.0005633877701126038,-0.0061405029158573595
1746410004790902000,6.479902099609375,-0.03038344782590866,0.00881033176317578,0.01830037571908906
1746410004800875300,6.489875244140625,-0.03383329601883888,0.004466902581253089,0.022013761085877194
1746410004810848300,6.49984814453125,-0.011238017851114272,0.02230162898339331,0.019516025986010207
1746410004820821200,6.5098212890625,0.013154080605506897,0.0217185798148741,0.028221529684821143
1746410004830794000,6.5197939453125,0.007471358793973922,0.04792651150482707,0.04872884086365811
1746410004840767200,6.529767333984375,-0.008522913673520087,0.029098794293252284,0.023454689742345363
1746410004850740200,6.539740234375,-0.028398411488533018,0.04831349239526316,0.0056328639209736135
1746410004860713200,6.549713134765625,0.020690905851125718,0.03229379094227915,0.028428194705443454
1746410004870686200,6.559686279296875,-0.040372926920652384,-0.0051413906096015125,0.04826310478174128
1746410004880659200,6.5696591796875,-0.14976736761927603,-0.022597977014887145,0.008459091189689934
1746410004890632200,6.579632080078125,-0.03800561326742172,0.023462610470608342,0.0019311141930520533
1746410004900605200,6.589605224609375,0.015583353579044341,0.06061414364236407,-0.0011270038690883665
1746410004910578200,6.599578125,0.07298807932138443,-0.0652713126652874,-0.09664476704238914
1746410004920551400,6.609551513671875,0.0482674795627594,0.06314952103861142,-0.022668562599644063
1746410004930524200,6.619524169921875,-0.2637701788961887,0.07611847260186914,0.2529828639546409
1746410004940497200,6.6294970703125,-0.004584989702701568,-0.021743383179279045,-0.0573385012388695
1746410004950470100,6.63947021484375,0.18902385773062705,-0.0028488432426122014,-0.04116678984523751
1746410004960443100,6.649443115234375,-0.07290741530060768,0.060138114495296026,0.16107925442419946
1746410004970416000,6.659416015625,-0.19715923339128494,-0.05365710931238718,0.11991156952981837
1746410004980389000,6.66938916015625,-0.008196165937185288,-0.11918478049207477,0.03198406968927011
1746410004990362600,6.679362548828125,0.06149053375124931,-0.21536341872690246,0.19960878196787088
1746410005000335400,6.68933544921875,-0.03490706273019314,-0.16814860828854142,0.16837350308559834
1746410005010308600,6.69930859375,-0.026040450185537335,0.06717930627765599,-0.19516599548114463
1746410005020281600,6.709281494140625,-0.018013795596361157,0.04135009682315867,-0.3552694088768214
1746410005030254600,6.719254638671875,-0.17203940518200397,0.20157527800155803,-0.3697125063795596
1746410005040227600,6.7292275390625,-0.12286357860267162,-0.015487307042756582,-0.18815715789869428
1746410005050200600,6.73920068359375,-0.19538111780285833,-0.7985308433309197,-0.8971106061570345
1746410005060173600,6.749173583984375,0.0321896204650402,-0.9984525271728635,-0.4914053607024252
1746410005070146600,6.759146484375,0.35539749223589895,-0.04789481945862062,-0.05379954999038018
1746410005080119600,6.76911962890625,0.21418109534084795,0.5304213565887883,-0.002125339857209474
1746410005090092500,6.779092529296875,0.10989011526107788,0.45172637086268513,0.15169702050760386
1746410005100065500,6.7890654296875,0.27237317206859585,0.12764292183369397,0.41666243707034734
1746410005110038500,6.79903857421875,0.6607704321086406,0.1435139241145458,0.4758265737006441
1746410005120011500,6.809011474609375,0.9704477911770343,0.3629890068108216,0.5172912413807585
1746410005129984500,6.818984619140625,1.1267378385633229,0.9460638760268688,0.21794081320054828
1746410005139957800,6.828957763671875,1.1066694485247135,1.2732093795076012,-0.0008292538983747362
1746410005149930500,6.838930419921875,1.0225544105112552,0.8440990008071064,0.32333800095655024
1746410005159903500,6.848903564453125,1.0623498298048972,0.11427037617191671,-0.10525018050074576
1746410005169876500,6.85887646484375,0.935233269932866,-0.21335730306887998,-0.5320084431171417
1746410005179849700,6.868849609375,0.8670090440124273,0.21288921063309535,0.09185045457109808
1746410005189822700,6.87882275390625,1.353999949273467,-0.004526464448496699,-0.06946677332744002
1746410005199795500,6.88879541015625,1.6533786171674727,-0.5205499143831431,-0.6452281411923467
1746410005209768400,6.8987685546875,1.4748235464811323,-0.17686145504359155,-0.3410537634544074
1746410005219741700,6.90874169921875,1.0922025317549704,0.04640804236643016,0.04367372203171253
1746410005229714700,6.918714599609375,0.8921300412654877,-0.04510002850778401,-0.10968129481598735
1746410005239687400,6.9286875,0.7163257305920123,-0.0985198127998039,-0.09303338074535131
1746410005249660400,6.938660400390625,0.5929343287229537,0.23253873593881724,0.3615446166887879
1746410005259633700,6.948633544921875,0.7922633073687553,0.6042944385837763,0.45937896797508
1746410005269606700,6.958606689453125,0.8609306008815765,0.18830884132906794,0.05242898315638304
1746410005279579600,6.96857958984375,0.7732511483848095,-0.1341267308950424,-0.24162118319123982
1746410005289551600,6.978551513671875,0.14105682241916656,0.07374459677711129,0.005168342548608779
1746410005299524600,6.988524658203125,-0.7499404154241085,0.443120272417739,0.7543006564602255
1746410005309497600,6.99849755859375,-1.0924936236560343,1.5097675802208483,1.5564119886264205
1746410005319470600,7.008470703125,0.4762818797200918,1.6475142551787196,2.0602824247568843
1746410005329443300,7.018443359375,1.7419091335356234,-0.5288376310613006,0.7149468434542418
1746410005339416600,7.02841650390625,3.169751148611307,-1.3126466330133377,0.5012853880733251
1746410005349389600,7.0383896484375,4.424128109616041,-0.4031706854756921,0.6478337936460972
1746410005359362600,7.048362548828125,4.745274372681975,0.08265329489782453,1.0268225893497467
1746410005369335600,7.05833544921875,3.4751597443193196,0.22017039888352155,1.6505869406223297
1746410005379308500,7.06830859375,2.4168045371085403,-0.5327078235581517,0.4694248534321785
1746410005389281500,7.078281494140625,1.5538181727409361,-0.43059740238785743,-0.8863789303928613
1746410005399254500,7.088254638671875,0.7010188558667898,0.8103872853413224,-2.233061250129342
1746410005409227500,7.0982275390625,0.5959858252480625,1.1139373937010764,-3.9581332306325434
1746410005419200800,7.10820068359375,1.275128657132387,1.4538978089608252,-5.554153299286961
1746410005429173500,7.118173583984375,2.2398753140583634,2.1412939437970517,-6.983468894046545
1746410005439146500,7.128146484375,1.84630912694782,2.4297712784484027,-7.62214849037826
1746410005449119500,7.138119384765625,0.19620207879692314,2.4580954556569456,-7.1003311864078045
1746410005459092700,7.1480927734375,-1.3321980134405196,2.536770056182146,-5.313709050920606
1746410005469065700,7.158065673828125,-2.8785610478699204,2.197068437989056,-2.983721211999655
1746410005479038500,7.16803857421875,-3.259423820751905,1.0318962393522262,-1.1782307099133729
1746410005489011500,7.178011474609375,-1.2730594496428966,-0.07057181195989251,-0.4437386235117912
1746410005498984400,7.187984375,1.8354209454476833,0.17714622680172323,0.25708792465329167
1746410005508957700,7.197957763671875,3.6440082445055246,0.18776275175362825,0.9499392561554908
1746410005518930700,7.2079306640625,3.764212833032012,-0.14392331776618958,1.7266776621341704
1746410005528903400,7.2179033203125,2.926000259914994,-0.4655234620794654,2.294667519214749
1746410005538876400,7.22787646484375,2.1225516877956685,-0.5455446549080312,2.3693834452420472
1746410005548849700,7.237849609375,1.068746106713265,-0.3036433396011591,2.7613626554220914
1746410005558822700,7.24782275390625,0.05508680418878793,0.1351394150689244,3.5085359442204234
1746410005568795400,7.25779541015625,0.13249942195415496,0.19139263268858192,3.49300695117712
1746410005578768400,7.267768310546875,0.7395794726684689,0.17121522931754588,2.8182787208646536
1746410005588741600,7.27774169921875,1.232412966477871,-0.11305705485939979,1.676505810254812
1746410005598714600,7.287714599609375,1.5739122817426918,-0.36716888631135225,0.6708388216584921
1746410005608687600,7.2976875,2.262465039268136,-0.31309359725266694,0.14446107790470122
1746410005618660400,7.307660400390625,2.767864876922965,0.17002426596730946,-0.271839503583312
1746410005628633600,7.317633544921875,2.6955218175068496,0.29226942041069265,-0.5424328064978122
1746410005638606600,7.327606689453125,2.2604794184088703,0.002280512152612209,-1.1008517021566628
1746410005648579600,7.33757958984375,1.749931111949682,0.062298050741851324,-1.5970540878772734
1746410005658552600,7.347552490234375,1.292215985533595,0.19641075311154127,-1.9364625683426855
1746410005668525600,7.357525634765625,0.8230167575508356,-0.16994243290275335,-2.2525345968842507
1746410005678498600,7.36749853515625,0.5981494330227375,-0.11874591415077447,-2.520260235407948
1746410005688471600,7.377471435546875,0.7416893044292926,0.6556903523653745,-2.538651047623157
1746410005698444500,7.387444580078125,0.9304939664512872,1.7972189328253267,-2.319802544993162
1746410005708417500,7.39741748046875,0.7526631183862685,2.9809777585104107,-2.0717805548489094
1746410005718390500,7.407390625,0.10715922899246215,3.116195207251608,-1.7742507296919823
1746410005728363500,7.417363525390625,-0.42439153348505493,2.0371464638411996,-1.3839672175139188
1746410005738336500,7.42733642578125,-1.4579787946641445,0.7669368506714701,-1.7398317427396772
1746410005748309500,7.4373095703125,-3.3428204813629385,-0.11533873605579137,-2.452228901711106
1746410005758281500,7.447281494140625,-3.038279316139221,-0.477887269090116,-2.2512591701209543
1746410005768254500,7.45725439453125,-2.744480494204163,-0.6155594175070523,-2.2227286566853524
1746410005778227500,7.4672275390625,-1.802651479268074,-0.3817600139826536,-1.8029799805700777
1746410005788200700,7.47720068359375,-1.0733540389001368,-0.42958384143114087,-0.8148544938832522
1746410005798173700,7.487173583984375,-1.029757473757863,-0.5751192705690861,0.47517654882669447
1746410005808146400,7.497146484375,-1.0620037928462027,-0.5717901261463761,1.1104594884574412
1746410005818119400,7.507119384765625,-0.9063333386629819,-0.541476528686285,1.4256430437266825
1746410005828092700,7.5170927734375,-0.5483575203716755,-0.28821137719154355,1.621014809179306
1746410005838065700,7.527065673828125,0.22233692926764487,0.17686054172813892,1.3817080404102802
1746410005848038700,7.53703857421875,1.0904127257287501,0.12025807227939367,1.0728116025865078
1746410005858011400,7.547011474609375,1.769213320046663,0.10103314732760191,0.8740081091195344
1746410005867984600,7.556984619140625,2.3158646210223437,0.6899766528487206,0.45229310136735434
1746410005877957600,7.56695751953125,2.576069800913334,0.8757038071215152,0.05422726475000381
1746410005887930600,7.5769306640625,2.481067458182573,0.48075931739509103,0.27728432498574257
1746410005897903400,7.5869033203125,2.572964236113429,0.21836071911305188,1.040052073279023
1746410005907876600,7.596876708984375,2.902995231902599,0.4702259406819939,1.8877409152716398
1746410005917849600,7.606849609375,2.9904782850444316,0.7409677121564745,2.471330492544174
1746410005927822600,7.616822509765625,2.2139456307709215,0.6565016687482595,2.5963503723978993
1746410005937795600,7.626795654296875,1.410039816403389,0.21358079136013983,2.2471669323712584
1746410005947768600,7.6367685546875,0.4570400036334991,-0.46017187191843983,1.4243483277410267
1746410005957741600,7.646741455078125,-0.7941577428132295,-0.9133414638593792,0.3505342701137066
1746410005967714600,7.656714599609375,-1.8538228635787963,-1.0039490787625311,-0.4855810384631157
1746410005977687600,7.6666875,-2.6623697817504404,-0.772157215668261,-1.2113304309606552
1746410005987660000,7.676659912109375,-2.5712042407035827,-0.10403554401397705,-1.4315496374219656
1746410005997633000,7.686633056640625,-2.271484212026,0.4870961192011833,-1.5369132151693106
1746410006007606000,7.69660595703125,-2.1004560297131536,0.8493725572958588,-1.6262690764456986
1746410006017578800,7.706578857421875,-2.084235547274351,0.9204749690011144,-1.7411030778497456
1746410006027552000,7.716552001953125,-2.1322510979026554,0.6673951109454035,-2.121789325121045
1746410006037525000,7.72652490234375,-2.208060664385557,0.34780075349658723,-2.2992355577826498
1746410006047498000,7.736498046875,-1.9222312138944864,0.16853110480010508,-1.8699007226765154
1746410006057471000,7.746470947265625,-1.4324036239027975,0.5737383376047015,-0.8799421753436326
1746410006067444000,7.75644384765625,-1.365779234394431,1.2471283050507307,-0.06703589291870593
1746410006077417000,7.7664169921875,-1.399675658777356,1.1818269808396695,0.11224983012974261
1746410006087390000,7.776389892578125,-0.9647650693655013,0.4507929259374737,-0.07506663916110992
1746410006097363000,7.786363037109375,-0.6112345400452613,-0.0975935282677412,-0.02087327668070793
1746410006107336000,7.7963359375,-0.17690788800120352,-0.4633689143940806,0.12533727523982524
1746410006117309000,7.806308837890625,0.23099662106335161,-0.5270961211562156,0.4931330612778663
1746410006127282000,7.816281982421875,0.42841655121743677,-0.43246582660824057,0.7703186020642518
1746410006137255000,7.8262548828125,0.7940817549675703,-0.30116964296400545,0.6474316425859927
1746410006147228000,7.836227783203125,1.233703590810299,-0.16251725133806466,0.36447862431406974
1746410006157201000,7.846200927734375,1.5058727647393941,0.05594809719324111,0.1892091511696577
1746410006167174000,7.856173828125,1.5466379058480262,0.23087533277124164,0.28098376402556896
1746410006177147000,7.86614697265625,1.3523907605111598,0.34776275957375763,0.4625304177433252
1746410006187119000,7.876119140625,1.1394728169739246,0.07908814976215361,0.46175592623949047
1746410006197091800,7.886091796875,0.8486649935483932,-0.42503275399804114,0.35147651939988134
1746410006207064800,7.89606494140625,0.36456922520697116,-0.6367617800116538,0.3347790670990944
1746410006217037800,7.906037841796875,-0.07184007833003997,-0.362935778786242,0.24689444741904734
1746410006227011000,7.916010986328125,-0.21857436186373233,-0.13135171322375536,-0.08615794201791285
1746410006236984000,7.925984130859375,-0.2595668819874525,0.028655308859050273,-0.21321078900396823
1746410006246956800,7.935956787109375,-0.4513029212862253,0.4394450179710984,-0.10150456423163413
1746410006256929800,7.9459296875,-0.7516641704767942,0.6130845518261194,-0.06406418363153935
1746410006266903000,7.955903076171875,-0.7476070040404796,0.43571752188056706,-0.042163317468762396
1746410006276876000,7.9658759765625,-0.4863911858022213,0.35123131246715783,0.10617314056456088
1746410006286849000,7.97584912109375,-0.18463176025152206,0.1904229108735919,0.010796119302511214
1746410006296821800,7.98582177734375,0.10955576874017715,-0.0927288448408246,-0.27171149328947064
