time,seconds_elapsed,z,y,x
1746289485833221600,0.0552216796875,0.15867314313054084,0.34428573111295696,-0.6489649165678769
1746289485843193900,0.06519384765625,-0.02668167069852352,0.3543433070078492,-0.904211670333892
1746289485853164800,0.075164794921875,-0.21497779867649078,0.3678644673600793,-0.9817715876154601
1746289485863135700,0.0851357421875,-0.36550095309913155,0.3805158591404557,-0.9252578193634748
1746289485873107700,0.095107666015625,-0.45225393840074535,0.307500307290256,-0.8085876885734498
1746289485883079000,0.105078857421875,-0.42863107075095175,0.15509119299054144,-0.7379330937009304
1746289485893049600,0.115049560546875,-0.24570143824219703,-0.028996377381682394,-0.7812264381129295
1746289485903021800,0.125021728515625,0.02642331202328205,-0.2286801608145237,-0.9032343497343361
1746289485912992800,0.13499267578125,0.23926819032430646,-0.4200412293210625,-1.0685882858030498
1746289485922964000,0.1449638671875,0.3325152138203382,-0.49400546019822356,-1.2409564845480023
1746289485932935700,0.154935791015625,0.19574527494013308,-0.41053661113381384,-1.2530467353142798
1746289485942907000,0.164906982421875,-0.15549977379143237,-0.21192484084665775,-1.0784598376065493
1746289485952878600,0.174878662109375,-0.5985626899987458,-0.05154226344972849,-0.8569869778223336
1746289485962849800,0.184849853515625,-0.9877116451889276,0.06196925717890262,-0.6756362850680947
1746289485972820700,0.19482080078125,-1.1037696354299784,0.1892132428228855,-0.6392030356839299
1746289485982793000,0.20479296875,-0.9555074116766452,0.3356839069843292,-0.7788572978287934
1746289485992763600,0.214763671875,-0.5567828188896179,0.5166697119489312,-0.9562672901332377
1746289486002734600,0.224734619140625,-0.12743103264868258,0.6880375014796852,-1.139402309020981
1746289486012706800,0.234706787109375,0.07180734510421752,0.7163225157216191,-1.3334957981660962
1746289486022677800,0.244677734375,0.013154665127396582,0.6641641662001609,-1.4666947466917335
1746289486032648700,0.254648681640625,-0.3479074287414551,0.6115425830811262,-1.4818717114269733
1746289486042620700,0.26462060546875,-0.8899480210512876,0.5923778638839722,-1.347764415884763
1746289486052591900,0.274591796875,-1.331358493876457,0.6072913553774356,-1.2556525338985025
1746289486062562800,0.284562744140625,-1.4644026902318,0.6481216706767677,-1.2761238056495785
1746289486072534800,0.29453466796875,-1.1660106952875853,0.6875058788210153,-1.3363899121724068
1746289486082505700,0.304505615234375,-0.6163268947482109,0.662097589059174,-1.4251273492895067
1746289486092477700,0.314477783203125,-0.012592355069518089,0.6224582371100783,-1.507876944168657
1746289486102448600,0.32444873046875,0.4993810157567262,0.5601262840986252,-1.588034038336575
1746289486112419800,0.334419921875,0.6793441996753216,0.41288785043507814,-1.5998064553253353
1746289486122391800,0.344391845703125,0.4634896181643009,0.30165801100283857,-1.5254010565519331
1746289486132362800,0.35436279296875,-0.09678805710375309,0.22834756785929203,-1.3804923810102046
1746289486142333700,0.364333740234375,-0.6701601917445659,0.32346769175082446,-1.1852040560573338
1746289486152306000,0.374305908203125,-1.0543483096569777,0.47491468302011486,-1.0040634258572012
1746289486162276900,0.38427685546875,-1.1668471461117267,0.627887860943377,-0.8087488704845309
1746289486172247600,0.39424755859375,-1.0266846421837805,0.7633014167785644,-0.6489351059515028
1746289486182219800,0.4042197265625,-0.8152601520746946,0.7649275566756725,-0.5358360385812818
1746289486192190700,0.414190673828125,-0.46156829471290106,0.7451312615767121,-0.5479763390343636
1746289486202162700,0.42416259765625,-0.06956979531049728,0.7624220035955309,-0.44388906483314927
1746289486212133600,0.434133544921875,-0.09426701419353485,0.6175716341122984,-0.3363962930373847
1746289486222104800,0.444104736328125,-0.25084990704655646,0.5236231843486427,-0.5162321242492646
1746289486232076500,0.45407666015625,-0.2929647091984749,0.4894555418089032,-0.5821991823600605
1746289486242047700,0.4640478515625,-0.453828640371561,0.5043418530344963,-0.4885025519330054
1746289486252018700,0.474018798828125,-0.5049813199818134,0.550892884068191,-0.39222284621018916
1746289486261991000,0.483990966796875,-0.4204325667262077,0.6959191946402191,-0.2600930247534066
1746289486271961600,0.493961669921875,-0.22443419380784033,0.832876180525124,-0.20741649657674133
1746289486281932800,0.503932861328125,0.2046329302728176,0.8481845165550709,-0.2640431323523633
1746289486291904800,0.51390478515625,0.6467173568367958,0.6394897436708211,-0.33597112642787397
1746289486301875700,0.523875732421875,0.3895312325060367,0.38154403314441443,-0.4969239414608106
1746289486311847700,0.53384765625,0.13212941959798336,0.2908531238719821,-0.3433536013619974
1746289486321819000,0.54381884765625,-0.0005623100578784942,0.33257775766253467,-0.11246767413150519
1746289486331789800,0.553789794921875,-0.023141221612691876,0.4301388449653983,0.007965535519085824
1746289486341761800,0.56376171875,0.13190788580179214,0.5623673410236835,0.010282580289803445
1746289486351732700,0.573732666015625,0.30713410432636734,0.6345747913613915,-0.052368010216765105
1746289486361703700,0.58370361328125,0.36794133198857304,0.6234446177989245,-0.13327789551336316
1746289486371675600,0.593675537109375,0.3352905237525701,0.6036299102604389,-0.13142532644923777
1746289486381646600,0.603646484375,0.2709942849308252,0.6164458449527621,-0.08621507903262972
1746289486391618800,0.613618896484375,0.09162731333971023,0.592462035036087,0.04655848368778825
1746289486401589800,0.62358984375,0.010376432585716248,0.5884110060796142,0.3085055022774264
1746289486411560000,0.633559814453125,0.015509703820943832,0.5787570425495505,0.46886630623396486
1746289486421532000,0.643531982421875,0.07821078240573406,0.5121835064455866,0.5379655248906463
1746289486431502800,0.6535029296875,0.1548275736182928,0.47640930549204347,0.5433677857929841
1746289486441473800,0.663473876953125,0.2850502828121185,0.47654082291722294,0.40627456977516413
1746289486451445800,0.67344580078125,0.3987356987029314,0.4720592935889959,0.14904511775933205
1746289486461416700,0.683416748046875,0.4267950874954462,0.4947068864658475,-0.06379245401807129
1746289486471388000,0.693387939453125,0.3285831350684166,0.46786008833348747,-0.1602964334834367
1746289486481359600,0.703359619140625,0.1654156031280756,0.433225997325778,-0.16071239387318492
1746289486491330800,0.713330810546875,-0.04503331994712353,0.37804187024235725,-0.04897168230935931
1746289486501302800,0.723302734375,-0.16325053404867648,0.3364069605618715,0.0923994302233681
1746289486511274000,0.73327392578125,-0.16934359022676942,0.26068390331864355,0.22954675104860214
1746289486521244700,0.74324462890625,-0.09426058445274829,0.1398898244664073,0.2594575763940811
1746289486531217000,0.753216796875,0.06867196968793869,0.018018471771478653,0.16161073095239697
1746289486541187800,0.763187744140625,0.1850479398369789,-0.02326572477519512,0.011212518083676695
1746289486551158800,0.77315869140625,0.1138280392318964,0.030994565461575984,-0.2140640448324382
1746289486561130800,0.783130859375,-0.1783732843786478,0.15554507423788308,-0.49910650966428216
1746289486571102000,0.79310205078125,-0.49971828488707537,0.2355140984877944,-0.6458989531259983
1746289486581073700,0.80307373046875,-0.811447315788269,0.29201690695434807,-0.5166770184725523
1746289486591044900,0.813044921875,-0.9169324740886687,0.30288112305700776,-0.19151348258927464
1746289486601015800,0.823015869140625,-0.7590729854285717,0.3133081167861819,0.08313289510831236
1746289486610987800,0.83298779296875,-0.48800388169586656,0.23707155706286429,0.2699417071379721
1746289486620958700,0.842958740234375,-0.1389905375391245,0.13295797937661408,0.4017303504742682
1746289486630929700,0.8529296875,0.16326339353024957,0.04633563471734523,0.4789733838263899
1746289486640902000,0.86290185546875,0.434878440707922,-0.054500236472487446,0.4401890412714332
1746289486650872800,0.872872802734375,0.6210007317781449,-0.1269347735643387,0.24937632736265658
1746289486660844800,0.8828447265625,0.6704086135476828,-0.082616031627357,0.1825184213593602
1746289486670815700,0.892815673828125,0.5699053353130817,0.005368249034881592,0.23831688094884157
1746289486680787000,0.902786865234375,0.42248540760278697,0.06972410908937454,0.3509294069111347
1746289486690758700,0.912758544921875,0.2563309688061476,0.049936874079704284,0.486823622402735
1746289486700729900,0.922729736328125,0.18988719656169414,-0.10765256546735763,0.6087956589931621
1746289486710700800,0.93270068359375,0.310713716378808,-0.22788725687116382,0.6916779768738895
1746289486720672800,0.9426728515625,0.41595279096364973,-0.2834685665786266,0.781816147634387
1746289486730643700,0.952643798828125,0.46047582330107684,-0.33073709823191166,0.7780882131524384
1746289486740615000,0.962614990234375,0.3556476676046848,-0.30878041022866964,0.6636037558384239
1746289486750586600,0.972586669921875,0.057692310512065886,-0.20109861866682766,0.45073893072791393
1746289486760557800,0.982557861328125,-0.2546867087304592,-0.0282815071105957,0.22801753218732773
1746289486770529800,0.99252978515625,-0.5067284559100866,0.13174305062890052,0.12375150388572365
1746289486780501000,1.0025009765625,-0.684817078128457,0.19773118806034326,0.07310337626412511
1746289486790471700,1.0124716796875,-0.7456821734577417,0.17528057906031608,0.11630257611926645
1746289486800444000,1.02244384765625,-0.625329116371274,0.11221972725242375,0.24455343725085257
1746289486810414800,1.032414794921875,-0.40865854230225085,0.028951369196176528,0.3443812639093026
1746289486820386000,1.042385986328125,-0.16811024903953076,-0.050962709996104236,0.31231055711619554
1746289486830357800,1.052357666015625,-0.05783259576559067,-0.08309270922839641,0.21479319935720412
1746289486840329000,1.062328857421875,-0.12136603352129459,-0.06658551880270243,0.101174930418469
1746289486850300700,1.07230078125,-0.24365619615018366,-0.024616262601315973,-0.02501885205283761
1746289486860271900,1.08227197265625,-0.355966232034564,-0.031794483667612075,-0.18158044638950377
1746289486870242800,1.092242919921875,-0.44656011067330836,0.0003495440900325775,-0.2878741080611944
1746289486881461000,1.1034609375,-0.4856617024838924,0.004532382732629776,-0.3429330013297498
1746289486891432700,1.1134326171875,-0.4699971003621816,0.04860328738838434,-0.3118831254843622
1746289486901404000,1.12340380859375,-0.4559638988345861,0.11767331648319959,-0.23095227046497166
1746289486911374800,1.133374755859375,-0.4213742314904928,0.08412468262463807,-0.18750899618826805
1746289486921346800,1.143346923828125,-0.40154257281720634,-0.00549509028494358,-0.13734035917930304
1746289486931317800,1.15331787109375,-0.39081542709767814,-0.14056319368332623,-0.12553111731149255
1746289486941288700,1.163288818359375,-0.4218880262315273,-0.254353238992393,-0.04654905827231705
1746289486951261000,1.173260986328125,-0.4663748182117939,-0.2874406850799918,0.24933409565612671
1746289486961231600,1.183231689453125,-0.712734428101778,-0.2541474872872233,0.43666327829807994
1746289486971203800,1.193203857421875,-0.9235685511022805,-0.07040449256896972,0.5796691889584065
1746289486981174800,1.2031748046875,-1.0411895528763533,0.05079553673565387,0.44638380425833163
1746289486991145700,1.213145751953125,-1.079472814041376,0.12312222953885793,0.14935703325271604
1746289487001117700,1.22311767578125,-1.026784595426917,0.11510989573597907,-0.07910437024459242
1746289487011089000,1.2330888671875,-0.9557698620051145,0.05505933165997266,-0.32123467200174927
1746289487021059800,1.243059814453125,-0.8469125969231128,-0.07504442732930183,-0.36805809023603797
1746289487031031800,1.25303173828125,-0.6431757387071848,-0.1510571151688695,-0.28633038575053216
1746289487041002800,1.263002685546875,-0.4425760094732046,-0.21848989845067263,-0.222027132666111
1746289487050974700,1.272974609375,-0.3462321890056133,-0.2643228443428874,-0.1126756543263793
1746289487060945700,1.282945556640625,-0.09446165998280048,-0.23349252953231334,-0.09021335488855839
1746289487070916900,1.292916748046875,0.2674707869797945,-0.19066899458914993,-0.14138620050400494
1746289487080888800,1.302888916015625,0.603935615208745,-0.1916530371904373,-0.17112872007787228
1746289487090859800,1.31285986328125,0.8168518051803112,-0.10202040479928254,-0.09409209601804613
1746289487100830700,1.322830810546875,0.868411896547675,-0.021012100629508493,-0.05344941224530339
1746289487110803000,1.332802978515625,0.6868354322135448,-0.021553660160303113,-0.034731413902342315
1746289487120774000,1.34277392578125,0.4144423864006996,-0.012144903562963008,0.05599076729118824
1746289487130745900,1.352745849609375,0.1713981846690178,0.029657763899862764,0.12066899116784334
1746289487140717800,1.3627177734375,-0.11179565662145614,0.11291706186681985,0.16479615605548023
1746289487150689800,1.372689697265625,-0.05394084902405739,0.18493951102644204,0.09698445645868778
1746289487160660700,1.38266064453125,0.10230945087373255,0.27346125956624745,-0.04152531182616949
1746289487170632000,1.3926318359375,0.22077216416895387,0.33296237306594845,-0.17080182621106504
1746289487180603600,1.402603759765625,0.21376842288672923,0.3832844470709562,-0.3033849809259176
1746289487190574800,1.412574951171875,0.10311199942827225,0.4394938255488872,-0.3555754791513085
1746289487200545800,1.4225458984375,-0.025905425629019735,0.4249918374657631,-0.27290830185860393
1746289487210517800,1.432517822265625,-0.1309896019130945,0.40178018096536394,-0.08711261239424348
1746289487220488700,1.44248876953125,-0.1376174956202507,0.26467355747669935,0.06969064521118998
1746289487230461000,1.4524609375,-0.04393383427262306,0.19703356118500231,0.11952771217823027
1746289487240431900,1.462431884765625,0.08926993655860424,0.19044132331311703,0.1206052782818675
1746289487250402800,1.47240283203125,0.2069587428718805,0.23570611392855642,0.047904053077846766
1746289487260374800,1.482374755859375,0.17796178096830845,0.328522637052834,-0.08797215183302759
1746289487270346000,1.492345947265625,0.08654898716211318,0.3744321553125977,-0.2057953981809318
1746289487280317700,1.502317626953125,-0.03313829949200153,0.40444267817288637,-0.2543131992429495
1746289487290289000,1.512288818359375,-0.16452011559307575,0.3881052913561463,-0.1536434784002602
1746289487300259800,1.522259765625,-0.25905074915885923,0.3548313827857375,0.020744974125921724
1746289487310231800,1.532231689453125,-0.30843700361847876,0.3055912587985396,0.1644023344323039
1746289487320202800,1.54220263671875,-0.2869850502669811,0.2716732071056962,0.24258929757103323
1746289487330173700,1.552173583984375,-0.18751111508011817,0.2636532745182514,0.2160818143956363
1746289487340146000,1.56214599609375,-0.07613982135057448,0.2781149305909872,0.12054887191951275
1746289487350116600,1.57211669921875,0.07255494860112667,0.2589928814917803,0.007178951718658209
1746289487360088800,1.5820888671875,0.1602782402396202,0.25202596508860586,-0.0950220703445375
1746289487370059800,1.592059814453125,0.17249416321218014,0.23483079239875077,-0.08479936701580881
1746289487380031000,1.602031005859375,0.09795710088312626,0.2160495195612311,0.002802197939157486
1746289487390002700,1.612002685546875,0.05518237351775169,0.17568974438309667,0.18577954204715788
1746289487399974000,1.621973876953125,0.04469137464165687,0.1694856290459633,0.31403350845128297
1746289487409945000,1.631945068359375,0.02575754159092903,0.10914397306889295,0.3262888135861605
1746289487419917000,1.6419169921875,0.08764788831472396,0.03499152614325285,0.26793650479540226
1746289487429888000,1.651887939453125,0.2059486890465021,0.010912146897614002,0.14902692451551555
1746289487439860200,1.661860107421875,0.2163181073695421,0.00895809022039175,0.027291107833757995
1746289487449831000,1.671830810546875,0.03887888897061348,-0.01568535264879465,-0.06860029269121587
1746289487459802000,1.681802001953125,-0.22684768469035624,-0.01584755747318268,-0.12456709458492696
1746289487469774000,1.691774169921875,-0.451402290007472,-0.003736848440766334,-0.06921250630542636
1746289487479745000,1.7017451171875,-0.5900742631167173,-0.015697335347533224,0.007787877397239208
1746289487489716000,1.711716064453125,-0.6200859550207853,-0.04808481647223234,0.02531527771614492
1746289487499688200,1.721688232421875,-0.5404390023320913,-0.08014964151382446,0.023463950761035083
1746289487509659100,1.7316591796875,-0.39751404795348644,-0.10174480272829532,-0.01559840501770377
1746289487519631000,1.741631103515625,-0.2975678190797567,-0.13108721706867218,-0.09778291335999965
1746289487529602000,1.75160205078125,-0.2929951043367386,-0.15650573596358297,-0.21942586412653325
1746289487539573200,1.7615732421875,-0.37696167379021644,-0.1430371825814247,-0.2580642223395407
1746289487549545000,1.771544921875,-0.5337134934693575,-0.14074497999101876,-0.2043055980145931
1746289487559516200,1.78151611328125,-0.663227762132883,-0.1500911927461624,-0.14092844679914415
1746289487569487000,1.791487060546875,-0.7497527838975191,-0.21152853500545024,-0.09805844236575066
1746289487579459000,1.801458984375,-0.7617974419564009,-0.2827650944843888,-0.0889247763827443
1746289487589430000,1.811429931640625,-0.7277168931782245,-0.2822770187065005,-0.09428345387168229
1746289487599402200,1.82140234375,-0.6348790350049733,-0.22376228589564562,-0.12394172922819852
1746289487609373200,1.831373291015625,-0.5233481667995452,-0.20742811394929886,-0.20472280051335692
1746289487619344000,1.84134375,-0.46810500300526614,-0.19968641378134488,-0.27083259156309064
1746289487629316000,1.851316162109375,-0.4985995099902153,-0.19205226564109323,-0.28021884406767783
1746289487639287000,1.861287109375,-0.5442489160090684,-0.18391250606626272,-0.2140288273885846
1746289487649259000,1.871259033203125,-0.5367144288510084,-0.1997171011805534,-0.12214542039595544
1746289487659230000,1.88122998046875,-0.5159159709721803,-0.18468436722159384,-0.025865458944812417
1746289487669201200,1.891201171875,-0.4718588025808334,-0.14695026437193154,-0.013487623408809303
1746289487679173000,1.901173095703125,-0.4774146831423044,-0.12182809807509183,0.07026062711887061
1746289487689144000,1.91114404296875,-0.5314081391364336,-0.05276420646011829,0.08929514406509696
1746289487699115000,1.921114990234375,-0.5677589709341526,0.021825462839007378,0.03547806755118072
1746289487709087200,1.931087158203125,-0.5645791718542575,0.08691109847277402,-0.10442183991782367
1746289487719058000,1.941057861328125,-0.527751954716444,0.11956687514483928,-0.2293953233465552
1746289487729030100,1.951030029296875,-0.483829226359725,0.16473492738753556,-0.32276093172095716
1746289487739001000,1.9610009765625,-0.4022077587276697,0.19303046302348373,-0.32986148444116115
1746289487748972300,1.97097216796875,-0.3582224865287542,0.17420447426140306,-0.2568394297849387
1746289487758944000,1.980944091796875,-0.32641163624823094,0.14472119014561174,-0.16024324199147522
1746289487768915200,1.990915283203125,-0.3807967219084501,0.14343231937885284,-0.07737893469147383
1746289487778886100,2.00088623046875,-0.5062748669236898,0.11880991929769515,-0.06611585546433925
1746289487788858000,2.010858154296875,-0.5668360108703374,0.11742109528779983,-0.1375501294724643
1746289487798829000,2.0208291015625,-0.5399520955979824,0.16897534143626688,-0.2644964473441243
1746289487808801300,2.03080126953125,-0.4347849172055721,0.19934125360548496,-0.38273316986374556
1746289487818772000,2.04077197265625,-0.2437853754878044,0.17740122447609902,-0.42689547912999987
1746289487828743000,2.050742919921875,-0.025306290692090987,0.16453355959653854,-0.38930385349094865
1746289487838715100,2.060715087890625,0.21107962219417095,0.13241525080204009,-0.3357622329175472
1746289487848686000,2.07068603515625,0.2569347799181938,0.181500476488471,-0.40671464169286187
1746289487858658000,2.080657958984375,0.1475689807921648,0.3910141645401716,-0.44293640375081444
1746289487868629000,2.09062890625,-0.1526093130469322,0.737602327376604,-0.6891683321405202
1746289487878600200,2.10060009765625,-0.5435083267748355,0.8620330091655254,-0.9200227682542055
1746289487888572000,2.110572021484375,-1.1344371608942747,0.6753221045523882,-0.6326673503048718
1746289487898543000,2.120543212890625,-1.7748165468811987,0.7326391520112753,-0.8097314517810941
1746289487908514000,2.13051416015625,-1.8092594992309807,0.8241542371481656,-0.8036426333867013
1746289487918486000,2.140486083984375,-1.5649866324871777,0.8401794892758131,-0.5100363383490591
1746289487928457000,2.15045703125,-1.1034744518756865,0.7286971363872289,-0.3221378313865512
1746289487938429200,2.16042919921875,-0.5334060349553823,0.649033232563734,-0.12466003356538712
1746289487948400000,2.170400146484375,-0.12743746238946915,0.5843243212878704,-0.11604085644315927
1746289487958371000,2.18037109375,0.1165811373323202,0.4171995761543512,-0.18248974325414746
1746289487968343000,2.190343017578125,0.16163842267692088,0.3631611119747162,-0.2442558425437659
1746289487978314200,2.200314208984375,0.07585223658084869,0.33952889197468755,-0.31632742807473985
1746289487988285200,2.21028515625,-0.19676292755007743,0.36724925807118414,-0.3313855887359008
1746289487998257200,2.220257080078125,-0.43970776056051253,0.4390940125763416,-0.318521613650769
1746289488008228000,2.23022802734375,-0.4831429976612329,0.47485447726547714,-0.13215543995522894
1746289488018200000,2.240199951171875,-0.2594330264747143,0.49694414399862286,0.1283916943743825
1746289488028171000,2.2501708984375,0.052903907191753384,0.4021896385490894,0.41207657058481123
1746289488038142000,2.260141845703125,0.27407705337703225,0.2532844407171011,0.4679068866172805
1746289488048114200,2.2701142578125,0.30299861195683475,0.15612930386662482,0.0517357949941419
1746289488058084900,2.2800849609375,0.015153145468235015,0.3521136482596397,-0.7259878774285317
1746289488068057000,2.29005712890625,-0.5768751743257046,0.5860708726942538,-1.2983172250181436
1746289488078028000,2.300028076171875,-1.5544570551663637,0.62328504332304,-1.442118523839861
1746289488087999200,2.309999267578125,-2.064871506112814,0.8920452855914831,-1.4517390234917402
1746289488097971000,2.319970947265625,-2.0752356637388467,1.2501181345164776,-1.1148839538361877
1746289488107942100,2.329942138671875,-1.9630302572727203,1.2978928621262311,-0.7954539201036095
1746289488117913000,2.3399130859375,-1.5322504840552806,0.9891577523440122,-0.6626217590637504
1746289488127885000,2.349885009765625,-1.4726280822634696,0.3823118026465177,-0.5408879151433706
1746289488137856000,2.35985595703125,-1.8314052800655365,0.255932909399271,-0.0929286782618612
1746289488147828200,2.369828125,-2.626937233841419,0.684287501296401,0.2009340757548809
1746289488157799000,2.379798828125,-2.8439544293910264,1.4609639479547738,0.49144532738663255
1746289488167770000,2.38977001953125,-1.8734516931563614,1.9905273360073565,-0.2363945345841348
1746289488177742000,2.3997421875,-0.5341641598463058,2.281601701414585,-1.6075219981387256
1746289488187713000,2.409713134765625,0.09485328964889049,2.0616700797230005,-2.6023615955114363
1746289488197685000,2.41968505859375,0.33139059370458124,1.9689181462675331,-3.305042247110605
1746289488207656200,2.42965625,-0.38752515338063237,2.212684232532978,-2.6911040010645984
1746289488217627100,2.439627197265625,-2.123781375721097,1.5497148290753364,-1.7761678153596818
1746289488227599000,2.44959912109375,-3.2813971676290032,0.7456792508482932,-1.2935808441460133
1746289488237570000,2.459570068359375,-3.537681374683976,0.5644885709613562,-0.47920755790844555
1746289488247541200,2.469541259765625,-2.6958558717668053,0.7464572494834661,0.11687281375527381
1746289488257513000,2.479512939453125,-1.372506496822834,0.9443442126274109,-0.01779284632205963
1746289488267484200,2.489484130859375,-0.4132774342745542,0.8248316980183124,-0.7453903509043157
1746289488277456100,2.4994560546875,0.36099195124208927,0.7924491853296757,-0.9257149154812097
1746289488287427000,2.509427001953125,1.0971142691940068,1.51251994766891,-0.9148350634180009
1746289488297398000,2.51939794921875,0.7336901223689317,1.089926403516531,-1.565288976434618
1746289488307370200,2.529370361328125,-0.5997662205696106,0.2296469600200653,-2.4703970110863445
1746289488317341200,2.539341064453125,-1.3616624467253684,0.7574550288379192,-2.3625214505180714
1746289488327312000,2.549311767578125,-1.6936498372793196,1.4329682720482348,-1.709081361297518
1746289488337284000,2.5592841796875,-1.7300848402291535,1.3833353493511675,-1.37730659058094
1746289488347255000,2.569255126953125,-1.2383721671432255,1.3519734118819235,-1.4737623469904064
1746289488357227000,2.57922705078125,-0.5317576832264661,1.7250369091898201,-1.6820044076710938
1746289488367198000,2.589197998046875,0.14649053790569305,2.3346394641190766,-1.5006348640859126
1746289488377169200,2.599169189453125,0.5152624754995108,2.7719506849318742,-0.9358902725368737
1746289488387140900,2.609140869140625,0.8625760300010442,2.809506800866127,-0.5971744505107403
1746289488397112000,2.619112060546875,0.43910044231712814,2.664038007223606,-0.8524564947858452
1746289488407084500,2.62908447265625,-0.8027689192920923,2.285226906174421,-1.3935054457098244
1746289488417055500,2.639055419921875,-1.3680185377538203,2.14858030141294,-1.6127598987922072
1746289488427026400,2.6490263671875,-1.7364347937777638,2.244602050319314,-1.6948311560183762
1746289488436998400,2.658998291015625,-1.4927499560549855,2.9875971766501666,-2.0343828443467618
1746289488446969600,2.668969482421875,-1.4079910671800375,3.938759837120771,-2.368719720636308
1746289488456940300,2.678940185546875,-1.7092691389545798,4.745347437918186,-2.682809050928056
1746289488466912500,2.68891259765625,-1.603261710345745,4.198654635888338,-1.7057608385726808
1746289488476883500,2.698883544921875,-0.9252674639746546,4.231706426140666,-1.2899676220849157
1746289488486855400,2.70885546875,-0.473935316593945,3.7880052120298147,-0.9671662852883338
1746289488496826400,2.718826416015625,-0.3621101416170597,3.18531813557744,-0.5693839417874813
1746289488506797600,2.728797607421875,-0.3577963700711727,3.2650165261924267,-0.20559680686891077
1746289488516769500,2.73876953125,0.22073022472336887,3.7376036430478092,0.04652326624393463
1746289488526740500,2.748740478515625,1.4633506969608365,4.313739397183061,-0.39252398458123205
1746289488536712400,2.75871240234375,1.2064515728779137,4.657160035899281,-1.8901152431875465
1746289488546683600,2.76868359375,0.329436537027359,4.483796688637137,-4.77191571137011
1746289488556654300,2.778654296875,-0.014627806419879198,3.5744419563263654,-6.710225953406095
1746289488566626600,2.78862646484375,0.3868009307593107,4.022223133227229,-6.354342138957977
1746289488576597500,2.798597412109375,0.477969394415617,5.055110137182474,-5.239544329035282
1746289488586569500,2.808569580078125,-0.844985720513761,4.56277494828403,-3.6724054869502782
1746289488596540400,2.81854052734375,-1.9038254963710903,3.498535943731665,-1.154645836186409
1746289488606511400,2.828511474609375,-2.0777835946559904,3.1279362061887976,1.2939941011220215
1746289488616483300,2.8384833984375,-2.4974054295212027,3.263189310765266,1.667160474282503
1746289488626454300,2.848454345703125,-2.8189354312077164,3.6933863156586884,-0.558272765186429
1746289488636425500,2.858425537109375,-2.7129601513028145,3.912980668219924,-4.227403175988793
1746289488646397400,2.8683974609375,-2.2760101650178433,3.236751970216632,-6.222888426664471
1746289488656368400,2.878368408203125,-1.3571224652081728,2.3661031083971262,-5.435268561187386
1746289488666340400,2.88834033203125,0.000011699570948258042,1.2513608280539512,-2.939387564754486
1746289488676311600,2.8983115234375,1.4575427413344382,0.6724655460774898,1.7122481547653674
1746289488686282500,2.908282470703125,3.711092068219185,0.9484837966501712,4.150713904061913
1746289488696254500,2.91825439453125,5.642636469382047,-0.12100713708102702,2.21068516767025
1746289488706225400,2.928225341796875,5.598583392643929,-2.3776541377201674,-1.7023966228365897
1746289488716197400,2.938197265625,3.7920036340162158,-3.3304294940844175,-4.591139457502961
1746289488726168300,2.948168212890625,1.1436568246603012,-3.161358583319187,-5.984448503857851
1746289488736139500,2.958139404296875,-4.396275641572475,-3.1546225530624388,-7.5741510599285355
1746289488746111500,2.968111572265625,-4.84156470939666,-1.3077498008824884,-5.467293346479535
1746289488756082400,2.97808251953125,-6.971092227554321,1.870486267479509,-4.713717204901576
1746289488766054400,2.988054443359375,-8.053963451862336,3.0972502682849763,-4.216338761138916
1746289488776025600,2.998025634765625,-7.424573661923408,2.390771393446624,-4.557919324946403
1746289488785996500,3.00799658203125,-3.5091409243762492,-2.1969909888386727,-2.5625544857800007
1746289488795968500,3.017968505859375,2.1841759309291837,-8.981541823127865,-1.999704329675436
1746289488805939500,3.027939453125,5.015750771218538,-12.190345463711022,-6.089203009796142
1746289488815910400,3.037910400390625,1.6403911253005266,-10.691636014729738,-10.053030652678013
1746289488825882400,3.04788232421875,-7.265151746252179,-6.466880138379335,-9.892768779051304
1746289488835853300,3.057853271484375,-16.19995052290559,-1.5504329142168163,-5.74475887325108
1746289488845825500,3.067825439453125,-18.99747228694558,2.818872010582685,-1.7020301276117562
1746289488855796200,3.077796142578125,-14.821877039605377,4.701306928400695,1.2394617159456014
1746289488865767400,3.087767333984375,-6.969581822991371,1.6854758831739425,1.9892501556783913
1746289488875739400,3.097739501953125,2.103650734101236,-2.020834795987606,-1.9937673408418892
1746289488885710600,3.107710693359375,9.097046271139384,-3.415955860200524,-6.608994360896944
1746289488895682300,3.117682373046875,10.27500634741783,-3.512994677194953,-7.691235470607876
1746289488905653500,3.127653564453125,5.130882294264436,-2.0813585305333135,-4.997924607148766
1746289488915624400,3.13762451171875,-3.4991356631904837,-1.8208488147377966,-1.0074036031305789
1746289488925596400,3.147596435546875,-9.596128596210479,-2.043489695388079,1.8773510386824608
1746289488935567400,3.1575673828125,-9.527940610647201,-1.6887404379278421,3.6695728938728567
1746289488945539600,3.16753955078125,-4.128353311432898,-3.7651118276983495,4.138894579191506
1746289488955510300,3.17751025390625,3.5050822966352104,-2.10678523273468,6.260166310179233
1746289488965481500,3.1874814453125,10.256071345323324,5.222953259718418,8.703398250964284
1746289488975453400,3.197453369140625,12.305057884562014,14.068602511322498,9.51457142598629
1746289488985424600,3.207424560546875,8.378880465638638,19.33252140315771,9.891291107714176
1746289488995396400,3.217396240234375,2.1083169723466035,18.572673341703414,8.394927345076203
1746289489005367600,3.227367431640625,-2.435045419459045,15.62650999920368,5.352353546613455
1746289489015338500,3.23733837890625,-4.866381170745194,13.139066576248407,2.6978683806329964
1746289489025310500,3.247310546875,-6.275507671695947,10.76583873053789,0.9769093884065747
1746289489035281400,3.257281494140625,-7.849282590794563,7.5853955075204365,0.47433279147893187
1746289489045252600,3.267252685546875,-9.141856888246537,3.8405180740773677,0.2934256047084927
1746289489055224300,3.277224365234375,-10.022031118780374,1.9088684589743614,0.605780074031651
1746289489065195500,3.287195556640625,-10.095731145763397,2.437126025125384,2.068892432191968
1746289489075167500,3.29716748046875,-11.138375573623179,4.8099832839578385,6.035148763525486
1746289489085138400,3.307138427734375,-13.489025676822662,10.610699606752394,7.383310508164763
1746289489095110400,3.3171103515625,-16.196037733376023,16.388170078516005,6.903740108293294
1746289489105081600,3.32708154296875,-17.556035461759567,18.155489547640084,6.2542421808272595
1746289489115052500,3.337052490234375,-14.765074371409415,15.041691172397135,5.04728572716713
1746289489125024500,3.3470244140625,-7.834137044110894,10.27414943832755,4.337890672621131
1746289489134995500,3.356995361328125,1.1284972494512795,9.030596653676033,6.350083312469721
1746289489144966400,3.36696630859375,10.025644633102416,10.741066692852973,8.775687242105603
1746289489154938400,3.3769384765625,16.25936600394845,10.633372041809558,9.069552699536084
1746289489164909300,3.386909423828125,17.709525064772368,7.947327954483032,5.2615129997372625
1746289489174881500,3.396881591796875,12.442578349548578,5.40394754025042,0.9071355218913406
1746289489184852500,3.4068525390625,2.404834113329649,5.395292524629831,0.34656193241663275
1746289489194823400,3.416823486328125,-8.578288939261435,5.109163798931241,1.3624749321520329
1746289489204795400,3.42679541015625,-16.023117453706263,2.551386318294704,2.5768606590300798
1746289489214766600,3.4367666015625,-14.72151696923375,-1.2775795574158428,3.887767316508293
1746289489224738300,3.44673828125,-6.295225933122635,-3.2531641758352516,4.07785441955626
1746289489234709500,3.45670947265625,2.5378286253243685,-5.178634810042381,1.829651129874587
1746289489244680400,3.466680419921875,7.9383239792942994,-6.65516165331006,-0.7481043591033667
1746289489254652400,3.47665234375,9.417232164740561,-7.033857019025087,-3.1502006449669597
1746289489264623400,3.486623291015625,7.39709879502058,-8.124636824500561,-7.096769110012054
1746289489274595600,3.496595703125,2.4438135400652885,-6.829768863153458,-8.59413532769084
1746289489284566500,3.50656640625,-1.5357646296560763,-3.4334374486163255,-5.551857297304272
1746289489294537500,3.516537353515625,-2.0509353352189064,-2.7783433085784313,-4.583364731848239
1746289489304509400,3.526509521484375,0.5936404311656952,-3.104820703539252,-6.28484540888369
1746289489314480600,3.536480712890625,4.952089907690882,-2.8989754748672247,-8.3335022777766
1746289489324452400,3.546452392578125,7.969521081590652,-2.806597343160212,-7.863425097915529
1746289489334423600,3.556423583984375,8.138934814444184,-2.965007159179449,-4.308948655775189
1746289489344394500,3.56639453125,6.427990143492818,-4.118170355592667,0.36091662098355587
1746289489354366500,3.576366455078125,4.254852323928475,-3.961015508070588,5.792438908314705
1746289489364337400,3.58633740234375,3.16187530066967,-2.155325976280868,9.201884363707899
1746289489374309600,3.5963095703125,3.280765883988142,-1.5557625848069787,7.942229170039296
1746289489384280300,3.6062802734375,3.7020349015384912,-2.101480988846719,3.826438110798597
1746289489394251300,3.616251220703125,4.458312118768692,-2.7937726406395433,-0.3253908053005114
1746289489404223500,3.626223388671875,5.1072272779107095,-3.3098826728790995,-2.9717715387478467
1746289489414194400,3.6361943359375,5.259370727011561,-3.6198715821146963,-3.293846314835548
1746289489424165400,3.646165283203125,4.417826963645219,-3.451106376297772,-2.0184385485008356
1746289489434137300,3.656137451171875,2.750583487254381,-3.3899177481025458,0.13120328119639307
1746289489444108300,3.6661083984375,0.4149006515622139,-2.645034031546116,3.557345275574922
1746289489454080300,3.676080322265625,-1.2083891168117522,-1.1190604358032346,6.408567650142312
1746289489464051200,3.68605126953125,-1.3703402586996554,-0.3488394488945603,6.511326013827324
1746289489474022400,3.6960224609375,-0.4742623565912246,-0.8168149803012609,2.7688281689971683
1746289489483994400,3.705994384765625,0.8603881645679473,-1.854360331456363,-2.7561311845093965
1746289489493965300,3.71596533203125,1.6596487834781408,-2.758608680538833,-7.502734175446629
1746289489503937300,3.725937255859375,1.1572247467637062,-3.292451937867701,-9.390835740724205
1746289489513908500,3.735908447265625,-0.333349326556921,-3.0999338082805274,-7.91422706439197
1746289489523879200,3.745879150390625,-2.4239561624288557,-2.741433966115117,-4.584868122148514
1746289489533851400,3.755851318359375,-4.489503375846147,-2.3950787352517247,-0.7734867107063531
1746289489543822300,3.765822265625,-5.113337869745493,-1.7533710232704878,2.2080181404180825
1746289489553794300,3.775794189453125,-3.8911400078117846,-0.9388140510290861,4.379325091293454
1746289489563765200,3.78576513671875,-1.7076017902642489,-0.2090285348832607,4.507660379305482
1746289489573736400,3.795736328125,0.5760661960303783,-0.2514887894719839,2.739272404167056
1746289489583708200,3.805708251953125,2.3678759632885455,-0.5277420178443193,0.43521731727346774
1746289489593679400,3.815679443359375,3.2075591934800145,-0.7462921220496297,-1.0773029957216231
1746289489603651300,3.8256513671875,3.2245570900321003,-0.9064885292246937,-1.8821403187856076
1746289489613622500,3.83562255859375,2.5095991406619547,-1.3995549550071358,-1.8405623999893663
1746289489623593200,3.84559326171875,1.1613573165237903,-1.159392153930664,-0.5942272911429405
1746289489633565400,3.8555654296875,-0.3481710481137037,0.5920388411879539,1.6803317982837558
1746289489643536400,3.865536376953125,-1.7395371437072753,2.425220483276248,3.5396146808341142
1746289489653508400,3.87550830078125,-2.4726591107994316,3.041992491443455,4.563926748667657
1746289489663479300,3.885479248046875,-2.225140394002199,2.864671638727188,4.57167137144506
1746289489673450200,3.8954501953125,-1.131049856543541,2.4892846669077873,2.751073608858883
1746289489683422200,3.905422119140625,0.04940963533520698,1.4218191015243529,0.4717098590968176
1746289489693393200,3.91539306640625,0.8851660474717616,0.35533962456881996,-1.0730804826557636
1746289489703365400,3.925365478515625,1.2159879013776778,-0.4166346357479691,-1.2621160308241843
1746289489713336300,3.93533642578125,0.9982254404187202,-0.7897334966301918,-0.5530597067132592
1746289489723307300,3.945307373046875,0.4672860878378153,-0.38402532856613397,0.8871136744081973
1746289489733279200,3.955279296875,0.033621699094772334,0.5483458299338817,2.28849745227769
1746289489743250400,3.96525048828125,0.11733341700434684,1.1061565305665135,2.1239976488202807
1746289489753222100,3.97522216796875,0.49254386321306226,1.1718421779200434,0.751352181918174
1746289489763193300,3.985193359375,1.0082079052507877,0.9505106263026595,-0.9624022857569158
1746289489773164300,3.995164306640625,1.490277720722556,0.6590162819176912,-2.424966508515179
1746289489783136300,4.00513623046875,1.8629256229668854,0.3557753856375813,-3.40922187577039
1746289489793107200,4.015107177734375,2.0443308223873378,0.09385171139091253,-3.584429389594495
1746289489803078400,4.025078369140625,2.007720462870598,0.4277563337430358,-2.664509716388583
1746289489813050400,4.03505029296875,1.7836200310617685,1.5364078959956764,-0.7886644060939549
1746289489823021300,4.045021240234375,1.6243758100450039,2.5044319671571253,0.7042124642763287
1746289489832993300,4.0549931640625,1.5341677158534526,2.808903866536915,1.0160730856679379
1746289489842964500,4.064964599609375,1.223572657418251,2.6015838891372085,0.568248142690584
1746289489852935400,4.074935302734375,0.973040730279684,2.227518521310389,-0.24721925892662255
1746289489862907400,4.084907470703125,0.9258078544616699,1.8730553873151539,-1.3991672708638012
1746289489872878300,4.09487841796875,0.7260276249170303,1.4607365689396858,-2.187035850404948
1746289489882850300,4.104850341796875,0.30733459533452984,1.0645637064620852,-2.4444969922848045
1746289489892821200,4.1148212890625,-0.11758768402636051,0.6779822636723518,-2.023241418737918
1746289489902792200,4.124792236328125,-0.4348275873035192,0.5013634217455983,-0.9969878614477813
1746289489912764400,4.134764404296875,-0.5295698177933693,0.6965954864665865,0.2345357001760043
1746289489922735000,4.144735107421875,-0.3256511732697487,0.9227078426197171,1.2860564399905503
1746289489932707300,4.154707275390625,0.207970550262928,1.0831646542966364,1.720787873443216
1746289489942678300,4.16467822265625,1.0005302102297544,1.0438462048649788,0.9845685979228466
1746289489952649500,4.1746494140625,1.5411094978153705,0.710058194629848,-0.3293157601919025
1746289489962621200,4.18462109375,1.5987392644852398,0.4371335261583328,-1.2347832027405499
1746289489972592400,4.19459228515625,1.3526087871760129,0.33917028779536484,-1.5347243268229067
1746289489982564000,4.204564208984375,0.9935118559002876,0.3075023531168699,-1.2457846353568136
1746289489992535300,4.214535400390625,0.5346405451864004,0.4599503381222486,-0.5867234183188528
1746289490002506200,4.22450634765625,0.19486206236481665,0.7444602304473519,-0.08169701708629727
1746289490012478500,4.234478515625,0.11021335586607456,0.9549179213508963,0.056391274383477866
1746289490022449200,4.24444921875,0.2178571535050869,1.0318570763856172,-0.3908993790540844
1746289490032421400,4.25442138671875,0.22198387804627417,0.9503668339177965,-0.9849485371511429
1746289490042392300,4.264392333984375,0.16076280888617037,0.785486360579729,-1.2576144816212356
1746289490052363500,4.274363525390625,0.0660480509251356,0.597096416838467,-1.2646674688726662
1746289490062335200,4.284335205078125,-0.07305822194814682,0.32168957616239785,-0.945292526328191
1746289490072306400,4.294306396484375,-0.18553426204919815,0.07300035428106784,-0.4823786622252315
1746289490082278100,4.304278076171875,-0.22708207796812055,-0.06550327652394772,-0.020836305671185253
1746289490092249300,4.314249267578125,-0.1897837361872196,-0.06569441518187523,0.3914906960107386
1746289490102220300,4.32422021484375,-0.11926701541543006,0.14990502252429722,0.4450157307755202
1746289490112192500,4.334192626953125,0.04162964898347855,0.343992885646224,-0.07611614821404218
1746289490122163200,4.3441630859375,0.025842297264933586,0.24316724358946085,-0.5978090951524675
1746289490132135400,4.354135498046875,-0.172285488897562,0.06842851632088423,-0.7964611974500119
1746289490142106400,4.3641064453125,-0.4598053766936063,-0.061975979180634015,-0.67806482738927
1746289490152077300,4.374077392578125,-0.799688488933444,-0.13584522525072096,-0.4135606351301074
1746289490162049300,4.38404931640625,-1.0474275704830884,-0.2623956756725907,0.0037276422210037706
1746289490172020500,4.3940205078125,-1.126025306379795,-0.3575467792242765,0.362621452140063
1746289490181992200,4.4039921875,-0.9568646715044975,-0.3203080586761236,0.652518663526699
1746289490191963400,4.41396337890625,-0.4429904354929924,-0.133830962818861,0.7382040195968002
1746289490201934300,4.423934326171875,0.42792438378632064,0.2116065686777234,0.3263501153193414
1746289490211906600,4.433906494140625,1.3395008837997913,0.4949816117540002,-0.42175270941406484
1746289490221877200,4.443877197265625,2.060520325165987,0.8427914253398776,-1.1474464992668478
1746289490231849500,4.453849365234375,2.3069892406493424,1.0859224285721778,-1.9255226566553114
1746289490241820400,4.4638203125,2.0804361549913883,1.1484493196338414,-2.1666360364548862
1746289490251791400,4.473791259765625,1.5427414829313755,1.340977532223612,-1.4148217899829147
1746289490261763300,4.483763427734375,0.6286638137519359,1.5553750467941163,-0.029464579415321348
1746289490271734300,4.493734375,-0.45859366281628605,1.4473198918752372,1.0870499712973833
1746289490281706200,4.503706298828125,-1.2637684742063282,1.1332023584023116,1.628300436142832
1746289490291677200,4.51367724609375,-1.357688866919279,0.8628051625818014,1.7139761476017534
1746289490301648400,4.5236484375,-0.9149509448826313,0.7924263889759778,1.401609549449384
1746289490311620400,4.533620361328125,-0.399467520108819,0.8804689756967127,0.6068110245145857
1746289490321591300,4.54359130859375,-0.1701549066096544,0.8466339261122048,-0.21429726906642316
1746289490331563300,4.553563232421875,-0.1569412047713995,0.7361150114282965,-0.7916124422445893
1746289490341534500,4.563534423828125,-0.4269979165911674,0.6496101556688547,-0.7863878394640982
1746289490351505200,4.573505126953125,-0.9542869299709796,0.6346589625135064,-0.44753655449002977
1746289490361477400,4.583477294921875,-1.37057406745553,0.4840002720776945,-0.03071910952106118
1746289490371448300,4.5934482421875,-1.4656979907393455,0.3058550243012607,0.3957540525436401
1746289490381420300,4.603420166015625,-1.1015449451178312,0.13748100975900887,0.4546858417227864
1746289490391391200,4.61339111328125,-0.40219197663664813,0.018878230405971405,0.12544395048469303
1746289490401362400,4.623362548828125,0.2155646586537361,-0.15191296481322497,-0.32224180321767926
1746289490411335000,4.6333349609375,0.6445850209832191,-0.3291876768328249,-0.5108855755895376
1746289490421305900,4.643305908203125,0.8446434829473495,-0.4258297130620107,-0.47253012597113847
1746289490431278000,4.653278076171875,0.7649182043254376,-0.5101509411720558,-0.1780041588053107
1746289490441248800,4.663248779296875,0.5594166745245457,-0.48202319985106584,0.19768384178727863
1746289490451221000,4.673220947265625,0.3587596621453762,-0.43672136516086757,0.6481846529103815
1746289490461192000,4.68319189453125,0.3121726830154657,-0.27596273925947024,1.0612801547467707
1746289490471163100,4.6931630859375,0.27411855443120003,-0.07292939423697535,1.0348471981123089
1746289490481134800,4.703134765625,0.20583704536557196,-0.12640579952048137,0.49340442556515335
1746289490491106000,4.71310595703125,0.2037830354452133,-0.37541919358856973,-0.10148030657321214
1746289490501078000,4.723078125,0.20634207227826118,-0.5454070730682462,-0.2741207463882863
1746289490511049000,4.733049072265625,0.1399438927412033,-0.553119620206952,0.012380904275923966
1746289490521020000,4.74302001953125,0.01500350786447525,-0.5324664890829474,0.5300434266544878
1746289490530992000,4.7529921875,-0.22189444619715212,-0.45793684287536884,1.134434530545771
1746289490540962800,4.762962890625,-0.5111883579283952,-0.21935791345685718,1.7021205823741852
1746289490550935000,4.77293505859375,-0.8192974447667598,0.204615394616127,2.0201256248049435
1746289490560906000,4.782906005859375,-1.1961083119094371,0.5427272593997419,1.834533348958194
1746289490570877000,4.792876953125,-1.6106570812940597,0.6765789727456867,1.1746626421682536
1746289490580849000,4.802848876953125,-2.029509100830555,0.6193824829265475,0.127377110504359
1746289490590819800,4.81281982421875,-2.464156070870161,0.26142668450996276,-0.8922875699147581
1746289490600791800,4.822791748046875,-2.5833511900931594,-0.3886363294929266,-1.5032014997035263
1746289490610762800,4.8327626953125,-2.0687585766792296,-1.1127847165346145,-1.6471496596500277
1746289490620734000,4.84273388671875,-1.2146493462502956,-1.6218287559106945,-1.3633600444234908
1746289490630706000,4.852705810546875,-0.08901566953659057,-1.800129121183604,-0.8044800340589136
1746289490640676900,4.8626767578125,1.2709200995266436,-1.7247718285128473,-0.7302629243992269
1746289490650648800,4.87264892578125,2.450933016681671,-1.510406608776748,-1.2794585030302406
1746289490660620000,4.8826201171875,3.516567859506607,-1.295406890529394,-2.5112299567341805
1746289490670591000,4.892591064453125,4.150073852592707,-1.2778453687451778,-3.7116707448899744
1746289490680563000,4.90256298828125,4.636634549742936,-1.2929048445805906,-4.212235125212371
1746289490690534000,4.912533935546875,5.17048657490015,-1.239066140756756,-3.7839696729034182
1746289490700505900,4.922505859375,5.555435155791044,-1.1833676344104112,-2.858943908730149
1746289490710476800,4.932476806640625,5.727106896704435,-1.2488124587453902,-1.9398079332478344
1746289490720448000,4.942447998046875,5.6825645751446485,-1.3076958787381647,-1.1653683787960558
1746289490730420000,4.952419921875,5.367286911851167,-1.4363348258718847,-0.7255477324455976
1746289490740391000,4.962390869140625,4.673991343712807,-1.5875976927459239,-0.6422822239335626
1746289490750363000,4.97236279296875,3.723585639089346,-1.715674914343655,-0.7523737800508737
1746289490760334000,4.982333984375,2.717681334605813,-1.7487663059540093,-0.9167143012933433
1746289490770305800,4.992305908203125,1.7933295241713523,-1.8233084828495978,-1.219773557396233
1746289490780277000,5.002277099609375,0.7994324683457612,-1.96310025376901,-1.7057922566242516
1746289490790248000,5.012248046875,-0.4462871389508247,-2.0773780825950205,-2.0736130309730765
1746289490800220000,5.022219970703125,-1.647180347049236,-2.333612459158897,-2.3768564114712176
1746289490810190800,5.03219091796875,-2.6457506553828716,-2.803237803599238,-2.4675147336483
1746289490820163000,5.0421630859375,-3.4929245335906742,-3.281941649769246,-2.13264301982969
1746289490830134000,5.052134033203125,-4.234043344655633,-3.615812369851768,-1.4422104399070144
1746289490840105000,5.06210498046875,-4.8255000020414585,-3.889947583156824,-0.45495888651050626
1746289490850077000,5.072076904296875,-5.26744940404892,-4.073358861702681,0.592722658733651
1746289490860048100,5.082048095703125,-5.665436914733052,-4.192909077973663,1.3988399386055768
1746289490870019800,5.092019775390625,-5.872020394551754,-4.3453550171524284,2.0574339034579694
1746289490879991000,5.101990966796875,-5.502198655644059,-4.249014703816175,2.170539035242796
1746289490889962000,5.1119619140625,-4.7603883551836015,-3.8628570393964647,2.0972405747979876
1746289490899934000,5.121933837890625,-4.256051762846112,-3.4106001783862707,2.328930146561563
1746289490909905000,5.13190478515625,-4.091297838497161,-2.7989737164139745,2.5100638355642557
1746289490919877000,5.141877197265625,-4.113191105875373,-2.060370395301282,2.2774156479015946
1746289490929848000,5.15184814453125,-4.340781133365631,-1.4251761568672954,1.5317637234516441
1746289490939820000,5.161820068359375,-4.5807998497962945,-0.9124722798094153,0.5232544241014868
1746289490949791000,5.171791015625,-4.844667059326172,-0.45929508908391,-0.4362476832345128
1746289490959762000,5.181761962890625,-5.289406384313106,0.0012881401143968105,-1.0456352071736008
1746289490969734000,5.19173388671875,-5.820208374249935,0.6225995452769101,-1.0639791845723987
1746289490979704800,5.201704833984375,-6.272366451060772,1.411724554619938,-0.6163012488503009
1746289490989677000,5.211677001953125,-6.442096410256624,2.020875712519884,-0.19778511020466685
1746289490999647700,5.221647705078125,-6.103834761738777,2.286644079495966,-0.08572992586418986
1746289491009619000,5.231618896484375,-5.478738869601488,2.1340286289691925,-0.49596053978875276
1746289491019591000,5.2415908203125,-4.8390848752796645,1.7755813937738536,-1.379471221268922
1746289491029562000,5.25156201171875,-4.201816899311543,1.4662231836572288,-2.401783347456902
1746289491039533800,5.261533935546875,-3.5407647276520726,1.3252284666888414,-2.7671786482244727
1746289491049505000,5.271505126953125,-2.8528035062789914,1.2311062677934765,-2.357790330342948
1746289491059476000,5.28147607421875,-2.365317510977387,1.0158151653841136,-1.6290759505599737
1746289491069448000,5.291447998046875,-1.9124007247537373,0.5904819671347737,-0.8755515391692519
1746289491079419000,5.3014189453125,-1.2810229758679865,0.14224486315995455,-0.3960015975639224
1746289491089391000,5.31139111328125,-0.633596593979001,-0.08149637994766235,-0.32611542978063224
1746289491099361800,5.32136181640625,-0.06116495505869388,-0.17649083163291215,-0.44697935899868607
1746289491109334000,5.331333984375,0.3930389483660459,-0.11891133384555577,-0.8512083213556557
1746289491119305000,5.341304931640625,0.4964414551734924,-0.025801672993600366,-1.5175503430515527
1746289491129276200,5.351276123046875,0.313628727042675,0.329544673576951,-1.4789048244453966
1746289491139247900,5.361247802734375,-0.05053776258230209,1.1631272488057613,-0.723734618609026
1746289491149219000,5.371218994140625,-0.3859276550561189,2.1395713577881454,0.21623612817451357
1746289491159190800,5.381190673828125,-0.6539128212988377,2.944789716058969,1.2926995312668383
1746289491169162000,5.391161865234375,-0.7921884885668754,3.7841035284161566,2.498060094037652
1746289491179133000,5.4011328125,-0.5382441226363182,4.6311277690202,3.5445956841170787
1746289491189105200,5.411105224609375,0.08268179033994674,5.1306303653299805,3.9740111832439897
1746289491199075800,5.421075927734375,0.6988911961883306,5.001723414909839,3.482968956765532
1746289491209048000,5.431048095703125,0.9824246446967124,4.193039718616008,2.618501998451352
1746289491219019000,5.44101904296875,0.8046165929853916,3.3064556210398672,2.3649925168067214
1746289491228991000,5.450990966796875,0.40187282768487925,2.896815081962943,3.0328701505720614
1746289491238962000,5.4609619140625,0.05812076505720615,2.6204554706066845,4.243741147327423
1746289491248932900,5.470932861328125,-0.16235796912312506,2.01525085837543,5.246227167800068
1746289491258904800,5.48090478515625,-0.2319301025211811,1.2250883226782083,5.872966150969266
1746289491268875800,5.490875732421875,-0.024353520011901855,0.7245891165465116,5.9964639358222485
1746289491278848000,5.500847900390625,0.4230909722805023,0.5064484699249268,5.556963096010684
1746289491288819000,5.51081884765625,0.9991934086680412,0.45454760229587554,4.888644732740521
1746289491298791000,5.520791015625,1.410617908552289,0.6053676938384771,4.073794330510497
1746289491308761900,5.530761962890625,1.53271810156703,0.6930342868536711,3.186839646056294
1746289491318733000,5.540733154296875,1.3442863645106553,0.5409551351606846,2.463563365674019
1746289491328704800,5.550704833984375,0.8401771511882543,0.29205519313812256,2.13330615991354
1746289491338676000,5.560676025390625,0.3763374044120312,0.3709247317135334,1.6556585447981953
1746289491348648000,5.57064794921875,0.1975146227002144,0.6188432614833116,0.8804878265276551
1746289491358619000,5.580618896484375,0.20969313627183436,0.7744897502690553,-0.06761603089421987
1746289491368590800,5.5905908203125,0.22279811703860758,1.0038976408362388,-1.2901809725746511
1746289491378562000,5.60056201171875,-0.012005495092272759,1.002476083600521,-1.929451228275895
1746289491388533000,5.610532958984375,-0.5197410822182893,0.988908161497116,-2.080408682462573
1746289491398505000,5.6205048828125,-1.1275935786098241,1.0156780950009823,-2.065184517584741
1746289491408476000,5.630475830078125,-1.5719973880320786,1.122604684281349,-2.2834321317121384
1746289491418447600,5.640447509765625,-1.8995529336184263,1.0592156234323977,-2.9310137041628357
1746289491428418600,5.65041845703125,-2.031989227208495,0.8022393424600363,-3.566091476610303
1746289491438390800,5.660390869140625,-1.7744202410399912,0.5287731144577265,-3.8356583590865134
1746289491448361700,5.67036181640625,-1.200120470160246,0.5671598359972239,-3.614688041996956
1746289491458332400,5.68033251953125,-1.0224246466517448,0.8270195634514093,-2.965784573292732
1746289491468304600,5.6903046875,-0.7170955459207295,0.6122697283118963,-2.767031348708272
1746289491478275600,5.700275634765625,-0.5045727391809225,-0.11724983037412166,-2.6637217808812856
1746289491488247600,5.71024755859375,-1.2489718870908022,-0.48332946014404293,-2.3950270050644873
1746289491498218500,5.720218505859375,-1.5938412633106112,-0.9073299484848976,-2.000019971495867
1746289491508189700,5.730189697265625,-1.4823440051138401,-0.9690227268099785,-1.5971400125950574
1746289491518161400,5.740161376953125,-1.0711299331098794,-0.9270616539150476,-1.5378589715868234
1746289491528132600,5.750132568359375,-0.5548334383875131,-0.7425175719469785,-1.5693658704847095
1746289491538104600,5.7601044921875,0.03173018625974655,-0.47981765263080595,-0.6969499989926815
1746289491548075800,5.77007568359375,0.4890297176122665,-0.30381635808050633,-0.5159007734030485
1746289491558047500,5.780047607421875,0.8864788836359977,-0.31546880195140836,-0.8221125021874904
1746289491568018700,5.790018798828125,1.053154131436348,-0.5308306315094232,-0.7212912440448999
1746289491577989600,5.79998974609375,1.2747989867866039,-0.5435574266135692,-0.311916662427783
1746289491587961600,5.809961669921875,1.5588137890711427,-0.42141105636954307,-0.006861702463030815
1746289491597932500,5.8199326171875,1.908020609973371,-0.42324528605937956,0.28972762697339055
1746289491607904800,5.82990478515625,2.0940052461385728,-0.4866945526629686,0.587903933340311
1746289491617875500,5.83987548828125,1.9481956762343644,-0.61466860614717,0.827462046521902
1746289491627847700,5.84984765625,1.6446161956496537,-0.6620289077371359,0.9648901570498942
1746289491637818600,5.859818603515625,1.2724085845187305,-0.6519155100017786,1.0312579414486884
1746289491647789800,5.869789794921875,0.8643658360272646,-0.524885459369421,1.0986387022823094
1746289491657761500,5.879761474609375,0.6102914139762521,-0.4026332906633615,1.00654377143085
1746289491667732700,5.889732666015625,0.3829311035886407,-0.21030863782167433,0.8862088345229625
1746289491677704400,5.899704345703125,-0.07012289914861321,-0.10009119030237197,0.7446388018846511
1746289491687675600,5.909675537109375,-0.5747570131279528,-0.06718786861002445,0.5734387701362371
1746289491697647600,5.919647705078125,-0.9353869991898536,-0.06687982557415961,0.3251923235863447
1746289491707618800,5.929618896484375,-1.0916577573537827,0.08839023111462592,0.10161153173744678
1746289491717590500,5.939590576171875,-1.0060263964932412,0.4434451935231685,0.17345219458937644
1746289491727561700,5.949561767578125,-0.8979097937107086,0.855929431593418,0.1375555362999439
1746289491737532700,5.95953271484375,-0.9677730190098285,1.0581412721991539,0.3034036856263876
1746289491747504600,5.969504638671875,-1.1628337457519025,1.1516881554245948,0.5265589455395937
1746289491757475600,5.9794755859375,-1.2374918771773575,1.3265098848015069,0.7627163103669882
1746289491767447800,5.98944775390625,-0.9782727857142687,1.4395003041654824,1.022127709531784
1746289491777418500,5.99941845703125,-0.7982271842092276,1.5916764864921569,1.5662322486340998
1746289491787390700,6.009390625,-0.8464151687949896,1.4605916075110434,2.223808853137493
1746289491797361700,6.019361572265625,-0.8352250817388296,1.2745821291655302,2.625269592890143
1746289491807332600,6.02933251953125,-0.6304033508956431,0.9744374453350901,3.028728812983632
1746289491817304600,6.0393046875,-0.3497179852947592,1.142469076180458,3.0133138017088172
1746289491827275500,6.049275634765625,-0.020041794292628763,1.859229983319342,2.389941664624214
1746289491837247500,6.05924755859375,0.14051818549782036,2.215849126304686,1.2230278830170631
1746289491847218400,6.069218505859375,0.13762392536103724,2.048286866536736,0.14632511821091174
1746289491857190700,6.079190673828125,0.29075697002112866,1.973377756024897,-0.561042229899764
1746289491867161600,6.08916162109375,0.3392839773029089,2.3043971783295274,-0.7464876446217298
1746289491877132500,6.099132568359375,0.6691781949698925,2.6696009020477534,-1.0257038144528865
1746289491887104500,6.1091044921875,0.878572640556097,2.8315660724610088,-1.7628993145942686
1746289491897075700,6.11907568359375,0.3913245456635952,2.7431188504621384,-2.266234036412835
1746289491907047400,6.12904736328125,-0.043325346985459326,2.90717105628252,-2.097526990523934
1746289491917018600,6.1390185546875,-0.07522329102754592,3.1934576028913257,-1.98998022351861
1746289491926990600,6.148990478515625,0.1814700813502073,3.444102927276492,-1.729694379606843
1746289491936961500,6.15896142578125,0.7124655480325222,3.677802377557754,-1.53230776720047
1746289491946932500,6.168932373046875,1.366952369827032,3.6352705190375447,-1.3759405629247425
1746289491956904700,6.17890478515625,1.9868682289779185,3.3071640615701674,-1.2660586309701203
1746289491966875600,6.188875732421875,2.3064836292147635,2.9970579556956887,-0.9576654664933681
1746289491976847600,6.19884765625,2.3489310243219137,2.459511459934711,-0.6444511654704809
1746289491986818600,6.208818603515625,2.239640628519654,1.8558429712295532,-0.27985972843170165
1746289491996790500,6.21879052734375,2.0329969429463146,1.460607389602065,0.5255687654584645
1746289492006761500,6.228761474609375,1.8290046486645937,1.2694634709775448,0.8775497272491455
1746289492016732700,6.238732666015625,1.5612626435279846,0.9929150590509176,0.8083435045540333
1746289492026704600,6.24870458984375,0.9610545244097709,0.4626984677866101,0.84467972330451
1746289492036675600,6.258675537109375,0.30703824273645874,-0.025578677892684934,1.1877227608799934
1746289492046647600,6.2686474609375,-0.04127776680588722,-0.36251872241795063,1.366944771042466
1746289492056618800,6.27861865234375,-0.13502689460515976,-0.5117419001579284,1.4999790305256844
1746289492066590500,6.288590576171875,0.25106325753629205,-0.18541238923519848,1.4210527933269739
1746289492076561700,6.298561767578125,1.1173743824124336,0.4296136520475149,0.6581219634264707
1746289492086532600,6.30853271484375,1.7210674210369585,0.8260314291968941,-0.29518647690117356
1746289492096504600,6.318504638671875,1.6419319250017403,1.155516773802042,-0.6881652195125818
1746289492106475500,6.3284755859375,1.3859738811612128,1.6728455341815947,-0.7417419113993644
1746289492116447700,6.33844775390625,0.8233090184956788,2.0132798505634066,-0.8926052575618028
1746289492126418700,6.348418701171875,-0.22330139038562774,2.0732026966065167,-0.8636328455775976
1746289492136390700,6.358390625,-2.0563491769611835,0.9481640631765127,-1.0115502014160156
1746289492146361600,6.368361572265625,-4.617220239698886,-1.2441145101875066,-0.02080050370544195
1746289492156332800,6.378332763671875,-6.09519319012165,-3.1495354590564966,2.7769872177943586
1746289492166304500,6.388304443359375,-5.166351667052507,-4.426821001961827,5.387155979925394
1746289492176275700,6.398275634765625,-2.1631915950894354,-5.425070992299914,6.106361649867892
1746289492186247700,6.40824755859375,0.9713783500254154,-5.348204610240459,5.921273962542414
1746289492196218600,6.418218505859375,2.9355823272526265,-4.817722938299179,5.204405211114883
1746289492206190600,6.428190673828125,3.780984519612789,-3.884586932906508,4.5109465613693
1746289492216161800,6.438161865234375,3.625170857566595,-2.243524191954732,3.7011879293203354
1746289492226132700,6.4481328125,2.867168716239929,-0.2273760924786329,1.9538745986536143
1746289492236104700,6.458104736328125,1.7716846785962581,1.6998066063433885,-0.6112313251748681
1746289492246075600,6.46807568359375,0.2520277186542749,3.3443554358452556,-3.0768928321719167
1746289492256047600,6.478047607421875,-1.5913561684966087,4.62280943800807,-4.713005549500882
1746289492266018600,6.4880185546875,-3.6314807713657618,5.136957230263948,-5.626345844316482
1746289492275990800,6.49799072265625,-5.326938534849882,4.978923554080724,-5.621273363357782
1746289492285961700,6.507961669921875,-6.036529404228926,4.601649745601415,-4.878546240313351
1746289492295933700,6.51793359375,-5.686069368395209,4.316898153474927,-3.8983252431407567
1746289492305904600,6.527904541015625,-4.850333122263849,3.904939400583505,-3.160964907826483
1746289492315875600,6.53787548828125,-3.7747616995751856,3.4751802025854586,-2.2905483934581277
1746289492325847600,6.54784765625,-2.7933678592309352,3.697406072694063,-1.4635171395689248
1746289492335818500,6.557818603515625,-1.8465397208333014,3.9621874744594097,-1.3299477502956987
1746289492345790700,6.567790771484375,-1.0716630170732735,4.3909027163624765,-1.3243901161685585
1746289492355761400,6.577761474609375,-0.747041186851263,5.221988798600435,-1.7800285824410615
1746289492365733600,6.587733642578125,-0.8980306436114013,5.597116242700815,-2.0694547422498464
1746289492375704600,6.59770458984375,-1.4087410087645054,5.4370139435499905,-1.9555393169954418
1746289492385675800,6.60767578125,-1.9062436634287236,5.169216993355751,-1.609158951690793
1746289492395647500,6.6176474609375,-2.241250401803851,4.656964805588126,-1.0590352984294296
1746289492405618700,6.62761865234375,-2.277398842897266,4.7318777154922484,0.8696111162696033
1746289492415590700,6.637590576171875,-1.5985855352282523,5.0812774286180735,2.5432778306409713
1746289492425561600,6.6475615234375,-0.6890570537857711,4.229166678529977,2.500931850081682
1746289492435533800,6.657533935546875,0.08716638840809464,3.031632133209705,1.9899045279338954
1746289492445504800,6.6675048828125,0.8404431086480617,2.3520927032232284,1.640357369161397
1746289492455475700,6.677475830078125,1.570866338175535,2.056030612531304,1.2760437261506914
1746289492465447700,6.68744775390625,2.2838483112975956,1.9418027603268622,1.0317202251981943
1746289492475419000,6.6974189453125,2.6641397140324115,1.2878753259807825,0.37286870538815853
1746289492485390600,6.707390625,2.484195819336176,0.19975100345015526,-0.46952539119720454
1746289492495361800,6.71736181640625,1.8781161778360604,-0.12614333092570304,-0.6767427850052714
1746289492505333800,6.727333740234375,1.078950835993886,-0.24362638553380964,-0.40349969823434945
1746289492515304700,6.7373046875,0.21433906238153574,0.06335749666690826,0.2963727640762925
1746289492525276700,6.747276611328125,-0.8225368650794028,0.295776844009757,0.8051825563050806
1746289492535248000,6.757247802734375,-1.9540771354883908,0.2965267855942249,1.2294308819271624
1746289492545218800,6.76721875,-2.6804657026723024,0.47767888703644273,1.476777018636465
1746289492555190800,6.777190673828125,-3.101584790357947,0.1983142486453056,1.6695573062911628
1746289492565161700,6.78716162109375,-2.980036678268015,-0.2739502121269703,1.548122883708775
1746289492575133700,6.7971337890625,-2.388658931337297,-0.6445949578553438,1.1895394549131393
1746289492585104600,6.807104736328125,-1.8777195797339081,-0.7874474315196275,0.927650267457962
1746289492595076900,6.817076904296875,-1.8264084946915506,-0.3898439517170191,1.268579089358449
1746289492605047800,6.8270478515625,-1.8542536562114953,-0.005975567278265953,1.7864885722354054
1746289492615018500,6.8370185546875,-1.6314923640519379,0.33469781855642794,2.267361871398985
1746289492624990700,6.84699072265625,-1.1649056566551328,0.49210780988335606,2.8521102633178232
1746289492634961700,6.856961669921875,-0.41237639378160235,0.5523895523667335,3.466896650625765
1746289492644933600,6.86693359375,0.46432723803222176,0.5508879156321287,4.005867626231908
1746289492654904600,6.876904541015625,1.3651590566694736,0.6601771423906088,4.268040891325474
1746289492664876800,6.886876708984375,2.272570838218927,1.0645850415110587,4.185320522540808
1746289492674847500,6.896847412109375,2.9749858246192336,1.6532780794024466,3.561115734024346
1746289492684819700,6.90681982421875,3.209000332199037,1.9299813896298408,3.89593279504627
1746289492694790700,6.916790771484375,3.3554917468875645,2.593084064078331,4.670546171694994
1746289492704761900,6.926761962890625,3.1731682635784146,2.869615524870157,4.901125151868165
1746289492714733600,6.936733642578125,2.4979560491412878,2.6918261778593062,4.900905371637642
1746289492724704800,6.946704833984375,1.433463946610689,2.196055753815174,4.9064030922710895
1746289492734676500,6.956676513671875,0.8714905733406543,1.2889637057393788,4.4893438013702625
1746289492744647700,6.966647705078125,0.5134720849514007,-0.38055940602123733,3.2485371005564927
1746289492754619600,6.97661962890625,0.5096586641430855,-1.7772633555114268,2.3530142019823193
1746289492764590800,6.9865908203125,0.6414584133952855,-2.6496739663064477,2.0420161157041785
1746289492774561500,6.9965615234375,0.6360124229490757,-3.6401106525450944,1.3841715079143642
1746289492784533800,7.00653369140625,0.6499170296609401,-4.574423885023593,0.7382751120716333
1746289492794504700,7.016504638671875,0.49451253293752667,-4.731227142629027,0.9005939182281494
1746289492804476700,7.0264765625,0.27802082256674765,-4.268375237846374,1.6110867048829793
1746289492814447600,7.036447509765625,-0.03695698099732399,-3.7493496104210613,1.892943452350795
1746289492824419800,7.046419921875,-0.49298751532733437,-3.437300846046209,1.4104440132901073
1746289492834390500,7.056390625,-1.163068212094903,-3.318126769611239,0.9145525932148099
1746289492844362800,7.06636279296875,-1.8356506625503302,-2.974055558031797,0.9749255211129784
1746289492854333700,7.076333740234375,-2.612959561893344,-2.6402041271716357,0.9047326254680752
1746289492864305000,7.086304931640625,-3.311719240656495,-1.953243022751808,1.3886495301112531
1746289492874276600,7.096276611328125,-3.454584573802352,-0.7901374012559652,2.447164019536972
1746289492884247800,7.106247802734375,-4.475017754375934,1.2876269041776656,2.0409961250066755
1746289492894219500,7.116219482421875,-5.3367596716403956,2.8778637132555245,2.1161638864547014
1746289492904190700,7.126190673828125,-3.676044720235467,3.4681507423400877,3.290338014453649
1746289492914162700,7.13616259765625,-2.050633137401938,4.745071543586254,3.301976137538254
1746289492924134000,7.1461337890625,0.052501171609759326,5.448313920721412,2.925946483901143
1746289492934105600,7.156105712890625,1.5804817232608794,5.195509956997633,2.3080833194963635
1746289492944076800,7.166076904296875,2.8399802650630472,4.763608486273885,2.6404332597523927
1746289492954047700,7.1760478515625,4.179759965804219,4.345864135718346,3.621847850623727
1746289492964019700,7.186019775390625,5.6249879999667405,3.7606717994242906,4.996345229002833
1746289492973990700,7.19599072265625,7.0909320744216435,3.5690941655576225,6.052268240630626
1746289492983963000,7.205962890625,7.868443218338489,3.650307636910677,5.581703569513559
1746289492993933600,7.21593359375,7.594711617398262,4.157130785366893,4.4367830085277555
1746289493003905800,7.22590576171875,6.3562231303989885,5.110139950487017,3.0274291285619137
1746289493013876700,7.235876708984375,3.9705858849704265,6.053537822175025,1.5665087274879217
1746289493023848700,7.2458486328125,1.08492991040349,6.815168675392866,-0.009958435502508654
1746289493033819600,7.255819580078125,-1.6429279503017662,7.382606159287691,-1.2085923112336545
1746289493043790800,7.265790771484375,-4.133849863022566,7.537889659979939,-1.9301459325417876
1746289493053762600,7.275762451171875,-5.9768596561640495,6.954827321451902,-2.2471374140158296
1746289493063733800,7.285733642578125,-6.425179177725314,6.134129946759343,-1.8216934488683938
1746289493073705700,7.295705810546875,-5.725013723817467,5.132889542433619,-1.0568322354272008
1746289493083677000,7.305677001953125,-4.518839360445738,4.128329638296366,-0.1147124208509922
1746289493093648600,7.315648681640625,-3.1880478528022764,3.5138749671608207,1.1101984994336962
1746289493103619800,7.325619873046875,-2.0737048009097574,3.6042309453904626,1.4607649182513356
1746289493113590800,7.3355908203125,-1.1774842754602433,3.3868934318453072,0.5660550896257162
1746289493123562800,7.345562744140625,-0.5821463927268982,2.6666215939760205,-0.007188157938420772
1746289493133533700,7.35553369140625,-0.21768471954762936,1.6739800911694764,-0.336685777503252
1746289493143506000,7.365505859375,-0.14638006326854228,0.7547820102363825,-0.1772811052277684
1746289493153476600,7.3754765625,-0.13111731994599102,-0.08177402784526347,0.09535276360362768
1746289493163448800,7.38544873046875,-0.052648324995487925,-0.8352566459208727,0.5350967645213007
1746289493173419800,7.395419677734375,0.1274710723981261,-1.0260708941996097,1.3347323542237282
1746289493183391700,7.405391845703125,0.31753990913704033,-0.4149146800875664,2.3145047308459876
1746289493193362700,7.41536279296875,0.27385493505895137,1.4103782545775174,3.0193180105596777
1746289493203335000,7.4253349609375,-0.33693653739392754,3.6804444164991374,2.4140704359695313
1746289493213305600,7.4353056640625,-1.8339421050667761,4.8988516539782285,1.1940566400766373
1746289493223276500,7.445276611328125,-3.413581532284617,5.033634218433499,0.38207507128119467
1746289493233248800,7.455248779296875,-4.045213548192382,5.002895381298661,0.20321195755898952
1746289493243219700,7.4652197265625,-3.84650007109642,5.468918901854753,0.65538172480762
1746289493253191700,7.475191650390625,-3.2703374289542433,6.046363985022902,1.7131354589939116
1746289493263162600,7.48516259765625,-2.8588319727882743,6.597866233161091,3.1398470087349413
1746289493273134600,7.495134521484375,-2.6838375171929596,6.554868218433857,3.885269654473662
1746289493283105500,7.50510546875,-2.9412352384477853,5.963599777096509,3.9096547386676073
1746289493293077800,7.515077880859375,-2.6990967533841728,4.476961289659142,2.5933178728342057
1746289493303048700,7.525048583984375,-1.9082441895961761,2.792958693908155,0.8324860121637583
1746289493313019600,7.53501953125,-1.333652742293477,1.8660797030836342,0.22613807511627673
1746289493322991600,7.54499169921875,-1.0794465105563402,1.2950687446162104,0.3007967179983854
1746289493332962800,7.554962890625,-1.1430644117251039,0.7428396435081959,0.6883686331301927
1746289493342934500,7.5649345703125,-1.3075377655670046,0.343610608330369,1.323372755819559
1746289493352905700,7.57490576171875,-0.7253358432605862,-0.17431173402816055,1.5610498775601387
1746289493362877700,7.584877685546875,0.06644318772256375,-0.6121722592867911,1.4562053552508354
1746289493372848600,7.5948486328125,0.8532908997833728,-0.5358347234070301,1.4625497558414935
1746289493382820600,7.604820556640625,1.6833680972397327,-0.11111571153327822,1.3532786492615938
1746289493392791800,7.614791748046875,2.4578742141216994,0.4813801527071744,1.0462398220032454
1746289493402763500,7.624763427734375,2.6676404156297444,0.7377806065529584,0.4578782080233097
1746289493412734000,7.63473388671875,2.981624531981349,0.8879661995843052,-0.4057505459010601
1746289493422705200,7.644705078125,3.139296973636746,1.172516496985033,-1.018940311667323
1746289493432677000,7.654677001953125,3.1915029616922137,1.4097048853605985,-1.3814496817350386
1746289493442648000,7.66464794921875,3.2475475049972533,1.3948758572801947,-1.5850287190407513
1746289493452620000,7.6746201171875,3.1077240237653254,1.2368963955022394,-1.5362737482219933
1746289493462591200,7.68459130859375,2.9988410397201775,1.156398525072634,-1.5090625006914138
1746289493472563000,7.69456298828125,2.863444142758846,1.2271975699171422,-1.6589789213925599
1746289493482534100,7.7045341796875,2.6909558247655627,1.3361306767143308,-1.8948025242209434
1746289493492506000,7.714506103515625,2.3909634088873863,1.4560443194702266,-2.0817788017719985
1746289493502477000,7.72447705078125,2.21460146433115,1.5939000077605248,-2.1980887209475037
1746289493512448000,7.734447998046875,2.250070252597332,1.6698299857527017,-2.240342054787278
1746289493522420200,7.744420166015625,2.4313947879970073,1.7487375182509421,-2.240306983473897
1746289493532391200,7.75439111328125,2.763810048574209,1.7054539645805953,-2.431113632968068
1746289493542363100,7.764363037109375,3.1087633036851883,1.8092618373185396,-2.628198632079363
1746289493552334000,7.774333984375,2.8173820642858742,1.887574326533079,-2.5567910999476906
1746289493562306000,7.78430615234375,2.183850936758518,1.9524723306402563,-2.510722007212043
1746289493572277000,7.794277099609375,1.8500246403396128,1.98578394087255,-2.2821862233042713
1746289493582249200,7.804249267578125,1.862449237626791,1.8783786281645296,-1.884211572101712
1746289493592220200,7.81422021484375,2.4196038124382495,1.5429758762091397,-1.3146002512991428
1746289493602192100,7.824192138671875,3.2394472006499764,1.119286938035488,-0.808638688108325
1746289493612163000,7.8341630859375,3.981355116266012,0.9822235691666602,-0.5087789586991072
1746289493622134300,7.84413427734375,4.215467823523283,1.168558626204729,-0.5245543277189135
1746289493632106000,7.85410595703125,3.604131576669216,1.7392437137186527,-0.9819941443249582
1746289493642077200,7.8640771484375,2.7078105134546755,2.440078445190191,-1.8085399527847765
1746289493652049200,7.874049072265625,2.4056214643150566,2.634348386880755,-2.7357693644821643
1746289493662020000,7.88402001953125,2.599676301950216,2.5248218442350625,-3.2810406092762947
1746289493671992000,7.893991943359375,3.128580933833122,2.3376064972311257,-3.157275990180671
1746289493681963300,7.90396337890625,3.8440836576044557,1.9346184017807244,-2.9544974556028842
1746289493691935000,7.91393505859375,4.057888905370235,1.4497674311578272,-3.0375042401134964
1746289493701906200,7.92390625,3.529874500325322,1.2572019552975893,-3.1659917960777877
1746289493711877000,7.933877197265625,2.7516350421339273,1.249531859061122,-3.431026588082313
1746289493721849000,7.94384912109375,2.081758928027749,1.3761422229766844,-3.5431986768007278
1746289493731820000,7.953820068359375,1.526127032738924,1.5315414590030907,-3.3111528389453886
1746289493741792300,7.963792236328125,1.2435346644729375,1.6134423280984163,-2.5172096156656742
1746289493751763200,7.97376318359375,1.2695090636849402,1.6250737291812896,-1.2479254467777907
1746289493761735200,7.983735107421875,1.8134025903850792,1.7158739440470934,-0.39887466878220434
1746289493771706000,7.9937060546875,2.1989093896806238,1.6965180861920117,0.08606105751469731
1746289493781678000,8.003677978515626,1.6601941424012183,1.6443635360628366,-0.0542507917560637
1746289493791649000,8.01364892578125,0.564102786514163,1.8571733430504798,-0.8270552192866801
1746289493801621200,8.023621337890624,-0.26974282356500623,1.806830810779333,-1.0534592518627643
1746289493811592200,8.03359228515625,-1.043099770411849,1.6251730979025363,0.05745937853902578
1746289493821563000,8.04356298828125,-2.08873227417171,1.097553829655051,1.7441130733206867
1746289493831535000,8.05353515625,-2.6398890698730946,0.23419746293127536,3.4003678304463625
1746289493841506000,8.063506103515625,-2.879938181442022,-0.3046019555002451,4.581676632630825
1746289493851478000,8.07347802734375,-3.623610184121132,-0.17900749062895774,4.747751576450467
1746289493861449000,8.083448974609375,-3.6256758844792842,0.19724398906528948,4.390620976811647
1746289493871421200,8.093421142578125,-3.50350671788156,0.137137603148818,3.78006857381165
1746289493881392000,8.10339208984375,-3.463168862274289,0.29179800350666046,2.883540005326271
1746289493891364000,8.113364013671875,-3.085197719180584,0.8528986855953932,2.2536989644885064
1746289493901335000,8.1233349609375,-2.2026848165661095,1.2748755591541527,1.9263450789541006
1746289493911307000,8.13330712890625,-1.1192904451668262,1.383036074143648,1.6328993082404135
1746289493921278000,8.14327783203125,0.056307578155398365,1.2772107241034507,1.57355674630329
1746289493931249200,8.153249267578126,0.6006804128050803,1.065923596638441,1.6801266311004757
1746289493941221000,8.16322119140625,0.35506197667121886,1.074881394597888,1.7959113573580978
1746289493951192000,8.173192138671874,-0.2306049913972616,1.1416864013701677,1.7695184404730795
1746289493961164000,8.1831640625,-0.7595259898930787,1.0988456230312584,1.4833340390644967
1746289493971135200,8.19313525390625,-0.895758753156662,1.0819839200794696,1.1229442914992571
1746289493981107200,8.203107177734376,-0.4872223759293556,1.097595330709219,0.9266619870729744
1746289493991078100,8.213078125,0.13976210643351078,1.1102782866716385,0.8161540321744978
1746289494001050000,8.223050048828124,0.6291553966611624,1.2444915268063546,0.5189595399191603
1746289494011021000,8.23302099609375,0.2216080304712057,1.7881272793531418,0.3372872505277395
1746289494020993300,8.2429931640625,-0.534089341044426,2.2854876029372213,0.28806314609358086
1746289494030964200,8.252964111328126,-1.1256202327102423,2.516186117836833,0.2895245421493426
1746289494040936200,8.262936279296875,-1.6024381190031767,2.534838211336732,0.893796513172984
1746289494050907100,8.2729072265625,-1.56791041097939,2.1852608035564423,1.648333316476643
1746289494060878000,8.282878173828125,-0.735593910163641,1.5475883384406566,2.0688860024511815
1746289494070850000,8.29285009765625,1.109525422477722,1.0016139138132334,1.5828844004884361
1746289494080821000,8.302821044921876,2.530611533552408,0.9189981744468212,0.8629335382018237
1746289494090793200,8.312793212890625,2.8841660282701254,1.3120546584695576,0.004029913103207945
1746289494100764200,8.32276416015625,2.3080431336164473,1.7363959230720996,-0.7222714141886681
1746289494110736100,8.332736083984376,1.2614011605530977,1.954104608017206,-0.8171159360092133
1746289494120707000,8.34270703125,0.3257540491223335,2.0166186395972967,-0.3040442485522479
1746289494130679000,8.352678955078124,-0.27229952231049537,1.8563696254521607,0.5877624059777706
1746289494140650000,8.36264990234375,-0.15144494544267653,1.170343171533942,1.1060086465284227
1746289494150622200,8.372622314453125,0.8145663245916366,0.46364393194317816,1.1432891603916884
1746289494160593200,8.38259326171875,1.628812331187725,0.2503600777029991,0.6184113728720695
1746289494170565000,8.392565185546875,1.8831565100908279,0.36650925335884094,-0.22218962975144385
1746289494180536000,8.4025361328125,1.8251976575970648,0.4999883340001106,-0.8252480237342417
1746289494190507300,8.41250732421875,1.7164789242029188,0.5602426039546727,-1.0954862296007573
1746289494200479000,8.42247900390625,1.79476978610754,0.5709849472433328,-1.0649063824199139
1746289494210450200,8.4324501953125,2.0011516058742997,0.4215975188523531,-0.5996119067907333
1746289494220422100,8.442422119140625,2.239948671555519,0.1577729794204235,-0.09524879177249967
1746289494230393000,8.45239306640625,2.1509107901871203,-0.09073182580471038,0.22806129826381802
1746289494240365000,8.462364990234375,1.115139170706272,0.11214461618959903,0.5743286316480487
1746289494250336300,8.472336181640625,-0.3966775971293449,0.4790519289553165,0.7276365214183926
1746289494260308000,8.482307861328126,-1.4999842912226915,0.7597434320360422,0.9135852825526147
1746289494270279200,8.492279052734375,-1.925704442963004,1.143884788197279,1.1008608353111893
1746289494280251100,8.502251220703124,-1.3146172024339438,1.3185977965027094,0.7955226744908839
1746289494290222000,8.51222216796875,-0.0957020154327154,1.004247769448161,0.2473348846629262
1746289494300194000,8.522194091796875,0.9823960031241178,0.6314958223074674,0.4124531122796237
1746289494310165200,8.532165283203126,1.0977262636125087,0.4620166230022907,1.3881163000173866
1746289494320137000,8.542136962890625,0.1661778196722269,0.44837680470645425,1.176275045800954
1746289494330108200,8.552108154296874,-1.395147367697954,0.7208873394191264,0.1380245420511812
1746289494340079000,8.5620791015625,-3.147958418998122,1.0155857405424118,-0.13651201859638093
1746289494350051000,8.572051025390625,-3.283424874064326,1.1727601695477963,-0.49445948757603764
1746289494360022000,8.58202197265625,-2.396745499420166,0.5569903241604566,-0.43241716516092416
1746289494369994200,8.591994140625,-1.3521803326308726,-0.6258592777252197,0.5581980925150215
1746289494379965200,8.601965087890624,0.615039777547121,-1.3966215319037436,0.7176419277571141
1746289494389937200,8.611937255859376,2.716712781834602,-1.29707453148067,0.5522669489003718
1746289494399908000,8.621908203125,3.6216771702319384,-1.033591937354207,0.1453425369143486
1746289494409880000,8.631880126953124,3.362249988976121,-0.6976537633478641,-0.33810039354152976
1746289494419851500,8.6418515625,2.4236954656660554,-0.3767994689658284,-0.5100618381164967
1746289494429823700,8.65182373046875,1.2144003399252892,-0.14193565108031034,-0.516777775433287
1746289494439794400,8.66179443359375,0.30083003574609757,-0.02636573661714792,-0.5148419850651175
1746289494449766700,8.6717666015625,-0.3502192128151655,0.013587503586709498,-0.6001759704142808
1746289494459737600,8.681737548828124,-0.6412742890000342,0.030517887860536573,-0.7221627661824226
1746289494469708800,8.691708740234375,-0.6754442696273326,0.0031570027261972424,-0.5814399249579757
1746289494479680500,8.701680419921875,-0.5820499466150999,-0.07328063252717257,-0.23006240895316005
1746289494489651700,8.711651611328126,-0.34501930608451364,-0.2641021873295307,0.158560914927721
1746289494499623400,8.72162353515625,0.04398527219891548,-0.4519406346678734,0.5884871400557458
1746289494509594600,8.7315947265625,0.45323535065352916,-0.4215139322221279,0.7986909292634576
1746289494519566600,8.741566650390626,0.6505664334803819,-0.3301581293001771,0.6631245940193533
1746289494529537800,8.751537841796875,0.9055506638526916,-0.1717702328518033,0.09734583711698651
1746289494539509500,8.761509521484374,0.9680962596148251,0.17804682890325785,-0.36967626602239906
1746289494549480700,8.771480712890625,0.8544353936433792,0.4244122840121388,-0.7153639728877693
1746289494559452400,8.781452392578124,0.7170178045094012,0.5071197933152317,-0.9062366002902388
1746289494569423600,8.791423583984376,0.5840484269559383,0.618879794101417,-0.9541427722599357
1746289494579395600,8.8013955078125,0.33790684373080726,0.7077975562214851,-0.7266507252514361
1746289494589366800,8.81136669921875,0.056498716813325876,0.6337094067037106,-0.22848814537376164
1746289494599338500,8.82133837890625,-0.1126075575262308,0.46751668172329663,0.10986253313440829
1746289494609309700,8.831309814453125,0.00756254420876503,0.3572857902005315,0.31437793797478075
1746289494619280600,8.84128076171875,0.14558394445478914,0.3569681025534868,0.3896855828175321
1746289494629252600,8.851252685546875,0.1651098981797695,0.34558044709861274,0.28418924553599206
1746289494639223600,8.8612236328125,0.00019756839871406555,0.3933019832164049,0.1262079936597496
1746289494649195800,8.87119580078125,-0.2955675851732492,0.373764046792686,-0.07547054378688335
1746289494659166500,8.88116650390625,-0.4661468546748161,0.3753083536252379,-0.1685339543443173
1746289494669138700,8.891138671875,-0.462778839546442,0.31301410227566956,-0.16804434419646858
1746289494679109600,8.901109619140625,-0.35407413467764853,0.19447744696140287,-0.09911839974746108
1746289494689081600,8.91108154296875,-0.21233692877888677,0.024777882903814313,-0.10443641643244772
1746289494699052500,8.921052490234375,-0.00613689531981945,-0.14719108739048242,-0.1515325506608933
1746289494709024800,8.931024658203125,0.23830489825010298,-0.17566870159506798,-0.13265939828883855
1746289494718995500,8.940995361328126,0.33196868585348127,-0.1493181625470519,-0.17075780440624802
1746289494728967700,8.9509677734375,0.21873393633961677,-0.10083411762416362,-0.19881617028545587
1746289494738938600,8.960938720703124,0.0398451036542654,-0.01140109945833683,-0.1579032547365874
1746289494748910600,8.97091064453125,-0.11923662027716636,0.05679360810667276,-0.0693438045348972
1746289494758881500,8.980881591796875,-0.23352175562679767,0.09470920500308275,0.0029710882326588034
1746289494768853800,8.990853759765624,-0.3259416806489229,0.08729951326847075,0.09284826996941119
1746289494778824400,9.000824462890625,-0.42840836791098114,0.04962152452021837,0.17787969217542557
1746289494788795400,9.01079541015625,-0.5133803150147199,0.08065233033895491,0.2373672520738095
1746289494798767600,9.020767578125,-0.6990063470005988,0.15562106208354234,0.25694248830061406
1746289494808738600,9.030738525390625,-0.9255389743924141,0.22764380350410937,0.24819555661287157
1746289494818710500,9.04071044921875,-1.0743874736011028,0.29640871217250825,0.2521495914682746
1746289494828681500,9.050681396484375,-0.927495369157195,0.3243821762472391,0.19905896606538442
1746289494838653400,9.0606533203125,-0.5390057546585798,0.3230482972949743,0.1101765309870243
1746289494848624400,9.070624267578125,-0.09268763604760169,0.3671016662940383,0.06043488721847534
1746289494858596600,9.0805966796875,0.31103987959325313,0.31700024930238724,-0.011886435289867221
1746289494868567600,9.090567626953124,0.5887964982658624,0.2043839239478111,-0.0938468525527045
1746289494878539500,9.10053955078125,0.603426496642828,0.13941373138725757,-0.12399272876307367
1746289494888510500,9.110510498046875,0.4626970064818859,0.0312356807410717,0.1228897359572351
1746289494898482700,9.120482666015626,0.16369067903161047,-0.040571372102200985,0.2838105118840933
1746289494908453400,9.130453369140625,0.0021077859342098237,0.014340660041570663,0.4780323766492307
1746289494918425600,9.140425537109374,-0.05120528658032417,0.011647183173894881,0.7580053561970591
1746289494928396500,9.150396484375,0.0021259061127901074,-0.06176759712696075,0.9718227327920496
1746289494938368500,9.160368408203125,0.10136837063133716,-0.1968362850472331,1.1273504175037146
1746289494948339500,9.17033935546875,0.09873568404018879,-0.3535711535915732,1.0723536296859384
1746289494958311700,9.180311767578125,0.13451017725467682,-0.43294630360156294,0.9480155946165323
1746289494968282400,9.190282470703124,0.13396072667837142,-0.3851347511127591,0.831019227546826
1746289494978253600,9.200253662109375,0.06400748500823975,-0.6866396173804998,0.937342809432745
1746289494988225500,9.2102255859375,-0.04481178615093231,-0.8372884440094233,1.2048600659027695
1746289494998196500,9.220196533203126,0.009940963777899742,-0.31085370937138795,0.7691289538882672
1746289495008168400,9.23016845703125,0.04017418947815895,0.0560270076483488,0.03301076412219554
1746289495018139600,9.2401396484375,-0.07841419602334498,0.390722488117218,-0.9508950955756008
1746289495028111400,9.250111328125,-0.2291331652790308,0.9769166949301957,-1.8225005274675785
1746289495038082600,9.26008251953125,-0.38806642065048214,1.6618989004924893,-2.458750704695284
1746289495048054500,9.270054443359374,-0.4758440728247165,2.303644314135611,-2.7397379758521914
1746289495058025500,9.280025390625,-0.8261386889636516,2.224775067821145,-3.0831954394474623
1746289495067997400,9.28999755859375,-0.8373141629725694,0.32606939868181944,-1.1399769671037792
1746289495077968600,9.29996875,-0.2870727285504341,-0.8477703827962279,1.430997410366684
1746289495087940600,9.309940673828125,0.17970774785280227,-0.5461643942415714,1.8150766610771416
1746289495097911600,9.31991162109375,0.22371406283974646,-0.08484130646139383,0.8620920458763838
1746289495107883800,9.3298837890625,-0.04644435578882694,0.24825755246579645,-0.12180712835229933
1746289495117854700,9.339854736328125,-0.32026480405628677,0.28797026191204783,-0.2929419859100133
1746289495127826700,9.34982666015625,-0.4081687129586935,0.19897242029309273,-0.23345840806700288
1746289495137797600,9.359797607421875,-0.4020195426791906,0.21635405546575784,-0.1614185693811625
1746289495147769600,9.36976953125,-0.3083393884629011,0.19606120902150867,-0.1392437816478312
1746289495157740500,9.379740478515625,-0.23503858993053434,0.11342208877950906,-0.13476835326682776
1746289495167712800,9.389712646484375,-0.13004618358314038,0.0014849778607487678,-0.14049425663296133
1746289495177683700,9.39968359375,-0.017476035457849502,0.038789749382436275,-0.14877305935230106
1746289495187654400,9.409654296875,-0.03870002527236938,0.14017974732369184,-0.13433145968690513
1746289495197626600,9.419626708984374,-0.15910568932890892,0.1723392649114132,-0.08496270435135811
1746289495207597600,9.42959765625,-0.26681846055090425,0.18675795862525701,-0.07214223961438983
1746289495217569500,9.439569580078125,-0.308669643330574,0.2069032132923603,-0.04993186911102384
1746289495227540500,9.44954052734375,-0.19416005157530306,0.19473112946152685,-0.08871803829688578
1746289495237512700,9.4595126953125,-0.02540507489144802,0.15581044717580078,-0.1975451274363324
1746289495247483400,9.4694833984375,0.09712532623410225,0.13668605998903513,-0.28950393775273114
1746289495257455600,9.47945556640625,0.15519231527745722,0.11399492023140191,-0.37649679622482507
1746289495267426600,9.489426513671875,0.19223639003634452,0.06749006642699241,-0.36108167535215613
1746289495277398500,9.4993984375,0.22350480400323866,0.07033522672504186,-0.2902796348329633
1746289495287369500,9.509369384765625,0.22054069350063799,0.0899947437018156,-0.1800516659196466
1746289495297341700,9.519341796875,0.1429547649949789,0.09983049353957175,-0.07017404481396079
1746289495307312400,9.5293125,0.02059095260798931,0.13904226772636175,-0.038381862701289356
1746289495317284600,9.53928466796875,-0.09960954426527023,0.18731003955006598,-0.09674421796202659
1746289495327255600,9.549255615234374,-0.19017302776575087,0.20003069717437028,-0.11313852259777486
1746289495337227500,9.5592275390625,-0.09787000712156295,0.12104863813519477,-0.1305217652056366
1746289495347198500,9.569198486328125,0.07712649430036544,0.09547726676613091,-0.12103380589224397
1746289495357170700,9.579170654296876,0.18590134179592133,0.12448475006371736,-0.13756525397635996
1746289495367141400,9.589141357421875,0.16886720488667487,0.13582067533135414,-0.14582005476560442
1746289495377113600,9.599113525390624,0.12701777567267417,0.1080175993874669,-0.10867058340348303
1746289495387084500,9.60908447265625,0.029668577554821968,0.13324907127767802,-0.027202041310817
1746289495397056500,9.619056396484375,-0.10819617082476615,0.2382935000732541,0.07123787465319037
1746289495407027500,9.62902734375,-0.2564759302347898,0.25949293996840717,0.12697422879189252
1746289495416998000,9.638997802734375,-0.30708617353141304,0.22156857524365187,0.07560772376786917
1746289495426970000,9.64897021484375,-0.19254560211598873,0.18706541713923214,-0.009726699972711503
1746289495436940800,9.65894091796875,-0.00597264466881752,0.1777954844906926,-0.12230481220874935
1746289495446913000,9.6689130859375,0.1586965240061283,0.16658669273406265,-0.15331293127164244
1746289495456884000,9.678884033203126,0.22472645475268363,0.14559797298014163,-0.15999116692654788
1746289495466856000,9.68885595703125,0.15226035347878933,0.17610270909816025,-0.1864974445255473
1746289495476827000,9.698826904296874,-0.018967735320329665,0.18800795868635176,-0.15833108822721986
1746289495486799000,9.708799072265625,-0.1655851144760847,0.13666998563706875,-0.09725161949489265
1746289495496769800,9.718769775390625,-0.23750761039257048,0.09079349286407232,-0.08330163927134127
1746289495506742000,9.728741943359376,-0.16396715788543223,0.13088058858066798,-0.12798925105333328
1746289495516713000,9.738712890625,-0.012006664136052132,0.12632570175528526,-0.1839825025625527
1746289495526685000,9.748684814453124,0.14697335298657416,0.09037935910522937,-0.20633805369026958
1746289495536656000,9.75865576171875,0.3133329589664936,0.09552490530014038,-0.17693389922529457
1746289495546628000,9.768628173828125,0.37928631734549995,0.11470102267414331,-0.14636778830885885
1746289495556598800,9.778598876953126,0.25465923620164393,0.13849077132344245,-0.15424542634878308
1746289495566571000,9.788571044921875,0.023270400950312613,0.15075696317851542,-0.16242990184817463
1746289495576542000,9.7985419921875,-0.16884557757675647,0.1390878604337573,-0.1737401081526652
1746289495586514000,9.808513916015626,-0.2900800936728716,0.1464659879863262,-0.17687504517752675
1746289495596484900,9.81848486328125,-0.2737450449436903,0.1588815251842141,-0.21562059009205548
1746289495606457000,9.82845703125,-0.18823475317955016,0.13030337321460247,-0.223717716101557
1746289495616427800,9.838427734375,-0.08390928630828857,0.10020692563652991,-0.2144885538548231
1746289495626400000,9.84839990234375,0.016188333734869956,0.10024959573447703,-0.17293715773932636
1746289495636371000,9.858370849609376,0.04652677337527275,0.13121551962345837,-0.15987554119024425
1746289495646343000,9.868343017578125,-0.0053355158090591425,0.1461804490432143,-0.18882183235250413
1746289495656313900,9.87831396484375,-0.100756960734725,0.1352791158005595,-0.20931290478259323
1746289495666286000,9.8882861328125,-0.13967501267194746,0.13571253878176212,-0.23863402060661462
1746289495676256800,9.8982568359375,-0.11288286733627319,0.13068740409612656,-0.24147761000208556
1746289495686229000,9.90822900390625,-0.10898585989773273,0.15637655662596225,-0.107846078745462
1746289495696200000,9.918199951171875,-0.20320669686198234,0.15823913562744854,-0.08901822681985795
1746289495706172000,9.928171875,-0.24031506902873515,0.16322452282458544,-0.1417349408764392
1746289495716142800,9.938142822265625,-0.19960721106529233,0.15351707554161548,-0.15176570182964205
1746289495726115000,9.948114990234375,-0.14136311188936232,0.16754589315503834,-0.1101029177615419
1746289495736086000,9.9580859375,-0.07787000614404678,0.13880992027521133,-0.15329134049434215
1746289495746057000,9.968056884765625,-0.08110358123779296,0.15802724644243715,-0.1893503497386351
1746289495756029000,9.97802880859375,-0.06654255644381046,0.19108955808877945,-0.16419665579237042
1746289495766000000,9.988000244140625,-0.06516483834981918,0.10705167696475983,-0.1519422639729455
1746289495775971800,9.997971923828125,-0.18883973333537576,0.024266426250338553,-0.15285729645863175
1746289495785943000,10.007943115234376,-0.31703064444065093,0.044917584612965585,-0.13054003151468932
1746289495795915000,10.0179150390625,-0.3308025646835565,0.11144377444386482,-0.10002510279621929
1746289495805886000,10.027885986328124,-0.3170388277471065,0.13174392741173505,-0.06786065330505371
1746289495815858000,10.03785791015625,-0.24435119267702102,0.13882833271473646,-0.05341200284436345
1746289495825829000,10.0478291015625,-0.14434826517999172,0.16720979306846856,-0.06215729056429117
1746289495835800800,10.05780078125,-0.047670098191499706,0.18219196588397024,-0.022956512695550917
1746289495845772000,10.06777197265625,-0.02976560818850994,0.21175123784542083,-0.020725721436180174
1746289495855744000,10.077743896484375,-0.05900047050118446,0.21290157692432402,-0.09496168192680925
1746289495865715000,10.08771484375,-0.06571604249179362,0.2366328733846545,-0.15228468420244753
1746289495875687000,10.09768701171875,-0.017907997134327888,0.2525657710537314,-0.1525316447008401
1746289495885658000,10.107658203125,0.017624504017829893,0.2640855284556746,-0.15687464234121143
1746289495895629800,10.1176298828125,0.038221886366605756,0.2876321159988642,-0.1663398783661425
1746289495905601000,10.12760107421875,0.016007716470956803,0.33080110337883234,-0.12692965899780392
1746289495915573000,10.137572998046876,-0.05641454566121101,0.36351825484931466,-0.10152451104111969
1746289495925544000,10.1475439453125,-0.12195873871743679,0.3957271645367145,-0.07361041247081011
1746289495935516000,10.157515869140624,-0.19842121615111827,0.46070407909899946,-0.019028635194711385
1746289495945487000,10.167487060546875,-0.22432547273635864,0.5570721572250128,-0.03880502001680434
1746289495955458800,10.177458740234375,-0.20530980662107468,0.6494803918093442,-0.1741938432695344
1746289495965430000,10.187429931640626,-0.1744289306670427,0.7289405897542833,-0.4218271628897637
1746289495975402000,10.197402099609375,-0.03529284717738628,0.6795981744363904,-0.6385301779236644
1746289495985373000,10.207373046875,0.13016367248296737,0.5327075312972068,-0.7337785313047468
1746289495995345000,10.217344970703126,0.11857201888859271,0.32257541908621784,-0.5758813409827649
1746289496005316000,10.227316162109375,-0.0015063129097223282,0.1696586475253105,-0.28589915472641586
1746289496015287800,10.237287841796874,-0.1558732832789421,0.08349252220094204,-0.07472009074576198
1746289496025259000,10.247259033203125,-0.23240356525182723,0.07002133847028016,0.07200827450379729
1746289496035231000,10.25723095703125,-0.24470190581083295,0.1030921256840229,0.1101211475379765
1746289496045202000,10.267201904296876,-0.22845921154022217,0.10027560695856809,0.035732699899375435
1746289496055174000,10.277173828125,-0.17736907577216623,0.06791179897040128,-0.1509269129179418
1746289496065145000,10.28714501953125,-0.1107686516612768,0.03271539790481329,-0.26450068512782454
1746289496075116800,10.29711669921875,-0.03288227890431881,-0.011406944677233695,-0.19224822660461066
1746289496085088000,10.307087890625,0.05236906966269016,-0.05754062708169221,-0.1451805512856692
1746289496095060200,10.317060302734374,0.14514964469075203,-0.06094488256722688,-0.08531243110448121
1746289496105031000,10.327031005859375,0.26258067685067654,-0.04921878893822431,0.006398980322107672
1746289496115003100,10.337003173828125,0.27166706962585446,-0.012299801863729953,0.09095058312192558
1746289496124974000,10.34697412109375,0.22607670031785965,0.020323241582512853,0.13824592971689997
1746289496134946000,10.356946044921875,0.13522212491631508,0.05326601850241423,0.14525109577123074
1746289496144917000,10.3669169921875,0.040890813314914704,0.04874561846852302,0.10613047046661377
1746289496154889200,10.37688916015625,-0.026971593555808065,0.06780833859592676,0.07899458972718566
1746289496164860000,10.38685986328125,-0.0997241105556488,0.06913286519795656,0.007317593004368245
1746289496174832000,10.39683203125,-0.16853344288766384,0.0605061988890171,-0.05327686868999153
1746289496184803000,10.406802978515625,-0.13941431590914724,0.08796382239609957,-0.06419654130693525
1746289496194775000,10.416775146484374,-0.06294248612523079,0.09967647202163935,-0.08137892758045345
1746289496204746000,10.42674609375,0.056574704658985134,0.05833557685166597,-0.11724424088355154
1746289496214718200,10.43671826171875,0.13490122239887714,0.08520867846906184,-0.05024948369283229
1746289496224689000,10.44668896484375,0.07475918064713477,0.12339695482701063,0.0016959537303075194
1746289496234661000,10.4566611328125,-0.04223170652985572,0.13265256668925285,0.06404343310445547
1746289496244632000,10.466632080078124,-0.13849895462989806,0.12475947535187006,0.05200947910267859
1746289496254603000,10.47660302734375,-0.15197452227473257,0.16956249367445705,0.001683496107533574
1746289496264575000,10.486574951171875,-0.12857961816191674,0.20174100822359323,-0.03683919983655214
1746289496274546000,10.4965458984375,-0.08440320730507374,0.23719138405025003,-0.07050338636618107
1746289496284518000,10.506517822265625,0.0073953709483146664,0.20361703122854233,-0.12374901966769247
1746289496294488800,10.51648876953125,0.12416764693856239,0.1749041469633579,-0.17649090469814835
1746289496304461000,10.5264609375,0.20205635778307915,0.173238551838696,-0.256089561265707
1746289496314432000,10.536431884765625,0.2327659688234329,0.1258136605799198,-0.3219864767497405
1746289496324404000,10.546404052734376,0.25800562402009963,0.10586831239908932,-0.3300530249578878
1746289496334375000,10.556375,0.16530454396903513,0.14721563730984924,-0.2669743086997419
1746289496344347000,10.566346923828124,-0.020691490373015403,0.13537936130464076,-0.07202212036605923
1746289496354317800,10.57631787109375,-0.3134416800379753,0.11028028362244367,0.09532978458683937
1746289496364290000,10.5862900390625,-0.4918827689558267,0.1121545530617237,0.2060614287059754
1746289496374261000,10.596260986328126,-0.5875935522168875,0.15915332786291836,0.18202238147072494
1746289496384233000,10.60623291015625,-0.5562170017004012,0.17523790896236896,0.10253869305234402
1746289496394204000,10.616203857421874,-0.3965717986673116,0.15395780504643916,0.04208844386795536
1746289496404176000,10.62617578125,-0.19994506471753118,0.14203677336722612,-0.07203412133110687
1746289496414146800,10.636146728515625,-0.006731354081630707,0.12625731269419194,-0.12561008256552741
1746289496424119000,10.646119140625,0.09879296718537807,0.12280687997937202,-0.048561439274344594
1746289496434090000,10.656090087890625,0.08081248933672905,0.14734452438652515,0.01191215425301343
1746289496444062000,10.66606201171875,-0.05105623349845409,0.17899200079888106,0.05709251798801124
1746289496454033000,10.676032958984376,-0.1840413931429386,0.17869360237419604,0.09597124256184324
1746289496464005000,10.686005126953125,-0.24921558384299278,0.19120383211821315,0.12116698555154726
1746289496473975800,10.695975830078124,-0.27376784129738807,0.19141484452039,0.14661977204224094
1746289496483948000,10.705947998046875,-0.25535072559714317,0.17393880906254053,0.16244572047181427
1746289496493919000,10.7159189453125,-0.2618102770000696,0.18050152857899665,0.11370340820522978
1746289496503891000,10.725890869140626,-0.3254448370426893,0.1814525456935167,0.014055468158330767
1746289496513862000,10.73586181640625,-0.30540333501100536,0.1621960565596819,0.07457765006776898
1746289496523834000,10.745834228515625,-0.16695055761039257,0.11957388940751552,0.07887593178357928
1746289496533804800,10.7558046875,0.054875499525666234,0.14452595983445643,0.01077644648766145
1746289496543777000,10.765777099609375,0.15589666415452957,0.210372642968595,-0.03762613069685176
1746289496553748000,10.775748046875,0.17393267158269882,0.16898586283028125,-0.01241603038823232
1746289496563720000,10.785719970703125,0.15474749411940575,0.1067079780936241,0.07190519772181286
1746289496573691000,10.79569091796875,0.11638882963061332,0.07787322101444005,0.14872626106850803
1746289496583663000,10.8056630859375,0.05953647707402706,0.11558335846662521,0.1254385984561406
1746289496593633800,10.8156337890625,-0.20155133087038993,0.18809476018697022,0.10197331425454467
1746289496603606000,10.82560595703125,-0.45460839257240293,0.14105185398310421,0.10345836518052964
1746289496613577000,10.835576904296875,-0.48848786582052706,0.17040625102221965,0.12024462827593087
1746289496623549000,10.845548828125,-0.3943395095705986,0.16482552828043698,0.10665104200830683
1746289496633519900,10.855519775390626,-0.0763484956651926,0.17031155847609042,0.1409879767003469
1746289496643492000,10.8654921875,0.3595663023531437,0.21314619933515785,0.02341275029676035
1746289496653462800,10.875462890625,0.5459633187115193,0.2901642648249864,-0.09662159622935577
1746289496663435000,10.88543505859375,0.4801280337542295,0.2272106727838516,-0.03841174638289958
1746289496673406000,10.895406005859375,0.3087655049204826,0.08223667692095041,0.0682962865096517
