time,seconds_elapsed,z,y,x
1746409911964488700,0.03348876953125,-0.6580863075911998,-0.21588614569306372,0.027088497933745383
1746409911974461000,0.0434609375,-0.7853802698567509,-0.2973562221556902,-0.05345394228994846
1746409911984434000,0.053433837890625,-0.8074278510138392,-0.0762350984185934,-0.01698211446106434
1746409911994406700,0.06340673828125,-0.779328130210936,0.029319617986679074,-0.029886604219675064
1746409912004379000,0.07337890625,-0.8591650525137782,0.10815642333626746,0.03815349730551243
1746409912014352000,0.083351806640625,-0.9368021266847848,0.12688216659426688,-0.0052712184011936185
1746409912024323600,0.093323486328125,-0.872479584378004,0.16536358067989348,-0.1970429135352373
1746409912034296800,0.103296875,-0.6614324031487107,0.16262743371427058,-0.38377486093640323
1746409912044269800,0.113269775390625,-0.4546662602394819,0.11541092450916766,-0.530579287096858
1746409912054241800,0.12324169921875,-0.2854208696901798,0.15360650739073753,-0.6859340994596481
1746409912064214800,0.13321484375,-0.11059475639909505,0.15031506462991237,-0.7463935365974903
1746409912074187800,0.143187744140625,0.031029929035902022,0.11490882020592688,-0.8099222981780767
1746409912084159700,0.15315966796875,0.11386954028606414,0.093968323507905,-0.8326496782928705
1746409912094133000,0.163133056640625,0.13337912739813326,0.09979659126996994,-0.7718313447147608
1746409912104104700,0.173104736328125,0.06063888535797596,0.14520400522649288,-0.6366846231222152
1746409912114077700,0.18307763671875,-0.04722556929439306,0.17246376807391642,-0.47477615133225914
1746409912124051000,0.193051025390625,-0.11472703389823435,0.0404682039886713,-0.4491711699545383
1746409912134022700,0.203022705078125,-0.16890373750478027,0.012841945916414261,-0.4392027336478233
1746409912143995600,0.21299560546875,-0.20495237148553133,0.06419570105671882,-0.3060252663016319
1746409912153969000,0.222968994140625,-0.2145674643099308,0.16739654781222343,-0.15230302357673645
1746409912163940900,0.23294091796875,-0.28777532386183735,0.2315595156431198,-0.04905424602627754
1746409912173913600,0.24291357421875,-0.45232817268073555,0.12493687774538993,-0.01907645639181137
1746409912183885800,0.2528857421875,-0.5448953972190618,-0.016128127980232238,-0.015344284126162528
1746409912193858800,0.26285888671875,-0.527166263782978,0.013780688071250914,-0.0014607202023267745
1746409912203831600,0.27283154296875,-0.5137237216249108,0.05575988114476203,0.0829366418838501
1746409912213803800,0.2828037109375,-0.5619955851018429,0.05556932700872421,0.1688701274961233
1746409912223776800,0.29277685546875,-0.7370107912242412,0.10624912841022013,0.14395488194823264
1746409912233749800,0.302749755859375,-0.7796727058649062,0.2277425877034664,0.17218495113253593
1746409912243721700,0.3127216796875,-0.7179371113114058,0.10578267994225024,-0.13062953642904757
1746409912253694700,0.32269482421875,-0.523839165186882,0.05195405912101268,-0.3929448403418064
1746409912263667000,0.3326669921875,-0.31056276360079643,0.11420096419751644,-0.591619154471159
1746409912273639700,0.3426396484375,-0.08869885867238045,0.2615536718904972,-0.853559195330739
1746409912283612700,0.35261279296875,0.09882058584466576,0.27422435289323327,-1.208365151414275
1746409912293585000,0.3625849609375,0.3487469483055174,0.16944354346990584,-1.6227280428379773
1746409912303558000,0.372557861328125,0.727451227979362,0.13214286360144614,-2.052611159476638
1746409912313530600,0.382530517578125,1.1536715843267737,0.12828618817329407,-2.3301333848714827
1746409912323502800,0.3925029296875,1.4170666463002561,0.17598258984982967,-2.6067928559571505
1746409912333475800,0.402475830078125,1.5867081965602934,0.10590718310475349,-2.9210014287143946
1746409912343447800,0.41244775390625,1.6613230003006756,0.113797059571743,-3.1358290052652356
1746409912353420800,0.4224208984375,1.5030352032259107,0.0569727640658617,-3.2524820387899873
1746409912363393800,0.432393798828125,1.2971196857966483,-0.06217208627462387,-3.3144314222246405
1746409912373365800,0.44236572265625,1.1342330166243015,-0.18361527668535707,-3.20629954880774
1746409912383338800,0.4523388671875,0.9075907913781702,-0.03226443926692009,-3.003020955753326
1746409912393311700,0.462311767578125,0.7589194023020565,0.26245266655683513,-2.912643350213766
1746409912403283700,0.47228369140625,0.6827449480295181,0.42453883300125594,-2.8800603465169665
1746409912413257000,0.482257080078125,0.7901781716577708,0.4254354895800352,-2.044113964766264
1746409912423228700,0.492228759765625,0.32585940919294953,0.06606500205993653,-2.358945637857914
1746409912433201700,0.50220166015625,-0.7126303832054138,-0.1520049174129963,-3.24483123177588
1746409912443175000,0.5121748046875,-0.4411286602091044,-0.2811427539795637,-2.3768296695947644
1746409912453146600,0.522146728515625,-0.1414190798602998,0.09807985047996044,-1.2825304578214882
1746409912463120000,0.532119873046875,-0.34333763660788535,0.35754034948348995,-1.0129802342191339
1746409912473092900,0.5420927734375,-0.009620499651879071,0.6083621994793414,-0.3033753363147378
1746409912483064800,0.55206494140625,0.26288930440843106,1.215935294407606,0.7177373509556054
1746409912493037800,0.562037841796875,0.1968647074241191,1.6175468408077955,1.4894547139018772
1746409912503009800,0.572009765625,0.24437924972772596,1.7444716775000095,2.0191011040627953
1746409912512982800,0.581982666015625,0.2445271702984348,1.8467852200269699,2.3967680035129186
1746409912522955800,0.591955810546875,0.16930913996789604,1.7268898435801268,2.5897981742754577
1746409912532927700,0.601927734375,0.10803195670638233,1.3681319350004195,2.903301521372795
1746409912542900700,0.611900634765625,0.18778938403222709,0.9329887058764695,3.376495956471562
1746409912552873700,0.621873779296875,0.43082536592483517,0.49253100373148917,3.9169636003762482
1746409912562845700,0.631845703125,0.5584042826116085,0.0729021546036005,4.167315202511847
1746409912572818700,0.641818603515625,0.6018734219819307,-0.19062310962080956,4.244331806696951
1746409912582791700,0.651791748046875,0.6075245796114206,-0.20437457159757613,4.184552168516815
1746409912592764000,0.661763916015625,0.46962475991845126,-0.2707213132083416,3.748859781077504
1746409912602736600,0.671736572265625,0.3013175270020962,-0.2245931837618351,3.439325337611139
1746409912612708900,0.681708984375,0.16086276212930678,-0.07343933022022246,3.2357287646487354
1746409912622681900,0.691681884765625,0.04276829762458801,0.002055178964138031,2.996837298682332
1746409912632654800,0.70165478515625,0.003351648515462875,0.1694803683489561,2.7399749994784592
1746409912642626800,0.711626708984375,0.022256218939088284,0.3885089037209749,2.4256612127810717
1746409912652599800,0.721599853515625,0.04467146436478942,0.4744429738551378,2.0509125388652083
1746409912662572800,0.73157275390625,0.006876315510272979,0.47453299022614953,1.7154849447295069
1746409912672544800,0.741544677734375,-0.027151005243323742,0.4715437452822923,1.4990727293357253
1746409912682517800,0.751517822265625,-0.0963385597705841,0.5764987422287464,1.3935524997219442
1746409912692490000,0.761489990234375,-0.22142160452101378,0.5694903247714043,1.1160375808507204
1746409912702462700,0.771462646484375,-0.34033198851849883,0.41750411205887794,0.8118041664019227
1746409912712435700,0.781435791015625,-0.38863804652597755,0.3011298954755068,0.7011755077332258
1746409912722408000,0.791407958984375,-0.4018459396779537,0.15444354273676872,0.6559761835694312
1746409912732381000,0.801380859375,-0.3675169325640425,0.07253682842254638,0.6745084500819444
1746409912742353700,0.811353759765625,-0.24855036139991132,0.016373627173900604,0.707165395797789
1746409912752326000,0.821325927734375,-0.17123455507252364,-0.01913257049322128,0.7335039521470665
1746409912762299000,0.831298828125,-0.17036358092427253,-0.10579846203327178,0.75505702778548
1746409912772270600,0.8412705078125,-0.13693713040696456,-0.1550590442866087,0.7847507397815585
1746409912782243800,0.851243896484375,-0.09608021936165169,-0.08159808675646782,0.8384557342231274
1746409912792216800,0.861216796875,-0.005253701010812074,-0.1261702189326286,0.7746773817956447
1746409912802188800,0.871188720703125,0.14215340375052765,-0.3215191880315542,0.6738257285147905
1746409912812161800,0.881161865234375,0.36656887459158893,-0.48380350739657874,0.6844114199370145
1746409912822134800,0.891134765625,0.6233107622861862,-0.43398529126048085,0.7215946109056472
1746409912832106800,0.901106689453125,0.8246084106564522,-0.39764030468165873,0.6907420842632651
1746409912842080000,0.911080078125,0.986920202550292,-0.3434545409858227,0.6895920374453067
1746409912852051700,0.9210517578125,1.062639168140292,-0.32138767060637474,0.7540384983927011
1746409912862024700,0.931024658203125,0.9694470897018909,-0.3305833689749241,0.7805141251251101
1746409912871998000,0.940998046875,0.854516057664156,-0.34863398945033547,0.8180559202730655
1746409912881969700,0.9509697265625,0.7511924613118172,-0.3535077329665422,0.8314198442369699
1746409912891942700,0.960942626953125,0.5986275719285011,-0.383590736541152,0.8500079325899481
1746409912901916400,0.97091650390625,0.4556991104185581,-0.40146892305910586,0.9208873491942882
1746409912911888600,0.980888671875,0.3355505994608626,-0.3889484641820192,1.0494140681251882
1746409912921861600,0.990861572265625,0.29580433480488133,-0.3430751862794161,1.069597901237011
1746409912931833600,1.00083349609375,0.25958734025359154,-0.2960609216481447,0.9871256619945168
1746409912941806600,1.010806640625,0.25552610043035817,-0.2749427302956581,0.7961401488021016
1746409912951779600,1.020779541015625,0.20556935260640455,-0.24341595765352247,0.6703697428420186
1746409912961751600,1.03075146484375,0.14156184933185575,-0.21308044062256812,0.5325105474203825
1746409912971724500,1.040724609375,0.07764379617273807,-0.23283494240641592,0.4236871846079826
1746409912981697500,1.050697509765625,-0.02623158884346485,-0.25319559338986874,0.3144678082153201
1746409912991669800,1.060669677734375,-0.11936930674612521,-0.23581366595625877,0.27754239140003917
1746409913001642500,1.070642578125,-0.18379180229604244,-0.23166239149570464,0.23197101905345915
1746409913011614500,1.080614501953125,-0.26941081513166426,-0.20363222879767418,0.1487713423192501
1746409913021587700,1.090587646484375,-0.3528559910595417,-0.09956687416732311,0.09857143338918685
1746409913031560400,1.100560546875,-0.43595454550683493,0.07972586314380169,0.053095045849680896
1746409913041532400,1.110532470703125,-0.5316448705017567,0.1869651716351509,-0.07153086625039577
1746409913051505700,1.120505615234375,-0.6104699854135512,0.18702829999923706,-0.2711561974942684
1746409913061478700,1.130478759765625,-0.6613993776619433,0.1378045426249504,-0.3734329151421785
1746409913071450400,1.140450439453125,-0.6746107414126395,0.09694763157963752,-0.34922026490569114
1746409913081423600,1.150423583984375,-0.6159761816143989,0.09321721287965774,-0.2895125229179859
1746409913091395600,1.1603955078125,-0.5302502012729644,0.08418342707455158,-0.227085000577569
1746409913101368300,1.170368408203125,-0.4555038801074028,0.07073065578341484,-0.1730827767550945
1746409913111341600,1.180341552734375,-0.31117958032488824,0.06745499511361122,-0.14309914190173148
1746409913121313500,1.1903134765625,-0.219542914634943,0.010703764843940734,-0.18091595459878443
1746409913131286500,1.20028662109375,-0.172930801063776,-0.014935118803381919,-0.17181904042959212
1746409913141259500,1.210259521484375,-0.10350362909436225,0.03695172030031681,-0.10663549737930297
1746409913151231500,1.2202314453125,-0.06912847215062938,0.08192366544902324,-0.048585459470748896
1746409913161204500,1.23020458984375,0.004122048366069793,0.08130757937729358,-0.00834112736582756
1746409913171176400,1.240176513671875,0.05469312869608402,0.02331248652637005,0.16550561949908732
1746409913181149400,1.2501494140625,-0.0695429073035717,-0.021630232527852056,0.36352585363388057
1746409913191122400,1.260122314453125,-0.2809609676718712,-0.06541910537183285,0.6522907730549573
1746409913201094700,1.2700947265625,-0.37538346468806266,-0.19924013131856916,1.1083838512271642
1746409913211067400,1.2800673828125,-0.46005730562806124,-0.36670799080133437,1.482149943846464
1746409913221040400,1.290040283203125,-0.6172451786369085,-0.44755613597333427,1.5417197386682033
1746409913231012600,1.3000126953125,-0.8264800497472286,-0.408937943765521,1.476269653636217
1746409913240985600,1.309985595703125,-0.7581569665621966,-0.11492226420938968,1.1507441525727509
1746409913250957600,1.31995751953125,-0.3717605980157852,0.09702478846907615,0.711111795336008
1746409913260930600,1.3299306640625,0.018964301254227756,0.24861118820905684,0.38940380673408503
1746409913270903600,1.339903564453125,0.34466742390692234,0.6486088696718215,0.1864344257593155
1746409913280875500,1.34987548828125,0.49846916160881516,0.8278039918273686,-0.051501639178395266
1746409913290848500,1.3598486328125,0.6564211508579552,0.9416647642850875,-0.35781215216219425
1746409913300821500,1.369821533203125,0.6931909387201071,0.8924187950789928,-0.4348959763646126
1746409913310793700,1.379793701171875,0.6825329127140343,0.6301742183148861,-0.30948680493235586
1746409913320766500,1.389766357421875,0.6895816621817648,0.4340051650047302,-0.2579267135649919
1746409913330738400,1.399738525390625,0.6187376091517508,0.28997312616705895,-0.3688555242240429
1746409913340711700,1.409711669921875,0.4924842419803142,0.21814240018725395,-0.44898178486227985
1746409913350684700,1.4196845703125,0.1892887922771275,0.6635621086537837,-0.4186372077420354
1746409913360656400,1.429656494140625,-0.09731807232722639,0.703791827711463,-0.7868190704882144
1746409913370629600,1.439629638671875,0.005217003995925187,0.25865736592710015,-0.765338767825067
1746409913380601600,1.4496015625,0.6758019970238208,0.3851005565822124,-0.3678746964931488
1746409913390574300,1.45957421875,1.1559557497411965,0.060378773117065423,-0.3294432590290904
1746409913400547600,1.469547607421875,1.432119254003465,-0.5676894128292799,-0.6476753882139921
1746409913410519600,1.47951953125,1.8702648798137902,-0.7848246818006038,-0.731308195668459
1746409913420492500,1.489492431640625,2.141199835772812,-0.3819347860276699,-0.5506245885208249
1746409913430465500,1.499465576171875,1.9695009145915507,0.1188432370454073,-0.5473907211661339
1746409913440437500,1.5094375,1.3916048727855086,0.1298094522178173,-0.6169736682191491
1746409913450410500,1.519410400390625,0.8981608458623289,-0.06909224092662335,-0.6515203732043504
1746409913460382500,1.529382568359375,0.6380635102599859,0.025455343773961067,-0.6856313171207904
1746409913470355500,1.53935546875,0.4596685985714197,0.1847913347274065,-0.8147104092374443
1746409913480328400,1.549328369140625,0.13476035262346267,0.03609890286326408,-0.9236401550337672
1746409913490300700,1.55930078125,-0.10950783794522286,-0.00022737901508808136,-0.618245880112052
1746409913500273400,1.5692734375,-0.02872515922486782,0.08942541938126086,-0.23315993657708167
1746409913510246400,1.579246337890625,0.006933890916407108,-0.1382744982242584,0.1830538434103131
1746409913520218600,1.589218505859375,0.1518652166813612,-0.21714579036533832,0.24645693278461694
1746409913530191400,1.59919140625,0.28868980835825203,-0.006745967128872871,-0.06069266137182712
1746409913540163600,1.60916357421875,0.13780220453739164,0.3230968126118183,-0.15202888281047344
1746409913550136600,1.619136474609375,-0.08612082487791776,0.4590010745733976,-0.47939241295605894
1746409913560109600,1.629109619140625,-0.273648598831892,0.24596213500499725,-0.7937687434956431
1746409913570081500,1.63908154296875,0.027709260180592537,0.073298460444808,-0.7230468555405736
1746409913580054500,1.649054443359375,0.45749300809800625,0.1753103896766901,-0.5884072066873312
1746409913590027500,1.659027587890625,0.6783125185400247,0.3103308545410633,-0.5653855198010802
1746409913599999500,1.66899951171875,0.6238476456418633,0.13714169480204583,-0.7904340461149811
1746409913609972500,1.678972412109375,0.47375616063475606,-0.1499649360179901,-0.8888584722489118
1746409913619944400,1.6889443359375,0.2329536003500223,-0.2532213123530149,-0.7571952088579536
1746409913629917700,1.698917724609375,0.015512041908502578,-0.07460428234636783,-0.5399930121302604
1746409913639890400,1.708890380859375,-0.14790888027101753,-0.021520926934480666,-0.08209200775325298
1746409913649862400,1.7188623046875,-0.22713059328496454,-0.2947609449654817,0.21881080096811054
1746409913659835600,1.728835693359375,-0.22846067284494637,-0.4550310018986463,0.4095885166287422
1746409913669808600,1.73880859375,-0.27638912971168755,-0.2481768884450197,0.6512044391229749
1746409913679780600,1.748780517578125,-0.3463610760822892,-0.1685170762747526,0.8401695524036884
1746409913689753600,1.758753662109375,-0.31258652451336383,-0.06539397093057632,0.8336910040393471
1746409913699725600,1.7687255859375,-0.313507438750565,-0.08757716116607189,0.5971963700816035
1746409913709698600,1.778698486328125,-0.2339148465976119,-0.33223522783517834,0.32952216948419805
1746409913719671600,1.788671630859375,0.08394348083883524,-0.3126315326988697,0.1738245350331068
1746409913729643500,1.7986435546875,0.48157297186553477,-0.015373510220646857,0.08358049274533987
1746409913739616500,1.808616455078125,0.7020981755360961,0.10431845260858535,-0.057494742113351816
1746409913749589500,1.818589599609375,0.665614949530363,-0.01355564714372158,-0.06408434963673353
1746409913759561500,1.8285615234375,0.42810880044251676,-0.20737901411056517,0.22188304802030323
1746409913769534500,1.838534423828125,0.04949292970448732,-0.1301058048158884,0.4824646600082516
1746409913779506400,1.84850634765625,-0.5683598594367504,-0.022241057902574538,0.6731500212103128
1746409913789479400,1.8584794921875,-1.0701493976399301,-0.4463748172342777,0.43166649292409415
1746409913799452400,1.868452392578125,-0.9045169368907808,-0.6880173354744911,0.2585124044984579
1746409913809424600,1.878424560546875,-0.35491876880824563,-0.3399591000854969,0.19769933161735534
1746409913819397400,1.8883974609375,0.7345876557305455,0.1894756931513548,-0.7224477206036448
1746409913829369600,1.89836962890625,0.7236442369118332,0.19590426489412782,-0.7426032044038177
1746409913839342600,1.908342529296875,0.3961953665703535,0.32200960189700123,-1.1610191706106066
1746409913849315600,1.918315673828125,0.29623744725883006,0.3245078484535217,-0.9776029236286878
1746409913859287600,1.92828759765625,0.06752133834809064,0.04589782782196998,-0.5167752181500196
1746409913869260500,1.938260498046875,-0.4024205246955156,-0.1741162114560604,-0.2014849876359105
1746409913879233500,1.948233642578125,-0.7028770509541035,-0.3883224412381649,0.24612697017788884
1746409913889205500,1.95820556640625,-0.8428919631049037,-0.5290133529543877,0.5666071705505251
1746409913899178200,1.96817822265625,-0.6853507466137408,-0.48420916558802124,0.5392904168188571
1746409913909150500,1.978150390625,-0.44948651951402424,-0.24470833555161953,0.5333455369397998
1746409913919123500,1.98812353515625,-0.16350333976596593,0.0006757073044776916,0.6534785215348005
1746409913929096200,1.99809619140625,0.3373430723682046,0.2604752290040254,1.0155378097474574
1746409913939068400,2.008068359375,0.5481476770132779,0.022559622332453726,0.6895119579464197
1746409913949041400,2.01804150390625,0.3740355572104454,-0.48164779066741464,0.23656360754072664
1746409913959014400,2.028014404296875,0.2620417476683855,-0.07424187877476215,0.5780167455762625
1746409913968986400,2.037986328125,-0.30783962224721906,0.40211365070343014,0.7835302580758928
1746409913978959400,2.04795947265625,-0.6826429489597677,0.3749018186509609,0.6722235540151595
1746409913988931300,2.057931396484375,-0.4062883060395717,0.2480985625118017,0.31304099028259513
1746409913998904300,2.067904296875,0.4644184234470129,-0.13375380592942238,-0.6477694962382317
1746409914008877300,2.077877197265625,1.2641612729161977,-0.6095750824004411,-1.0262558953776955
1746409914018849300,2.087849365234375,1.3937290253326295,-0.3058598466068506,-0.8928051640480756
1746409914028822500,2.097822509765625,1.0737836624890564,-0.0749368753015995,-0.20152911903858184
1746409914038794200,2.107794189453125,0.7518141003414988,-0.31784488343298434,0.311109145437181
1746409914048767200,2.117767333984375,-0.08024608762562274,-0.43215047704875464,0.6141729315847158
1746409914058740500,2.127740478515625,-0.8939648554772138,-0.41773499820530413,0.5575707543969154
1746409914068712200,2.137712158203125,-1.1727782897263765,-0.2699965060651302,0.5461664400681853
1746409914078685200,2.147685302734375,-0.7105100300505757,-0.14378829320967196,0.45608781747519966
1746409914088658400,2.157658447265625,0.07575608272999525,-0.1814882015287876,0.22487433879077434
1746409914098630400,2.16763037109375,0.5280377859205008,-0.2890250316619873,-0.015815116508305072
1746409914108603100,2.17760302734375,0.6406199167445301,-0.07794248685836791,0.24986469540148973
1746409914118575400,2.187575439453125,0.5343997221678495,0.04713058448731899,0.4307745125204325
1746409914128548400,2.19754833984375,0.3034144992813468,-0.1885644235253334,0.33267800316661594
1746409914138521300,2.207521240234375,0.15398089366108178,-0.3806096749037504,0.15960194841325281
1746409914148493300,2.217493408203125,0.17525924401134252,-0.21431728894114493,0.08811638260930776
1746409914158466300,2.22746630859375,0.1932455670788884,-0.16303718355894087,-0.05876870757192373
1746409914168439300,2.237439208984375,0.3169868052989244,-0.13230243807733058,-0.20952245588004587
1746409914178411300,2.247411376953125,0.4742652792006731,-0.028414778101444244,-0.36806232801973815
1746409914188384300,2.25738427734375,0.4585311189740896,-0.0046522097200155255,-0.5010954184591769
1746409914198356500,2.2673564453125,0.3054965662524104,0.04131459168493747,-0.42246231898814435
1746409914208329500,2.27732958984375,0.09658405896425247,0.2092471460700035,-0.2754971493080258
1746409914218302200,2.28730224609375,-0.1774362957894802,0.2780804437994957,-0.1575461849272251
1746409914228274400,2.2972744140625,-0.5119204715952277,0.29537527747154235,-0.044323710373044015
1746409914238247400,2.307247314453125,-0.8645838626921176,0.22377134598493575,0.07337912446558476
1746409914248220400,2.317220458984375,-1.0655591472402215,0.10612345620393752,0.2029310947909951
1746409914258192400,2.3271923828125,-1.127045589338243,0.02919920647740364,0.3561579552143812
1746409914268165400,2.337165283203125,-1.1112342722222208,0.026987375646829605,0.46293227654248476
1746409914278137300,2.347137451171875,-1.0092492309972643,0.048565585726499556,0.45658699916899204
1746409914288110300,2.3571103515625,-0.7863345018416643,-0.04282441172599792,0.4096434616863727
1746409914298083300,2.367083251953125,-0.49317573137581344,0.04047112659811973,0.3698354751721024
1746409914308055300,2.37705517578125,-0.20168051020801067,0.14112228887081146,0.36999417286515235
1746409914318028300,2.3870283203125,-0.05830167458206415,0.23619945040345192,0.5072682618752121
1746409914328000300,2.397000244140625,-0.012499416089057922,0.2805599856555462,0.647519028608501
1746409914337973200,2.40697314453125,-0.04204582856893539,0.30099954709410665,0.8132806686952709
1746409914347946500,2.416946533203125,-0.1662945779196918,0.2946189061462879,1.1117854763641952
1746409914357918200,2.426918212890625,-0.3827928641617298,0.16991057645976543,1.3002519924730063
1746409914367891200,2.43689111328125,-0.6243707927331328,0.019745149433612823,1.3999474614560603
1746409914377864400,2.446864501953125,-0.7863548139773309,-0.12352642642557621,1.3107234098657965
1746409914387836200,2.456836181640625,-0.8434715165585279,-0.2238251219987869,1.1760159564733506
1746409914397809200,2.46680908203125,-0.7463190100565552,-0.20978139907717702,1.0922472476795315
1746409914407781400,2.476781494140625,-0.5100483941130339,-0.2555751820027828,0.9681175946637988
1746409914417754400,2.48675439453125,-0.2198771150253713,-0.43339433963000773,0.835311883239448
1746409914427727000,2.49672705078125,0.08271364678293466,-0.5397966127753258,0.732162182149291
1746409914437699300,2.50669921875,0.3298207140393555,-0.6072966160744429,0.6641153586223721
1746409914447672300,2.51667236328125,0.4829514206118881,-0.7305512398213148,0.5876841531097888
1746409914457645300,2.526645263671875,0.5490197836726903,-0.749603730815649,0.4673068383648991
1746409914467617300,2.5366171875,0.6105389589965343,-0.8390735738605261,0.11706599823981523
1746409914477590300,2.54659033203125,0.6710752607628703,-1.0856810210317374,-0.177112178401649
1746409914487562500,2.5565625,0.7237778001636266,-1.1799211472183466,-0.09004647388905286
1746409914497535200,2.56653515625,0.6834799843057989,-1.1406652416288852,0.10359802937954664
1746409914507508200,2.57650830078125,0.5290484242677689,-1.187322363385558,0.24912995138615368
1746409914517480400,2.58648046875,0.33241131505444643,-1.2170353646039962,0.2981824438467622
1746409914527453400,2.596453369140625,0.22026830630004404,-1.1829852109640837,0.2828238389343023
1746409914537425200,2.606425048828125,0.2837058824658394,-1.0949719964683056,0.21136486887633799
1746409914547398400,2.6163984375,0.44411242526024575,-1.0293535691320896,0.0019736381605267523
1746409914557371400,2.626371337890625,0.6836265531696378,-1.0284235948055982,-0.1967269794538617
1746409914567343400,2.63634326171875,1.0433727421343326,-0.9582388824671506,-0.2790525037020445
1746409914577316400,2.64631640625,1.3989824158161879,-0.7795949644535779,-0.43297932908833026
1746409914587289300,2.656289306640625,1.6653016946732997,-0.5551332981169224,-0.429083782954514
1746409914597261300,2.66626123046875,1.674904220277071,-0.43841947431564326,-0.2202551545575261
1746409914607234300,2.676234375,1.3522539823889732,-0.6449754816055298,-0.6854010154962539
1746409914617206300,2.686206298828125,0.9451210422188043,-1.3795125761926172,-1.5760323426365852
1746409914627179300,2.69617919921875,0.6619692865043878,-1.9338275436639785,-1.8462433682352304
1746409914637152500,2.706152587890625,0.6606446137718855,-1.9974048205614088,-1.5138538266211747
1746409914647124200,2.716124267578125,0.7360252873182296,-2.2681366551637647,-1.2134095753222702
1746409914657097200,2.72609716796875,0.7634924093060195,-2.938486232000589,-0.9238204800367354
1746409914667070500,2.736070556640625,0.9786233527176081,-3.8081454982608554,-0.6638274815917015
1746409914677042200,2.746042236328125,1.2116226919054984,-4.606773664486408,-0.3125520377218723
1746409914687015200,2.75601513671875,1.3718681989192962,-5.567345958337188,0.07512509135007858
1746409914696987400,2.7659873046875,1.342567285633087,-6.549769433990121,0.7374374922037125
1746409914706960400,2.77596044921875,1.0797955431897193,-7.431662743401527,1.5470628532618282
1746409914716933400,2.785933349609375,1.183409573855996,-8.022476426708698,1.8053356037855148
1746409914726905300,2.7959052734375,1.9447282923847435,-8.37639332499802,2.089453574183583
1746409914736878300,2.80587841796875,2.4496710339218377,-8.946074788427353,3.2514714004427194
1746409914746850300,2.815850341796875,2.306950077682733,-8.974771890601515,4.038090564444661
1746409914756823300,2.8258232421875,2.4056816700696944,-9.284571999266744,3.470256190186739
1746409914766796300,2.83579638671875,2.5088351705521346,-9.996053796958924,2.4702403592199085
1746409914776768500,2.8457685546875,2.1082593969404697,-10.59028810236454,1.6578893725901842
1746409914786741200,2.8557412109375,1.6787351767420768,-10.783680676698683,0.33089375009834765
1746409914796714200,2.86571435546875,1.7045991013169288,-10.924481478530168,-1.4884101732850075
1746409914806686500,2.8756865234375,1.1013188082117586,-11.120353594720363,-2.5423341200500724
1746409914816659200,2.8856591796875,0.9256967953026294,-10.601522613084315,-2.04365511508286
1746409914826631400,2.89563134765625,0.655370618891716,-9.854985284101963,-1.0424158798009155
1746409914836604400,2.9056044921875,0.23874811197295784,-9.955815310072898,0.10032032288312911
1746409914846577400,2.915577392578125,0.09310293885022401,-10.459210237646102,1.7167349447906017
1746409914856549400,2.92554931640625,-0.17513386406600473,-10.594414826905727,2.8115549655675887
1746409914866522400,2.9355224609375,-0.3080801530048251,-9.788039992076158,3.412694812577963
1746409914876494300,2.945494384765625,-0.06420885279923677,-8.903589399397372,4.264270140615105
1746409914886467300,2.95546728515625,-0.38333530047535896,-7.72733554251492,4.228674511098862
1746409914896440300,2.9654404296875,-0.8231675641983747,-5.599670018836855,2.8582945049107074
1746409914906411500,2.97541162109375,-1.7418588646531104,-4.298748164278269,1.7195915032655
1746409914916384800,2.985384765625,-2.28427822714746,-4.307601332819462,1.1506336779356001
1746409914926357800,2.995357666015625,-2.983164747160673,-3.9347202063411473,1.5641759006261824
1746409914936329700,3.005329833984375,-3.1353222247868775,-3.6692391318738458,3.0016408995717763
1746409914946302700,3.015302734375,-2.7004244948565956,-4.045878734102845,5.476493136501312
1746409914956274700,3.025274658203125,-1.2462713959604501,-3.3985473370209336,7.5070923706561326
1746409914966247700,3.03524755859375,0.25210429102182386,-1.0737424536958335,8.26074566912353
1746409914976220700,3.045220703125,0.7376689628720283,1.3468278656870125,7.2422647916615
1746409914986192600,3.055192626953125,0.7186322539687157,2.802531116634607,4.871207275727391
1746409914996165600,3.06516552734375,0.3919891470521688,3.395121746486425,2.8014585189670322
1746409915006139000,3.075138916015625,-0.16990590028464794,4.113782934288681,1.9136247135907412
1746409915016110600,3.085110595703125,-0.7320961311757564,4.559254957464337,2.0085791255265475
1746409915026083600,3.09508349609375,-1.2182196059525012,4.815661621855199,2.932207297861576
1746409915036055800,3.105055908203125,-1.166912028041482,5.25528959517777,3.2200381513029335
1746409915046028500,3.115028564453125,-1.1289409015655516,5.465937840217352,3.199229172030091
1746409915056001500,3.12500146484375,-0.4666612339377403,5.493036275023222,3.631732115778327
1746409915065973800,3.134973876953125,1.6666916877269744,5.4705941415905945,4.62674385484755
1746409915075946800,3.14494677734375,6.11955138630867,5.666579655027389,5.356600682663918
1746409915085919700,3.154919677734375,12.059991237092017,5.049800924858451,5.840469071990251
1746409915095891700,3.1648916015625,16.19108800201416,5.192616573643684,5.628578717935085
1746409915105864700,3.17486474609375,16.98806021772623,5.641590759721398,5.775553239965438
1746409915115836700,3.184836669921875,14.346207154303789,6.080938454797864,5.328084197753667
1746409915125809700,3.1948095703125,10.05544122095108,6.046396718248724,4.654629640638828
1746409915135782700,3.20478271484375,6.630220104277133,6.5079503999143835,4.6741456574916835
1746409915145755000,3.2147548828125,4.503875600069761,6.624640842840075,5.886563883689045
1746409915155727600,3.2247275390625,4.3243268421709535,6.926234848695993,6.833079010614752
1746409915165699800,3.234699951171875,3.915509894436598,7.2004136088818305,6.931963163214921
1746409915175672800,3.2446728515625,4.334938252556324,6.712654641857743,6.19627631407082
1746409915185645800,3.254645751953125,4.891819271123409,6.82484017457962,3.9771863061487673
1746409915195617800,3.26461767578125,2.1884382645487785,9.071379914963245,0.9927902636274695
1746409915205590800,3.2745908203125,-2.056139333602786,19.84588593608141,-3.0349808591157195
1746409915215563800,3.284563720703125,15.533332533812523,10.013781176829337,-9.411539506056904
1746409915225535700,3.29453564453125,30.635507693266867,-7.9832643602609625,-7.247601476514339
1746409915235508700,3.3045087890625,17.801173420900106,2.9633535467535257,1.5230774359099566
1746409915245480700,3.314480712890625,2.3866262564659118,3.7560897323310374,-4.606012909246981
1746409915255453700,3.32445361328125,-1.935173113054037,4.246901657184958,-8.151907693263889
1746409915265426700,3.3344267578125,-7.192014613848924,8.301150744748115,-8.4869351821661
1746409915275398700,3.344398681640625,-14.33356160774231,6.346128437364101,-5.617396229663491
1746409915285372000,3.354371826171875,-9.318347427618503,6.122859780204296,1.3321639650404453
1746409915295344600,3.3643447265625,-3.854804958105087,4.211844080068171,0.719847474977374
1746409915305316600,3.374316650390625,-2.8379321003615856,4.4009252209439875,-0.22195147361401468
1746409915315289900,3.384289794921875,1.7285206596523521,3.016780893297493,-0.5592575019074604
1746409915325261600,3.394261474609375,8.62928964318037,3.294236775457859,2.211113476084918
1746409915335234600,3.404234619140625,10.328049370819329,4.107777848654985,6.310995164662599
1746409915345207800,3.414207763671875,7.288440851902961,4.583987832182646,7.100846150192618
1746409915355179800,3.4241796875,2.574351891079545,5.037572726926207,7.841812401044368
1746409915365152500,3.434152587890625,-2.6267916878908872,1.9715410421170294,10.15292427458167
1746409915375124700,3.444124755859375,-5.847173538064956,-0.7925321874380111,9.77934639801085
1746409915385097700,3.45409765625,-6.709198363924026,-0.457584778034687,4.804798282535374
1746409915395070700,3.46407080078125,-5.199409887045621,1.0742411969982086,1.212927344763279
1746409915405042700,3.474042724609375,-1.7092600788652896,2.2047518320985136,-1.314322749532014
1746409915415015700,3.484015625,2.2473300139784813,1.6358225022107362,-3.6027421681374308
1746409915424988700,3.49398876953125,5.160376684296131,0.9771190856344998,-2.5959488058596847
1746409915434960600,3.503960693359375,5.45641013341546,0.27258023894801736,-0.092177238840051
1746409915444933600,3.51393359375,1.985647747272253,0.24909283424615858,0.9920951209701597
1746409915454905900,3.52390576171875,-1.8407213899433612,-0.1267730071313679,1.0754900280155242
1746409915464878800,3.53387890625,-1.6562322530329225,0.06975304292291402,0.07430548206288368
1746409915474851600,3.5438515625,-0.9182628459095954,0.21357801488116382,-0.904258066758886
1746409915484823800,3.55382373046875,-0.36728199129700656,-0.016834668814390896,-0.33461364740431304
1746409915494796800,3.563796875,0.35440029789209365,-0.08460808222740888,-0.14557440944146363
1746409915504769800,3.573769775390625,0.21463994502425193,-0.29607655760869384,-0.6625701019417494
1746409915514741800,3.58374169921875,-0.8022568781167269,-0.12832257466092706,-0.3860102918382734
1746409915524714800,3.59371484375,-0.9448200134456157,-0.029163258381187915,-0.2588599758271128
1746409915534686700,3.603686767578125,-0.18895371510386466,0.19928806211352348,-0.5184808895567432
1746409915544659700,3.61365966796875,0.6162555830776691,0.28950799287334084,-0.07336564392950386
1746409915554632700,3.6236328125,0.7513222251713275,-0.10735007538944483,-0.6049160410808399
1746409915564604700,3.633604736328125,0.07125497191846371,-0.09263415229469538,-1.0012712378554045
1746409915574578000,3.643577880859375,-0.5048889655232429,0.5407527444563806,-0.216474028583616
1746409915584550700,3.653550537109375,-0.3372913421809673,0.55463411642313,0.6319919352613389
1746409915594522600,3.663522705078125,0.15456863042116165,0.059223465602099894,0.9299215003255754
1746409915604496000,3.673495849609375,0.126729021859169,-0.32533509305790065,0.8180097430437803
1746409915614467600,3.683467529296875,-0.3451122450649738,-0.3485463111668825,0.4194790288610384
1746409915624440600,3.693440673828125,-0.35368192048966884,-0.12867094970718027,0.3479094015028327
1746409915634413800,3.703413818359375,0.16892390350997447,-0.05680383723974228,0.25690738045461475
1746409915644385800,3.7133857421875,0.7009528048932552,0.13928192170113324,0.2434444530956447
1746409915654358500,3.723358642578125,0.7649760719925165,0.022918226511776447,0.010023564027436076
1746409915664330800,3.733330810546875,0.3293126183867454,0.06565525221526622,-0.11474172001071274
1746409915674303700,3.7433037109375,-0.2792681922793388,0.07361264096051454,0.001184606674686074
1746409915684276700,3.75327685546875,-0.41400282593965526,0.04299377694353461,-0.15135850926823913
1746409915694248700,3.763248779296875,-0.1461702199101448,0.05654752439111471,-0.22969638865236192
1746409915704221700,3.7732216796875,-0.03293313230872154,0.06232260066121816,-0.1820963965550065
1746409915714194700,3.783194580078125,-0.08455459847450256,0.0714507867515087,-0.21592801207341253
1746409915724166700,3.793166748046875,-0.07778758855760097,0.15260902078598737,-0.47961314303465186
1746409915734139600,3.8031396484375,0.10145780248045921,0.18000863049551843,-0.6188869544945657
1746409915744111900,3.81311181640625,0.16244447836279868,0.04565028280168772,-0.22732596972659228
1746409915754084600,3.823084716796875,0.1050789155870676,-0.0353476461045444,0.1430291088728234
1746409915764057600,3.8330576171875,0.09112345547080039,-0.08430340019240976,0.35448015819527207
1746409915774029800,3.84302978515625,0.014934534281492232,-0.08328647823482752,0.4380043907087296
1746409915784002800,3.8530029296875,-0.06142039112448692,-0.02534238491877913,0.482856764598377
1746409915793974500,3.862974609375,-0.04681786527633667,-0.00319850378036499,0.396120693898946
1746409915803947800,3.87294775390625,-0.07639350385069847,0.1047150507107377,0.09744348880518228
1746409915813920800,3.882920654296875,-0.08536240772604942,0.2280895745102316,-0.24872422012947498
1746409915823892500,3.892892578125,0.07120470303595065,0.07919307144135236,-0.39814606224671006
1746409915833865700,3.90286572265625,0.13901450293660164,0.1421257668249309,-0.26871337091941383
1746409915843837700,3.912837646484375,0.17014496973752974,0.060937137652188535,-0.012994542662240564
1746409915853810700,3.922810791015625,0.13126374267935753,0.02054031839929521,0.07624375664908438
1746409915863783700,3.93278369140625,-0.01625789183974266,-0.00945887934938073,-0.05729812356270849
1746409915873755600,3.942755615234375,-0.056042789739370345,0.00988755309022963,-0.03280307618826628
1746409915883728600,3.952728759765625,-0.10716273612380027,0.004436813403666019,0.2220622770447284
1746409915893702000,3.962701904296875,-0.009357026410102843,0.010894099784269928,0.0012366291228681802
1746409915903673900,3.972673828125,0.10658990467190742,0.09091368517763912,-0.10253964290041476
1746409915913646600,3.982646484375,0.15424012911915777,0.156523417750746,-0.14963709230311215
1746409915923618800,3.992618896484375,0.24817630392313003,0.19379867091700434,-0.24650548463407904
1746409915933591800,4.002591796875,0.08602876268029212,0.2586970403503626,0.0021946970326825973
1746409915943564800,4.012564697265625,-0.07032850472331047,0.2622566325280815,-0.07023297192696482
1746409915953536800,4.022536865234375,-0.21257482918798923,0.2870769663341343,-0.11226813297141343
1746409915963509800,4.032509765625,-0.37588381542563437,0.24018873923532663,-0.07301202645255252
1746409915973482000,4.04248193359375,-0.3949386445075273,0.1251459904514253,-0.06771152715794741
1746409915983454700,4.052454833984375,-0.368223071539402,0.08616985165141522,0.027171573107317087
1746409915993427700,4.062427734375,-0.35944822893142697,0.06076996439173817,0.1346893149475567
1746409916003400000,4.07239990234375,-0.29675942530632016,-0.03965184610448778,-0.01534260362572968
1746409916013373000,4.082373046875,-0.23156419181823729,-0.2310457939673215,-0.1693492345162667
1746409916023344600,4.0923447265625,-0.20171967317461967,-0.32206651971600947,-0.14659133139904587
1746409916033318000,4.10231787109375,-0.16211071636378765,-0.26554727157130836,-0.09205211462303996
1746409916043291000,4.112290771484375,-0.1003735143750906,-0.2017293908510357,-0.016585461559984832
1746409916053262600,4.1222626953125,-0.006380640947818756,-0.12176599262431263,0.00019917583391070365
1746409916063235800,4.13223583984375,0.07616904744505881,-0.07220408933684229,-0.09112345547080039
1746409916073208800,4.142208740234375,0.10786766952276229,0.031114246318489313,-0.1410972092284821
1746409916083180800,4.152180908203125,0.05875263321995735,0.05314363423176109,-0.08599878766713663
1746409916093153800,4.16215380859375,0.035924130818247794,-0.039694443137198686,0.09773954914230852
1746409916103125800,4.172125732421875,0.06787526635229588,-0.13930406046770513,0.22910068778153508
1746409916113098800,4.1820986328125,0.10211363604068756,-0.11983970073685049,0.13733093376383185
1746409916123071700,4.19207177734375,0.16177812340855596,-0.04489354615025222,-0.017826638993807136
1746409916133043700,4.202043701171875,0.1393687232017517,-0.023445611386746168,-0.12741786263985558
1746409916143016700,4.2120166015625,0.10504209070801734,-0.008991992489993572,-0.16321767295869066
1746409916152988700,4.22198876953125,0.020337854629755018,-0.0021206454157829285,-0.04498206468392163
1746409916162961700,4.231961669921875,-0.07434300106167793,-0.02877783926017582,0.28355178788267077
1746409916172934700,4.2419345703125,-0.016436755537986753,0.010035217932611704,0.3150897029733285
1746409916182907000,4.251906982421875,0.044614217752218244,0.13382650583945213,-0.04393909496963024
1746409916192879600,4.261879638671875,0.1580430285334587,0.1474069951634854,-0.16545818189447745
1746409916202851800,4.271851806640625,0.22288754888772963,0.07741217937394976,-0.056084400391392404
1746409916212824800,4.281824951171875,0.09571195230484009,0.043417263052612544,0.027701898858044294
1746409916222797800,4.2917978515625,-0.08104863618016242,0.0015405074402689933,0.023978914545848964
1746409916232769800,4.301769775390625,-0.15096563749313355,0.023638284414634107,-0.020765943848714233
1746409916242742800,4.31174267578125,-0.038114334338903426,0.045494361587613816,-0.05791683998294175
1746409916252714800,4.32171484375,0.06775894649624824,0.035378479634225364,-0.040045685993973165
1746409916262687700,4.331687744140625,0.08195698319673538,0.029775545060634612,-0.040401970352046186
1746409916272660700,4.34166064453125,-0.010500351226329804,0.04277830756194889,-0.06873730827542021
1746409916282632700,4.3516328125,-0.04519406346678734,0.022372940653935074,-0.04204270503008738
1746409916292606000,4.36160595703125,-0.02934767503738403,0.016674144490435718,-0.006745072079729289
1746409916302578700,4.37157861328125,-0.02924479918479919,0.029990502985566853,-0.000050268882513046264
1746409916312550700,4.381550537109375,-0.028673136776685714,0.05603387578055262,-0.052466611753031606
1746409916322524000,4.39152392578125,0.0001052139401435852,0.06244023569151759,-0.09695820777257903
1746409916332495600,4.40149560546875,0.0411783980846405,0.07117357724532485,-0.04888435108577832
1746409916342468900,4.41146875,0.03990823201835155,0.033914763757213945,0.00035610169498249885
1746409916352441900,4.42144189453125,-0.02063712983727455,0.0446172864921391,-0.01765058830715716
1746409916362413800,4.431413818359375,-0.046453123617172236,0.04045760952942073,-0.0747712181448005
1746409916372386800,4.44138671875,-0.0165524908721447,0.04635105148218572,-0.06175539523251354
1746409916382358800,4.45135888671875,0.05145487742722034,0.07278598087802529,-0.014153704368416219
1746409916392331800,4.461331787109375,0.0068038347959518426,0.03722067343480885,-0.019613723339978604
1746409916402304800,4.4713046875,-0.06229483587145805,0.0316015914440155,-0.008401661914028228
1746409916412276700,4.48127685546875,-0.08103110052347183,0.00999766240119934,-0.006550645486172288
1746409916422249700,4.491249755859375,-0.03694061438441276,0.044812443738058205,-0.07267629169216379
1746409916432222000,4.501221923828125,0.029008067819476124,0.056671881423145526,-0.036594102501682935
1746409916442194700,4.511194580078125,0.025658172869682312,0.04764255259744823,-0.008453903557918965
1746409916452167700,4.521167724609375,-0.03488543542027473,0.042720951351523394,-0.02791652798941359
1746409916462140000,4.531139892578125,-0.06693710871934891,0.05009001881480217,-0.017772534186393022
1746409916472113000,4.54111279296875,-0.0022550854504108427,0.07644318821132183,-0.009675937899854034
1746409916482084900,4.5510849609375,0.04774667055904865,0.05403554157018661,0.005123297830484807
1746409916492057900,4.561057861328125,-0.005682721811532974,0.0304181538131088,-0.044393962597660715
1746409916502030800,4.57103076171875,-0.0648719928830862,0.026976050535216924,-0.0414288657143712
1746409916512002800,4.5810029296875,-0.05869067389965057,0.048852220648154615,-0.004261584700923413
1746409916521975800,4.590975830078125,-0.007781155395507812,0.04308693511970341,-0.00032183409919962286
1746409916531947800,4.60094775390625,-0.004318447721004486,0.04080532698854804,-0.023380912120081483
1746409916541921000,4.610921142578125,-0.03410743678510189,0.029025895737111566,-0.030938140832912176
1746409916551893800,4.620893798828125,-0.03745031747221946,0.03866692672036588,-0.024541407266817986
1746409916561865700,4.63086572265625,-0.032248072654008864,0.056296618369966744,-0.006136365596856922
1746409916571839000,4.6408388671875,0.0017021277427673339,0.0368307973343879,0.010008768317103385
1746409916581810700,4.650810791015625,-0.03290741334557533,0.035454686675593254,-0.04781776303388178
1746409916591783700,4.66078369140625,-0.0480669885545969,0.04179090395979583,-0.03704723483035341
1746409916601757000,4.6707568359375,-0.017867665123939513,0.03726750825121999,-0.025177823740523308
1746409916611729000,4.68072900390625,-0.01580430285334587,0.045230230758711694,-0.03910265125650912
1746409916621701600,4.69070166015625,-0.031982699716091155,0.03666179744303226,-0.0535152988220565
1746409916631673900,4.700673828125,-0.03440495842695236,0.04615596730150282,-0.03407974506057799
1746409916641646800,4.710646728515625,-0.011607435685396194,0.04770158930830657,-0.021577406362071633
1746409916651619600,4.72061962890625,-0.01815934154689312,0.03027794162482023,-0.005088737973757088
1746409916661591800,4.730591796875,-0.03128185797035694,0.03459478191062808,-0.027467761308606713
1746409916671564800,4.740564697265625,-0.00041910219490528107,0.06786649852395057,-0.016861465489771216
1746409916681536800,4.750536865234375,0.011603344032168388,0.03928980785906314,-0.03778175964998081
1746409916691509800,4.760509765625,-0.022428104907274246,0.03502747423946857,-0.0465102606318891
1746409916701482800,4.770482666015625,-0.036974516654014584,0.03071998630389571,-0.05207691831570118
1746409916711455000,4.780455078125,-0.020836451801657677,0.04781600946821272,-0.06081380353346467
1746409916721427700,4.790427734375,-0.024224925196170807,0.03355557505600154,0.001974332280270755
1746409916731400700,4.800400634765625,-0.038896424627304076,0.04496332345083356,-0.0371123176895082
1746409916741373000,4.810373046875,-0.04444003022909164,0.08404226503819227,-0.08777670232616365
1746409916751346000,4.820345947265625,-0.02979600332677364,0.06348141530752181,-0.05406805560030043
1746409916761317600,4.830317626953125,-0.021067337948083877,0.053066404277086254,-0.008021302560623734
1746409916771291000,4.840290771484375,0.0041512744605541226,0.05466287968829274,-0.009748181152157484
1746409916781262800,4.850262939453125,0.0029150106638669965,0.014564604990556835,-0.02267846293915063
1746409916791235600,4.860235595703125,-0.03285363733172417,0.011178031292185187,-0.028861298026237634
1746409916801208800,4.870208740234375,-0.03569090658426285,0.019494243412464855,-0.027102617790643123
1746409916811180800,4.880180908203125,-0.009516016364097594,0.009267594560980797,-0.01328581722639501
1746409916821153800,4.89015380859375,-0.014487959557771681,0.007251724693924188,0.007714611231628805
1746409916831126800,4.900126708984375,-0.03606792320311069,0.025960736012831328,-0.0035076610610820353
1746409916841098800,4.9100986328125,-0.025898995888233182,0.04268441873341799,0.0006961107716895639
1746409916851071700,4.92007177734375,0.00030628947019577024,0.0522174592975527,-0.007125449699442833
1746409916861043700,4.930043701171875,-0.009655132573843001,0.03263371097072959,-0.03340191886425018
1746409916871016700,4.9400166015625,-0.014056582403182983,0.03466682423353195,-0.03636650429088622
1746409916880989700,4.94998974609375,-0.02683890708684921,0.027905221144109964,-0.001178414395917207
1746409916890962000,4.9599619140625,-0.023592472511529922,0.03698233463428914,0.010282105365768074
1746409916900935400,4.969935302734375,-0.0069184010863304135,0.05345306550711393,-0.007513407837413251
1746409916910907400,4.979907470703125,0.005232055434584618,0.04281988168135285,-0.03992317385915667
1746409916920880400,4.98988037109375,-0.017585341051220893,0.04251541884206235,-0.04274201240586117
1746409916930853400,4.999853271484375,-0.02395546060502529,0.02400441431328654,-0.03467789361681789
1746409916940825300,5.009825439453125,-0.0040916532278060915,0.013243804715573787,-0.028283224143646656
1746409916950798600,5.019798583984375,-0.008439327043294906,0.05686908449567854,-0.04129775014799088
1746409916960770300,5.029770263671875,0.034113282003998754,0.07006693117767572,-0.033284320366568865
1746409916970743300,5.039743408203125,0.09179974729716778,0.08671119198650121,-0.031115598025359213
1746409916980716500,5.049716552734375,-0.0009223755419254302,0.06869133197553455,-0.024784166514128445
1746409916990688300,5.059688232421875,-0.16114391715824603,0.036789004019275304,0.03064794398099184
1746409917000661200,5.0696611328125,-0.09459317740797996,0.06229300924055278,-0.02275689847022295
1746409917010633500,5.079633544921875,0.09205635240674018,0.05336947887688875,-0.0543304693961516
1746409917020606500,5.0896064453125,0.009631751698255538,-0.014924085952714085,-0.017060257731191814
1746409917030579500,5.099579345703125,-0.14515198277831076,0.013402064017206429,-0.01332403034493327
1746409917040551400,5.109551513671875,-0.1351730250775814,-0.002030409849062562,0.020612031928636133
1746409917050524400,5.1195244140625,0.008934417083859444,0.036923078727722165,-0.023742767702415585
1746409917060496400,5.129496337890625,0.03979074311852455,0.03444229476265609,-0.08976583031676709
1746409917070469400,5.139469482421875,-0.046667058628797525,0.018895985258370638,-0.005548610570468009
1746409917080442400,5.1494423828125,-0.10511574046611785,0.01627206649556756,0.031170250822044908
1746409917090414600,5.15941455078125,-0.05235094948410988,0.01432261292822659,0.001435476163215935
1746409917100387300,5.16938720703125,-0.0210053786277771,-0.002905658313632011,-0.000940641850978136
1746409917110359600,5.179359619140625,-0.05970423485636711,-0.014555983292683958,-0.005101999314129352
1746409917120332500,5.18933251953125,-0.03523439498841762,0.06756064744517207,-0.04216035832669586
1746409917130305500,5.199305419921875,0.0690109923839569,0.07821341275423764,-0.05081069777216762
1746409917140277500,5.209277587890625,0.09588029460906981,0.08604673672839999,0.02137958223503083
1746409917150250500,5.21925048828125,0.0007382511466741561,0.0667440703652799,0.03128200410082936
1746409917160222500,5.229222412109375,-0.05911036061644554,0.07470891176462173,0.01993091779667884
1746409917170195500,5.239195556640625,-0.00897591813802719,0.033871801398321986,-0.039043870273977516
1746409917180168400,5.24916845703125,-0.001959317374229431,0.045088411135226485,-0.04255688336361199
1746409917190140400,5.259140380859375,-0.02087853737771511,0.04834945875778794,-0.02217581064663827
1746409917200113400,5.269113525390625,-0.020229133558273313,0.04592676165550947,-0.011921177809685468
1746409917210085400,5.27908544921875,0.004466916280984878,0.045928953612595795,-0.02738459480348974
1746409917220058400,5.289058349609375,-0.00634556963443756,0.04660867950506508,-0.03764346542414278
1746409917230031600,5.299031494140625,-0.022564298507571218,0.054808937095478176,-0.04098850153572857
1746409917240003300,5.30900341796875,-0.039109190595149994,0.05696691884696483,-0.04723879410214722
1746409917249976300,5.318976318359375,-0.011208791756629944,0.04846658233143389,-0.03970098247583955
1746409917259948500,5.328948486328125,-0.029696050083637234,0.029624811478331684,0.00724661012738943
1746409917269921300,5.33892138671875,-0.026478257080912587,0.053238326777890324,-0.03265369431283325
1746409917279894300,5.348894287109375,-0.011262567770481109,0.04344838884323835,-0.022889256145618854
1746409917289866500,5.358866455078125,-0.002174421429634094,0.021081366473436353,-0.038802937657572326
1746409917299839500,5.368839599609375,-0.0433873063057661,-0.024346432683989404,-0.07932038761544973
1746409917309811500,5.3788115234375,-0.07923954093158245,0.006259644916653633,-0.026481800744868812
1746409917319784400,5.388784423828125,-0.0376969857096672,0.024719649910554288,-0.0020062983211129905
1746409917329757400,5.39875732421875,0.0019207389295101164,0.05247581797279417,-0.04572952205035835
1746409917339729400,5.4087294921875,-0.0061596916735172265,0.04643558796048164,-0.028217757692001758
1746409917349702400,5.418702392578125,-0.04071311866044998,0.025078765546530483,-0.019795381783507763
1746409917359674400,5.42867431640625,-0.04249240329265594,0.008447437284514308,-0.030047676532901822
1746409917369647600,5.438647705078125,-0.022700492107868193,0.039771600026637315,0.001588072909042239
1746409917379620400,5.448620361328125,-0.010338438662886619,0.021491700839996335,-0.01763239506334066
1746409917389592300,5.45859228515625,-0.03239128051698208,0.01663242424055934,-0.02298117221277207
1746409917399565600,5.468565673828125,-0.04351765468716621,0.014380699791014194,-0.021641886433027682
1746409917409537300,5.478537353515625,-0.04122749792337417,0.02649235867150128,0.006336947936564683
1746409917419510300,5.48851025390625,-0.0248830968439579,0.06062741411589086,-0.010752901215292513
1746409917429483500,5.4984833984375,0.006290624576807022,0.04775923777967691,-0.023440204559266566
1746409917439455500,5.50845556640625,0.00006254384219646453,0.0496811457529664,-0.008980265519581735
1746409917449428200,5.51842822265625,-0.032381343644857404,0.045509997548162935,-0.008626556711085141
1746409917459401500,5.5284013671875,-0.006623802053928375,0.05084916661903262,-0.03721676444467157
1746409917469373400,5.53837353515625,-0.024423662638664245,0.044971141431108114,-0.035000805428251625
1746409917479346400,5.548346435546875,0.0014414309799671173,0.038242417697981,-0.02761580974347889
1746409917489318400,5.558318359375,0.016783961540460586,0.05548362148664891,-0.018001557169295846
1746409917499291400,5.56829150390625,-0.011614449948072432,0.05567315270937979,-0.018797749048285184
1746409917509264400,5.578264404296875,-0.03195756527483463,0.033517654198408124,-0.03952142465785145
1746409917519236400,5.588236328125,-0.0479448234796524,0.024812369695305824,-0.009413798098638654
1746409917529209300,5.598209228515625,-0.051178398573398586,0.03131393360905349,-0.029829978661611675
1746409917539181600,5.608181640625,0.008113748350739478,0.03440130516514182,0.01575151322018355
1746409917549154600,5.618154541015625,-0.026552491360902784,0.04618197852559387,0.02435666181705892
1746409917559127300,5.628127197265625,-0.04240004883408546,0.014079744083061814,-0.025426848331838843
1746409917569099500,5.638099609375,-0.04539455447494983,0.015161474905163048,-0.04875303458999842
1746409917579072500,5.648072509765625,-0.04032265803813934,0.020597017022594807,-0.05941701541282236
1746409917589044200,5.658044189453125,-0.04172141892015934,0.01888634064719081,-0.039481348375789815
1746409917599017500,5.668017578125,-0.0629506694316864,0.022606091822683808,-0.021239223916269836
1746409917608990500,5.677990478515625,-0.07676116811931133,0.05716828663796186,-0.008768011008389294
1746409917618962400,5.68796240234375,-0.07672434324026108,0.04929733406715095,0.003329290553182363
1746409917628935400,5.697935302734375,-0.06209142225384712,-0.00420870373621583,0.002532952543720603
1746409917638907400,5.707907470703125,-0.09618015433847904,-0.009696925888955592,-0.05501644236631691
1746409917648880400,5.71788037109375,-0.13380173672437667,-0.022601342582330108,-0.08258311573844403
1746409917658853600,5.727853515625,-0.12739888394474982,0.010777195406332611,-0.035895598843507466
1746409917668825300,5.737825439453125,-0.12149345929324626,0.002628668003156781,0.007287051735632121
1746409917678798300,5.74779833984375,-0.1709866812586784,-0.012232508781179785,-0.04092135458365082
1746409917688770300,5.757770263671875,-0.15817629952430723,-0.04111578117720782,-0.0928631752775982
1746409917698743300,5.767743408203125,-0.07567045027315616,-0.05297821453697979,-0.022251615829207
1746409917708716300,5.77771630859375,0.019708909076452254,0.01181917873993516,0.015909370663017033
1746409917718688500,5.7876884765625,0.0914110402405262,-0.010178206599876284,0.06762863464746624
1746409917728661200,5.7976611328125,0.06010463235080242,-0.0794376938521862,0.06265300165936351
1746409917738633500,5.807633544921875,0.006871639335155486,-0.11275485704243182,0.0012409765044227243
1746409917748606500,5.8176064453125,-0.0027834932386875152,-0.11417495297342538,0.024907391034998
1746409917758579500,5.827579345703125,-0.019166472762823104,-0.14382935587242246,0.07431364710303023
1746409917768551400,5.837551513671875,-0.08194003206193447,-0.15762224583812057,0.11750060853110626
1746409917778524400,5.8475244140625,-0.05936988833546638,0.054216597225517034,0.08734443012243136
1746409917788496400,5.857496337890625,0.17427169427871703,0.3440826828215271,0.04000179205331951
1746409917798469400,5.867469482421875,0.3963537720024585,0.3900197466753423,-0.006734203625842928
1746409917808442400,5.8774423828125,0.383680168390274,0.33777430339232084,-0.13060080352490766
1746409917818414300,5.887414306640625,0.14164894309341908,0.21170966372601688,-0.07086756176976487
1746409917828387600,5.8973876953125,0.0365904857724905,0.13054580366834997,0.07323432743372395
1746409917838359300,5.907359375,0.18750760794878005,0.20066570714227855,0.018007785980682818
1746409917848332300,5.917332275390625,0.446012413662672,0.29507183754555877,-0.026382395491003987
1746409917858305500,5.927305419921875,0.6305144100546837,0.2162018605787307,0.037081118833646176
1746409917868277200,5.93727734375,0.6750812815338373,0.27891528718844055,0.4038149747285992
1746409917878250200,5.947250244140625,1.1384452274918555,0.7429745949994773,1.2866478300124407
1746409917888222500,5.957222412109375,2.1598598203182218,0.9704328858688474,1.7757123266771435
1746409917898195500,5.967195556640625,2.5371909119427203,0.22046412113308905,1.061873517530039
1746409917908168200,5.977168212890625,0.7826409080207347,-1.188655657815933,-0.5131417570184916
1746409917918140400,5.987140380859375,-3.361184405571222,-1.858680678873509,-1.6193860389336943
1746409917928113200,5.997113037109375,-5.809476552355289,0.004659223982691764,-0.6222871183268726
1746409917938085400,6.00708544921875,-3.038779666876793,2.622541044709086,-0.2259258206050843
1746409917948058400,6.017058349609375,1.7706465677201746,-0.10842954118922352,-2.171327847532928
1746409917958031400,6.02703125,3.1355326526671647,-0.08218304703757166,-0.7424408534489572
1746409917968003300,6.03700341796875,0.5252841032981872,0.3839446645453572,0.7298360772892832
1746409917977976300,6.046976318359375,-1.4902093316614626,-0.07286226098462939,0.3273162934703752
1746409917987948500,6.056948486328125,-1.3752011427342892,-0.10847133450433612,-0.07449380770921707
1746409917997921300,6.06692138671875,-0.39359541320502756,0.02258490290418267,-0.24338578171096742
1746409918007894300,6.076894287109375,0.5876134259611367,0.11342106586620211,-0.07166563507858663
1746409918017866500,6.086866455078125,0.8061872033029794,0.08125497240722179,0.11721998322512954
1746409918027839500,6.096839599609375,0.20159341644644735,0.053152328994870185,0.06578293371554464
1746409918037811200,6.106811279296875,-0.30635610569119454,0.0019495266325771808,0.17086042453050612
1746409918047784400,6.116784423828125,-0.4594248529434204,-0.0916581468693912,0.12024543199352919
1746409918057757400,6.12675732421875,-0.3619558278381824,-0.027629180681705473,-0.1888060137288645
1746409918067729200,6.136729248046875,-0.032768297135829925,-0.089600483687222,-0.1926069038491696
1746409918077702400,6.146702392578125,0.1591629724740982,0.03158610161393881,0.10831574208382516
1746409918087675400,6.15667529296875,0.2933633531272411,0.1455525264032185,0.33209545403830704
1746409918097647400,6.1666474609375,0.43484453843832016,0.09855682034194468,0.42151820653844624
1746409918107620400,6.176620361328125,0.1909831751048565,0.1365712014377117,0.42690395469740033
1746409918117592300,6.18659228515625,-0.1042120696246624,0.08709785321652888,0.37310967453718186
1746409918127565300,6.1965654296875,-0.20538930159807203,-0.04622223747074604,0.28335133340712637
1746409918137538600,6.20653857421875,-0.24731939483284948,-0.0353618207603693,0.18735786074716596
1746409918147510300,6.21651025390625,-0.1257435179531574,-0.0008776596173644065,0.09927022930830716
1746409918157483300,6.226483154296875,0.04856441668272018,0.0439746046744287,0.3190282845312729
1746409918167455500,6.23645556640625,0.3270610400676727,0.1920269850693643,0.726546680355072
1746409918177428200,6.24642822265625,0.5598784468173981,0.3357654477879405,0.9668838150851428
1746409918187401200,6.256401123046875,0.5099637845695019,0.39567528821900483,0.8961242985334247
1746409918197373400,6.26637353515625,-0.00973404302895069,0.1235297874264419,0.3380583810307085
1746409918207346400,6.276346435546875,-0.7256114453315734,-0.11901625552475452,-0.28909974086601287
1746409918217318400,6.286318359375,-0.9665081136405468,-0.09615735798478126,-0.6704991413753479
1746409918227291400,6.29629150390625,-0.7677355998337269,-0.14817805260121822,-1.032767469228804
1746409918237264400,6.306264404296875,-0.11595511438846587,-0.13064751047715545,-1.0401197316877544
1746409918247236400,6.316236328125,0.32748657200336456,-0.0822616652317345,-1.0880212274823338
1746409918257209300,6.326209228515625,0.07497194661498069,-0.05563961576595902,-1.2192039408147335
1746409918267181300,6.336181396484375,-0.2686065130114555,0.09315452290698885,-0.666389514099434
1746409918277154600,6.346154541015625,-0.1419184076845646,0.06325052916109561,-0.08186791667379438
1746409918287127300,6.356127197265625,0.035823008531332017,-0.013673574434965849,0.039602435738500204
1746409918297099300,6.366099365234375,0.04727262330651283,-0.08725888899713755,0.23831836051987482
1746409918307072500,6.376072509765625,-0.017075053441524504,-0.1215969196677208,0.38427104695551095
1746409918317044200,6.386044189453125,0.020644728621840476,-0.07174465513154864,0.3258000071559101
1746409918327017200,6.396017333984375,0.21323241631388662,0.10536284709498285,0.11137870985101908
1746409918336990500,6.405990478515625,0.26839257799983024,0.23922405892163515,-0.27516873933756725
1746409918346962200,6.415962158203125,0.07387012285292148,0.20408786361068487,-0.4724425572855398
1746409918356935200,6.42593505859375,-0.1275964523434639,0.07652180640548467,-0.18905673708692192
1746409918366907400,6.435907470703125,-0.1763338875055313,-0.004373100517690181,0.09462295149173587
1746409918376880400,6.44588037109375,-0.10339607706665992,-0.04963599143698811,0.1979766141887754
1746409918386853000,6.45585302734375,0.012315876215696334,-0.1700797955468297,0.3030251346375793
1746409918396825300,6.465825439453125,0.07374328160285949,-0.2518751584410667,0.3833520689470693
1746409918406798300,6.47579833984375,-0.008758475995063781,-0.22021540706902742,0.4219641967402771
1746409918416770300,6.485770263671875,-0.11234919885098933,-0.07614201330766081,0.26770298830047246
1746409918426743300,6.495743408203125,-0.12918050666451453,-0.04961684834510088,0.04648501659277826
1746409918436716300,6.50571630859375,-0.07977437846064567,0.12013459203019737,-0.05598663910534232
1746409918446688500,6.5156884765625,0.04692191017270088,0.18611337711140513,-0.13153956394605337
1746409918456661200,6.5256611328125,0.15804653566479682,0.09971388142257928,-0.09776691207326949
1746409918466633200,6.53563330078125,0.16839140406847,0.1899389267489314,-0.043391251828521486
1746409918476606500,6.5456064453125,0.058249944394826884,0.029479046332091093,-0.13857654991075397
1746409918486579500,6.555579345703125,-0.19718495235443115,-0.08766483944952487,-0.11263408020697534
1746409918496551200,6.56555126953125,-0.2798819402635097,0.050576194896548986,0.006673011490516364
1746409918506524400,6.5755244140625,-0.11268296085000037,0.10620938092172146,-0.134684218647331
1746409918516496400,6.585496337890625,-0.02787818700671196,0.04884235684126615,-0.2452706090768799
1746409918526469000,6.59546923828125,0.010738251635432242,-0.045063568954914805,0.05830759286619722
1746409918536442400,6.6054423828125,0.019530629900097844,-0.050703620668500655,0.21298315426055342
1746409918546414300,6.615414306640625,0.07023498122096061,-0.10349632257074116,0.1738947872577235
1746409918556387300,6.62538720703125,0.07109072126746177,-0.13604235525801778,0.19177417935207486
1746409918566359300,6.635359375,-0.017845453292131424,-0.007912088298797608,0.1735248579667881
1746409918576332300,6.645332275390625,-0.011882160973548888,0.22035949171483515,-0.05894895950965583
1746409918586305300,6.65530517578125,0.07153612694740295,0.34720205695107575,-0.2733765038922429
1746409918596277200,6.66527734375,0.026239772149920463,0.3606125965356827,-0.37248522249590604
1746409918606250200,6.675250244140625,0.0679307959318161,0.3503650510266423,-0.42845096494369206
1746409918616222500,6.685222412109375,0.02261515191197395,0.11991101240739226,-0.5671642199113964
1746409918626195500,6.695195556640625,-0.19793898559212683,0.11645897225737571,-0.12947338866386562
1746409918636168200,6.705168212890625,-0.05939852990806102,0.2781875574357808,0.014120441419631242
1746409918646140400,6.715140380859375,0.36396950574815273,0.30104134040921926,-0.26645466873981055
1746409918656113400,6.725113525390625,0.36015433137416836,0.31551731726825233,-0.33239600788746027
1746409918666085000,6.735085205078125,0.16522154186069965,0.18338497506082058,-0.06653638243135064
1746409918676058400,6.745058349609375,-0.02965630259513855,0.13591098396331072,0.26081089069917796
1746409918686031400,6.75503125,-0.11185527785420417,-0.04515183176025748,0.1943006290897727
1746409918696003300,6.76500341796875,-0.3490630285173654,0.025066490586847064,0.2471000895263627
1746409918705976300,6.774976318359375,-0.42419104247689243,0.3837513339303434,0.7353168467879295
1746409918715948300,6.7849482421875,-0.08794307186901569,0.5889813533134758,1.0333459997691214
1746409918725921300,6.79492138671875,0.08685469211041927,0.7056112982235848,1.1828846731990574
1746409918735894500,6.80489453125,0.03759060272574424,0.9487493157185614,1.3856667149081825
1746409918745866200,6.8148662109375,-0.19211597852706908,1.2477115117661655,1.6193718642778694
1746409918755839200,6.824839111328125,-0.5259510427743196,1.7670431364007293,2.2340682352147994
1746409918765811500,6.8348115234375,-1.0762065057218073,2.4722993375763296,2.7078549371182916
1746409918775784200,6.8447841796875,-1.4519979666888714,2.9201819290250537,2.6109830011233686
1746409918785757200,6.854757080078125,-1.2367016035825014,3.7040573472768066,1.9445286781594155
1746409918795729400,6.8647294921875,-0.3576870644778013,4.503970584876835,0.1605028793083504
1746409918805702400,6.874702392578125,0.42961189848184583,3.804937057608366,-2.147481984782219
1746409918815674400,6.88467431640625,1.3485118732511996,2.3379789838053284,-3.410423068253696
1746409918825647400,6.8946474609375,2.1355928095459937,2.299829870413989,-2.7962174034431575
1746409918835620400,6.904620361328125,2.0365572657763957,2.9039143925741313,-1.459040870937705
1746409918845592300,6.91459228515625,1.7703320949435233,3.4575875550106168,-0.9990166638616472
1746409918855565300,6.9245654296875,1.816817951786518,3.959568231871724,-0.5139976431954651
1746409918865537300,6.934537353515625,2.472759064042568,3.2979987583398818,0.414037385796383
1746409918875510300,6.94451025390625,2.7793443023145197,4.116876516389847,0.8144521236274391
1746409918885483300,6.954483154296875,2.7571581894695756,4.156788840061426,0.911176687040925
1746409918895455500,6.96445556640625,1.7048036839783192,4.724890340822935,2.3212131424434483
1746409918905427700,6.974427734375,-0.42017245448529716,4.487152136544883,0.6921017552439123
1746409918915399700,6.984399658203125,-0.894468128824234,3.219248462229967,-0.7513864495139568
1746409918925373000,6.994373046875,-0.25916648449301716,2.859214250104129,1.0435394770033657
1746409918935346000,7.004345947265625,-0.3622317221701145,3.673610186564922,2.440114101025462
1746409918945317600,7.014317626953125,0.726380676138401,2.1401013730116185,1.6320407917149364
1746409918955291000,7.024290771484375,2.7797756794691084,2.3243562627747654,3.2651845762357112
1746409918965264000,7.034263916015625,4.378322051730752,3.421140861622989,4.543407692252099
1746409918975235600,7.044235595703125,2.7627970721393824,6.115488959175348,4.498203691913187
1746409918985208800,7.054208740234375,1.9694471385776995,5.53054387564063,3.5091593368157743
1746409918995180800,7.064180908203125,4.2518396981090305,4.356610570660234,1.5919138023793697
1746409919005153800,7.07415380859375,2.844397496983409,4.9254625975280995,-0.8652294671192765
1746409919015126800,7.084126708984375,1.5943576884001494,3.2046611339509483,-3.014495120447874
1746409919025098800,7.0940986328125,0.6038976212859153,1.5005065615311264,-5.581559192606806
1746409919035071700,7.10407177734375,0.2068599586725235,1.0114764055274426,-7.238412207886576
1746409919045043700,7.114043701171875,0.31080899344682694,0.5041914117131382,-7.472423792856931
1746409919055016700,7.1240166015625,0.41816988249123094,1.2064285573285072,-6.662055504477023
1746409919064989700,7.13398974609375,0.7813859395235776,0.5323324143745005,-5.295746108728647
1746409919074962000,7.1439619140625,1.9071604860126972,0.8276017472535371,-3.0820524068921804
1746409919084934700,7.1539345703125,3.2930770840287207,1.3207460605777799,-0.6441559819161892
1746409919094907000,7.163906982421875,4.176249911856651,1.6074493712939322,1.0806289983391761
1746409919104879900,7.1738798828125,3.943039706397056,1.2932077730499207,0.9178729698091744
1746409919114852900,7.183852783203125,2.780613883858919,0.972770388905704,-0.8225409567326307
1746409919124824800,7.193824951171875,1.95978557626307,0.7208138357914984,-2.5585060871720313
1746409919134797800,7.2037978515625,1.1754472166746854,0.5206751481980085,-3.7376539119303223
1746409919144769800,7.213769775390625,1.04106504971385,0.7539452671512961,-3.396759576821327
1746409919154742800,7.22374267578125,0.7303969260424376,0.20334318272322416,-2.973317891407013
1746409919164715800,7.2337158203125,0.4734960483938455,-0.4160024753242731,-2.6550083130717277
1746409919174687700,7.243687744140625,0.7069611053973436,-0.7313073188856244,-2.314729479512572
1746409919184660700,7.25366064453125,0.9921166021496057,-1.1545865072146058,-2.272535182383656
1746409919194632700,7.2636328125,1.350719027906656,-1.6079902001723647,-2.2439199132740497
1746409919204605700,7.273605712890625,1.8707441877633333,-2.2394103268951175,-2.0681950975775716
1746409919214579000,7.283578857421875,2.4368998151540753,-2.8426225962653753,-1.9517367098420857
1746409919224550700,7.293550537109375,2.6200492278933525,-3.1257024557873603,-1.7339011836469171
1746409919234523600,7.303523681640625,2.3203373825222253,-3.4860476335585115,-1.2845692701727152
1746409919244496000,7.313495849609375,1.5874766967147589,-4.25317386932224,-0.7683388264238834
1746409919254468600,7.323468505859375,0.9813052852779627,-5.011747380796074,-0.46024727524220943
1746409919264441900,7.33344189453125,0.7973623840734362,-5.464408146432042,0.015091770669817924
1746409919274413800,7.343413818359375,0.9980041988834738,-5.882940432494879,0.4695949493020773
1746409919284386800,7.35338671875,1.41863579531312,-5.9811254969149825,0.5691705912977457
1746409919294358800,7.36335888671875,1.3709139669343828,-5.507956196257472,0.6988584629625082
1746409919304331800,7.373331787109375,0.7741311460897325,-4.634444930744171,1.1015063666731117
1746409919314304800,7.3833046875,-0.5111088629513979,-4.028937536174059,1.4232219540596007
1746409919324276700,7.39327685546875,-1.722375873287022,-3.238065975424647,1.377993403801322
1746409919334249700,7.403249755859375,-2.4483096824407578,-2.588151283851266,1.0932114165365696
1746409919344222000,7.413221923828125,-3.0766859114229677,-2.589484578281641,0.6742980222016572
1746409919354195000,7.42319482421875,-3.3869220734179017,-2.464201079055667,-0.17295125932991504
1746409919364167700,7.433167724609375,-3.28669030560106,-2.116477774709463,-1.4520260237395763
1746409919374140000,7.443139892578125,-2.7376024251282214,-1.4656629194259643,-2.358943299770355
1746409919384113000,7.45311279296875,-2.449861149666458,-0.6190051740467548,-1.898423052805662
1746409919394084600,7.463084716796875,-2.008757550833374,0.5071405438423157,-0.3493476906776428
1746409919404057900,7.473057861328125,-1.7238250491820275,1.7951666764706373,2.0020587838470933
1746409919414030800,7.48303076171875,-1.387268012624979,2.867616460007429,5.039695710429549
1746409919424002800,7.4930029296875,-1.434741711461544,3.1864585377842185,8.497683370673656
1746409919433975800,7.502975830078125,-2.067597716206312,2.3957383682042357,11.317007801198958
1746409919443947800,7.51294775390625,-2.554178287100792,0.3897065890729427,9.840194542205333
1746409919453920800,7.522920654296875,-2.652761410927772,0.17929858253002165,8.94184577255547
1746409919463894000,7.53289404296875,-2.4461130491793153,0.15065700993537903,8.04244661706984
1746409919473865700,7.54286572265625,-1.987268041950464,0.20575404325723648,6.039550797876715
1746409919483838700,7.552838623046875,-1.2384955012619494,0.5336585484117269,4.332354081282019
1746409919493811000,7.56281103515625,-0.4103951933691278,0.5593547152042389,2.767904039889574
1746409919503783700,7.57278369140625,0.16722466184403748,0.4680559031665325,1.7962679157108068
1746409919513756700,7.582756591796875,0.6745557963550091,0.4878320322602987,1.3019786701351403
1746409919523729000,7.59272900390625,1.0071335540175437,0.712527507352829,1.5645061554938553
1746409919533702000,7.602701904296875,1.0735153669416904,0.6050497139304876,2.0672984409987927
1746409919543673900,7.612673828125,0.9634943187773227,-0.13497779476642607,1.9638018261671064
1746409919553646800,7.622646728515625,0.35173838520646095,-0.8135866659045219,1.776378973892331
1746409919563619800,7.632619873046875,-0.3636567865371704,-1.2617723319530487,1.6929975108504294
1746409919573591800,7.642591796875,0.1610755280971527,-1.374981362503767,1.6617472170621155
1746409919583564800,7.652564697265625,0.46612288927733897,-1.3481670053362846,1.2816875772565604
1746409919593537800,7.662537841796875,0.8449795830339193,-1.147401856407523,0.6856243028581142
1746409919603510000,7.672510009765625,1.1372259148299693,-0.7076584400117397,0.09545184006392955
1746409919613482800,7.682482666015625,1.3567699985086916,-0.30135259831547734,-0.38192426463365553
1746409919623454700,7.692454833984375,1.246782852613926,-0.020105799439549446,-0.8548544958382844
1746409919633428000,7.702427978515625,1.0212930122733115,0.27726678932905197,-0.6889286051005125
1746409919643401000,7.71240087890625,0.8127168973326683,0.07614625109136104,-0.6855787101507187
1746409919653372700,7.72237255859375,0.3246130623936653,-0.2683323722451925,-0.7625427073657512
1746409919663346000,7.732345947265625,-0.05254851788282394,-0.4971551564007997,-0.7948609226465225
1746409919673317600,7.742317626953125,-0.28323008164763447,-0.6760545104801654,-0.7359305947721004
1746409919683290600,7.75229052734375,-0.4223673341810703,-0.6722884359449148,-0.7932581636250019
1746409919693264000,7.762263916015625,-0.34075638794302937,-0.4176753769725561,-0.7999328190833329
1746409919703235800,7.77223583984375,-0.33646249014139173,-0.06215922679305076,-0.8440408408790826
1746409919713208600,7.78220849609375,-0.3473871677270159,0.14177519982159137,-0.9707137486368417
1746409919723180800,7.792180908203125,-0.5115981077730656,0.2737093891084194,-1.0714771391123532
1746409919733153800,7.80215380859375,-0.5004863831827416,0.7889356242507696,-0.20423019469082354
1746409919743126800,7.812126708984375,-1.0019207878053187,0.2427829204469919,-0.8145756769418716
1746409919753098800,7.8220986328125,-1.3549451211690902,0.11265841093063354,-0.5422521892338991
1746409919763071700,7.83207177734375,-1.609483361339569,-0.17101415378749368,0.17736118472665546
1746409919773044000,7.8420439453125,-1.892395463079214,-0.988792426162958,0.48072979903966184
1746409919783016700,7.8520166015625,-1.881647274571657,-1.5949235055893658,0.6854661896869539
1746409919792989700,7.86198974609375,-1.5306114846765995,-1.5869231544852256,1.119738188934326
1746409919802962000,7.8719619140625,-1.233807635706663,-1.3675550118952988,1.2471812042817472
1746409919812935000,7.881934814453125,-0.9367992040753365,-0.8846803097814321,1.3066618595153092
1746409919822906600,7.89190673828125,-0.7502537191569805,-0.48609600224792954,1.2044953242436052
1746409919832879900,7.9018798828125,-0.8161983097076415,-0.3560457270115614,0.9527329785272478
1746409919842852900,7.911852783203125,-0.9972411055564879,-0.2739326764702797,0.8277692127749323
1746409919852824600,7.921824462890625,-1.1325333730995655,-0.4008709571659565,0.7662816016331314
1746409919862797800,7.9317978515625,-1.0097171407699583,-0.5926940902262926,0.7885755587667226
1746409919872769800,7.941769775390625,-0.6824117705523968,-0.6613502778232098,1.035087728869915
1746409919882742800,7.95174267578125,-0.3196224144995212,-0.6960626947641372,1.2820268922135234
1746409919892715800,7.9617158203125,0.08306056052446364,-0.6298164909183979,1.3574667486011982
1746409919902688300,7.971688232421875,0.38099253674149514,-0.41101475003957744,1.292861005438864
1746409919912661000,7.981660888671875,0.5450111325532198,-0.23842472523748873,0.9624825113862753
1746409919922633200,7.99163330078125,0.6709142249822616,-0.4312479752510786,0.27319647115021944
1746409919932606200,8.001606201171874,0.7971867352455854,-0.8892559471338987,-0.45952714427411556
1746409919942579200,8.0115791015625,0.9662322193086147,-1.3844921181708574,-0.7388181329071521
1746409919952551200,8.02155126953125,1.1442290715903043,-1.6124585777580738,-0.5514139853328466
1746409919962524200,8.031524169921875,1.3142495381653307,-1.6554402258723973,-0.1225266017332673
1746409919972496400,8.041496337890624,1.4305121110677719,-1.4889198763728142,0.3239180658668279
1746409919982469000,8.05146923828125,1.4271173540629445,-0.9764169287145137,0.8496382224947213
1746409919992442000,8.061442138671875,1.3660827473856507,-0.48529053108394143,1.2340665789037941
1746409920002414300,8.071414306640625,1.2540800238847731,-0.1958317841798067,1.2326853536784648
1746409920012387300,8.08138720703125,1.0635413046117872,0.05491057083904743,1.1685913594305515
1746409920022359000,8.091359130859376,0.7968583070088178,0.2732435251623392,1.2053230072394012
1746409920032332300,8.101332275390625,0.5606718622174114,0.43064650222659107,1.2148320093408227
1746409920042305300,8.11130517578125,0.3213186970233917,0.743061177304387,1.5379834747493266
1746409920052277000,8.121277099609374,0.1933919898122549,1.083012678605318,1.747376459030807
1746409920062250200,8.131250244140626,0.3150187200963497,1.2466279543131589,1.7438655283004045
1746409920072223200,8.14122314453125,0.5142091670542955,1.365357794111967,1.963881321144104
1746409920082195200,8.1511953125,0.6685913349926471,1.301242757076025,2.366966739489138
1746409920092168200,8.161168212890624,0.7811917321257292,1.1398474955052136,2.8289611506596204
1746409920102140200,8.17114013671875,0.811811911316961,1.0281588063895701,3.2406530693084
1746409920112113200,8.181113037109375,0.7452377906911075,0.9014373833149671,3.3242905529379843
1746409920122086100,8.191086181640625,0.5918282671771943,0.8552098851472139,3.155480046674609
1746409920132058000,8.20105810546875,0.4142857345342636,0.9978051691800355,2.796692619739473
1746409920142031000,8.211031005859375,0.16078677428364752,1.051790441867709,2.0667922450423237
1746409920152003000,8.221003173828125,-0.19062544770836828,0.9830331319838762,1.235493981358409
1746409920161976000,8.23097607421875,-0.44139571364745495,0.710084205853939,0.6178744164511561
1746409920171949000,8.240948974609376,-0.6769844848066568,0.3595814999222755,0.14450053313225508
1746409920181921300,8.25092138671875,-0.7944166860103606,0.024711247408390043,-0.19551497331559656
1746409920191894000,8.26089404296875,-0.8294396302051842,-0.2886281412988901,-0.39304304001927376
1746409920201866200,8.2708662109375,-0.7323107968397438,-0.6520511190801859,-0.5067506677418947
1746409920211839200,8.280839111328126,-0.6160743812918663,-0.9133692286491394,-0.5187397962212562
1746409920221812200,8.290812255859375,-0.46417584686279295,-1.0563017818123102,-0.38565994403064247
1746409920231784200,8.3007841796875,-0.3094710228413343,-1.2682932581543922,-0.27676059337258335
1746409920241757200,8.310757080078124,-0.17197452325224877,-1.5395108304470777,-0.14959873305410146
1746409920251729200,8.320729248046876,-0.13989070124924183,-1.7866092760056256,-0.07397855166345835
1746409920261702100,8.3307021484375,-0.18739669492021202,-2.1311557038813826,-0.20011691415309904
1746409920271675100,8.340675048828125,-0.2854594481348991,-2.5838696610093117,-0.29565818606615063
1746409920281647000,8.350647216796874,-0.31237200497984885,-3.0403210510998964,-0.2732446942061186
1746409920291620400,8.360620361328126,-0.3018376053534448,-3.1470383815437555,0.10019318937212228
1746409920301592000,8.370592041015625,-0.3615729660004377,-2.5179309156775473,0.9152554807871579
1746409920311565000,8.38056494140625,-0.49352585998773574,-1.626551985040307,1.7199015921279788
1746409920321538300,8.390538330078124,-0.5293354245156049,-1.1251871019899844,2.1171143190473316
1746409920331510000,8.400510009765625,-0.465391652393341,-0.8876876749038696,2.0859835599854586
1746409920341483000,8.41048291015625,-0.532136453410983,-0.7727993129640817,1.950536978663504
1746409920351455200,8.420455322265624,-0.8131260626554488,-0.7387725401997566,1.7084288887381553
1746409920361428200,8.43042822265625,-1.234542671982944,-0.7408429167330265,1.4390893852770328
1746409920371401000,8.44040087890625,-1.6035130547583103,-0.8094453283160924,1.1881965158715844
1746409920381373200,8.450373291015625,-1.7118495108366012,-0.9217273071497678,0.9791086520165204
1746409920391346200,8.46034619140625,-1.5851643281191587,-0.6987789679855108,1.0872308808222413
1746409920401318100,8.470318115234376,-1.3151719137072562,-0.3199982620745897,1.1901514493316412
1746409920411291100,8.480291015625,-1.0315747523128986,0.017760697618126868,1.0016104066818952
1746409920421264100,8.49026416015625,-0.8441581836484372,0.20811317360401152,0.5695657280951738
1746409920431236400,8.500236328125,-0.7914642659455537,0.27366321187913417,0.08643091374039649
1746409920441209000,8.510208984375,-0.9228735545754432,0.2699585121423006,-0.2572147659033537
1746409920451182000,8.52018212890625,-1.1271982956819235,0.1523445246309042,-0.4769570025026798
1746409920461154300,8.530154296875,-1.2502588581614196,-0.18869827903807163,-0.43352001183629035
1746409920471127300,8.540127197265624,-1.0990126501612365,-0.6419073262065649,-0.24618308427929878
1746409920481099000,8.55009912109375,-0.6388618210308253,-0.5222878440916537,-0.5448994888722897
1746409920491072300,8.560072265625,-0.13446684956960378,-0.020714286726713178,-1.838403760650754
1746409920501045200,8.570045166015625,0.24575981736592947,0.7324871763199567,-3.6660505649656057
1746409920511017000,8.580016845703126,0.20316519580781459,1.7050597045660019,-5.350585952419042
1746409920520990200,8.589990234375,-0.8120750922977924,2.9516023186832663,-5.978899053037166
1746409920530962200,8.599962158203125,-2.268396182882786,3.9180987418860194,-5.179594010463357
1746409920540935200,8.60993505859375,-3.212271608954668,3.6090170106232162,-3.9235423942446706
1746409920550908200,8.619908203125,-3.330730815118551,2.652794144153595,-2.324520805686712
1746409920560880000,8.629880126953125,-2.7346272087097168,2.000619690954685,-0.1624474009722471
1746409920570853000,8.63985302734375,-1.726501136523485,1.5002993485212326,1.904146691149473
1746409920580825000,8.6498251953125,-0.8657306946396828,1.032023080602288,3.239711404544115
1746409920590798000,8.659798095703126,-0.181783969604969,0.6835527572810649,3.8918022711127995
1746409920600771000,8.66977099609375,0.18382628908753393,0.5877618945211172,4.027295614185929
1746409920610743000,8.679742919921875,0.29190672457814215,0.6930354558974504,3.827391466000676
1746409920620716000,8.689716064453124,0.09348843103647231,0.8239455628335476,3.3229233562380074
1746409920630688300,8.699688232421876,-0.35138891418166457,1.0446768104702233,2.6806425205439326
1746409920640661200,8.7096611328125,-0.9683354021329432,1.1604612444669007,2.0712685136735436
1746409920650634000,8.719634033203125,-1.440897896003723,1.0950696116238832,1.5190478881329297
1746409920660606200,8.729606201171874,-1.756540885478258,0.8278875784575939,1.309491529983282
1746409920670579200,8.7395791015625,-1.9751228461265562,0.47763738598227495,1.5321552069872617
1746409920680551200,8.74955126953125,-2.081037043493986,0.3221750215917826,1.9777286447107791
1746409920690524200,8.759524169921875,-2.0687258434534073,0.3399316275566816,2.5288427703142164
1746409920700497200,8.7694970703125,-2.029617968032509,0.33107553640604015,2.938175266355276
1746409920710469000,8.77946923828125,-1.9739993950545787,0.28083646450936794,3.209415635001659
1746409920720442000,8.789442138671875,-1.9286673844218254,0.17831717027723787,3.1979940772771833
1746409920730414000,8.7994140625,-1.8014952949702738,0.2106242796421051,3.062541650736332
1746409920740387300,8.80938720703125,-1.6021511187553406,0.46161330289840696,2.8831179805219174
1746409920750360300,8.8193603515625,-1.3709610209465026,0.6756102738440036,2.543769121289253
1746409920760332000,8.82933203125,-1.1171604474008083,0.5924029983252287,2.049085323438048
1746409920770305300,8.83930517578125,-0.822120685493946,0.2754880892187357,1.5698387486934662
1746409920780277200,8.84927734375,-0.6268903743386268,-0.17794892148673533,1.1523147628903387
1746409920790250000,8.85925,-0.4649064992249012,-0.6082517248421907,0.7540408364802599
1746409920800223200,8.86922314453125,-0.2969114009976387,-0.8739724532842635,0.5036439338982105
1746409920810195200,8.8791953125,-0.18165069861412048,-0.9643635028272867,0.29052140769958495
1746409920820168200,8.889168212890626,-0.16663301609382034,-0.8545610658496617,0.05067980140149593
1746409920830140200,8.89914013671875,-0.389547599118948,-0.6246843887269496,-0.28394729000627994
1746409920840113200,8.909113037109375,-0.6762078013457358,-0.3000648965924978,-0.6064397069841623
1746409920850086100,8.919086181640624,-1.0993116331078112,0.0414221437126398,-0.991722634395957
1746409920860058000,8.92905810546875,-1.9471290699161588,0.3352221346914768,-1.7763859881550073
1746409920870031000,8.939031005859375,-2.3769058035708963,0.7644879962146282,-1.7663754662722349
1746409920880004000,8.949004150390625,-2.2797782853797077,0.7956091106653213,-1.7198896094292402
1746409920889976300,8.958976318359374,-2.283902233441919,0.5055190801203251,-1.9505302566617726
1746409920899949000,8.968948974609376,-2.2750259762860834,0.38722646269500255,-1.8483949933111667
1746409920909921000,8.978921142578125,-2.2541852867007255,0.294641117978096,-1.6347732854187487
1746409920919894000,8.98889404296875,-2.121440365552902,0.04554126946926117,-1.482364463379979
1746409920929867000,8.998866943359374,-1.9983483850218355,-0.19741642302274703,-1.436235749411583
1746409920939839000,9.0088388671875,-1.7893256953574717,-0.1917003834635019,-1.3190788580179214
1746409920949812000,9.01881201171875,-1.4949195551790295,0.023968904608488082,-1.203143617373705
1746409920959784000,9.028783935546874,-1.260782298002392,0.2094517287313938,-1.2390759314984083
1746409920969757000,9.0387568359375,-1.1390624826073645,0.282110137706995,-1.4202847315639258
1746409920979730000,9.04872998046875,-1.0956301681160927,0.40894963420331476,-1.5275696327626704
1746409920989702000,9.058701904296875,-1.0480161840260027,0.5971814647734165,-1.4861796377539633
1746409920999675000,9.0686748046875,-0.9150769093498587,0.6406763231068849,-1.2783283299565313
1746409921009646800,9.078646728515626,-0.8713920814022421,0.6589134060651064,-0.8882038077324629
1746409921019619800,9.088619873046875,-0.8449763681635261,1.058866663864255,-0.18319734353423117
1746409921029593000,9.098593017578125,-0.853024065540731,2.0571412041217085,0.7466501417070627
1746409921039564800,9.108564697265624,-1.0422788094177842,2.7476702301561833,0.8634715175360441
1746409921049537800,9.118537841796876,-1.2373238271340727,2.8783593878179787,-0.4995440973639488
1746409921059510000,9.128510009765625,-1.6268538905963301,2.7165087836951014,-2.4232512290298938
1746409921069482800,9.138482666015625,-2.198192765843868,2.6286948911637067,-4.189814911350608
1746409921079455700,9.148455810546874,-2.8996988207057117,2.5557564962029455,-5.748034533920884
1746409921089428000,9.158427978515626,-3.46661695690155,2.2222522713452575,-6.993077264869212
1746409921099401000,9.16840087890625,-3.7036607491746545,1.5914850555732845,-7.899837304511665
1746409921109373000,9.178373046875,-3.5711493445217606,1.0832730831071733,-7.9867446035921565
1746409921119346000,9.188345947265624,-3.28155265045166,0.5885992221280932,-7.429420517432689
1746409921129319000,9.19831884765625,-2.802636038313806,0.12165011115968227,-6.483904922938346
1746409921139291000,9.208290771484375,-2.1521207504987716,-0.16803250762820243,-5.3616322470903395
1746409921149264000,9.218263916015625,-1.7663839418396352,-0.5890326451092958,-4.450722102031111
1746409921159235800,9.22823583984375,-1.6811948448538778,-0.8052332635790109,-3.6926264372020956
1746409921169209000,9.238208984375,-1.7714637293219566,-0.5789397056400776,-2.989184738102555
1746409921179181800,9.248181884765625,-1.8856395590782165,-0.04827917000055313,-2.521689391428232
1746409921189153800,9.25815380859375,-1.9862720166504382,0.7771043166816234,-2.1491163079857825
1746409921199127000,9.268126953125,-1.9529902170345186,1.4682546894848345,-1.7446733375519512
1746409921209098800,9.2780986328125,-1.958493198364973,2.1399995200723407,-1.1889555175453423
1746409921219071700,9.28807177734375,-1.9683055673271417,2.680556011304259,-0.2633972539305687
1746409921229045000,9.298044921875,-1.9728420417129993,2.606491242662072,0.415443087875843
1746409921239017000,9.308016845703126,-2.0144784126982094,2.010242674824595,0.6708043348670005
1746409921248989700,9.31798974609375,-2.1553394202843306,1.240301673901081,0.7489829685688019
1746409921258963000,9.327962890625,-2.2730536532998085,0.5081511821895838,0.3912356983363628
1746409921268935000,9.337934814453124,-2.382178044885397,0.17833236784636974,-0.15753566353321075
1746409921278908000,9.347907958984376,-2.4513632247924804,0.17859364913105963,-0.7338058577030897
1746409921288879900,9.3578798828125,-2.531600544589758,0.3098153062343597,-1.2351374230057
1746409921298852900,9.367852783203125,-2.571235220363736,0.45310324870645996,-1.6375433346539734
1746409921308825900,9.377825927734374,-2.6112255777075886,0.5367378097265958,-1.6773165421158074
1746409921318797800,9.3877978515625,-2.5542145274579524,0.6443477050960064,-1.1911772852480411
1746409921328770800,9.397770751953125,-2.375527354824543,0.872813346377015,-0.3015466595828533
1746409921338743000,9.407742919921875,-2.1988874701097605,0.9463234037458896,0.37525019369721413
1746409921348716000,9.417716064453124,-2.035710001297295,1.2560393412590025,0.6683773999810219
1746409921358688800,9.427688720703125,-2.0308010403372347,1.7134283044606446,0.5344383006125688
1746409921368661000,9.437660888671875,-2.5100632510423657,1.5837860255032776,-0.32554362124204633
1746409921378634000,9.447634033203125,-3.1050679562985897,1.1306605649650097,-1.5631167469620704
1746409921388606000,9.45760595703125,-3.350397638618946,0.6720908675462007,-2.356595275339484
1746409921398579000,9.467578857421875,-3.36430341437459,0.3038525984376669,-2.6265935349702834
1746409921408552000,9.477552001953125,-3.1086966681897636,-0.0658697717487812,-2.2420167100012303
1746409921418524000,9.48752392578125,-2.550478263539076,-0.43469606987833975,-0.9130150083839893
1746409921428497000,9.497496826171876,-1.8578113486930727,-0.818381498965621,0.6284715060502291
1746409921438468900,9.50746875,-1.1955438098944724,-1.2681447895944118,1.95984169036448
1746409921448441900,9.51744189453125,-0.401972196406126,-1.7690332873046397,2.8851614690482617
1746409921458415000,9.5274150390625,0.29533742967918514,-2.0198282492935657,3.3745822318047285
1746409921468386800,9.53738671875,0.8490507779955864,-1.9601433036595581,3.4464088661313057
1746409921478360000,9.547360107421875,1.1819814407490192,-1.8418430874496696,3.1580209633290766
1746409921488331800,9.557331787109375,1.2541058889783918,-1.4666127674967049,2.757388491094112
1746409921498304800,9.5673046875,1.158184677837044,-0.8913818532466888,2.625247965580225
1746409921508278000,9.577278076171876,0.998563294070959,-0.2978466360211372,2.87473944375515
1746409921518250000,9.58725,0.7956243082344532,0.24144436531960964,3.442873677742481
1746409921528222700,9.59722265625,0.6059810034312307,0.5006470901697874,4.008323787212372
1746409921538195000,9.60719482421875,0.3698817985318601,0.49263563314974307,4.32381187838614
1746409921548168000,9.61716796875,-0.021779431740194557,0.28068741142749787,4.082368682110309
1746409921558141000,9.627140869140625,-0.14865443794131278,0.06795534585118293,3.8156723866343496
1746409921568113000,9.63711279296875,-0.5394597820363939,-0.07859715137481689,3.3980899486422538
1746409921578086000,9.6470859375,-0.6107258598707616,-0.1925380033314228,2.974762829518318
1746409921588059000,9.657058837890625,-0.6505833846151828,-0.36184067702591416,2.479816581338644
1746409921598030800,9.66703076171875,-0.4886450291436165,-0.442567826166749,2.1421225035756826
1746409921608003800,9.67700390625,-0.25902042708583173,-0.4484317497640848,2.028154763612151
1746409921617976000,9.68697607421875,0.09099953683018684,-0.48354105706810946,2.0499650288820264
1746409921627949000,9.696948974609375,0.47945649116821587,-0.5362503184705972,1.9692606760948894
1746409921637921800,9.706921875,0.8889946658492088,-0.6360597692221402,1.6942296829938888
1746409921647894000,9.71689404296875,1.2994096964299677,-0.8515010937571525,1.2548667903482913
1746409921657867000,9.726866943359376,1.5340788685262203,-1.0544856723010538,0.6866226662456989
1746409921667838700,9.736838623046875,1.8216478561609983,-1.3037620464205741,0.10080722961723804
1746409921677812000,9.74681201171875,2.3733751452267167,-1.3178490239620209,-0.29996611239314075
1746409921687785000,9.756784912109374,3.6047055771648884,-1.1287094308972359,-0.6494225241422653
1746409921697757000,9.7667568359375,4.1285517566144465,-1.208615326783061,-0.9629226563692093
1746409921707730000,9.77672998046875,4.287702454128861,-1.3655916028678416,-0.864555221119523
1746409921717702000,9.786701904296875,4.866404843881726,-1.569600263762474,-0.5839233392715454
1746409921727675000,9.7966748046875,5.700267989617585,-1.8651959059864283,-0.3791846105366945
1746409921737648000,9.806648193359376,5.859537345075607,-2.0807745931655166,-0.32044600584208965
1746409921747619800,9.816619873046875,6.176174021762609,-1.9196867901086807,0.16627017413079737
1746409921757592800,9.8265927734375,6.8690504877060645,-1.6983160755246878,0.6715425860136747
1746409921767565000,9.83656494140625,6.889701061546802,-1.6347984198600052,0.7599901002734899
1746409921777537800,9.846537841796875,6.1359115694791075,-1.307902799487114,0.7626759783565997
1746409921787510800,9.8565107421875,5.712728827261924,-0.3537105620622635,1.3987649736732244
1746409921797483000,9.86648291015625,5.387012187540531,0.3928437180548906,1.8962591527700423
1746409921807456000,9.8764560546875,5.268406850904226,0.29545477244853974,2.0232856962710617
1746409921817428000,9.886427978515625,5.44870671943128,-0.2988146042704582,2.2559014429688453
1746409921827401000,9.89640087890625,5.452523647370934,-0.8521002286940813,2.6086001976400612
1746409921837374000,9.9063740234375,5.475849577900767,-1.0967208859622477,2.6835902644336223
1746409921847346000,9.916345947265626,5.568593912571668,-0.8320780158847569,2.576969964623451
1746409921857319000,9.92631884765625,5.3519414586812255,-0.345352483561635,2.474056702637672
1746409921867291000,9.936290771484375,4.889648356825113,0.22329320707917213,2.5870488755673167
1746409921877264100,9.94626416015625,4.096664918488264,0.7195078677594662,2.7166917390465737
1746409921887236900,9.95623681640625,3.311092633190751,1.3387602945655583,3.0907851639240977
1746409921897208800,9.966208740234375,2.476103113773465,1.780610912373662,3.681479020243883
1746409921907182300,9.976182373046875,1.9640923335462808,1.791190758576989,3.9745989200040697
1746409921917154000,9.986154052734374,1.9958505768567323,1.4059376417815685,3.7775720808207987
1746409921927127000,9.996126953125,2.535679338335991,0.8226344802349805,3.5557615135148164
1746409921937100300,10.006100341796875,3.059978522250056,0.031489363241195674,3.4262539668530225
1746409921947072300,10.016072265625,2.982739215224981,-0.9055009794920682,3.358700772061944
1746409921957045000,10.026044921875,2.3494144239246846,-1.3350783911824227,3.5601200009852647
1746409921967018200,10.036018310546876,1.5030278967022894,-1.1790841118723154,3.5978941435843703
1746409921976990200,10.045990234375,0.6171967363853007,-0.7796820582151412,3.3877614468514916
1746409921986963200,10.055963134765625,-0.2967699467003345,-0.07700549826920032,3.2806863890111444
1746409921996935200,10.06593505859375,-1.1906651710074394,0.6844423995971679,3.180896227481961
1746409922006908200,10.075908203125,-1.9153940613508222,1.0309504829347134,3.018034400489926
1746409922016881200,10.085881103515625,-2.4667116005718706,1.229423137012124,2.9305273819506166
1746409922026853000,10.09585302734375,-2.8632290387034414,1.5722154146969318,2.9187340683043
1746409922036826000,10.105826171875,-3.237167565280199,1.7963690379977226,2.79139188298285
1746409922046798300,10.11579833984375,-3.6454257100880145,1.7655869462430476,2.6339959201812744
1746409922056771300,10.125771240234375,-3.993670992481708,1.8232284033507107,2.363486788418889
1746409922066744000,10.135744140625,-4.18753469145894,2.0340227788627145,2.2608850766003132
1746409922076716300,10.14571630859375,-4.2218250835955144,2.374483398729563,2.4207214182913304
1746409922086689300,10.155689208984375,-4.18067123543024,2.7068910605221985,2.387269815066457
1746409922096661000,10.165660888671875,-4.095397675031423,2.6068057154387234,1.9567489850461481
1746409922106634200,10.17563427734375,-3.9888802510738373,2.502111999776959,1.4198603686720133
1746409922116607200,10.185607177734376,-3.7776398853600024,2.430822541067004,0.7698024692356586
1746409922126579000,10.195578857421875,-3.3420342994213104,2.3210943383693694,0.20873627393841743
1746409922136552200,10.20555224609375,-2.721354470160603,2.361633269506693,-0.13969605545997618
1746409922146524200,10.215524169921874,-2.2927964646458623,2.393599018087983,-0.2216471934378147
1746409922156497200,10.2254970703125,-2.107678382182121,2.2497797452181576,0.05658581057488918
1746409922166470100,10.23547021484375,-1.9887235014557838,2.1951438996672628,0.4346721044808626
1746409922176442000,10.245442138671875,-1.8695166917949915,2.391077975177765,0.4661415939778089
1746409922186415000,10.2554150390625,-1.8899024772197006,2.7530893325954673,0.1994920602530241
1746409922196387000,10.265386962890625,-2.070937235892564,2.819873881101608,-0.21473522209227083
1746409922206360000,10.275360107421875,-2.2426363032042977,2.8700878185570238,-0.35814123798608777
1746409922216333000,10.2853330078125,-2.3960668695062397,3.141288731975853,-0.2843973718613386
1746409922226305300,10.29530517578125,-2.294437363720685,3.3484403670713303,-0.3042944969862699
1746409922236278000,10.305278076171875,-2.0342277999155223,3.2542607389003035,-0.2978291003644466
1746409922246251000,10.3152509765625,-1.8974170906335115,3.0765003257229924,-0.3427309028863907
1746409922256223200,10.32522314453125,-1.8324127035424111,2.923155976399779,-0.30280396616756916
1746409922266196200,10.3351962890625,-1.7431214319348334,2.9275208936110135,-0.14413725277781486
1746409922276168200,10.345168212890625,-1.5720932496219873,2.863164741295576,0.19630466238856314
1746409922286141200,10.35514111328125,-1.1825286993682385,2.789853421369195,0.647552638617158
1746409922296114200,10.3651142578125,-0.7980670252114533,2.741536549706757,0.8746434844136237
1746409922306086100,10.375086181640626,-0.6966647523105144,3.0085072782099247,1.018996425768733
1746409922316059100,10.38505908203125,-0.6458358978271485,3.3308772378519174,0.8701847514390945
1746409922326031000,10.395031005859375,-0.4127648085772991,3.5724978365212676,0.5820113681703806
1746409922336004400,10.40500439453125,-0.08352817803621292,3.6829192821800705,0.2631090846389532
1746409922345977000,10.41497705078125,0.27139000625014303,3.601023966042697,0.13308219027817247
1746409922355949000,10.424948974609375,0.7623287723541259,3.1780425916165114,0.4820265608519315
1746409922365922300,10.43492236328125,1.4930512770891189,2.822656789818406,0.8564438108563422
1746409922375894000,10.44489404296875,2.1755969031542537,3.1086992985382675,1.0570417865246533
1746409922385867000,10.454866943359375,2.1276351285398003,3.533853925350308,1.1149684903144836
1746409922395840300,10.46484033203125,1.3840028733491896,3.84776789907515,0.5381897621005773
1746409922405812200,10.474812255859375,0.5301683682084083,3.7405429113700985,-0.06271043093502521
1746409922415785000,10.484784912109374,-0.033680151283740994,3.3345670322805643,-0.19605097988843917
1746409922425757200,10.494757080078125,0.06531272238790989,3.200511905317008,0.17020049931704997
1746409922435730200,10.504730224609375,0.5948550676524639,3.1932717249304052,0.5365694674223661
1746409922445703200,10.514703125,1.384802499294281,3.1060414775058627,0.5325801055252551
1746409922455675100,10.524675048828126,2.2385931652933357,3.1659590628519654,0.2767611778944731
1746409922465648000,10.534648193359375,2.835183678436279,3.15405118291527,0.13854279377162457
1746409922475621000,10.54462109375,3.090641371539235,2.901567244926095,0.1375789171755314
1746409922485593000,10.554593017578124,3.1305396666854617,2.732218978524208,0.11847089660167694
1746409922495566000,10.564566162109376,3.064619041532278,2.5187735039815307,0.26612843246012924
1746409922505538300,10.574538330078125,3.141408851224184,2.0756651411972937,0.25096739594638345
1746409922515511300,10.58451123046875,3.6095693838089704,1.735498097449541,0.22748510581105946
1746409922525484000,10.594484130859374,4.118498564633727,1.5958713078334927,0.3555518060147762
1746409922535456300,10.604456298828126,4.378210992571711,1.5169970930829644,0.47364597825855015
1746409922545429200,10.61442919921875,4.227162937492132,1.4178686103329061,0.5394216419830918
1746409922555401000,10.62440087890625,3.8837346999913454,1.2329669470988214,0.5176765509039163
1746409922565374200,10.634374267578124,3.852259365275502,0.9119673990271985,0.7279375501915812
1746409922575347200,10.64434716796875,4.069422106775641,0.8622131880380213,0.8280027292698622
1746409922585319200,10.654319091796875,4.510294234940409,1.1475642073623835,0.6209530932441354
1746409922595292200,10.664292236328125,4.725535652989149,1.5407333579793572,0.08035086317434907
1746409922605264100,10.67426416015625,4.515317031538486,1.4873545267522335,-0.49059886662513014
1746409922615237000,10.684237060546875,3.989169004887342,1.2702340169586241,-0.5377455254644156
1746409922625210000,10.694210205078125,3.298195742216706,1.104227023808658,-0.3416986372292042
1746409922635182000,10.70418212890625,2.5925831288188697,0.8194999816015363,-0.2475219316676259
1746409922645155000,10.714155029296874,2.0210691892653703,0.4350501440130174,-0.17045505860000848
1746409922655127000,10.724126953125,1.6588567563176153,-0.000912146408855915,1.2311648661129175
1746409922665100000,10.73410009765625,1.415897894781828,-0.956061830689013,3.464574637418985
1746409922675073000,10.744072998046875,2.1242267814010383,-1.1566883017994463,3.3490815875843167
1746409922685045200,10.754045166015626,2.155636649665236,-0.4800578911274671,2.338368129253387
1746409922695018000,10.76401806640625,2.101852452507615,0.016450930193811653,0.9513216504245996
1746409922704990200,10.773990234375,1.6123165389388798,0.4286868925914168,0.2773791636623442
1746409922714963200,10.783963134765624,1.0588187330693006,0.5745704045146703,-0.03487652146145701
1746409922724936200,10.793936279296876,0.6949205389916896,0.6367172102175652,-0.26248963756635785
1746409922734908200,10.803908203125,0.2976975829392671,0.6501844484254717,-0.3030020460229367
1746409922744881200,10.813881103515625,0.06607376988828181,0.4774921322926879,-0.3379182419076562
1746409922754853400,10.823853271484374,0.1708440579175949,0.3034487668771297,-0.2606700209237635
1746409922764826000,10.833826171875,0.505633061888814,0.08482011754289269,0.024227226751111445
1746409922774799000,10.843799072265625,0.8119663712263107,-0.1207281740091741,0.257204829031229
1746409922784771300,10.853771240234375,0.8982792115449905,-0.12980112278088926,0.45004473791867494
1746409922794744300,10.863744384765624,0.7116565697371959,0.08645809400826691,0.46286969616767015
1746409922804717000,10.873717041015626,0.4655284305155277,0.20146116836890576,0.2774571973346174
1746409922814689300,10.883689208984375,0.30247254225611686,0.04658412958569824,0.18763587397094814
1746409922824662300,10.893662353515625,0.21249241160154342,-0.2085005654864013,0.10680193998739122
1746409922834634000,10.903634033203126,0.26652678412795067,-0.28939620306193825,-0.010331351334974169
1746409922844607200,10.913607177734375,0.36129356453716754,-0.17736761446744204,-0.0936969957532361
1746409922854580200,10.923580322265625,0.49585517971813675,-0.13730258445218205,-0.13844872228000313
1746409922864552200,10.93355224609375,0.4896580786436796,-0.11408917438611388,-0.009019538084045053
1746409922874525200,10.943525146484374,0.30531390316188334,-0.08773140187971293,0.16289035896677523
1746409922884497200,10.9534970703125,0.05148351899981499,-0.024721257345750928,0.1737003971967846
1746409922894470100,10.96347021484375,-0.164596103438735,0.051264323291182516,-0.019542356870509682
1746409922904443400,10.973443359375,-0.30338030475080013,0.08005553348958491,-0.10335534319747239
1746409922914414800,10.983414794921876,-0.37147009063661096,0.09166976424194871,-0.18858692761808632
1746409922924387800,10.993387939453125,-0.329046660926938,0.038300796821713445,-0.1640627637470141
1746409922934360000,11.003360107421875,-0.27874329162240025,0.07831102790981531,-0.07054828495383263
1746409922944332800,11.013332763671874,-0.34178514646887775,0.2840726699516177,-0.04463175340890884
1746409922954305800,11.023305908203126,-0.4631114325016737,0.5196779538542032,0.13535254636295138
1746409922964278000,11.033278076171875,-0.403292631354928,0.3128130267456174,0.09425035531967878
1746409922974251000,11.0432509765625,-0.3203571585148573,0.09055939184725284,-0.09921703781634568
1746409922984223000,11.053222900390624,-0.2953951512157917,0.12340879139527677,-0.2698223916072398
1746409922994196000,11.063196044921876,-0.23168284976184367,0.0722244014725089,-0.313075951998122
1746409923004169000,11.0731689453125,-0.06629004298746585,-0.036210984935611486,-0.19408377146869896
1746409923014141000,11.083140869140625,0.2677151171296835,-0.0050103755079209805,-0.047176469455659384
1746409923024114000,11.093114013671874,0.20620938580930231,0.12198285024538635,-0.019811492668092248
