time,seconds_elapsed,z,y,x
1746409896262597000,0.03659716796875,-0.7772557078510522,-1.002991047385335,0.1617769543647766
1746409896272570000,0.046570068359375,-0.6636765288136899,-1.0986182440161705,0.2535731945306062
1746409896282543000,0.056543212890625,-0.5102589681237936,-1.1122639075309038,0.4146259262740612
1746409896292515300,0.066515380859375,-0.5542646255236119,-0.9682026425987481,0.5308990205705165
1746409896302488000,0.076488037109375,-0.23793489589393138,-0.8355027296364307,0.6438163746982812
1746409896312461000,0.0864609375,-0.08768544384613633,-0.6307926424741744,0.7743465424060821
1746409896322434300,0.096434326171875,-0.04942709792666137,-0.47421793292760844,0.7570558003872633
1746409896332406300,0.10640625,0.29850656123459335,-0.3281418210417032,0.5266612368702888
1746409896342379000,0.11637890625,0.5692693754971027,-0.2087543941169977,0.38364801968634127
1746409896352352300,0.126352294921875,0.6818097130060196,-0.017391279783844946,0.40945641468167304
1746409896362324200,0.13632421875,0.6511955251641571,0.2055786866903305,0.26800679355263707
1746409896372297200,0.146297119140625,0.5653462107039988,0.2024409731864929,0.01650748268663883
1746409896382270200,0.156270263671875,0.6366793624252081,0.15810206524431705,-0.358890595048666
1746409896392242200,0.1662421875,0.4379676388949156,0.02486789927482605,-0.7257897245079279
1746409896402215200,0.176215087890625,0.2528233990766108,-0.0560796146184206,-0.8961410304725169
1746409896412188400,0.1861884765625,0.2016645819865167,-0.059766194176673886,-0.9644272157132625
1746409896422160100,0.19616015625,0.1832926206022501,-0.062465516263246534,-0.9689876554965973
1746409896432133000,0.206133056640625,0.16262582627907393,0.011855272966623306,-0.923787746810913
1746409896442106400,0.2161064453125,0.18899127063527701,0.04387947373688221,-0.9053250384032726
1746409896452078000,0.226078125,0.16943024559691547,0.007046411380171776,-0.8086036167949437
1746409896462051000,0.236051025390625,0.16471110812053083,-0.08203121747672558,-0.7672884405881166
1746409896472024300,0.2460244140625,0.15801380243897437,-0.133263976585865,-0.6657663406997919
1746409896481997300,0.255997314453125,0.02437982349693775,-0.19057459430396556,-0.41619186041653156
1746409896491969000,0.265968994140625,-0.11385960341393947,-0.27507775485217567,-0.021474749705195424
1746409896501942300,0.2759423828125,-0.09205679079815744,-0.06917524303495884,0.45364510049819945
1746409896511915300,0.285915283203125,0.06149067988172173,0.441560694950819,0.7853525050669908
1746409896521887200,0.29588720703125,0.015959493415057657,0.6504279017925262,1.0283154582560061
1746409896531860200,0.305860107421875,-0.22450126769468187,0.41197219689488407,0.7592693847835064
1746409896541833200,0.315833251953125,-0.22095380434617398,0.15962299120128154,0.12129004567563532
1746409896551805200,0.32580517578125,-0.23384908788502215,0.212440973675251,-0.3549152616769075
1746409896561778400,0.3357783203125,-0.2801706940770149,0.4286217184007168,-0.5828998414427041
1746409896571751200,0.345751220703125,-0.2627472655892372,0.6552227348536253,-0.8766869729399681
1746409896581723100,0.35572314453125,-0.026595161458849905,0.9131459412872791,-1.1311007099479435
1746409896591696400,0.3656962890625,0.1140947273440659,1.2161802090793847,-1.305651221168041
1746409896601669400,0.37566943359375,0.1941981916286051,1.2538362782567738,-1.30483289052248
1746409896611642000,0.38564208984375,-0.06380231782495975,1.046242160090804,-1.4749445425122976
1746409896621614300,0.3956142578125,-0.42791137817427516,0.6305336992770433,-1.3764315613120794
1746409896631587300,0.40558740234375,-0.5110632702440023,0.5060720378279686,-0.9155711226075887
1746409896641560000,0.41556005859375,-0.552620876904577,0.7238140405207872,-0.31611528316140175
1746409896651532300,0.4255322265625,-0.7172388999141752,0.5825397759586572,0.23049100962877273
1746409896661505300,0.43550537109375,-0.6854347716353834,0.37523967230319977,0.5099012407273054
1746409896671478300,0.445478271484375,-0.6174205352038145,0.21430267589390276,0.608857289519906
1746409896681450200,0.4554501953125,-0.3408779684960842,-0.20979367403686044,0.6871598418623208
1746409896691423200,0.46542333984375,0.26499899003878236,-0.31595687772929665,0.726567138621211
1746409896701396200,0.475396240234375,0.7979302470892667,-0.2358475682258606,0.7694090860038996
1746409896711368200,0.4853681640625,1.1057952960386872,-0.3360182535052299,0.7697685669660568
1746409896721341200,0.495341064453125,1.3632226817794144,-0.4410077372431755,0.7441220845341682
1746409896731314200,0.505314208984375,1.700750170803815,-0.3150450235813856,0.8432955754697322
1746409896741286400,0.515286376953125,1.9072750523030757,-0.11163257501423358,1.1035329040646553
1746409896751259100,0.525259033203125,1.899206312137842,0.028950200152397153,1.3007850764364004
1746409896761232100,0.535232177734375,1.8790356307685374,0.1608756216108799,1.3899901310652494
1746409896771205000,0.545205078125,1.8500667259156702,0.3231429898411035,1.2818740397393702
1746409896781177300,0.55517724609375,1.7214423918291926,0.5210293684631586,1.070175993385911
1746409896791150000,0.565150146484375,1.4339455926477909,0.6570517038464546,0.7763076133459806
1746409896801123000,0.575123046875,0.9863381648786366,0.43903088421225545,0.23474983611702918
1746409896811095300,0.58509521484375,0.6667696725234389,0.018490180936455724,-0.15170155055224896
1746409896821068300,0.595068359375,0.5367315261162817,-0.3000520371109247,-0.3480260866850614
1746409896831041000,0.605041015625,0.5308779777824878,-0.2477414196372032,-0.4139239154845476
1746409896841013200,0.61501318359375,0.4807734920509159,0.15480769987404344,-0.33584348146021364
1746409896850986200,0.624986328125,0.2262608247131109,0.31460254051089287,-0.3458721235215664
1746409896860959200,0.634959228515625,0.0256324539065361,0.439652815502882,-0.39025896225869655
1746409896870931200,0.64493115234375,-0.3001142886921763,0.4946253456622362,-0.4173831160277128
1746409896880905500,0.654905517578125,-0.731071172042191,0.22574469188451765,-0.35848669042289255
1746409896890878500,0.66487841796875,-1.098568851916492,-0.2823492071598768,-0.061842415928840634
1746409896900850400,0.674850341796875,-1.2389371075496076,-0.5666928030073642,0.4262292703062296
1746409896910823700,0.68482373046875,-1.3794234366044402,-0.6718301707834005,0.8304138820648193
1746409896920796400,0.69479638671875,-1.2221610370546578,-0.781571817484498,1.1813789448112249
1746409896930769400,0.704769287109375,-0.8034794056490063,-0.7832406274795531,1.2286480609863997
1746409896940741600,0.71474169921875,-0.6075079207375645,-0.7719476645708083,1.007304818931222
1746409896950714600,0.724714599609375,-0.4314005354642868,-0.7559224124431609,0.6917664588749408
1746409896960687400,0.734687255859375,-0.29198972668647766,-0.8012672825574875,0.3295294760078192
1746409896970659600,0.74465966796875,-0.11729834569096564,-0.7385159350901842,0.166513335236907
1746409896980632600,0.754632568359375,0.005796703580021858,-0.5793523780941963,0.133556822052598
1746409896990605600,0.76460546875,0.11747048738747834,-0.5499906745314598,0.0664274056315422
1746409897000577500,0.77457763671875,0.2714072496458888,-0.4864391165971756,0.0722919137507677
1746409897010550500,0.784550537109375,0.42884588254541156,-0.2576233467042446,0.09768120655119418
1746409897020523500,0.7945234375,0.4309533762186765,0.008930325430631637,0.16308569887578486
1746409897030495500,0.80449560546875,0.4046566131845116,0.2613864986300468,0.18044950613081454
1746409897040468500,0.814468505859375,0.3376230583533644,0.4245025926440954,0.029947979018092152
1746409897050441500,0.82444140625,0.31714491847008464,0.6940151145845651,-0.359263520014286
1746409897060414500,0.83441455078125,0.34201720165908334,0.9079998105704784,-0.8429793491274118
1746409897070386400,0.844386474609375,0.1902817488372326,1.0997066237747668,-0.9222463625878095
1746409897080359400,0.854359375,0.07171382160186768,1.1727987479925155,-0.43584465539157385
1746409897090332400,0.86433251953125,0.07018646590411663,0.7974556153148412,-0.26966800476312636
1746409897100304600,0.8743046875,-0.048967444525659085,0.2289016946107149,-0.10032616810202598
1746409897110277400,0.88427734375,-0.2506424017757177,-0.19878478876650332,0.5071896436810494
1746409897120250400,0.89425048828125,-0.3804980312228203,-0.3334457726687193,0.9374293186724185
1746409897130222600,0.90422265625,-0.5639993261396885,-0.16458908917605877,1.0400427209287881
1746409897140195300,0.9141953125,-0.6242857447981834,-0.010409165811538695,0.9661515552878379
1746409897150168300,0.924168212890625,-0.5861971294224262,0.19116320784687996,0.559367574685812
1746409897160140500,0.934140625,-0.5074231601759791,0.26849077767729757,0.07982815447449684
1746409897170113500,0.944113525390625,-0.32389702307879925,0.21998832031488416,-0.4207768501192331
1746409897180086300,0.954086181640625,-0.0376624989181757,0.17447627694010734,-0.7686819407731295
1746409897190058500,0.96405859375,0.2976663110181689,0.028227731096744535,-0.9112894997656344
1746409897200031500,0.974031494140625,0.6378700335144997,-0.09236381092071533,-0.9557564180016517
1746409897210004500,0.98400439453125,0.9423097841903567,-0.15524258415997028,-0.9336445394366979
1746409897219977500,0.9939775390625,1.1582333392843602,-0.18915712872147558,-0.7715186255037784
1746409897229949400,1.003949462890625,1.2085057289287446,-0.32702187710106373,-0.5948486379116773
1746409897239922400,1.01392236328125,1.193542553074658,-0.4098895454019308,-0.3496417051881551
1746409897249895700,1.023895751953125,1.036301780834794,-0.3760036424130201,-0.22975334300398825
1746409897259867400,1.033867431640625,0.8133987421169877,-0.22494214332997797,-0.291306420597434
1746409897269840400,1.04384033203125,0.5018164262101054,-0.24457974073588848,-0.4672895949691534
1746409897279813600,1.053813720703125,0.2933247746825218,-0.3058428954720497,-0.5683715498745441
1746409897289785300,1.063785400390625,0.1456309984669089,-0.27459260168373584,-0.5536766695678234
1746409897299758300,1.07375830078125,0.06180617557168006,-0.29015491247475145,-0.5270891068935394
1746409897309731600,1.083731689453125,-0.004664484679698944,-0.3180295923501253,-0.3160597535818815
1746409897319703600,1.09370361328125,-0.03262596605569124,-0.2791986341744661,-0.08847557131052017
1746409897329676300,1.10367626953125,-0.08318798629641533,-0.2660626737475395,0.04126315375864505
1746409897339649500,1.1136494140625,-0.20035569134503603,-0.2598094585716724,0.1361760646402836
1746409897349621500,1.12362158203125,-0.3677612992465496,-0.22267712100744247,0.1331383043795824
1746409897359594500,1.133594482421875,-0.5717801892742514,-0.0961333925873041,0.07457388720810412
1746409897369567500,1.1435673828125,-0.7608493474513291,0.07795885347127914,0.08669336406886577
1746409897379540500,1.15354052734375,-0.9060855013817548,0.1452384920179844,0.019895371559262274
1746409897389512400,1.163512451171875,-0.962305693514645,0.1680997276455164,-0.06069616850316524
1746409897399485700,1.173485595703125,-0.9671259532779455,0.1818546967536211,-0.05775193174481392
1746409897409458400,1.18345849609375,-0.8798030591338872,0.06380407139062881,0.0038040684580802914
1746409897419430400,1.193430419921875,-0.7545651526153088,-0.20135551603734492,0.15282850875556467
1746409897429403600,1.203403564453125,-0.5701651552930473,-0.3438707205712795,0.360231488263607
1746409897439376600,1.213376708984375,-0.32037849356383086,-0.44318858841359615,0.5355301875025034
1746409897449348400,1.223348388671875,-0.015716040048003196,-0.525014054185152,0.6329004284083843
1746409897459321600,1.233321533203125,0.1697673685967922,-0.5211936191141605,0.6542419071227312
1746409897469294600,1.243294677734375,0.2442255204707384,-0.4082154747098684,0.6742465842753649
1746409897479266300,1.253266357421875,0.18944442123025654,-0.3985392993479967,0.6380512353003025
1746409897489239600,1.263239501953125,0.06057897186428308,-0.42365971207916736,0.5383797317147254
1746409897499212500,1.273212646484375,-0.003915712139010429,-0.43372459449768064,0.4883575174391269
1746409897509184500,1.2831845703125,-0.0780105836585164,-0.4607733449429273,0.42006139532625675
1746409897519157500,1.293157470703125,-0.09398556690365076,-0.48056759421527384,0.44048575919568533
1746409897529130500,1.303130615234375,-0.0586740150257945,-0.4575695804655552,0.5155553209662437
1746409897539102500,1.3131025390625,0.018368308122456073,-0.3982511300563812,0.6664461396574973
1746409897549075700,1.32307568359375,0.0066571198016405105,-0.24438860207796095,0.6377806016653775
1746409897559048400,1.33304833984375,0.07502981428205967,-0.07016425407230853,0.30631694272458554
1746409897569021400,1.343021484375,0.27420447914898394,-0.12138941439688206,-0.03249181828200817
1746409897578993700,1.35299365234375,0.762959179212153,-0.09456862748861312,0.15661270346939563
1746409897588966400,1.36296630859375,0.5891381513103843,-0.0621533815741539,0.5398568185299635
1746409897598939400,1.372939453125,-0.14491174428164957,-0.3154150259375572,0.6892389862239361
1746409897608911600,1.38291162109375,-0.4328635937541723,-0.5206102662682532,0.9942781640976667
1746409897618884600,1.392884521484375,-0.5691381503328681,-0.548597174346447,1.1534195092618464
1746409897628857300,1.402857421875,-0.46368981691151856,-0.19233575875759124,1.2686375415474176
1746409897638829600,1.41282958984375,-0.15400807392895222,-0.09075169954895973,1.5489654720127581
1746409897648802600,1.422802490234375,-0.2259948672533035,-0.17607903596162794,1.5370283659815787
1746409897658775600,1.432775634765625,-0.2138289209023118,-0.01873451108634472,1.3223609484285115
1746409897668747500,1.44274755859375,-0.09307692762613295,0.0829582691937685,1.1008616390287875
1746409897678720500,1.452720458984375,0.33052433226406575,0.29320494769513605,0.7196954992860555
1746409897688693500,1.462693603515625,0.8440311962679028,0.5790250458359718,0.24641455494761466
1746409897698665500,1.47266552734375,0.49603287437260146,0.7007920613735914,-0.14572247614264489
1746409897708638500,1.482638427734375,-0.41118192330002784,0.5165349796533585,-0.4074959282636642
1746409897718611500,1.492611572265625,-1.215670505991578,-0.1242979953199625,-0.9139397220134735
1746409897728584400,1.50258447265625,-1.6113906562656164,-0.629517800232768,-1.4317249939888714
1746409897738556400,1.512556396484375,-1.5817401988893747,-0.4829173722118139,-1.5185779325336217
1746409897748529400,1.522529296875,-1.2872753142610192,0.1106383032798767,-1.2085077747553585
1746409897758502400,1.53250244140625,-0.8065931537553668,0.6889134075313806,-0.9310808264285325
1746409897768474600,1.542474609375,-0.18332389252334833,0.7424445067107677,-0.9627736032873392
1746409897778447400,1.552447265625,0.1008393783211708,0.5917781444251538,-1.2083499538451432
1746409897788420400,1.56242041015625,0.07513678178787231,0.19158055647611616,-1.3455103533476591
1746409897798392600,1.572392578125,0.4216542174756527,-0.18409166202545166,-1.4361416413873433
1746409897808365600,1.582365478515625,1.0223302463665604,-0.27390403489768506,-1.2561965776473283
1746409897818338300,1.59233837890625,1.3657128911599516,-0.2655406957000494,-0.8717202904433011
1746409897828310500,1.602310546875,1.3605816657513379,-0.32009821531772614,-0.4854185413777828
1746409897838283500,1.612283447265625,1.036980703009665,-0.4257055386930704,-0.18597966772913932
1746409897848256500,1.622256591796875,0.5513537795782089,-0.3816986391842365,0.061412792339920995
1746409897858228500,1.632228515625,0.40291853734552857,-0.06491466298103332,0.3666331719994545
1746409897868201500,1.642201416015625,0.3820522749274969,-0.08325637535750866,0.370384633487463
1746409897878173400,1.65217333984375,0.30002865623533725,-0.0733855542063713,0.2767436422377825
1746409897888145200,1.662145263671875,0.13904635937958956,-0.17938100011646746,0.22134850275218484
1746409897898118100,1.6721181640625,-0.07611117977797985,-0.22722177869975566,0.3232324216902256
1746409897908091400,1.68209130859375,-0.45808600555509327,-0.2570394093364477,0.468668482106924
1746409897918063400,1.6920634765625,-0.758818718406558,-0.2994055559009313,0.4398685040801763
1746409897928036000,1.7020361328125,-0.6861310833364724,-0.10797054537534713,0.39546354516446586
1746409897938009300,1.71200927734375,-0.38536680630296466,0.2152121919542551,0.294210325345397
1746409897947982300,1.721982421875,-0.030137948632240293,0.35435236709713935,0.08087795578837394
1746409897957954300,1.731954345703125,0.036006548404693604,0.1104687919318676,0.01834872663915157
1746409897967927300,1.74192724609375,-0.21278642611205575,-0.28676468551456924,0.1859060179710388
1746409897977900300,1.751900390625,-0.13669628912210463,-0.4225350919634103,0.2311065111786127
1746409897987872300,1.761872314453125,0.16283260089755058,-0.181314014005661,0.3062760261923074
1746409897997845500,1.771845458984375,0.3794254335552454,-0.10925181735754012,0.20131693759262562
1746409898007818200,1.781818359375,0.5443979690909385,-0.3463683826059103,-0.21021979049444198
1746409898017790200,1.791790283203125,0.6826771434903145,-0.3986088574528694,-0.40789866384565826
1746409898027763500,1.801763427734375,0.7435831553518771,-0.07862637746930122,-0.3334644773691892
1746409898037736400,1.811736328125,0.5965495966106653,0.28589842407405375,-0.17545593562722206
1746409898047708200,1.821708251953125,0.0026771102547645566,0.4613467609167099,0.18573475305736065
1746409898057681400,1.831681396484375,-0.769598471096158,0.30484862373769284,0.3311930253058672
1746409898067654400,1.841654296875,-1.0437509277969599,0.05394669424295425,0.09035480918586254
1746409898077626000,1.851626220703125,-0.8633391233280301,-0.32770752127766606,-0.1917354547768831
1746409898087599400,1.861599365234375,-0.5246919826239347,-0.4599883320450783,-0.25784663406610486
1746409898097572400,1.871572265625,-0.7172165419518948,-0.12654431294202803,0.11058335822224616
1746409898107544300,1.88154443359375,-0.8717483474940061,0.11640110459029673,0.3226782949388027
1746409898117517300,1.891517333984375,-0.6736369279444218,0.19731763882338998,0.047184360501170156
1746409898127490300,1.901490234375,-0.09529051202237605,0.24692484255731104,-0.48591713854968543
1746409898137463300,1.91146337890625,0.6353606810420751,0.26270810262262817,-1.025337319228053
1746409898147435500,1.921435546875,1.344596453373134,0.22710779693126676,-1.2014110944926737
1746409898157408300,1.931408203125,1.585420933228731,0.04573474621474743,-0.8473755382597445
1746409898167381200,1.94138134765625,1.2794336608499288,-0.40871407188177106,-0.23524317259192465
1746409898177353500,1.951353515625,0.6582692629426717,-0.7555068173795938,0.18220950154066085
1746409898187326500,1.961326416015625,-0.10276303986012936,-0.6932014601141214,0.3431774776101112
1746409898197299200,1.97129931640625,-0.7906789607867598,-0.4197001607984304,0.38732524689435954
1746409898207271400,1.981271484375,-1.5653630645841359,-0.23899872573316097,0.4319301122963428
1746409898217244400,1.991244384765625,-1.7886808215826748,-0.06493862837851047,0.46571372395455835
1746409898227217400,2.001217529296875,-1.5365215855032204,0.08520166420638561,0.32976094667613504
1746409898237189400,2.011189453125,-1.0552022961378096,0.11933715804219246,0.07693535564243793
1746409898247162400,2.021162353515625,-0.6450403635352849,0.035030396848917005,-0.25825872199833394
1746409898257135400,2.03113525390625,-0.2676648482471704,-0.07998129920959472,-0.3792261115908622
1746409898267107300,2.041107421875,0.0722919137507677,-0.07953647805154324,-0.208323016962409
1746409898277080300,2.051080322265625,0.284310862621665,-0.06904957082867622,0.1251911447674036
1746409898287053300,2.06105322265625,0.27527941490411756,-0.1318880120575428,0.4423176507979631
1746409898297025300,2.071025390625,0.2179308032631874,-0.2149070715278387,0.505332617637515
1746409898306998300,2.080998291015625,0.15405892733335494,-0.35137130545973777,0.34529870754778386
1746409898316971300,2.09097119140625,0.17206570866703985,-0.4993132112175226,0.10897884563505648
1746409898326943500,2.100943603515625,0.3669160805940628,-0.4236871846079826,0.006591068828105926
1746409898336916200,2.110916259765625,0.5003197579115629,-0.3022211978435516,0.04738192889988422
1746409898346889200,2.12088916015625,0.541828995385766,-0.21652035194337366,0.20030922185480593
1746409898356861400,2.130861328125,0.5092167655944824,-0.1562871247768402,0.28774142159223554
1746409898366834400,2.14083447265625,0.4100859447568655,-0.17318565260767935,0.33874387907683845
1746409898376807200,2.15080712890625,0.2891647323936224,-0.21720131994485853,0.33549159928262234
1746409898386780200,2.1607802734375,0.12945903134495018,-0.21674480834901333,0.2802981198489666
1746409898396752400,2.17075244140625,0.04395955323576927,-0.24230945771634577,0.23700784417688844
1746409898406725400,2.180725341796875,-0.0029857378125190733,-0.2200608010292053,0.25137071605026723
1746409898416698000,2.190697998046875,-0.10603519339859485,-0.1611842491686344,0.3449000636190176
1746409898426670300,2.20067041015625,-0.1824164222896099,-0.1427367383301258,0.3897679638713598
1746409898436643300,2.210643310546875,-0.18823475317955016,-0.1482744987130165,0.3151958302289247
1746409898446616300,2.2206162109375,-0.1449713655143976,-0.16636954285204408,0.23314883066117761
1746409898456588300,2.23058837890625,-0.043186815297603605,-0.15460194816887377,0.18684534464776514
1746409898466561300,2.240561279296875,-0.0007984569013118743,-0.12269757438600062,0.21229893485605716
1746409898476534300,2.2505341796875,-0.022388065157830712,-0.1642781235307455,0.33180501972436904
1746409898486506200,2.26050634765625,-0.25140140344947576,-0.3150333331435919,0.4538251332402229
1746409898496479200,2.270479248046875,-0.660536623352766,-0.4691588959723711,0.7215116087973117
1746409898506452200,2.2804521484375,-1.1077005451381206,-0.4544838894098997,1.1083388430416583
1746409898516424400,2.290424560546875,-1.690707938608527,-0.31828444389402866,1.3954641785621642
1746409898526397200,2.300397216796875,-2.0510580848157405,-0.14763035559058188,1.3260370065927505
1746409898536370200,2.3103701171875,-2.2351263659656047,0.1140016422331333,0.8791220911324024
1746409898546342400,2.32034228515625,-2.076402369430661,0.4333037387371063,0.09873568404018879
1746409898556315400,2.3303154296875,-1.5810174375727772,0.6090215401709079,-0.8454957158625125
1746409898566288100,2.3402880859375,-0.8952952272981405,0.5317921700179576,-1.3686673570513725
1746409898576260400,2.35026025390625,-0.061062079206109045,0.32570728737115856,-1.3341829036474226
1746409898586233300,2.3602333984375,0.7574556133598089,0.18300503583252428,-1.0471247881442307
1746409898596206300,2.370206298828125,1.3281898007124662,0.03933715413212776,-0.6578665273606776
1746409898606179300,2.380179443359375,1.6560405298531053,-0.05908171904385089,-0.3075508684337139
1746409898616151300,2.3901513671875,1.7471838590681552,-0.13882336427867412,-0.08309913896918296
1746409898626124300,2.400124267578125,1.553688116620481,-0.1640764634788036,0.08182897290289401
1746409898636097500,2.41009765625,1.2205898422151804,-0.2656529239028692,0.17058686828613281
1746409898646069200,2.4200693359375,0.8294710482567548,-0.25213468616008755,0.1589706647723913
1746409898656042200,2.430042236328125,0.4741781854391098,-0.14792904627621173,0.18474632654190062
1746409898666015500,2.440015380859375,0.23310791412889956,-0.04236614656448364,0.055523734301328655
1746409898675987200,2.4499873046875,-0.016638415589928627,-0.16488602629601953,-0.03312017931342125
1746409898685960200,2.459960205078125,0.03912292685955763,-0.15939561218619347,0.1252472588688135
1746409898695933400,2.469933349609375,0.2533408470794558,-0.1284416709959507,0.10243512308001518
1746409898705905400,2.479905517578125,0.40208793174028395,-0.17572715378403664,-0.08276420792639255
1746409898715878100,2.489878173828125,0.6167544725105166,-0.22184885348975658,-0.2281786410331726
1746409898725851400,2.499851318359375,0.7351464586570858,-0.3287415405005216,-0.28983576352298257
1746409898735823400,2.5098232421875,0.6644310004428029,-0.43158933603465555,-0.18327157781422138
1746409898745796000,2.519796142578125,0.5286813445210456,-0.38567104994654655,-0.013618775507807731
1746409898755769300,2.529769287109375,0.3300789265841245,-0.3421200775116682,0.13396423380970954
1746409898765741300,2.5397412109375,0.1577466759353876,-0.35765842290520666,0.2582984694868326
1746409898775714300,2.54971435546875,0.009554887069761752,-0.37118367491066456,0.37434652285575865
1746409898785687300,2.559687255859375,-0.17043986103087663,-0.38039866250157356,0.4629816686421632
1746409898795659300,2.5696591796875,-0.19476327816545963,-0.4509972163379192,0.41368133890032766
1746409898805632300,2.57963232421875,-0.09283522782474755,-0.515241432711482,0.3385468952000141
1746409898815605500,2.58960546875,0.05996843875050544,-0.5877402672111988,0.3025309944450855
1746409898825577200,2.5995771484375,0.22766952246725558,-0.6402730030030012,0.3262485546410084
1746409898835550200,2.60955029296875,0.29094956998378035,-0.6324778190821408,0.36137130594849587
1746409898845523500,2.6195234375,0.24292905091941355,-0.7241980714023113,0.2884650596916675
1746409898855495200,2.6294951171875,0.18854279621541498,-0.7860527622908353,0.21408990992605684
1746409898865468200,2.63946826171875,0.16238398034721613,-0.8540028474450111,0.21041385176181793
1746409898875441400,2.64944140625,0.1676271416977048,-1.0802122342318297,0.18685937317311763
1746409898885414400,2.659414306640625,0.21883301279991865,-1.2834312060534954,0.06104688163697719
1746409898895386400,2.669386474609375,0.3506403608366847,-1.4807693031430245,-0.030382278782129287
1746409898905359600,2.679359619140625,0.485149661308527,-1.6549901440173387,-0.11452362028062343
1746409898915332600,2.68933251953125,0.5777165935859084,-1.7498294051408767,-0.2792512411445379
1746409898925304300,2.69930419921875,0.6220809282302856,-1.8245681275218724,-0.5044049813985825
1746409898935277600,2.709277587890625,0.6100368546932935,-1.9557202265202998,-0.7365835057228803
1746409898945250600,2.71925048828125,0.5446913990795612,-2.1171593272328377,-0.8894733892768621
1746409898955222300,2.72922216796875,0.5112342428967357,-2.266058679845929,-1.042526938959956
1746409898965195500,2.739195556640625,0.5066992298156022,-2.5052578965872523,-1.183079318988323
1746409898975168500,2.74916845703125,0.5959864097699522,-2.79012347048223,-1.226492928779125
1746409898985140500,2.759140380859375,0.774466077132523,-2.9903391688346863,-1.2924258288919925
1746409898995113500,2.769113525390625,0.9388058677226304,-3.0894167981803413,-1.3138374502331018
1746409899005086500,2.77908642578125,0.905126593221724,-3.2326088790625334,-1.3930062640160321
1746409899015058400,2.789058349609375,0.7932660546705126,-3.5025679757267234,-1.2628893532842398
1746409899025031400,2.799031494140625,0.8925275161504745,-3.7985762904047964,-0.9307570013016462
1746409899035004400,2.80900439453125,1.2955875077933072,-3.8768203905582426,-0.8946575139164924
1746409899044976400,2.818976318359375,1.820365122874081,-4.130594660618901,-0.9371452410340309
1746409899054949600,2.82894970703125,2.492936467413604,-4.250506988200545,-0.49500528489053247
1746409899064922400,2.83892236328125,2.808407899713516,-4.33110320443809,0.6454103658914566
1746409899074894300,2.848894287109375,2.184653193052113,-5.203431982168555,1.5036884064376352
1746409899084867600,2.85886767578125,1.0137459578946233,-6.742435447615384,2.0513240422755477
1746409899094840600,2.868840576171875,0.23590397458821533,-8.509177409112453,3.2473183724164962
1746409899104812300,2.878812255859375,0.8541215053886174,-9.423897467848658,4.472569192180037
1746409899114785500,2.88878564453125,3.695604283969104,-9.18748700504303,4.071458581039309
1746409899124758500,2.898758544921875,7.162694995862245,-8.824805785539747,1.428995276764035
1746409899134730200,2.908730224609375,8.966247223362327,-8.846892529663442,-1.5254139160335063
1746409899144703500,2.918703369140625,8.768239264187216,-9.89238299460411,-4.239176615890861
1746409899154676500,2.928676513671875,7.910847943347692,-8.856882008758188,-6.529762418749928
1746409899164648400,2.9386484375,6.818170195296406,-7.913387106436491,-7.708410477292537
1746409899174621400,2.948621337890625,4.648721293377876,-8.180857308894396,-7.725425909501314
1746409899184594400,2.958594482421875,0.9014057460676879,-8.356490939176082,-6.639079118037223
1746409899194566400,2.96856640625,-3.023877865821123,-8.714567879754304,-5.2331461524307725
1746409899204539600,2.97853955078125,-3.952628787997365,-8.06952576265335,-3.857265210738778
1746409899214512400,2.988512451171875,-3.8837212559878824,-6.827286398687958,-3.519170735481381
1746409899224485400,2.9984853515625,-3.466242862892151,-6.572124473661184,-5.0767684267610305
1746409899234457600,3.00845751953125,-3.7581507565140724,-6.130766607806086,-7.072267121440172
1746409899244430600,3.0184306640625,-4.794357260280847,-5.719653073567152,-8.26378752103746
1746409899254403300,3.0284033203125,-5.994454349565506,-5.321586652427912,-7.79451230520904
1746409899264375600,3.03837548828125,-7.339837861663103,-4.78861754758507,-5.533743548464774
1746409899274348500,3.0483486328125,-7.714711623263359,-3.6653511845245954,-2.1939403690963983
1746409899284321500,3.058321533203125,-6.539453207159042,-2.224768053558469,1.3279355336904526
1746409899294293500,3.06829345703125,-4.721027527914941,-1.7365248101487756,2.186948318251967
1746409899304266500,3.0782666015625,-3.1555884754851458,-1.4563178757146,1.5499644199222324
1746409899314239500,3.088239501953125,-1.8745880037099123,-1.050949607129395,0.7246078212469815
1746409899324211500,3.09821142578125,0.7369058695450424,-1.305595691588521,1.3267565530389547
1746409899334184400,3.108184326171875,2.451505848133564,-0.9633508186534047,4.918435475370288
1746409899344157400,3.118157470703125,4.131857812422513,-0.5053478152066468,7.091614795988797
1746409899354129700,3.128129638671875,6.303773396715521,0.18099632635861634,8.955285099843143
1746409899364102400,3.138102294921875,7.050139460784196,1.6591212524726986,11.581104143309593
1746409899374075400,3.148075439453125,5.956010929402709,3.3129896989837286,12.517690581417083
1746409899384047600,3.158047607421875,4.853737670010328,3.4881203481793404,10.15947091974616
1746409899394020600,3.1680205078125,6.026743923273682,3.553848665630817,6.360500661587714
1746409899403993300,3.177993408203125,7.5499921857059,4.984684017303586,2.698762114602327
1746409899413965600,3.187965576171875,8.278294185295701,3.6045109313756227,1.0436597423821687
1746409899423938600,3.1979384765625,7.708603369516134,3.1012860996723175,1.3217396016597747
1746409899433911600,3.20791162109375,7.650582557702064,3.1995646875947714,3.3687595170006155
1746409899443883500,3.217883544921875,6.47235535492003,2.8702319032028316,6.410537488910555
1746409899453856500,3.2278564453125,4.56046257968843,3.4015292754411695,8.990086948633193
1746409899463829500,3.23782958984375,3.1270845577955244,3.6751693987056613,8.648039351835846
1746409899473801500,3.247801513671875,0.18595511780977247,2.2339054458685217,6.2096951830923555
1746409899483774500,3.2577744140625,-2.3247575370520353,0.30025749655514955,3.189177441354096
1746409899493747500,3.26774755859375,-3.5809599599182604,-0.6523981789521872,1.3918223149284719
1746409899503719400,3.277719482421875,-3.3925457585185765,-0.8313700137458742,1.9663781063959
1746409899513692400,3.2876923828125,-0.906394713461399,1.1188431397907435,5.158789122843742
1746409899523665400,3.29766552734375,1.0582336266577244,9.67800374634266,5.523666391086578
1746409899533637600,3.3076376953125,21.691965053665637,15.202356366127729,11.200431924563645
1746409899543610400,3.3176103515625,53.42402412154674,11.34827972229719,21.00616188710928
1746409899553583400,3.327583251953125,36.05864333359003,9.762774033394455,5.276137152895331
1746409899563555600,3.3375556640625,3.911872999238968,12.588223668801783,-6.417776207992434
1746409899573528600,3.347528564453125,-7.237291679424047,17.811788338416815,-1.9895852328516541
1746409899583501300,3.357501220703125,-10.97915999417901,16.522997066634893,-0.06343125602286309
1746409899593473500,3.3674736328125,-12.026395256960392,12.319418418347835,-1.198099047335237
1746409899603446500,3.377446533203125,-9.510924009394644,8.7401629242599,-1.1193120724767447
1746409899613419500,3.38741943359375,-3.224803758269548,3.6185230901151892,2.79476749689579
1746409899623391500,3.3973916015625,4.790349778205156,-0.6934653717473149,7.5727248265177005
1746409899633364500,3.407364501953125,9.037037500378489,-2.583490306302905,8.958824379885197
1746409899643337500,3.41733740234375,6.542912407702207,-2.4673849697887897,6.471994120392203
1746409899653310500,3.427310546875,-0.0631207653015852,-0.7061269926607608,1.998963009788841
1746409899663282400,3.437282470703125,-3.2224551493167874,1.1466593674771488,-0.7106960541419685
1746409899673255400,3.44725537109375,-3.2398014209151267,0.846865542910993,-1.8945809904247521
1746409899683228400,3.457228515625,-2.0126409681379793,0.6716701579160987,-1.5166213916383682
1746409899693200400,3.467200439453125,0.12225742940306662,-0.23430706078559158,-0.9584329437345266
1746409899703173400,3.47717333984375,1.081408750540018,-0.9625200669176875,-0.78065411811769
1746409899713146400,3.487146484375,1.1444751553058623,-0.5829768522016704,-0.01730469747893512
1746409899723118600,3.49711865234375,0.6238181272864342,-0.28177169953286646,0.08937522356398403
1746409899733091300,3.50709130859375,-0.5069546658813953,-0.21348288394361734,0.6815455821771175
1746409899743064300,3.517064208984375,-1.5231599996268748,-0.2761652578279376,2.3804789858825504
1746409899753036500,3.52703662109375,-1.4982979455709458,0.07794760142490267,3.1270091544717546
1746409899763009500,3.537009521484375,-0.6712427262842655,0.6320509719721973,2.8332191003650427
1746409899772982300,3.546982177734375,0.833683697515726,0.7952424693100154,2.3824004554644227
1746409899782954500,3.55695458984375,2.082743262889981,0.2349843755252659,1.4030778684362768
1746409899792927500,3.566927490234375,1.9650819291055202,-0.053960722768306726,0.10716125655276701
1746409899802900500,3.576900390625,0.8290034307450056,0.00791238055974245,-1.4907491376265882
1746409899812872400,3.58687255859375,-0.5075555543839931,0.43386590266451236,-1.9829751670621334
1746409899822845400,3.596845458984375,-1.1636474732875823,0.7557368267431854,-1.1032019185446202
1746409899832818400,3.606818359375,-1.0183446838617325,0.3298988938421011,-0.9298393019348382
1746409899842790400,3.616790283203125,-0.5259516272962093,-0.057870881949365134,-0.5810715665696189
1746409899852763400,3.626763427734375,-0.18422960919141768,-0.33979923334866763,-0.21162560217175633
1746409899862736400,3.636736328125,-0.6399672980546951,-0.3497067332483828,-0.745796301356703
1746409899872708600,3.64670849609375,-0.5727905353605747,-0.38943566317707295,-0.28958673893166703
1746409899882681000,3.65668115234375,-0.15287819311618803,-0.8809041522435843,-0.695379534805566
1746409899892654000,3.666654052734375,-0.5324409893155098,-0.5175482483491302,-1.0436471751615404
1746409899902626000,3.6766259765625,-0.5128174204349517,0.1509599384047091,0.07789093933422118
1746409899912599000,3.68659912109375,-0.005631283885240554,-0.045761488091200585,1.3635964835278689
1746409899922572000,3.696572021484375,0.32495442317724227,-0.3218913823448121,2.022300484625995
1746409899932544000,3.7065439453125,0.31989597074389453,-0.43762715489417314,1.89892135771662
1746409899942517000,3.71651708984375,0.2060790374279022,-0.34198432230278847,1.0152587736103682
1746409899952490000,3.726489990234375,-0.20168635542690752,-0.1411860017567873,-0.5329578893290833
1746409899962462200,3.736462158203125,-0.5282815315485,-0.06487666905820369,-1.1486292062453924
1746409899972435000,3.74643505859375,-0.4565343921989202,-0.09603153964802623,-0.5453585942840203
1746409899982408000,3.756407958984375,-0.15623451780676842,-0.06755597127005457,0.19441241890117525
1746409899992380200,3.766380126953125,0.20872692158818243,-0.022573650857806205,0.2411673750091344
1746409900002353200,3.776353271484375,0.36741058611273764,-0.006665449238568544,0.09804346399232744
1746409900012326000,3.786325927734375,0.4845031800985336,0.04220598756670951,0.1321703361302614
1746409900022299100,3.796299072265625,0.4017033163368702,0.10764686637893318,-0.027947306720167396
1746409900032271000,3.80627099609375,0.21183891612887382,0.03867065304741263,-0.19086539394408464
1746409900042244000,3.816244140625,0.09484802895188331,0.06128098265379667,-0.0656138607589528
1746409900052217000,3.826217041015625,-0.03202361624836921,-0.02817658543139696,0.07954089849833398
1746409900062189000,3.83618896484375,-0.08194996893405913,-0.01933043115288019,0.03779967889916151
1746409900072162000,3.846162109375,-0.020472294664382933,0.0007993336841464042,-0.16943364313039927
1746409900082135300,3.85613525390625,-0.009261164820194245,-0.01594254228025675,-0.3395440530112013
1746409900092107000,3.86610693359375,-0.090730656760931,-0.07145239418670535,-0.3090974402885884
1746409900102080000,3.876080078125,-0.14608487971425055,-0.08277882097363472,-0.10735719924997537
1746409900112053200,3.88605322265625,-0.06182312670648098,0.05987710720524191,0.039991562920249996
1746409900122025000,3.89602490234375,0.12339900065362452,0.2542332658745348,0.057303238129243254
1746409900131998000,3.905998046875,0.2590408122867346,0.1912446025200188,-0.009674640991911291
1746409900141971200,3.91597119140625,0.27476912729442116,0.3872952901475131,0.04892910354295745
1746409900151943200,3.925943115234375,0.0838122556746006,0.451661525465548,0.08433196869976818
1746409900161916000,3.935916015625,-0.22921616738736628,0.3137207892403006,0.016675477930996566
1746409900171889200,3.94588916015625,-0.3069581632375717,0.28801607381515204,0.015410152436606586
1746409900181861000,3.955861083984375,-0.2679191152691841,0.2697452347178012,0.19085054343482477
1746409900191834000,3.965834228515625,-0.22147417495846747,0.14062617591693996,0.30916020332649347
1746409900201807000,3.97580712890625,-0.03880231660306453,0.04620426342263818,0.16796479442054404
1746409900211779000,3.985779052734375,-0.05646423002183437,-0.15150347069688141,-0.1399471806768328
1746409900221752000,3.995751953125,-0.1682996341317892,-0.5321030625980347,-0.5387698270108551
1746409900231725300,4.005725341796875,-0.13740472965240477,-0.9100141460675746,-0.7375822344366461
1746409900241697000,4.015697021484375,-0.06077917061150074,-0.9161072753109037,-0.7539371569100767
1746409900251670000,4.025669921875,-0.10374795924425124,-0.7484261384036391,-0.6023191564554349
1746409900261643300,4.035643310546875,-0.10579378585815429,-0.4231813539776951,-0.3652798942269757
1746409900271615000,4.045614990234375,-0.04364040428400039,-0.18701565971337258,-0.35772589865084736
1746409900281588000,4.055587890625,0.11632102509140968,-0.14210392031930386,-0.35131986753344535
1746409900291561200,4.065561279296875,0.22584522964954376,0.043546077064052224,-0.13424131545173004
1746409900301533200,4.075533203125,0.35492636759281154,0.4500657076414674,0.22599629202540963
1746409900311506000,4.085505859375,0.33389994617700575,1.07201672588177,0.6135556764692067
1746409900321479200,4.095479248046875,-0.2514753454685211,0.7333484693244099,0.4044208316672593
1746409900331451100,4.105451171875,-0.15924246745109558,-0.9703533908918499,-0.27376880941176784
1746409900341424000,4.115424072265625,0.1898544633358717,-1.3569956239581107,-1.0571847021266818
1746409900351397000,4.125397216796875,-0.4711667286634445,-0.49121816756725306,-0.7344882139440625
1746409900361369000,4.135369140625,-0.8689753756493329,-0.1796843669772148,0.12252305806931107
1746409900371342000,4.145342041015625,-0.19718378331065176,-0.17551840640418231,0.22871892192233353
1746409900381315000,4.155315185546875,0.34986031637489795,-0.09035933923050761,-0.30904165498074143
1746409900391287000,4.165287109375,0.26348084056079385,-0.1089431167345494,-0.5510625415466726
1746409900401260000,4.175260009765625,0.03912088103294372,-0.067919324689731,-0.43263369398843493
1746409900411233300,4.1852333984375,-0.03144961575269699,0.029112770302966235,-0.11909858177965506
1746409900421205000,4.195205078125,0.01782207241654396,0.08134813058339059,0.20001718010567127
1746409900431178000,4.205177978515625,0.04987842189073562,0.039001857763156296,0.3211426098041236
1746409900441151200,4.215151123046875,0.029806524720788,0.01402808696106076,0.2345052319725044
1746409900451123000,4.225123046875,0.008771919998526573,0.014191387763991951,0.12880778262829407
1746409900461096000,4.235095947265625,-0.008424713996052742,-0.04987206521518528,0.02371948729152791
1746409900471069200,4.245069091796875,-0.0413876569211483,-0.07669095242731273,-0.14184747960651292
1746409900481041200,4.255041259765625,-0.07541092255413531,-0.0679842066194862,-0.23388675301428882
1746409900491014000,4.265013916015625,-0.1170610298037529,-0.1010013639498502,-0.21238244842104612
1746409900500987100,4.274987060546875,-0.09583411737978458,-0.10180785802714526,-0.21475557076055554
1746409900510959000,4.284958984375,-0.009857961669564246,-0.11970642974600196,-0.19184682446317747
1746409900520932000,4.29493212890625,0.07197042671144008,-0.09605813539400697,-0.17993709962926804
1746409900530905000,4.304905029296875,0.1165682778507471,-0.07611264108270406,-0.1451722035824321
1746409900540877000,4.314876953125,0.10160042582154273,-0.08637516496516763,-0.15305668235509656
1746409900550850000,4.32485009765625,0.045993689411878584,-0.04862805650345981,-0.19997739608455448
1746409900560823300,4.3348232421875,-0.03147767280340195,-0.06879281958863138,-0.1842898514786735
1746409900570795000,4.344794921875,-0.06424713898301124,-0.050456294843927024,-0.1067221162168309
1746409900580768000,4.35476806640625,-0.03898410291075706,-0.002020838303118944,-0.044741999717196446
1746409900590741200,4.3647412109375,0.04346504771709442,0.027150530319288373,0.05313782554548233
1746409900600713000,4.374712890625,0.07434066297411918,0.03214117821343243,0.1253100584393367
1746409900610686000,4.38468603515625,0.08461305066347122,-0.005704933643341064,0.07480058123660273
1746409900620659200,4.3946591796875,0.02891805144846439,-0.045655689629167315,-0.010084052909864112
1746409900630631200,4.404631103515625,-0.0642050534069538,-0.05742006944194436,-0.05166863890890963
1746409900640604000,4.41460400390625,-0.07247779171168804,-0.07149784076362847,-0.0735053263948299
1746409900650577200,4.4245771484375,-0.036001872229576105,-0.07437843770124018,-0.11116517669819295
1746409900660549000,4.434549072265625,-0.008155249404907226,-0.06787212454713881,-0.10746768302028067
1746409900670522000,4.444522216796875,0.019441782572865485,-0.03263692584112286,-0.09691673411787487
1746409900680495000,4.4544951171875,0.022526889106631278,-0.05394589052535593,-0.12287448358917608
1746409900690468000,4.464468017578125,-0.0005693243205547332,-0.05404577070325613,-0.1340745623163879
1746409900700440000,4.474440185546875,-0.03518120349645614,-0.058805094059556716,-0.06867749524642713
1746409900710413300,4.484413330078125,-0.021298808616399763,-0.0570773934841156,-0.06940555379264987
1746409900720386000,4.494385986328125,-0.0048620530784130095,-0.05072743993550539,-0.07610672279857099
1746409900730358000,4.50435791015625,-0.0020364742636680604,-0.035199396740272636,-0.08908930102838203
1746409900740331300,4.514331298828125,-0.029444705671072005,-0.06320347514897584,-0.08562005401523784
1746409900750304300,4.52430419921875,-0.03307458660602569,-0.056257601533830165,-0.09171294579654932
1746409900760276000,4.53427587890625,-0.015454758763313292,-0.04303725075908005,-0.10580800617975182
1746409900770249200,4.544249267578125,-0.021633739659190177,-0.06067695234604179,-0.1087476489613764
1746409900780222200,4.55422216796875,-0.03409516182541847,-0.06497128853909671,-0.10471325147929601
1746409900790194000,4.56419384765625,-0.027393033838272095,-0.04862557228542864,-0.10120754491328261
1746409900800167200,4.574167236328125,-0.012740239107608794,-0.06294672390893101,-0.10138005193597636
1746409900810140200,4.58414013671875,-0.02833528312444687,-0.05475888740867376,-0.09034067106265574
1746409900820112100,4.594112060546875,-0.029714754784107206,-0.053055225295946,-0.10735907154665328
1746409900830085000,4.604085205078125,-0.023313071048259734,-0.05009805599078536,-0.09446306648859754
1746409900840058000,4.61405810546875,-0.0260638310611248,-0.04505933117121458,-0.09553948181476443
1746409900850030000,4.624030029296875,-0.045697336813807485,-0.051872737513110036,-0.10502330380915663
1746409900860003000,4.634003173828125,-0.024912322938442227,-0.04920052262917161,-0.11531741927312686
1746409900869976000,4.64397607421875,-0.032117139750719066,-0.053248702041432255,-0.09495114226648584
1746409900879949000,4.653948974609375,-0.018214871126413346,-0.04024469743110239,-0.10590963992332107
1746409900889922000,4.663922119140625,-0.02960486466884613,-0.05887764783911407,-0.08966076250709593
1746409900899895000,4.67389501953125,-0.01914659901857376,-0.061605392302572726,-0.0843280597096309
1746409900909867000,4.683866943359375,-0.024977789390087126,-0.05759769103117287,-0.09580602379646151
1746409900919840000,4.693840087890625,-0.034708325287699696,-0.05985913315713405,-0.09646007639155722
1746409900929813200,4.703813232421875,-0.03784896140098572,-0.05619520382210612,-0.09540952615900895
1746409900939785000,4.713784912109375,-0.049556934851408004,-0.055021191606670614,-0.08439808360538445
1746409900949758000,4.723758056640625,-0.0485462965041399,-0.04473009921684861,-0.08885158328237011
1746409900959731200,4.733731201171875,-0.029153029248118398,-0.03567855855934322,-0.10997947404496371
1746409900969703000,4.743702880859375,-0.03729249656200409,-0.03711903969123959,-0.10052533480278215
1746409900979676000,4.753676025390625,-0.05504793348312378,-0.06081563016436994,-0.08451761833182536
1746409900989649200,4.763649169921875,-0.0672989277690649,-0.04434519155248999,-0.06531270412160083
1746409900999621000,4.77362109375,-0.06281856748461723,-0.03503112750127911,-0.06665445585306734
1746409901009593900,4.78359375,-0.04683890806436539,-0.049261751297116275,-0.08606491170590742
1746409901019567000,4.793567138671875,-0.03819733644723892,-0.05242796024307608,-0.09806700926469639
1746409901029539000,4.8035390625,-0.032711013990640636,-0.053383945793658495,-0.08239220540937967
1746409901039512000,4.813511962890625,-0.020952771657705305,-0.03312237127050757,-0.08144683258435688
1746409901049485000,4.823485107421875,-0.020552958685159682,-0.05194821390211582,-0.09358652111608534
1746409901059457000,4.83345703125,-0.009469254612922667,-0.04231763124763965,-0.0866354598691687
1746409901069430000,4.843429931640625,-0.023390227937698363,-0.052791313662752505,-0.16703334052301944
1746409901079403300,4.8534033203125,-0.08982873948514461,-0.03519851995743811,-0.2646974132763222
1746409901089375000,4.863375,-0.08400514789819717,-0.10190218524709344,-0.2682884965708479
1746409901099348000,4.873347900390625,-0.18571780192255974,-0.10559154128432273,-0.26562674828199667
1746409901109321200,4.8833212890625,-0.07870470340251923,-0.10573394542969762,-0.3663992901783436
1746409901119293000,4.89329296875,0.05261690694391727,-0.1581489731259644,-0.48608869572430846
1746409901129266000,4.903265869140625,0.10565642321407795,-0.14878661295361817,-0.6377094361253083
1746409901139239200,4.9132392578125,0.2397510054051876,0.10448920606561005,-0.10470949775278568
1746409901149211100,4.923211181640625,0.3564402792870998,0.27738829681687055,0.36061230427473784
1746409901159184000,4.933183837890625,0.3096072164416313,0.32685696886293586,0.671731240453571
1746409901169157000,4.9431572265625,0.17288637740015983,0.08752404273934662,0.578704910503514
1746409901179129000,4.953129150390625,-0.14667641586661337,-0.1213985475514084,0.16439676320804283
1746409901189102000,4.96310205078125,-0.39916766037940976,-0.14628792800568044,-0.13784573315186424
1746409901199075000,4.973074951171875,-0.3784510355651378,-0.1534766704659909,-0.14828374146539716
1746409901209047000,4.983047119140625,-0.06120294898152351,-0.13757080693431198,-0.1517347769684158
1746409901219020000,4.99302001953125,0.318813436204195,0.0606931728284806,-0.14125977024589664
1746409901228993300,5.0029931640625,0.533113774010539,0.1373800336025655,-0.05350368601607624
1746409901238965000,5.012965087890625,0.4042413103818893,0.05265227051824331,-0.09261635177652351
1746409901248938000,5.02293798828125,0.04465922593772411,0.07923040777705609,-0.057276003062445666
1746409901258911200,5.0329111328125,-0.26274083584845065,0.014261165064573287,0.04513503132250626
1746409901268883000,5.042883056640625,-0.3971785323888063,-0.22582491751387715,-0.13234100738889537
1746409901278856000,5.05285595703125,-0.3104518505722284,-0.22269947896972297,-0.39426352172493934
1746409901288829200,5.0628291015625,-0.10602876365780829,-0.3196281866531819,-0.731268375114724
1746409901298801200,5.07280126953125,0.09312836555242537,-0.17523732444047926,-0.8573439745664596
1746409901308774000,5.08277392578125,0.24144436531960964,0.1323747726611793,-0.4922714760124683
1746409901318747100,5.0927470703125,0.28295652540326116,0.3439313647173345,0.24868761444613335
1746409901328719000,5.102718994140625,0.027664836516976356,0.20109730349257587,0.8918160068802535
1746409901338692000,5.112692138671875,-0.383825714340806,-0.10559987072125077,1.0273944709535687
1746409901348665000,5.1226650390625,-0.5802700774610042,-0.2572209764484316,0.43685098288990554
1746409901358637000,5.132636962890625,-0.5211234764873981,-0.19520875691063702,0.08606580675505102
1746409901368610000,5.142610107421875,-0.16914426826238632,-0.13510931219160555,-0.04239279710939154
1746409901378583000,5.1525830078125,0.07370470315814018,0.012299801863729953,-0.23219136553956193
1746409901388555000,5.162554931640625,0.1491279006719589,0.0764308401864022,-0.13296334967147558
1746409901398528000,5.172528076171875,0.13737491903603077,-0.10990962367914617,-0.06842979496251791
1746409901408501200,5.182501220703125,-0.09451602051854133,-0.2562939977966249,-0.2137536089100875
1746409901418473000,5.192472900390625,-0.266790988022089,-0.20212993447594343,-0.10885673535903916
1746409901428446000,5.202446044921875,-0.07673837176561356,-0.029970483110845086,-0.030431433419790117
1746409901438419200,5.212419189453125,0.1589794326007366,0.2000699332062155,-0.023324341360945255
1746409901448391000,5.222390869140625,0.2525409288734197,0.3036003772422671,0.06763245230605826
1746409901458364000,5.232364013671875,0.18299509896039962,0.17861198850534854,0.04826159781124442
1746409901468337200,5.242337158203125,-0.05967150163054466,-0.010361965668946503,-0.048634650641027836
1746409901478309000,5.25230908203125,-0.2079571062594652,-0.01257474634759128,0.1320466732179746
1746409901488281900,5.26228173828125,0.0453916318655014,0.05894501398690045,0.22866806851793078
1746409901498255000,5.272255126953125,0.22126959229707716,-0.02924363014101982,0.0416550026204437
1746409901508227000,5.28222705078125,0.12248363937437534,-0.06957242565900087,-0.05458280018940568
1746409901518200000,5.292199951171875,-0.0692161595672369,-0.1455956348925829,-0.054060018424317235
1746409901528173000,5.302173095703125,-0.20397358958125114,0.015307678442820907,-0.15727419958543032
1746409901538145000,5.31214501953125,-0.022965280523896216,-0.043122079498320816,-0.3286505742814392
1746409901548118000,5.322117919921875,0.07220423546731472,-0.050248862638324496,-0.1181865267023444
1746409901558091300,5.33209130859375,0.1471411107689142,0.08870031997710466,0.017539967539533973
1746409901568063000,5.34206298828125,0.049256490600109094,0.0408016737267375,0.20381182314828036
1746409901578036000,5.352035888671875,-0.13638999965190887,-0.10391126004718243,0.11253909539990127
1746409901588009200,5.36200927734375,-0.22652444408535957,-0.07497998379096388,-0.29613603271096944
1746409901597981000,5.37198095703125,-0.23675474619865416,0.06412395099475979,-0.5938552064275369
1746409901607954000,5.381953857421875,-0.11317045210599899,0.09454254319928586,-0.26323238222505896
1746409901617927200,5.39192724609375,0.08617255506515502,-0.0424205801654607,0.26165344247054306
1746409901627899100,5.401899169921875,0.05648235020041466,-0.08199380807578563,0.3678129198359325
1746409901637871900,5.411871826171875,-0.09324410088658332,-0.12702895465381442,0.15708349931892007
1746409901647845000,5.42184521484375,-0.16539105320870875,0.0010198445670306683,-0.34531401471477
1746409901657817000,5.431817138671875,-0.10658055232167243,0.06545782994702458,-0.6019045843051746
1746409901667790000,5.4417900390625,-0.0009317278921604156,0.03022000089250505,-0.17511578042004255
1746409901677763000,5.45176318359375,-0.006688099461793899,-0.07303995563909411,0.271321726786904
1746409901687735000,5.461735107421875,-0.0005424363136291504,-0.012494520718231797,0.005317139902152121
1746409901697708000,5.4717080078125,-0.0685235011279583,-0.10461290551051497,-0.2967547856638208
1746409901707681300,5.481681396484375,-0.17541852622628212,0.014615969851613043,-0.1809036065738648
1746409901717653000,5.491653076171875,-0.07654314145445823,-0.02605477097183466,-0.0877760995379649
1746409901727626000,5.5016259765625,-0.05580430480837822,-0.14687318054772913,-0.13070435523092747
1746409901737599200,5.51159912109375,-0.15865151582062242,-0.1852018882896751,-0.13208875879403204
1746409901747571000,5.521571044921875,-0.17870587733387946,-0.014774959805607795,0.053078277377970516
1746409901757544000,5.5315439453125,0.027998598515987395,0.04368358583860099,-0.05344031562339514
1746409901767517200,5.54151708984375,0.15987141300439833,-0.002899666964262724,-0.17368885288946329
1746409901777489200,5.5514892578125,-0.07703063271045685,-0.09561996317245065,-0.12546645457744598
1746409901787462000,5.5614619140625,-0.22617256190776824,-0.09046374945305287,-0.09861348243262619
1746409901797435100,5.57143505859375,-0.19657588054537772,0.003573839898779988,-0.21074622552134095
1746409901807407000,5.581406982421875,-0.09415361694693565,0.0421147290866822,-0.0013577347518876194
1746409901817379800,5.5913798828125,0.1983890674471855,-0.027897330098599193,-0.01874484981726855
1746409901827353000,5.60135302734375,0.3086187899261713,-0.08014803407862782,-0.0636433644035831
1746409901837325000,5.611324951171875,0.082034140086174,-0.028437574455142018,0.0037244638832286
1746409901847298000,5.621298095703125,-0.06305705241560935,-0.013424714240431785,-0.028063553510978816
1746409901857271000,5.63127099609375,-0.0037350948750972746,-0.051230713282525535,-0.125343778045848
1746409901867243000,5.641242919921875,0.07400631645321845,0.018435382009297608,-0.07166402764339
1746409901877216000,5.651216064453125,0.11004676712751388,0.0471394253809005,-0.02200027141664177
1746409901887188500,5.6611884765625,0.0035901334464550016,-0.008848200105130672,-0.09124076170753687
1746409901897160200,5.67116015625,-0.1575993764191866,-0.11160415263734758,-0.18836031578797846
1746409901907133400,5.681133544921875,-0.264786077940464,-0.1160457152813673,-0.14114903074726462
1746409901917106400,5.6911064453125,-0.2004278797984123,-0.019502207523211836,-0.03591580138131976
1746409901927078100,5.701078125,0.016004209339618682,-0.06537307427302003,-0.20602549887606872
1746409901937051400,5.711051513671875,-0.017571897047758103,-0.09420892733074725,-0.28046606029439713
1746409901947024400,5.7210244140625,-0.11902502335309982,-0.05285385750494897,-0.22254483639728276
1746409901956996000,5.73099609375,-0.19576105703115462,-0.08990618863552809,-0.2474928151709959
1746409901966969300,5.74096923828125,-0.3597007423877716,-0.15475421612113713,-0.4049274660151452
1746409901976942300,5.7509423828125,-0.31033669975996014,-0.056392041568458076,-0.3816379585055634
1746409901986914300,5.760914306640625,0.03269230929017067,-0.0673819298774004,-0.1063247326633893
1746409901996887300,5.77088720703125,0.21278116541504857,-0.07798230741210281,0.013279990273807198
1746409902006860300,5.7808603515625,0.18963292953968047,-0.03612849428392947,0.07844784256462008
1746409902016832300,5.790832275390625,0.03828618377447128,-0.017842969074100254,0.08593107445947826
1746409902026805500,5.800805419921875,-0.037871173232793806,0.0004214402824640274,0.046276506674941625
1746409902036778200,5.8107783203125,0.03973813614845276,0.0654795303221792,-0.03912351138144731
1746409902046750200,5.820750244140625,0.07090133617520332,-0.003117182172462344,0.1503642923328094
1746409902056723500,5.830723388671875,-0.03257189778089523,-0.10418598533533513,0.18516614112285895
1746409902066696400,5.840696533203125,-0.1944154876410961,-0.05888758471123874,0.001604841380752623
1746409902076668200,5.850668212890625,-0.10918810447156428,-0.174706286303699,0.1831710765818134
1746409902086641400,5.860641357421875,-0.17433599168658256,-0.34602388001717627,0.6807587426483631
1746409902096614400,5.870614501953125,-0.24044892454147337,-0.0441764839220792,-0.17244177543781697
1746409902106586000,5.880586181640625,0.34359131910800933,0.45468101941719646,-1.3560546898461878
1746409902116559400,5.890559326171875,0.9941548299789428,0.14671185250617563,0.7341882811494171
1746409902126532400,5.900532470703125,0.3845920225381851,-0.0926850056990981,0.5088921367499977
1746409902136504300,5.91050439453125,-0.20436638829112053,-0.019976400906220076,-0.06812334109554066
1746409902146477300,5.920477294921875,-0.18869126477539538,0.015380597548559307,-0.33304376773908734
1746409902156450300,5.9304501953125,-0.053235915625095366,-0.0933162162747234,-0.11754603684172034
1746409902166422300,5.94042236328125,0.020875614768266677,-0.06721614485643804,0.05085988894244656
1746409902176395500,5.9503955078125,0.03272738060355186,0.009120221979543566,-0.04020308677908033
1746409902186368300,5.9603681640625,0.010775076514482498,0.14112696504592895,0.08077436754973605
1746409902196340200,5.97034033203125,0.1124292783498764,0.21784867793768642,-0.06955874419352039
1746409902206313500,5.9803134765625,0.07912731272876262,0.18023089494407177,-0.25411133826160803
1746409902216286500,5.990286376953125,-0.20926643529236316,0.02916742309965193,-0.05420503465188667
1746409902226258200,6.000258056640625,-0.5485363840699196,-0.03928454716205597,0.13367275831615552
1746409902236231400,6.0102314453125,-0.635340222775936,-0.06818089823536574,-0.0866480088234879
1746409902246204400,6.020204345703125,-0.48887598835527896,-0.12458280361071228,0.03222138557648286
1746409902256176000,6.030176025390625,-0.29604981573224065,-0.06640000616796314,0.23808471616078167
1746409902266149400,6.0401494140625,-0.20482348440885542,0.07012596788853406,0.2743032998809591
1746409902276122400,6.050122314453125,-0.07560907547473907,0.16968999251164496,0.3101803036218509
1746409902286094300,6.06009423828125,-0.027692309045791626,0.17445472269542514,0.42980592321660366
1746409902296067300,6.0700673828125,-0.08870353484749793,0.17903876255005596,0.546931213895604
1746409902306040300,6.080040283203125,-0.2045803233027458,0.10667524486780167,0.3156188048813492
1746409902316012300,6.09001220703125,-0.24767946031689642,0.10073328759819268,0.069890624762699
1746409902325985500,6.099985595703125,-0.15014730684757233,0.2053188667103648,-0.18209829625114798
1746409902335958300,6.109958251953125,0.2588204475343227,0.1756946032213047,-0.3062525357188657
1746409902345930200,6.11993017578125,0.8572714938521385,0.10973872409164905,-0.1764850594792515
1746409902355903500,6.129903564453125,1.5006383712172506,0.3748161861941218,-0.05718253435902297
1746409902365876500,6.13987646484375,2.320494618910551,0.889613382269442,0.33709092423804105
1746409902375848200,6.14984814453125,3.2290725216299294,1.5702151807904243,1.1503327952928841
1746409902385821400,6.159821533203125,3.784643626642227,2.284336533205956,1.3609072444438934
1746409902395794400,6.16979443359375,3.427574401801824,2.6998823508039114,1.9085916878595948
1746409902405766100,6.17976611328125,2.0990537616997957,2.9028622531726955,1.890046415735036
1746409902415739400,6.189739501953125,0.592861263486743,2.6480820209398863,0.7246545829981565
1746409902425712400,6.19971240234375,-0.6008510931968689,2.1949615288376805,-0.3467781324505806
1746409902435684000,6.20968408203125,-1.5379992568403482,2.1620576226234434,-1.0747481236070393
1746409902445657300,6.2196572265625,-2.2072598693966863,2.096286488943547,-1.635951681548357
1746409902455630300,6.22963037109375,-2.1331483390033243,1.8426352607406675,-1.8617326137900352
1746409902465602300,6.239602294921875,-1.2836211756676434,1.985164639930427,-1.3008297923609613
1746409902475575300,6.2495751953125,-0.17418460051715373,1.9344198104687034,-0.5228782112002373
1746409902485548300,6.25954833984375,1.0851637191593646,1.1289240965612233,-0.16695494152456522
1746409902495520300,6.269520263671875,2.1151099934875965,0.7998201524890959,-0.033304303708672524
1746409902505493500,6.279493408203125,2.4002315879702567,1.0058679179958998,0.28420038798451425
1746409902515466200,6.28946630859375,1.136064469835162,0.6757806619748473,0.5159072031438351
1746409902525438200,6.299438232421875,-0.6526748039364815,0.12880889687314628,0.24181787480711936
1746409902535411500,6.309411376953125,-2.190676983386278,0.42018246442265805,0.05200900417864322
1746409902545384400,6.319384521484375,-2.505254973977804,0.46366965090632434,0.4004851727187633
1746409902555356200,6.329356201171875,-1.409405610153079,0.44991804279908537,1.2290338454335927
1746409902565329400,6.339329345703125,0.1448410171329975,0.7989581288322806,2.3927239888191223
1746409902575301400,6.34930126953125,1.4727742127358912,1.1312974746290594,2.751303033700585
1746409902585274000,6.359274169921875,1.1048977626770735,1.764610064034909,1.8379998560249804
1746409902595247400,6.369247314453125,1.2574930471986532,1.3048939730599523,0.6382499727427959
1746409902605219300,6.37921923828125,1.7263608512699602,1.5053642306953667,-0.2337853749990463
1746409902615192300,6.3891923828125,0.7326812375873327,2.3998460957840084,-0.7562129198223352
1746409902625165300,6.399165283203125,-1.3337737383246422,2.7498645253300666,-1.281348554560542
1746409902635137300,6.40913720703125,-1.065205803757906,1.6583816861517726,-1.467362709081173
1746409902645110300,6.4191103515625,-0.1378267544567585,0.686077891844511,-1.111256191793084
1746409902655083500,6.42908349609375,0.07062836445271968,0.43890141261368987,-0.8053349703878164
1746409902665055200,6.43905517578125,-0.22507103040665385,0.5712430136576294,-0.480748211479187
1746409902675028200,6.4490283203125,-0.9855597278520465,0.44093321070224045,-0.35298283230960364
1746409902685001500,6.45900146484375,-1.9290005618989468,-0.20644918591454625,-0.8832961619466543
1746409902694973200,6.46897314453125,-2.8194653003007173,-0.5158814841806888,-1.810512129640579
1746409902704946200,6.4789462890625,-3.4135961453318595,-0.6403565896332264,-2.017652658820152
1746409902714919400,6.48891943359375,-3.627186289042234,-0.32715397904813287,-1.3008400214940308
1746409902724891400,6.498891357421875,-3.4617803305253383,0.21122896753698586,-0.34915421393215657
1746409902734864100,6.508864013671875,-3.1356428350433707,0.1603659185230732,0.710386403670907
1746409902744837400,6.51883740234375,-2.581414376811683,-0.534792228616774,1.5594056174844502
1746409902754809300,6.528809326171875,-1.6992063023626804,-1.446644038440287,1.975128691345453
1746409902764782300,6.5387822265625,-0.8181263551607727,-2.122866891224682,2.3080261824816466
1746409902774755300,6.54875537109375,-0.5341198823131621,-2.3671409270122648,2.6063094563543796
1746409902784727300,6.558727294921875,-0.4930673025652766,-2.6323598434120417,3.306388401022553
1746409902794700300,6.5687001953125,-0.5256386158242822,-2.8217846831589934,4.083890777111053
1746409902804673500,6.578673583984375,-0.5070549113854765,-2.9233693268895147,4.595843105149269
1746409902814645200,6.588645263671875,-0.24384251250252126,-2.8097295037060976,4.794052139854431
1746409902824618200,6.5986181640625,0.1099031208731234,-2.3171873940587044,4.4437791510254145
1746409902834591500,6.608591552734375,0.4889304950214922,-2.0157032783180475,3.800398829656839
1746409902844563200,6.618563232421875,0.8297733922041952,-1.8212573955386877,3.1536715359479186
1746409902854536200,6.6285361328125,1.2158019503515214,-1.4022329420447348,2.479042089834809
1746409902864509400,6.638509521484375,1.6637012737393377,-0.9047399319916963,1.7105501186758278
1746409902874481200,6.648481201171875,1.9670716416180132,-0.6436258205622434,1.0525339537113905
1746409902884454000,6.658453857421875,2.143181072717905,-0.4875140523523092,0.7862725425213575
1746409902894427100,6.66842724609375,2.0993045215904713,0.09634615855515002,1.0187924276292324
1746409902904398800,6.67839892578125,1.9934592978060244,1.4011714502930641,1.5599018765687942
1746409902914371800,6.688371826171875,2.3241525568962094,3.360464274603128,2.889543045133352
1746409902924345000,6.698344970703125,3.256379046228528,5.350090277856588,4.452303233742714
1746409902934316800,6.70831689453125,4.8216006565153595,6.378912516590953,4.360807437828183
1746409902944290000,6.7182900390625,6.065016078522801,5.807525418287515,2.2013345710009333
1746409902954263000,6.728262939453125,6.57142363191545,4.864463062164187,0.17424831340312957
1746409902964235000,6.738235107421875,6.063348437571525,4.8224704250872135,-0.8959832095623016
1746409902974208000,6.7482080078125,4.73786146607697,4.930803958556056,-1.2435662286549807
1746409902984181000,6.758180908203125,3.470871107214689,4.835651978221535,-1.0436679256886243
1746409902994153000,6.768153076171875,2.626379599958658,5.051131881201267,-0.8504577221840619
1746409903004126000,6.7781259765625,2.318739884197712,5.373536619895696,-0.8738058645457029
1746409903014099000,6.788098876953125,2.395937690168619,5.478634240183234,-0.9496732986956834
1746409903024071000,6.79807080078125,2.826822677326202,5.4534793406605715,-1.143612400996685
1746409903034044000,6.8080439453125,3.302674933457374,5.299589924675226,-1.6850690559387207
1746409903044017200,6.81801708984375,3.3654268654465676,4.795428688904643,-2.3678239408403634
1746409903053988900,6.82798876953125,3.2917432050764557,4.251608227440714,-3.7881495889365673
1746409903063961900,6.8379619140625,3.454845855087042,4.049193557739257,-4.921455115452408
1746409903073935000,6.84793505859375,3.2956255994677544,4.33323027959466,-4.807428631038963
1746409903083906800,6.85790673828125,3.1801100455403324,4.716918046769499,-3.657749769610166
1746409903093880000,6.867880126953125,3.519720770579576,4.681446920415759,-2.6697888258352873
1746409903103853000,6.87785302734375,3.787807059109211,4.5003281367212535,-1.7375237580582499
1746409903113825000,6.887824951171875,4.289019381946325,4.334978584566712,-0.9133078538507222
1746409903123798000,6.897798095703125,5.040847803074121,4.061989326426387,0.28349399328082797
1746409903133770000,6.90777001953125,5.873715508031845,3.132189771980047,0.9963111312299966
1746409903143743000,6.917742919921875,6.634781713104248,1.7648317439615726,1.0883309510186314
1746409903153716000,6.927716064453125,6.882696151220798,0.3389683354824781,1.0664737778671085
1746409903163688000,6.93768798828125,5.956203237104416,-0.6701794809669256,1.6370155113875866
1746409903173661000,6.947660888671875,4.382248285263777,-0.9592588731646537,2.791326416531205
1746409903183634000,6.957634033203125,2.842356638805568,-1.6894038702726364,3.5126205831855533
1746409903193606000,6.96760595703125,1.310299046973884,-3.427458081945777,3.5959079382032155
1746409903203579000,6.977578857421875,-0.27331629813760516,-5.754482979407906,3.5153137677922843
1746409903213551900,6.9875517578125,-2.0010539907187224,-8.568823776301741,3.780788997040689
1746409903223524000,6.997524169921875,-3.393520156508684,-11.121885042071343,5.048882640969753
1746409903233496800,7.007496826171875,-5.549824914693832,-13.520960445743798,7.0061793230265375
1746409903243470000,7.017469970703125,-8.459111940217017,-15.735214704072474,8.910372775927186
1746409903253442000,7.027442138671875,-9.295950302371383,-15.562850889241695,10.137018264919519
1746409903263415000,7.0374150390625,-10.779569149726628,-15.414185929906367,10.219099166756868
1746409903273388000,7.047387939453125,-11.749902374613285,-14.337477904403208,8.95724967791438
1746409903283360000,7.057360107421875,-12.403435256683826,-12.94360713251233,7.258198273852467
1746409903293333000,7.0673330078125,-12.853348769438266,-11.854831068074702,5.287873767918348
1746409903303306000,7.077305908203125,-13.116355562746524,-10.855576869130134,3.5826325693055985
1746409903313278000,7.08727783203125,-12.888054172116517,-9.921482832360267,2.5365663503035902
1746409903323251000,7.0972509765625,-12.003446927571296,-8.895110324865579,2.374588758800179
1746409903333224000,7.107223876953125,-10.888300742602347,-7.577395156416297,2.9664193640649317
1746409903343196000,7.11719580078125,-9.609795302513241,-6.261017374050617,3.1927737122803923
1746409903353169000,7.1271689453125,-9.402696858909726,-4.960568397700786,3.6896409916505215
1746409903363142000,7.137141845703125,-8.835749788880348,-3.1176690791964528,3.5585610811054704
1746409903373113900,7.14711376953125,-8.624786486542224,-1.8613602733463048,3.6277950685903426
1746409903383086800,7.1570869140625,-7.943107706439495,-0.5055529823899269,3.840901812697947
1746409903393060000,7.16706005859375,-6.756795396879315,1.3057996897280215,3.908927593436837
1746409903403032000,7.177031982421875,-5.3453018745362755,2.202917456278205,3.361432827374339
1746409903413004800,7.1870048828125,-3.210202985987067,1.7067536490023134,2.6172303710803386
1746409903422978000,7.19697802734375,-0.7143938857465982,1.417410052910447,2.2819100367113947
1746409903432950000,7.206949951171875,1.8501093960136175,1.6388912421315907,2.2348104318842292
1746409903442923000,7.216923095703125,3.245561884137988,1.6529320424437521,3.0600261607840658
1746409903452896000,7.22689599609375,4.189753536552191,2.363139582416415,5.134571211910248
1746409903462868000,7.236867919921875,5.476044223690033,3.715190151187777,7.0663014910340305
1746409903472841000,7.246841064453125,6.762174167308211,4.170141658109427,7.214466684153676
1746409903482813000,7.25681298828125,7.794415859097242,3.746658471640944,6.278266615015268
1746409903492786000,7.266785888671875,7.041316687381267,3.4946231542021033,5.270944260427355
1746409903502759000,7.276759033203125,5.351884760057926,3.3400516011714934,3.9691307177260517
1746409903512731100,7.286731201171875,3.6815731282681226,3.8736984591454267,3.0750618173524735
1746409903522704000,7.296703857421875,1.990179545482993,5.296368624541163,2.9190198995083567
1746409903532676900,7.3066767578125,1.3149568096518516,6.213679868814348,2.3671409270122648
1746409903542649000,7.316649169921875,1.0879323070898652,6.103296417078376,1.3269003454238175
1746409903552622000,7.3266220703125,0.8408774084120988,6.367968513250351,1.3783987697318196
1746409903562594800,7.3365947265625,0.5737058966398239,6.604273762115835,1.8987322648853062
1746409903572567000,7.346567138671875,-0.4359425628080964,6.777709590092301,1.9820716423511504
1746409903582540000,7.3565400390625,-1.9164441549256443,6.86003306851387,1.8004519233971834
1746409903592513000,7.366512939453125,-3.1604695255249737,7.0169321877092115,1.0398428144425154
1746409903602485000,7.376485107421875,-4.494203516361117,6.633500441122055,1.2615326779782772
1746409903612458000,7.3864580078125,-3.8377012630909677,6.253452491754293,0.5265028314381838
1746409903622431000,7.396430908203125,-3.2232237956017253,5.1154345497637985,-1.5073212099820374
1746409903632403000,7.40640283203125,-1.753847993132472,4.28365639360845,-3.0478742429584265
1746409903642376000,7.4163759765625,-0.020803718575835226,3.543744035723805,-3.4290737004488703
1746409903652349000,7.426348876953125,1.8353025797650218,2.59452140340507,-3.2724212494909763
1746409903662321200,7.436321044921875,3.2670980086416006,1.7419272537142036,-3.000304098010063
1746409903672294000,7.4462939453125,3.886711962236464,0.9275631736963987,-2.4573984133034945
1746409903682267000,7.456266845703125,3.606071020299196,0.4041735058426857,-2.1846207520872354
1746409903692239000,7.466239013671875,3.4169179832309484,0.27413082939088346,-1.9649954198658466
1746409903702212000,7.476212158203125,2.3259563914477823,0.06650222443342209,-1.606639077824354
1746409903712184800,7.486184814453125,0.2893646388798952,-0.13519582143127917,-0.5978448971182108
1746409903722157000,7.496156982421875,-1.3158037818700075,0.20026421366930006,0.23723405414819715
1746409903732130000,7.506130126953125,-2.754842898264527,1.3196031741529701,-0.7957347828716039
1746409903742103000,7.51610302734375,-3.678282854551077,3.067330638578534,-2.4263924496650695
1746409903752075000,7.526074951171875,-3.713088794994354,4.416356891092658,-3.51685047584027
1746409903762048000,7.536048095703125,-3.924636619222164,4.75336006398201,-2.886050526842475
1746409903772021000,7.54602099609375,-2.9348358927994966,4.945022453522682,-0.44901744069755073
1746409903781993000,7.555992919921875,0.18789456143975256,5.3110886392891405,1.1192074430584906
1746409903791966000,7.565966064453125,2.4971634374588727,6.619243367710709,1.9139663666352629
1746409903801939000,7.57593896484375,0.8808025915652513,5.311643350562453,1.9841917032450436
1746409903811911000,7.585910888671875,0.23178747918009757,4.3626577418699855,1.1918068153232335
1746409903821884000,7.5958837890625,-0.900395180785656,3.593719780509174,2.2971917769953607
1746409903831856000,7.605856201171875,-2.9222943911343813,0.014079671017825602,1.1722478361114859
1746409903841829000,7.6158291015625,-4.885712186419964,-0.7950520613044499,-0.5608002378374338
1746409903851801900,7.6258017578125,0.35252982784509657,-0.45144174523502584,-2.487685999539494
1746409903861774000,7.635774169921875,3.7545115232288837,-2.5575556545794007,-5.108002353936434
1746409903871747000,7.6457470703125,4.809969839954376,-5.046815187045931,-4.475201294249296
1746409903881720000,7.655719970703125,4.48869790468216,-5.614497001090646,-0.9231582167357206
1746409903891692300,7.6656923828125,-0.07196808862388133,-3.9654175424218177,1.3940741855084895
1746409903901665300,7.675665283203125,-1.7181681924641132,-2.5949723620429634,1.0835241352587939
1746409903911638300,7.68563818359375,-0.20418518650531767,-2.207032051990181,0.25085253739506
1746409903921610200,7.6956103515625,2.873521300137043,-0.5207190604049712,-0.24456600447148083
1746409903931583200,7.705583251953125,2.1458447389692066,1.2274977219074963,0.5685182648688555
1746409903941556200,7.71555615234375,0.10114566779136658,2.2610436281628905,1.2312491833955048
1746409903951528200,7.725528076171875,-1.429424315831065,2.117266586999595,0.85670918379426
1746409903961501200,7.735501220703125,-1.1925532497763633,1.2320105231568217,0.08763590561598539
1746409903971474200,7.74547412109375,-0.2817921577990055,0.4395788004186004,0.1682017267152667
1746409903981446100,7.755446044921875,-0.2604828277885914,0.021680793671309945,0.343605055372417
1746409903991419100,7.765419189453125,-1.2124632343828678,-0.5935889932394027,0.16079408080726862
1746409904001392000,7.77539208984375,-2.6371318801194428,-0.8940142475768923,0.2107519976750016
1746409904011364000,7.785364013671875,-2.572539288699627,-0.419267833795771,0.5744345031753182
1746409904021337300,7.79533740234375,-2.224812477222085,-0.4010471539830789,0.3070163231655955
1746409904031310000,7.80531005859375,-1.5684768126904964,-0.54505142803099,-0.07265490184426307
1746409904041282300,7.8152822265625,0.33758535669147965,-0.26079814081545916,-0.6981301486879586
1746409904051255300,7.82525537109375,2.3721786289185283,-0.3116653545478359,0.10481208134442567
1746409904061227000,7.83522705078125,6.369035850220918,-1.0809573535107075,-0.2554763978034258
1746409904071200300,7.8452001953125,8.343209432798623,-0.2806534726252779,-0.1677913923487067
1746409904081173200,7.85517333984375,-3.462991752141714,2.4955934116631746,0.23459362264201045
1746409904091145200,7.865145263671875,0.46814475049376486,0.10288575292434543,1.0543336966097354
1746409904101118200,7.8751181640625,1.358798289465904,0.6385463984061032,-0.2395323942184448
1746409904111091200,7.88509130859375,0.297908595341444,0.2823912927359342,0.5019172562360763
1746409904121063200,7.895063232421875,-0.2853846293330192,0.1450513902143575,0.01484466404095292
1746409904131036200,7.9050361328125,-0.22839257604479787,0.0135723242838867,-0.30702216838449237
1746409904141009200,7.915009033203125,-0.24928221933841704,-0.34890524413976814,-0.21862696883380411
1746409904150981000,7.924981201171875,-0.13780980332195758,-0.47357846598029135,-0.28552900623977184
1746409904160954000,7.9349541015625,0.0660614949285984,-0.356039370336011,-0.3037378860168159
1746409904170927400,7.94492724609375,0.22758944296836853,-0.07575425609908998,-0.28769217562302946
1746409904180899000,7.954899169921875,0.3495475971639156,0.0039178675634786485,0.05401917495727539
1746409904190872300,7.964872314453125,-0.07977554750442505,-0.19155430779000743,0.38065804409012194
1746409904200845300,7.97484521484375,-0.28940613993406294,0.09305981209455057,0.1703985061071813
1746409904210817000,7.984817138671875,0.1127776533961296,0.44161374031230805,0.11556363085284828
1746409904220790300,7.994790283203125,0.05580547385215759,0.4482287014726549,0.5046652397699654
1746409904230762200,8.00476220703125,-0.0553214897274971,0.68506345410496,0.7005515306159854
1746409904240735200,8.0147353515625,0.2882090391039848,0.8323987722717225,0.7315459499470889
1746409904250708200,8.024708251953125,0.5153343716919422,0.6761332748048007,0.6203690097458661
1746409904260680200,8.03468017578125,0.766720869833231,0.3563369650430977,0.1483718216076493
1746409904270653200,8.044653076171874,1.754088231629133,-0.20724314930383114,-0.996214246726781
1746409904280626200,8.054626220703126,2.463573887068033,-0.7516993879206478,-1.4222313355870544
1746409904290598100,8.06459814453125,2.441697570824623,-0.6976042981829493,-1.4951159545339643
1746409904300571100,8.074571044921875,2.328510752105713,-0.1656837890775874,-1.1325298659682272
1746409904310544100,8.084544189453124,1.7075778248667717,0.4157441897142678,-0.5175833196625114
1746409904320516000,8.09451611328125,1.2167793440163135,1.1829022088557481,-0.2990907908633351
1746409904330489000,8.104489013671875,1.0578402434259653,1.3097588026173412,-0.2869248445123434
1746409904340462000,8.114462158203125,1.2254635857313871,1.4809167487896977,-0.09850012171864508
1746409904350434300,8.124434326171874,1.7831670265972612,1.9086890107542276,0.07706862663328647
1746409904360407000,8.134406982421876,2.0682780996859074,2.4138556241750715,-0.1553217868760228
1746409904370380300,8.14438037109375,1.8414461970865725,3.1852541304305193,-0.4209752953007817
1746409904380352300,8.154352294921875,1.0662065052330494,3.9972649253204464,-0.8119242856502532
1746409904390325200,8.1643251953125,0.942684170460701,4.604074342399835,-1.2652245182335375
1746409904400298200,8.17429833984375,1.157653785830736,5.15655566470325,-1.4557511817425488
1746409904410270200,8.184270263671875,1.2471078467845915,4.9113376260638235,-1.9899135880231855
1746409904420243200,8.1942431640625,1.16710199765563,3.812011818300187,-2.2028841385304925
1746409904430215200,8.204215087890624,1.279183485481143,2.9825936692744492,-2.1146412069320677
1746409904440188200,8.214188232421876,1.5413725326657295,2.4453365118488666,-1.817920360070467
1746409904450161200,8.2241611328125,2.3692238707661626,2.280258470112085,-1.480738323482871
1746409904460133000,8.234133056640625,2.992007394307852,1.9422440743535756,-1.1943705283313988
1746409904470106000,8.244106201171874,3.379249054571986,1.4374991934761405,-1.4382172786176204
1746409904480079000,8.2540791015625,3.1204969960987565,0.8865151239931582,-1.4878864416718482
1746409904490051300,8.26405126953125,2.3244921641141176,0.33169483734816313,-1.4037129514694213
1746409904500024000,8.274024169921875,1.5460393554329872,0.1882221859589219,-1.0766191781759262
1746409904509997000,8.2839970703125,0.6618816082209348,0.2801151644974947,-0.8445341773539781
1746409904519969300,8.29396923828125,-0.27444764025509355,0.5115799875944853,-0.5480623368173837
1746409904529942300,8.3039423828125,-0.16754910802543163,1.1947083819836377,0.5441635758131742
1746409904539915000,8.3139150390625,0.6517360617816448,1.3272756084769963,2.234116896662116
1746409904549887200,8.32388720703125,2.242363331481814,0.9075573274999856,3.952773749426007
1746409904559860200,8.333860107421875,4.003165966057777,0.9737409875035286,5.267600210696458
1746409904569833200,8.343833251953125,4.62983948277533,1.1880430788755416,5.8286775119096035
1746409904579805200,8.35380517578125,4.0294396404773,1.0698445694744587,5.373783872655034
1746409904589778200,8.363778076171876,3.1141783144712445,0.9323299497067927,4.803986089369654
1746409904599751200,8.373751220703125,2.2484318377405406,1.1744985376477242,4.6858343417197466
1746409904609723100,8.38372314453125,1.1612599936291574,1.5571932021319865,4.741500699362159
1746409904619696000,8.393696044921874,-0.1664808942720294,1.5947662692010403,4.560550257971882
1746409904629668400,8.40366845703125,-1.1658140036717057,1.6108108105510472,4.738329083588719
1746409904639641300,8.413641357421875,-1.4972496055617928,1.5227239462971687,5.25213609958291
1746409904649614000,8.423614013671875,-1.3169266484200954,1.4636778830885886,5.403778613424301
1746409904659586300,8.43358642578125,-1.0572542602315544,1.5357850879222155,4.948080672049522
1746409904669559300,8.443559326171876,-0.9014762540206313,1.6478408567845821,4.423867412853241
1746409904679532300,8.4535322265625,-0.7442799054443836,1.7870944291740656,3.9916289652600883
1746409904689504300,8.463504150390625,-0.4248516983427107,1.8726760326087473,3.601751695795357
1746409904699477200,8.473477294921874,0.18909750748872756,1.753349980482459,3.155917853569984
1746409904709450200,8.4834501953125,0.990715503180027,1.5819173090219496,2.7553964404940605
1746409904719422200,8.493422119140625,1.535625513446331,1.2160551213949917,2.366573063996434
1746409904729395200,8.503395263671875,1.769095392755419,0.654051937508583,1.9319325236976146
1746409904739368200,8.5133681640625,1.85868374761343,0.11967618073821067,1.5528227319627999
1746409904749340400,8.52334033203125,1.7970307167768478,-0.1981149266809225,1.3726099571973085
1746409904759313200,8.533313232421875,1.6540882267415522,-0.40581250522136686,1.3615332673877476
1746409904769286100,8.5432861328125,1.5236486599266528,-0.860603268623352,1.2900561771512031
1746409904779258400,8.55325830078125,1.3514111018240451,-1.5753338389784097,1.136669157730043
1746409904789231400,8.5632314453125,1.1181190632998943,-2.291543834236264,0.9372264895766973
1746409904799204000,8.5732041015625,0.8816729446589946,-2.9384125822424885,0.5725523426905275
1746409904809176300,8.58317626953125,0.8040729876279831,-3.338075917184353,0.47015988970845934
1746409904819149300,8.5931494140625,0.670007047009468,-3.4669133094996214,0.4869330375939607
1746409904829121000,8.60312109375,0.3200081989467144,-3.4122301176756618,0.2982414805576205
1746409904839094300,8.61309423828125,0.22486440191864965,-3.197335905629396,0.43030455692112446
1746409904849067300,8.6230673828125,0.15655247944844886,-3.063427201399207,0.4877776717245578
1746409904859039200,8.633039306640624,-0.17871639872789383,-2.9628613793224097,0.08350392037779092
1746409904869012200,8.64301220703125,-0.3150841500153765,-2.622603004029393,-0.11411036330461502
1746409904878985200,8.652985107421875,-0.3710334893176332,-2.1803069805413484,-0.09449936164468527
1746409904888957700,8.662957763671875,-0.4111211330235004,-1.8323077818632125,-0.11845745259821414
1746409904898930700,8.6729306640625,-0.49062195523977276,-1.5791858382314443,-0.2942266919583082
1746409904908903700,8.682903564453126,-0.742884067171812,-1.3352829738438128,-0.4773012858957052
1746409904918875600,8.692875732421875,-1.1165058559495955,-1.1678104381859302,-0.6143298757120966
1746409904928848600,8.7028486328125,-1.4736708693146705,-1.011841877838969,-0.5378749970629811
1746409904938822000,8.71282177734375,-1.689443617761135,-1.0124304913818836,-0.3381622797966003
1746409904948793600,8.722793701171875,-1.691263818925619,-1.0823702890485525,-0.09578706336766481
1746409904958766600,8.7327666015625,-1.592339480445534,-1.1972136428028344,0.30213030468970536
1746409904968739800,8.74273974609375,-1.4815584076941013,-1.505516790908575,0.6901601927220821
1746409904978711600,8.752711669921876,-1.38700497777462,-1.9444927300631998,0.9252467134475707
1746409904988684500,8.7626845703125,-1.1966495791792868,-2.335086038842797,1.1992936639472842
1746409904998657800,8.77265771484375,-0.9311609059274196,-2.479986092686653,1.5848057239398359
1746409905008629800,8.782629638671875,-0.6126642805874347,-2.4145851074934006,2.0502377083435652
1746409905018602500,8.7926025390625,-0.3622445816516876,-2.317730414894223,2.3900120995119214
1746409905028575700,8.80257568359375,-0.23356559476852415,-2.345099483335018,2.544819799385965
1746409905038547700,8.812547607421875,-0.09554244095683097,-2.4989316161751747,2.605176360671222
1746409905048520700,8.822520751953125,0.04046295242481865,-2.6159067212611435,2.58592425545156
1746409905058492700,8.83249267578125,0.1537099860315211,-2.6002275060921907,2.4301500486329197
1746409905068465700,8.842465576171875,0.2422995208442211,-2.312453935796022,2.48156810118109
1746409905078438700,8.852438720703125,0.32082009985148907,-2.233396765694022,2.455097150623798
1746409905088410600,8.86241064453125,0.3552478546321392,-2.4863094504892826,2.2123554389700293
1746409905098383600,8.872383544921876,0.4288426676750183,-2.4987241109043357,2.2316353089794516
1746409905108356600,8.882356689453125,0.516899063725397,-2.42918880238533,2.358745439110696
1746409905118328800,8.892328857421875,0.5368037876348942,-2.4793752673119305,2.515579968637228
1746409905128301600,8.902301513671874,0.5075801773685962,-2.604180627632141,2.657430864043534
1746409905138274600,8.912274658203126,0.5135737917602062,-2.735916663998365,2.7152555687636135
1746409905148246800,8.922246826171875,0.46283495364785193,-2.6523645205646753,2.8426804639324543
1746409905158219500,8.932219482421875,0.20807642179019747,-2.625895031312108,2.7285923124596474
1746409905168192500,8.942192626953124,-0.1561433323919773,-2.5202076284378765,2.4324834600165484
1746409905178164700,8.952164794921876,-0.5547890877891332,-2.2310084092527624,2.028085497768223
1746409905188137700,8.9621376953125,-0.8638058640569448,-2.006707486435771,1.5283242505222558
1746409905198109700,8.972109619140625,-1.0284516518563032,-1.9115870702832936,1.0184452216267585
1746409905208082700,8.982082763671874,-1.0531710825711489,-1.7708517349034547,0.6991238359004258
1746409905218055700,8.9920556640625,-0.9174754949241876,-1.5221230577945708,0.4927426006555557
1746409905228027600,9.002027587890625,-0.8303706274449825,-1.2465654104709625,0.29844694000184535
1746409905238000600,9.012000732421875,-0.8020195622295141,-0.8436082946807145,0.15515607492029665
1746409905247973600,9.0219736328125,-0.8946884935766458,-0.44528760651946064,-0.1567319459348917
1746409905257945900,9.03194580078125,-1.0634551606982945,-0.21935820571780204,-0.6055079790920018
1746409905267918600,9.041918701171875,-1.3429261820733547,-0.1496253288000822,-0.9499474394619465
1746409905277891600,9.0518916015625,-1.5510264961957931,0.03423193994760513,-1.187790565419197
1746409905287863800,9.06186376953125,-1.6978952197641133,0.138859020113945,-1.1822335158139468
1746409905297836800,9.0718369140625,-1.6344424460291862,0.22596330307126045,-1.641984531971812
1746409905307809500,9.0818095703125,-1.505770473408699,0.6002735855698585,-2.4100158998817203
1746409905317781800,9.09178173828125,-1.5336860698163508,0.717842564895749,-1.805353723964095
1746409905327754800,9.101754638671874,-1.5066495943307876,0.7508189518243074,-1.5329168390095234
1746409905337727700,9.111727783203126,-1.6062135458886622,0.5951105037182569,-2.005264886412024
1746409905347699700,9.12169970703125,-1.6253355949878692,0.43565293221175666,-2.119516119492054
1746409905357672700,9.131672607421875,-1.5150141025722026,0.4721814586639404,-1.8495774810940027
1746409905367645700,9.141645751953124,-1.3151543780505657,0.6412474009931087,-1.3818781362801789
1746409905377617700,9.15161767578125,-1.2625479925006626,0.8400538170695304,-0.9350713573694228
1746409905387590700,9.161590576171875,-1.3791490035772322,0.9703928461194038,-0.735509739011526
1746409905397562600,9.171562744140624,-1.3696575371325015,1.2177023040801287,-0.5436234775871038
1746409905407535900,9.181535888671876,-1.2116063252925873,1.5022820467710494,-0.5078828866422176
1746409905417508600,9.191508544921875,-1.0332453158736228,1.710792110738158,-0.7006622975140809
1746409905427480600,9.20148046875,-0.8621651111125945,1.8868471813023089,-0.960724269542098
1746409905437453800,9.211453857421875,-0.6493383529901504,1.9388567700028418,-1.2308271585911512
1746409905447426800,9.2214267578125,-0.3304571122467518,1.8556535861372947,-1.5181903945207595
1746409905457398500,9.2313984375,0.0029735359180718657,1.7650491861045359,-1.6594664126485585
1746409905467371800,9.241371826171875,0.36160511470437046,1.7803934702306985,-1.6867010410547256
1746409905477344800,9.2513447265625,0.5673211640387773,1.7547627698898314,-1.7112486223340033
1746409905487316700,9.261316650390626,0.6443033544976264,1.7307710689276457,-1.7499135762929916
1746409905497289700,9.271289794921875,0.6306394977390766,1.7174252651423214,-1.856885758280754
1746409905507262700,9.2812626953125,0.5565297209113836,1.6707383327692746,-2.050581699475646
1746409905517234700,9.291234619140624,0.5251004172943532,1.5933908891946076,-2.315723751246929
1746409905527207700,9.301207763671876,0.5409564503349363,1.424961491203308,-2.5660610325962305
1746409905537180700,9.3111806640625,0.6518094192788004,1.3114847496271134,-2.8513731812149286
1746409905547152600,9.321152587890625,0.8285247073173523,1.2591975130289792,-3.169386991474032
1746409905557126000,9.3311259765625,1.0060309996031225,1.192472001233697,-3.518223225498199
1746409905567097600,9.34109765625,1.1329757100395859,1.0859235976159571,-3.7674475771695373
1746409905577070600,9.351070556640625,1.1946290331371128,1.0030910006284712,-3.8792344659626483
1746409905587043800,9.3610439453125,1.2656149788558482,0.9376759869098663,-3.892630538630485
1746409905597015600,9.371015625,1.3240543083429335,0.9561220364436507,-3.832618845260143
1746409905606988500,9.380988525390626,1.4051649038434029,1.041075863368809,-3.799789757847786
1746409905616961800,9.3909619140625,1.4981325258761644,1.0324427673190832,-3.849591022849083
1746409905626933800,9.400933837890625,1.5193267050743102,0.9472110002353787,-3.854451906883716
1746409905636906500,9.410906494140624,1.6060411119312048,0.8403305881842971,-3.8245851764082905
1746409905646879700,9.420879638671876,1.6574465972587464,0.7347156660243869,-3.7481151001900432
1746409905656851700,9.430851806640625,1.648643113078177,0.535189703501761,-3.6503380320489405
1746409905666824700,9.44082470703125,1.6132079348206518,0.2052142372921109,-3.5794904718875884
1746409905676797700,9.450797607421874,1.4992361032038926,-0.34252953509539363,-3.470449666932225
1746409905686769700,9.460769775390625,1.4513690211355685,-0.9830202725023031,-3.3462785128623245
1746409905696742700,9.47074267578125,1.763390897503495,-1.3231219959288836,-3.2333839550882577
1746409905706715600,9.480715576171875,2.3940906009972096,-1.1880892561048269,-2.8677386250823735
1746409905716687600,9.4906875,2.962714664328098,-0.759193396937847,-2.5114327858299017
1746409905726660600,9.50066064453125,3.1396301511138676,0.12265782689750193,-2.0256600241869687
1746409905736632600,9.510632568359375,2.8147502544775604,1.4430518591672181,-1.0024439348965883
1746409905746605600,9.52060546875,2.2596109650112686,2.3987059858381747,0.4264367755770683
1746409905756578600,9.53057861328125,1.258317807585001,2.466026540917158,1.9363006557792424
1746409905766550800,9.54055078125,-0.2732701209083199,1.9353385327488182,3.031535687097907
1746409905776523500,9.5505234375,-1.9445317468993364,1.329984282913804,3.558937513202429
1746409905786496500,9.56049658203125,-3.267016760098934,0.7709796963214873,3.6839006944328543
1746409905796468700,9.57046875,-4.178076835022867,0.3498404426306486,3.56085591404438
1746409905806441700,9.580441650390625,-4.629337962993979,0.22003683563172816,3.1495705303698776
1746409905816414700,9.590414794921875,-4.4917058543264865,0.32831250143349167,2.6775673508822915
1746409905826386700,9.60038671875,-4.058048772107065,0.40743455346524715,2.3623890563100574
1746409905836359700,9.610359619140626,-3.427425933241844,0.333104996407032,2.156742565080523
1746409905846332700,9.620332763671875,-2.7374682773545382,0.15694295833706856,2.1106343093782662
1746409905856304600,9.6303046875,-2.0901339576631783,0.06628069063723087,2.057476719686389
1746409905866277600,9.640277587890624,-1.4467644499495624,-0.004761515313386917,1.9013105909407138
1746409905876250600,9.650250732421876,-0.8906269432261585,0.015205752438306807,1.6220903294563294
1746409905886222000,9.66022216796875,-0.4491492503836751,0.11703238823115825,1.2360486926317213
1746409905896195000,9.670195068359375,-0.1999038559243083,0.030045594173669813,1.080345505222678
1746409905906167000,9.6801669921875,-0.08628653683364391,-0.12627777096033097,1.0296014064133168
1746409905916140000,9.69014013671875,-0.05707476313561201,-0.24485446602404115,1.0359411308288573
1746409905926113000,9.700113037109375,-0.02816255690604448,-0.31002398054897784,1.044828786161542
1746409905936085000,9.7100849609375,-0.06788315739780663,-0.2705938874363899,1.0085311458557844
1746409905946058000,9.72005810546875,-0.09981412692666053,-0.23296119913458824,0.84837273260355
1746409905956031000,9.730031005859376,-0.1148778405457735,-0.26718086412250996,0.65081251719594
1746409905966003200,9.740003173828125,-0.08449965341687202,-0.2646206582456827,0.45346156062483783
1746409905975976000,9.749975830078125,-0.07711188125312328,-0.2155436158657074,0.2562123108625412
1746409905985949000,9.759948974609374,-0.08112930020093917,-0.13003858479857444,0.12984919970631598
1746409905995921200,9.769921142578125,-0.10565876130163669,-0.19423019420206544,-0.043321255332231516
1746409906005894100,9.77989404296875,-0.18185586579740046,-0.6301560981363058,-0.26229952182173727
1746409906015867000,9.789866943359375,-0.10757044014185667,-1.1302864709556102,-0.5010141699165106
1746409906025839000,9.799839111328126,0.10755319674611091,-1.0123504118829965,-0.7507903102517127
1746409906035812000,9.80981201171875,0.35167438005954027,-0.26017420023083687,-0.8890367514252662
1746409906045784800,9.819784912109375,0.4785846037045121,0.5299941806852817,-1.1963538111031056
1746409906055757000,9.829757080078124,0.5499740156576037,1.0345441235125064,-1.9337918878287075
1746409906065730000,9.83972998046875,0.6926137233540416,1.644612542387843,-3.2652982657432554
1746409906075702000,9.849701904296875,0.7594146384730934,2.2939392049402,-4.706290269771218
1746409906085675000,9.859675048828125,0.7172901917099952,2.24438577722013,-5.0560254984617234
1746409906095648000,9.86964794921875,0.7447577520892024,1.4911720392137764,-3.7404222075998783
1746409906105620200,9.8796201171875,0.817230575364828,0.5426344665497541,-1.8163713770627974
1746409906115593000,9.889593017578125,0.7934323511481285,-0.1959270612478256,-0.17320318826436995
1746409906125566000,9.89956591796875,0.439466353020072,-0.6477852783292531,1.2290046193391084
1746409906135538200,9.9095380859375,0.05504617991745472,-1.091082587814331,2.0634768368840217
1746409906145511200,9.91951123046875,0.0689671532422304,-1.6520359703868626,1.9140864858835935
1746409906155484000,9.92948388671875,0.014115619114041328,-2.0425907007217408,1.1770967374473809
1746409906165456100,9.9394560546875,-0.11752397114038467,-1.9886106887310742,0.5511608873546123
1746409906175429000,9.94942919921875,-0.20118834277689457,-1.6400222919881342,0.1910778676509857
1746409906185402000,9.959402099609376,-0.30013650052398444,-1.3817074558883904,0.07399462601542472
1746409906195374000,9.9693740234375,-0.27316812183856964,-1.3212082712620496,0.0516267268627882
1746409906205347000,9.97934716796875,0.0026432079851627347,-1.656539127025008,-0.17034136909246445
1746409906215320000,9.989320068359374,0.16438772138506172,-2.151411140924692,-0.8018179021775722
1746409906225292000,9.9992919921875,0.30156653332710265,-2.3791139811396596,-1.3285142103612422
1746409906235265000,10.00926513671875,0.5905874733358621,-2.393752162823081,-1.6618419096082448
1746409906245237000,10.019237060546875,0.9480094571366906,-2.33271229544878,-2.000724320372939
1746409906255210200,10.029210205078124,1.362778591273725,-2.192939083099365,-2.4346768784075974
1746409906265183000,10.039182861328126,1.8168039232611655,-1.941421067532897,-2.910608629515767
1746409906275155000,10.049155029296875,2.266254786939919,-1.512396613550186,-3.454343166261911
1746409906285128200,10.059128173828125,2.4675536043539643,-0.9252373610973358,-4.10778778552711
1746409906295101200,10.06910107421875,2.1311039736941457,-0.5822796637177468,-5.049789234420657
1746409906305073000,10.079072998046875,1.6274506874457,-0.5294041058376431,-5.840828552952408
1746409906315046100,10.089046142578125,2.0925015635773536,0.4588493911430239,-5.9976049225509165
1746409906325019100,10.09901904296875,3.668614277973771,2.685820799964666,-5.341792405110597
1746409906334991000,10.1089912109375,5.396172814595699,4.789241524702311,-4.398293995657563
1746409906344964000,10.118964111328125,6.454965828701853,5.723848771691322,-4.048900712272524
1746409906354937000,10.12893701171875,6.404939522773027,5.881144781249761,-4.020898606625199
1746409906364909000,10.138908935546874,5.397936901658773,5.698569369006156,-3.7364959740668535
1746409906374882000,10.148882080078126,3.945912046962976,5.451705901247263,-2.4188521172881123
1746409906384854000,10.15885400390625,2.11873505211696,5.429768210205435,0.12264496741592883
1746409906394827000,10.168826904296875,0.7122872688561678,6.318987916982174,3.568789045131206
1746409906404800300,10.17880029296875,-0.23904607200622557,6.453544271466136,7.449141701468825
1746409906414772000,10.18877197265625,-1.0413140560388565,4.247158262294531,9.929247621142864
1746409906424745000,10.198744873046875,-0.9533739067792892,2.6318109773576257,12.188450443744658
1746409906434718200,10.20871826171875,-0.3923118031352758,1.9333891522467135,14.058697203379868
1746409906444690000,10.21868994140625,-0.351359615021944,0.8159685926049948,14.573012168896197
1746409906454663000,10.228662841796876,-0.8096867358565331,-0.4352689013302326,13.284762164384126
1746409906464636200,10.23863623046875,-1.3229559917122125,-0.8840349976152181,10.598989295214414
1746409906474608000,10.248608154296875,-1.4876006104677915,-0.39116906284093855,8.060562119475007
1746409906484581000,10.2585810546875,-1.3276163847386837,0.10110475125908851,6.206891231587528
1746409906494554000,10.26855419921875,-0.9570692541658877,0.05027881938517093,4.7131531412780285
1746409906504526000,10.278526123046875,-0.4163993656873703,-0.6727338416248559,3.6673558023452757
1746409906514499000,10.2884990234375,-0.25577245814055205,-1.8053525549203155,2.953561636057496
1746409906524471000,10.298470947265624,-0.4110296553477645,-2.511083241739869,2.45641817009449
1746409906534444000,10.308444091796876,-0.32972938249409195,-2.736651408013701,2.135736017408967
1746409906544417000,10.3184169921875,-0.14122224211394785,-3.0288194138765334,1.8057693190276622
1746409906554389000,10.328388916015625,0.10051555319428443,-3.183953276965022,1.4108745136618612
1746409906564362000,10.338362060546874,0.487303624472022,-2.973000496020913,1.290895550584793
1746409906574335000,10.3483349609375,0.8110299671590327,-2.730767610672116,1.3628385047674179
1746409906584307000,10.358306884765625,0.80144906886518,-2.5062667813688515,1.2679828770309687
1746409906594280000,10.368280029296875,0.17406915744394064,-2.158917571032047,1.4085878640294074
1746409906604253000,10.3782529296875,-1.14328623778224,-2.249713694244623,1.9066934530228374
1746409906614225200,10.38822509765625,-2.3560277045845983,-2.1276462344557046,1.909738227546215
1746409906624198000,10.398197998046875,-2.6661180283680554,-0.1414797240063548,2.502638069477677
1746409906634171100,10.408171142578125,-2.154640916626155,0.8666831730589271,1.5350982747018336
1746409906644143000,10.41814306640625,-0.9404752622395753,1.2421662987291813,0.021360183414816856
1746409906654116000,10.4281162109375,1.3416039935588835,1.1606599819093941,-1.2544979570358992
1746409906664089000,10.438089111328125,3.329156697669625,0.5188172453716396,-1.7955536299616097
1746409906674061000,10.44806103515625,2.7464146771371363,0.8497004740759729,-1.8296832785785198
1746409906684034000,10.458033935546876,2.1583646133244034,1.065048859630525,-1.382616971948743
1746409906694006000,10.468006103515625,1.6997300339758394,0.5727466962188482,-0.19178747722506523
1746409906703979000,10.47797900390625,1.155488716751337,0.5206636038906872,0.03360942413508892
1746409906713952000,10.487951904296875,0.5702332520931959,0.6857470524549484,0.18984277289807797
1746409906723924200,10.49792431640625,-0.0224257668197155,0.9255205619528889,0.13616378968060017
1746409906733897000,10.50789697265625,-0.25563421871364117,1.234786709871888,-0.29304771130681034
1746409906743870000,10.517869873046875,-0.08860007447302341,1.3546196886070072,-0.7924100223630667
1746409906753842200,10.52784228515625,0.25347557937502857,1.4091187560357152,-1.1441817253172397
1746409906763815200,10.537815185546876,0.7673311106860637,1.4183359355837106,-1.350210493862629
1746409906773788000,10.547787841796875,0.687004943561554,1.3862971217662095,-1.2904109819382428
1746409906783760100,10.557760009765625,0.8747831851452589,1.311544955381751,-1.0943494806557894
1746409906793733000,10.567733154296874,1.381361418929696,1.0417387111917138,-0.9095295043557882
1746409906803706000,10.5777060546875,1.5063573333859444,0.7795223376087844,-0.6576864946186542
1746409906813678000,10.587677978515625,1.4789210449278354,0.7878770551085472,-0.6142302147299051
1746409906823651000,10.597651123046875,1.4511878193497656,1.019155854114145,-0.6629138738781213
1746409906833623300,10.607623291015624,1.5033984835803509,1.254902007792145,-0.7543272522062062
1746409906843596000,10.617595947265626,1.5657272217214107,1.3047567565463483,-0.8920821104705333
1746409906853569000,10.627569091796875,1.7675176220446824,1.2205103472381829,-0.9934376216202974
1746409906863541200,10.637541259765625,2.0245716444283723,1.1305874997287988,-0.9879220730692148
1746409906873514200,10.64751416015625,2.100115837973356,1.0169828939892351,-0.799757462516427
1746409906883487000,10.657487060546876,2.020077255618572,0.808583596920222,-0.4206622838288545
1746409906893459700,10.667459716796875,1.9177415012598036,0.5655110458768904,0.005676876592636108
1746409906903433000,10.677432861328125,1.8773545458137988,0.3769926534503698,0.26279285829663274
1746409906913406000,10.687406005859375,1.859614306461811,0.27371450367495415,0.2983656914591789
1746409906923377700,10.697377685546876,1.9497282926291226,0.20164441598132252,0.10176350742876529
1746409906933351000,10.707350830078125,2.40184779099524,-0.004670914420485496,-0.3865098388582468
1746409906943323000,10.717322998046875,2.714704949143529,-0.164385383297503,-0.956167921411991
1746409906953295600,10.727295654296874,2.6487550978958607,-0.127545891200006,-1.3619663981080055
1746409906963268900,10.737268798828126,2.308327211254835,0.22815175302624702,-1.1116150882333515
1746409906973240800,10.74724072265625,2.0047499226272105,0.05823825395703315,-0.1902589524835348
1746409906983213800,10.7572138671875,0.18536825783252714,-0.34659634614288803,0.24360826535522936
1746409906993186800,10.767186767578124,-0.9521949261277913,0.21912936539798974,1.0687725563287733
1746409907003158800,10.77715869140625,-1.6232307316631078,0.29528906049281356,1.2657353903651236
1746409907013131800,10.7871318359375,-1.8884955330312252,0.2942150015205145,1.2669827600777148
1746409907023105000,10.79710498046875,-1.394267077732086,0.19358897368907926,0.9785925191879272
1746409907033076700,10.80707666015625,-0.6920417686849832,-0.01714490380734205,0.6605559125751257
1746409907043049700,10.8170498046875,-0.4068570458382368,0.2077364492461085,0.2874076595932245
1746409907053023000,10.82702294921875,-0.40793139707148074,0.8470512747414409,-0.300314487439394
1746409907062994700,10.83699462890625,-0.44052199955284593,1.096077035100758,-0.57458969373703
1746409907072967700,10.8469677734375,-0.37821488872170445,0.9804434077516198,-0.6647673927903175
1746409907082940000,10.85693994140625,-0.2560474756896496,0.7687023990392684,-0.7284820323318243
1746409907092913000,10.866912841796875,0.05270341618359089,0.5596078131824731,-0.5710147578597068
1746409907102885600,10.8768857421875,0.3499643612712621,0.3967448171466589,-0.33153380156755446
1746409907112857900,10.88685791015625,0.4112947360247373,0.3173834034010768,-0.33299335272610187
1746409907122830800,10.896830810546875,0.22735738777816294,0.28859818455204367,-0.5166507149875164
1746409907132803800,10.906803955078125,0.25007132388949393,0.33436113394796846,-0.619843962958455
1746409907142775800,10.91677587890625,0.35758944932222364,0.24105638891533016,-0.3978898955285549
1746409907152748800,10.926748779296876,0.3623971418648958,-0.1016407578319311,-0.08178630280494689
1746409907162721800,10.9367216796875,0.44912791533470153,-0.3524044478997588,0.09072539606392382
1746409907172693800,10.94669384765625,0.5109685776978731,-0.41906113224253055,0.25543548127114774
1746409907182666800,10.956666748046874,0.6031324821323156,-0.4421764887616038,0.3428635893553495
1746409907192639700,10.9666396484375,0.5950660800546408,-0.4315105717100203,0.38099604387283326
1746409907202612000,10.976612060546875,0.36036826638579367,-0.38780163223445413,0.19783026452064514
1746409907212584700,10.986584716796875,-0.009600187516212463,-0.30326924559175966,-0.009162380620837211
1746409907222557000,10.996556884765624,-0.2924456537604332,-0.17359803280085323,-0.1359264737933874
1746409907232530000,11.006530029296876,-0.3081558485895395,0.013114040856063365,-0.1567576648980379
1746409907242503000,11.0165029296875,-0.2006587659448385,0.03942337111085653,-0.11005670399963854
1746409907252475000,11.026474853515625,0.10362170251607894,-0.045881168948113914,0.0017003741770982741
1746409907262447900,11.03644775390625,0.3538181140899658,-0.24716332748830316,0.15352584336996078
1746409907272420900,11.0464208984375,0.23330372896194457,-0.46803193776905533,0.2637935597717762
1746409907282392800,11.056392822265625,0.024770868641138075,-0.43745472093671556,0.3722106798708439
1746409907292365800,11.06636572265625,-0.12206804431080817,-0.29175971732288597,0.36261575305163857
1746409907302338800,11.0763388671875,-0.23678981751203534,-0.08088000161498785,0.2574702019691467
1746409907312311000,11.08631103515625,-0.04009410997927189,0.0694707188501954,0.20697978565990924
1746409907322283800,11.09628369140625,0.46149639852046964,0.15456570781171322,0.12748656222820282
1746409907332256800,11.1062568359375,0.8152771032094955,0.06148205818384885,0.12407821508944034
1746409907342229000,11.11622900390625,0.8094938436329364,0.001864332567155361,0.24456921934187412
1746409907352201700,11.12620166015625,0.4801373861044645,0.03497428274750709,0.35012101313769817
1746409907362173700,11.136173583984375,0.06586041939854621,0.0037441549643874167,0.4408189366728067
1746409907372147000,11.14614697265625,-0.38727322444617746,-0.06450637444108724,0.4838707274138927
1746409907382120000,11.156119873046874,-0.8973194266021252,0.024018881230056285,0.32224457969665526
1746409907392091600,11.166091552734375,-0.8086848653376102,0.27608488606810566,0.03160743666291237
1746409907402065000,11.17606494140625,0.11199614762961864,0.2624108732417226,0.18065408879220485
1746409907412038000,11.186037841796875,0.571193621557951,-0.012367314141988753,0.11538286745846271
1746409907422009600,11.196009521484376,0.6639981619834899,-0.21722966925650833,0.07363748314082622
1746409907431982800,11.20598291015625,0.811409906387329,-0.06613923633992672,0.42604339234530925
1746409907441955800,11.215955810546875,0.7891559890031814,-0.028374153830111024,0.5250491254985332
1746409907451927800,11.225927734375,0.6529506982684135,-0.11314181053340434,0.385703783172369
1746409907461900800,11.23590087890625,0.4125993888825178,-0.0993514778509736,0.3048363487780094
1746409907471872800,11.245872802734375,0.1172831481218338,-0.014689911870658396,0.36918285648226734
1746409907481845800,11.255845703125,-0.2356856556624174,0.06131196231395006,0.39882337698638437
1746409907491819000,11.265819091796875,-0.48316404044926164,0.1506076178357005,0.2992243541151285
1746409907501790700,11.275790771484376,-0.46169630500674247,0.2078814106747508,0.20963059242963789
1746409907511763700,11.285763671875,-0.3391530443996191,0.12055559392124414,0.1649146678686142
1746409907521737000,11.295737060546875,-0.13801906215846538,0.07237871525138616,0.10808452714383601
1746409907531708700,11.305708740234374,0.13646131132245062,0.057571899002790444,0.020430793610215187
