time,seconds_elapsed,z,y,x
1746277828509194000,0.020194091796875,0.07551146031916141,-1.4128361691236495,0.3227998754918575
1746277828519174000,0.030173828125,0.11001812555491923,-1.545080739533901,0.30004502284824847
1746277828529152800,0.04015283203125,0.2629354816377163,-1.7718424995064734,0.09928747270405291
1746277828539133000,0.0501328125,0.4221621669977903,-1.9412375276595353,-0.15878595585525035
1746277828549113000,0.060113037109375,0.5680798734515905,-1.91657362652421,-0.19521978976130486
1746277828559092000,0.070092041015625,0.725679249870777,-1.7220014870166778,0.0391132822483778
1746277828569072000,0.080072021484375,0.7625240026652812,-1.517062851795554,0.27959727810323237
1746277828579052000,0.090052001953125,0.7289274380117654,-1.2109727035641669,0.4621083929389715
1746277828589031000,0.100031005859375,0.6301075828194618,-1.0059031354397534,0.4537374549567699
1746277828599011000,0.110010986328125,0.525386979150772,-1.0805839901536702,0.2879547720819712
1746277828608991000,0.119990966796875,0.5674281315445899,-1.1150918244332075,0.2005149735599756
1746277828618969900,0.129969970703125,0.7069348019123077,-1.0443629222154616,0.11475216833949088
1746277828628949800,0.13994970703125,0.8685264628380537,-0.9927075537800788,0.11742986311614513
1746277828638930000,0.149929931640625,0.9820470435559749,-0.9994833315253258,0.06549626226127148
1746277828648908800,0.15990869140625,1.0139379733353853,-0.9030641077339648,-0.07338380064070224
1746277828658889000,0.169888916015625,0.8342612051427364,-0.848523539251089,-0.3112824561774731
1746277828668869000,0.179869140625,0.4913724813461303,-0.8424345747262239,-0.55564124763906
1746277828678848000,0.189847900390625,0.04270867639183998,-0.7666986580014228,-0.9209878869593143
1746277828688828000,0.199827880859375,-0.4273299250245094,-0.6128507430702448,-1.3607628675371408
1746277828698808000,0.20980810546875,-0.9047562986046075,-0.18296821095347404,-1.6231255177229642
1746277828708787000,0.219786865234375,-1.3008897058546542,0.24579496174454687,-1.5548995382368564
1746277828718766800,0.229766845703125,-1.4977017332434652,0.3696475513845682,-1.4716250427007673
1746277828728746000,0.23974609375,-1.5910446183294058,0.3471341062813997,-1.6060954724669456
1746277828738726000,0.249725830078125,-1.7397943333387373,0.47841070844233036,-1.7615607594668865
1746277828748705800,0.259705810546875,-2.058418384450674,0.6483358979493379,-1.806536211746931
1746277828758685000,0.269684814453125,-2.4965648870438337,0.7620423566281795,-1.6201497167825698
1746277828768664800,0.279664794921875,-2.7997815256655216,0.6154056882500648,-1.3726970509588718
1746277828778645000,0.28964501953125,-2.8761364510715004,0.3976180928498506,-1.4522791217178106
1746277828788624100,0.2996240234375,-2.7805133460938927,0.30088322723805905,-1.6284113491714
1746277828798604000,0.30960400390625,-2.5220085403800008,0.3423503791362047,-1.724550586977601
1746277828808584000,0.319583984375,-2.072113732326031,0.6402110436826944,-1.7832699024498462
1746277828818563000,0.32956298828125,-1.5756266844451428,1.097735031440854,-1.6784318098813293
1746277828828543000,0.33954296875,-1.268635203459859,1.4691104295313357,-1.3006611577957867
1746277828838523000,0.34952294921875,-1.1761533191174267,1.761382480290532,-0.8967968640327453
1746277828848502000,0.359501953125,-1.2472557308226824,1.8940297862827777,-0.7155921556204557
1746277828858482000,0.36948193359375,-1.4464344873428343,1.9569909771084784,-0.6416603657081723
1746277828868461800,0.3794619140625,-1.6954595170497893,2.0486112761855124,-0.5143371773481369
1746277828878441000,0.38944091796875,-1.7692969066768884,2.040741273462772,-0.30893589305132624
1746277828888421000,0.399421142578125,-1.5696733289986848,1.9597031586766243,-0.07196370470970868
1746277828898399700,0.409399658203125,-1.20878483813107,1.8853426219582556,0.10211801995486021
1746277828908380000,0.4193798828125,-0.7544938409447669,1.8171470376104115,0.1867518211454153
1746277828918360000,0.429360107421875,-0.26897476180195806,1.7820120113432407,0.2348492048382759
1746277828928339000,0.4393388671875,0.048046530288457866,1.7170558473080395,0.1815752952903509
1746277828938318800,0.44931884765625,0.05562719467580318,1.621838985043764,0.2146498818963766
1746277828948299000,0.459299072265625,-0.02608955002427101,1.385865744611621,0.39951720446944233
1746277828958278000,0.46927783203125,0.1491103650152683,1.0359352856099604,0.6098807873487472
1746277828968257800,0.4792578125,0.3778372875809669,0.633742139929533,0.930608240480721
1746277828978238000,0.489238037109375,0.3416051137268543,0.2959557077080011,1.0088327591508626
1746277828988216800,0.499216796875,0.2539993109881878,-0.08408405835330486,0.8649269770413637
1746277828998196700,0.50919677734375,-0.030431963142752646,-0.42944004904627797,0.6306953195795416
1746277829008177200,0.51917724609375,-0.48499417848587034,-0.7186480360597371,0.4186746171429753
1746277829018156000,0.529156005859375,-1.0387708012968302,-0.9211112210780381,0.1450961609378457
1746277829028136000,0.539135986328125,-1.629806602922082,-1.041889225578308,-0.12701251497566698
1746277829038116000,0.5491162109375,-1.5474083056986332,-0.8438041095137596,-0.15816548586934803
1746277829048095000,0.559094970703125,-0.57018824390769,-0.5252823497325182,0.9457464806407689
1746277829058075000,0.569074951171875,0.5219564201802015,-0.8076286342829465,1.8203385271281003
1746277829068055000,0.579054931640625,1.8834084390252828,-1.0788964754581452,1.4746692327022553
1746277829078034000,0.589033935546875,2.6704005279928444,-1.4960305851608513,1.0496581060141323
1746277829088013800,0.599013916015625,2.720124051582813,-1.8458090684711932,0.8662029883265495
1746277829097993700,0.60899365234375,2.339590364524722,-1.7917735269010067,0.674091393713653
1746277829107972900,0.618972900390625,1.791492956393957,-1.5636568451881407,0.455016681112349
1746277829117952800,0.628952880859375,1.310506259983778,-1.4036352100580929,0.3613701369047165
1746277829127933000,0.638932861328125,0.98058281622231,-1.2667536274969577,0.2938157730698585
1746277829137912000,0.648912109375,0.8283253853529691,-1.1361433802902698,0.2324500347420573
1746277829147892000,0.65889208984375,0.7798024697244167,-1.0616074870049952,0.1668766155913472
1746277829157871000,0.66887109375,0.8197451885342597,-1.0186638328135014,0.1843248862594366
1746277829167851000,0.67885107421875,0.6847258927136659,-0.957798152962327,0.23366233314126728
1746277829177831000,0.688830810546875,0.3177922764629125,-0.8869242893159389,0.27702976570278404
1746277829187810000,0.69881005859375,-0.002499415600299835,-0.8296078263789415,0.28979572377353907
1746277829197790000,0.7087900390625,-0.17663140914738176,-0.7639619265139103,0.3527224278077483
1746277829207769900,0.718769775390625,-0.14947919832766055,-0.7453080794483423,0.429503469671309
1746277829217749000,0.7287490234375,-0.08518763568103313,-0.7595446945935487,0.43888709182739255
1746277829227729000,0.73872900390625,-0.05098199921846389,-0.8379892857551574,0.39135552532374857
1746277829237709000,0.748708984375,-0.09359715210795402,-1.027789973077178,0.2949471151873469
1746277829247688000,0.75868798828125,-0.31507717228531834,-1.1624743378549813,0.13833090458661318
1746277829257668000,0.768668212890625,-0.4633446567356586,-1.1994757425159215,0.28445114787518977
1746277829267648000,0.77864794921875,-0.26541619253754617,-1.2372270887613295,0.49670332098007197
1746277829277627000,0.788626953125,0.2579442492216825,-1.3168921616286038,0.7131421321198343
1746277829287607000,0.79860693359375,1.0036077179789542,-1.419657539576292,0.922016060963273
1746277829297587000,0.8085869140625,2.0447861649394032,-1.5795137550115583,1.3401049871727824
1746277829307565800,0.81856591796875,2.367229482078552,-1.764134993869066,1.6831439330950377
1746277829317546000,0.8285458984375,1.6863514969646929,-1.4708061275333166,1.5058458767324685
1746277829327526000,0.83852587890625,1.0745219136357307,-1.2895669323295353,1.0581669911623
1746277829337504800,0.8485048828125,0.33314883554875846,-1.2327666022211312,0.7676525977253913
1746277829347485000,0.85848486328125,-0.5186147085368633,-0.8370072889804839,0.5065957694411277
1746277829357463800,0.8684638671875,-0.9488520454406738,-0.5100397724151611,0.7004907403394579
1746277829367444000,0.87844384765625,-0.7345914551228284,-0.6669669486612081,1.1688865429848432
1746277829377424100,0.888424072265625,-0.18656828127205372,-0.26998189301788805,0.9157344964757561
1746277829387403000,0.898403076171875,0.5339700985789299,0.15741057584881782,0.6853320419132709
1746277829397383000,0.9083828125,1.2342875281780958,0.17337036152482033,0.8281605501800775
1746277829407362800,0.91836279296875,1.600122827798128,0.12170622526109218,0.9612892099484801
1746277829417342000,0.928342041015625,1.4008943869173527,0.12240648248493671,0.9053697543278336
1746277829427321900,0.93832177734375,0.8504676590561866,0.3231213625311851,0.5163026322022081
1746277829437301800,0.9483017578125,0.07864508216977119,0.8382663491308688,-0.018501286852359772
1746277829447280000,0.958280029296875,-0.7999398333460092,1.4093097485631703,-0.3184136232316494
1746277829457260000,0.968260009765625,-1.7256033109009266,1.8373633116871118,-0.28142916970551013
1746277829467240200,0.978240234375,-2.564742935734987,1.979183519694209,0.08261953875869513
1746277829477219000,0.988218994140625,-3.270319308775663,1.764189354404807,0.5941641627788543
1746277829487199000,0.998198974609375,-3.7365737154781815,1.4436632690638302,0.8144564344763755
1746277829497179100,1.00817919921875,-3.838025672739744,1.1790917106568812,0.791197139441967
1746277829507158000,1.018157958984375,-3.4707109482169147,1.0399667330831288,0.5497159492433071
1746277829517138000,1.028137939453125,-2.8122061229526993,1.0559820483386515,0.23507249220013618
1746277829527118000,1.0381181640625,-1.9886229636907575,1.098885955041647,-0.05528612615317106
1746277829537097000,1.048096923828125,-1.1595873842418194,1.1537743140488863,-0.13676993888020514
1746277829547077000,1.0580771484375,-0.540682163438201,1.0944687231212853,-0.1462809868082404
1746277829557057000,1.06805712890625,-0.17016133635044098,0.9577040449380874,-0.175400113786757
1746277829567036200,1.0780361328125,-0.09332242681980132,0.7628314611792564,-0.24221973360627888
1746277829577016000,1.08801611328125,-0.21079496003389359,0.6130751994758844,-0.49353141294568775
1746277829586995200,1.0979951171875,-0.42308863419294357,0.5514531482994556,-0.8470143037319183
1746277829596975000,1.10797509765625,-0.5567921712398529,0.5206973600298166,-1.2834645238012075
1746277829606955000,1.117955078125,-0.5933446630895137,0.5643623142331838,-1.7549527395039797
1746277829616934100,1.12793408203125,-0.5877127946823835,0.6625953094482422,-2.1070432991489767
1746277829626914000,1.1379140625,-0.6283417421907186,0.7233809098005295,-2.2744731647089123
1746277829636894000,1.14789404296875,-0.7517869200736284,0.7727280012935399,-2.438974575601518
1746277829646873000,1.157873046875,-0.8408896833717823,0.79383976290524,-2.621963829343021
1746277829656853000,1.16785302734375,-0.9023743719041347,0.7715946133494377,-2.5737974720671772
1746277829666833200,1.177833251953125,-0.9005155922949314,0.7126268760740757,-2.3085575128793714
1746277829676812300,1.187812255859375,-0.8943611613184214,0.5740764835178852,-1.942476421804726
1746277829686792200,1.197792236328125,-0.7853753014206886,0.42447687368094916,-1.623012120476365
1746277829696772000,1.207772216796875,-0.6333177770376205,0.24068331781923769,-1.4216121807754039
1746277829706751200,1.217751220703125,-0.4658078319787979,0.029949148061871527,-1.2454399135723708
1746277829716731100,1.227731201171875,-0.3075274875581264,-0.2082663183391094,-1.0100243070229888
1746277829726711000,1.2377109375,-0.12998714687228202,-0.3653694356739521,-0.7759291354224085
1746277829736690000,1.24768994140625,0.0023497779965400696,-0.44546530117392535,-0.5712666867941618
1746277829746670000,1.257670166015625,0.07478723769783974,-0.6064233403712511,-0.2984288198232651
1746277829756650000,1.26764990234375,0.17802666289806365,-0.7882692692965269,-0.07343085465282201
1746277829766628900,1.27762890625,0.45579789461791514,-0.8567711431145667,-0.05424684623330831
1746277829776609300,1.287609375,0.7198597499370575,-0.8991635931640863,-0.21040449941158293
1746277829786589200,1.297589111328125,1.0195639965236187,-0.9159802879303693,-0.24774784937798974
1746277829796568000,1.307568115234375,1.6033330220162867,-0.8966957417458296,-0.14601736743599175
1746277829806548200,1.31754833984375,2.2197645461827515,-0.864808903619647,-0.03698854517936706
1746277829816527000,1.327527099609375,2.233705977773666,-0.8444201955854892,0.11337152763605117
1746277829826507000,1.337507080078125,2.241464921337366,-0.8015133662730455,0.15020838938504458
1746277829836487200,1.347487060546875,2.1272510976582764,-0.7544768898099661,0.1847907502055168
1746277829846466000,1.357466064453125,1.9522464129298924,-0.7899982850462198,0.36906069140732284
1746277829856446000,1.367446044921875,1.9026877245128153,-0.8318331012129783,0.5614131090387702
1746277829866426000,1.377426025390625,1.9890759681552648,-0.8686264160811901,0.7218979777663945
1746277829876405000,1.387405029296875,2.087031315472722,-0.9937316361308097,0.8273401737079024
1746277829886385000,1.397385009765625,2.239319726002216,-1.1225783807963132,0.8851432511180639
1746277829896365000,1.407364990234375,2.3529314921349287,-1.2290174788206816,0.9409650915831327
1746277829906344200,1.41734423828125,2.4549545272827147,-1.3072428742736577,0.9898130013823508
1746277829916324000,1.427323974609375,2.5222926180183887,-1.3760662351310253,1.048918393562734
1746277829926304000,1.437303955078125,2.5836492962568998,-1.3911691117167473,1.1462751904651522
1746277829936283100,1.447283203125,2.555731946283579,-1.449838742828369,1.1833303711399434
1746277829946263000,1.457262939453125,2.4432927310615775,-1.4995809711188077,1.1459978348284958
1746277829956243000,1.467242919921875,2.218423068445921,-1.550493412232399,1.1188108449563383
1746277829966222000,1.47722216796875,1.9027596207052468,-1.5702759710669516,0.9941066069230436
1746277829976202000,1.487201904296875,1.5785948866009711,-1.5763228500157593,0.7529428121104836
1746277829986182000,1.497181884765625,1.2806629103839398,-1.6155770020395517,0.5086480257958174
1746277829996161000,1.5071611328125,1.0953560273498295,-1.6712433596819638,0.26659166605770585
1746277830006141200,1.51714111328125,1.0918196699172258,-1.6954899121880531,0.04725508764982223
1746277830016121000,1.52712109375,1.124457034149766,-1.6380349175631999,-0.22856325643658637
1746277830026100200,1.537100341796875,1.067393084669113,-1.653777261096239,-0.3641825639769435
1746277830036080000,1.547080078125,1.0209347003549336,-1.5760352652460337,-0.44434798758178945
1746277830046059000,1.55705908203125,1.1330915915042161,-1.4720073200166224,-0.5255032990068197
1746277830056039200,1.5670390625,1.5788520762324332,-1.554260655811429,-0.9555413139462471
1746277830066019000,1.57701904296875,0.1404880826205015,-1.4563000477969645,-0.3885650178223848
1746277830075998000,1.586998046875,-1.004827907423675,-0.6880985840171575,-0.41748131570518016
1746277830085978000,1.59697802734375,-0.5434510436296462,-0.47593525823950766,-0.6052139645814896
1746277830095958000,1.6069580078125,-1.1115218569919467,-0.6789736127972602,-0.5623410375386476
1746277830105937000,1.61693701171875,-1.3779817133635281,-0.5436766690790653,-0.6047863868191838
1746277830115917000,1.6269169921875,-1.2056027009636163,-0.5694950009465217,-0.6291121420413255
1746277830125897200,1.636897216796875,-1.2677461456656456,-0.7343833653301001,-0.4665919680938124
1746277830135876000,1.6468759765625,-1.0651222171276806,-0.6898498115986585,-0.5728717839032411
1746277830145856300,1.656856201171875,-0.6520832677841186,-0.5529588766872883,-0.8151561071783304
1746277830155836200,1.666836181640625,-0.458489325658977,-0.5203671051621437,-0.8357944060593843
1746277830165815000,1.67681494140625,-0.31533143930733204,-0.4349614428162574,-0.8183987423613667
1746277830175795200,1.686795166015625,-0.29282120907455683,-0.23976620297431944,-1.0143272649139166
1746277830185775000,1.696775146484375,-0.3045028790399432,0.043755555096268654,-1.3312193776667118
1746277830195754000,1.70675390625,-0.3725193074285984,0.30596681411266324,-1.6602379815429449
1746277830205734000,1.71673388671875,-0.7080769576847553,0.4715712178111076,-1.870563862760365
1746277830215714000,1.726714111328125,-1.1526070238351822,0.5638309838354587,-1.988008923445642
1746277830225693000,1.73669287109375,-1.5057807025417684,0.6112959148436784,-2.065292654134333
1746277830235672800,1.7466728515625,-1.6603256598263978,0.5809995607793331,-2.1498460835650564
1746277830245653200,1.7566533203125,-1.7386252895593641,0.516267268627882,-2.4483769024580715
1746277830255632100,1.766632080078125,-1.6712509584665298,0.41460546800792214,-2.6745091323554515
1746277830265612000,1.776612060546875,-1.4394441900640724,0.5388192921757697,-2.9384260262459514
1746277830275591200,1.786591064453125,-1.120650335343182,0.9233020091205835,-3.175262020987272
1746277830285571000,1.796571044921875,-0.9799772515445947,1.3829758683890103,-3.134155519095063
1746277830295551000,1.806551025390625,-1.0393933171093463,1.781239273405075,-2.8454063817650077
1746277830305530000,1.816530029296875,-1.2022270870506764,2.1410282785981893,-2.527944944691658
1746277830315510000,1.826510009765625,-1.4502297879725694,2.3812200135082007,-2.3588579595744608
1746277830325490000,1.836489990234375,-1.7464187199145556,2.4176754747241733,-2.2841636608570814
1746277830335469000,1.846468994140625,-2.083769098806381,2.305710891276598,-2.1904425901085136
1746277830345449000,1.856448974609375,-2.3881968667834994,2.0477157886505126,-2.0665788945525883
1746277830355429000,1.86642919921875,-2.6036592341065403,1.799592676219344,-2.0513298874944446
1746277830365408300,1.876408203125,-2.6747499553740024,1.610024044087529,-2.056715087664127
1746277830375388200,1.88638818359375,-2.6429659931004044,1.4174819491028785,-1.9791040247172116
1746277830385368000,1.8963681640625,-2.6398010993286967,1.1206868679612874,-1.7082120311170816
1746277830395347200,1.90634716796875,-2.6081971697971222,0.8051818256527185,-1.4791665441215038
1746277830405327000,1.9163271484375,-2.5476181979328394,0.43829204854369164,-1.2881459596157072
1746277830415307000,1.92630712890625,-2.484212185949087,0.008750292688608169,-1.0966530814230442
1746277830425286100,1.9362861328125,-2.567799985218048,-0.417339861407876,-0.8770201504170894
1746277830435266000,1.94626611328125,-2.6807079869955777,-0.903735138863325,-0.8460591949641704
1746277830445246200,1.95624609375,-2.743525969958305,-1.3021160327792167,-0.9723696991503238
1746277830455225300,1.966225341796875,-2.7609274788752196,-1.7387860330790281,-1.0899234809070826
1746277830465205200,1.976205322265625,-2.708710092642903,-2.11653973402977,-1.147786471810937
1746277830475185200,1.98618505859375,-2.538618314397335,-2.4037153384327885,-1.1068909823209048
1746277830485164300,1.996164306640625,-2.2656974453181027,-2.619483410704136,-1.0327584091395139
1746277830495144200,2.006144287109375,-1.8882599707096814,-2.840128149101138,-0.9141068952739239
1746277830505124000,2.0161240234375,-1.395518539097905,-2.973140781274438,-0.861474206238985
1746277830515103000,2.02610302734375,-0.8736356225453317,-3.0174270822465417,-0.8778156847089529
1746277830525083400,2.03608349609375,-0.3707143038332462,-3.0564637921273707,-0.7897218061923981
1746277830535063300,2.046063232421875,0.061244450035691254,-3.0402310347288846,-0.7497294030219316
1746277830545042200,2.056042236328125,0.41689635542407627,-2.906778257572651,-0.6419774688333273
1746277830555022300,2.066022216796875,0.6912165699072181,-2.620475344350934,-0.5427870267629623
1746277830565001200,2.076001220703125,0.9087287093669175,-2.359403903019428,-0.3241033593058586
1746277830574981000,2.085981201171875,1.0599582584932445,-2.181449136313796,-0.06972001743614674
1746277830584961300,2.095961181640625,1.1634902368992566,-1.9677467644006013,0.1784989565849304
1746277830594940200,2.105940185546875,1.1910440142571925,-1.7525398331433533,0.3390782255977392
1746277830604920000,2.115920166015625,1.1058598857074975,-1.568107979378104,0.44785774926841254
1746277830614900200,2.125900146484375,0.8905360500723123,-1.3798895928114652,0.540154340171814
1746277830624879000,2.135879150390625,0.5865788222163916,-1.2032745502769946,0.620575199842453
1746277830634859000,2.14585888671875,0.2447749710470438,-1.094293951076269,0.794966136586666
1746277830644839200,2.155839111328125,-0.0666036389812827,-1.0990057820290327,0.9634306058913469
1746277830654818300,2.165818359375,-0.32357378247380253,-1.1004694248408078,1.0751999590277672
1746277830664798200,2.175798095703125,-0.5748810778990388,-1.1048936710238455,1.3410048586219547
1746277830674778000,2.185778076171875,-0.781650143417716,-1.1300772121191025,1.6668050849735736
1746277830684757200,2.19575732421875,-0.8362723988346755,-1.1556301710486412,1.9601666845351458
1746277830694737200,2.205737060546875,-0.7866933982819319,-1.1926491113662718,2.2899767310500145
1746277830704717000,2.215717041015625,-0.638932402049005,-1.229979017329216,2.5532372068583964
1746277830714696200,2.2256962890625,-0.4906006201907992,-1.257366205948591,2.806739089718461
1746277830724676000,2.235676025390625,-0.352678296405077,-1.315886783978343,3.0065894618898628
1746277830734656000,2.245656005859375,-0.16100947712361813,-1.334727093526721,3.192258163973689
1746277830744635100,2.25563525390625,0.16731705283522605,-1.3547469682484865,3.368639397752285
1746277830754615300,2.265615234375,0.548735121512413,-1.3398627028495071,3.4339486130088566
1746277830764595200,2.27559521484375,0.8627911340564489,-1.2082102531135082,3.5472850693315268
1746277830774574300,2.28557421875,1.1273019021868704,-1.044668042641878,3.711963005834818
1746277830784554200,2.29555419921875,1.5017676675081253,-0.7649176198035478,3.633265316694975
1746277830794534100,2.3055341796875,2.099355374994874,-0.08737667015790938,3.000957008960843
1746277830804513300,2.31551318359375,2.7333146648064255,0.9655074121654033,2.067631033954024
1746277830814493200,2.3254931640625,3.286750219094753,2.1939023751735687,1.22836749047935
1746277830824472000,2.33547216796875,3.6226910234495997,3.660721478897333,0.3273895413696766
1746277830834452200,2.3454521484375,3.592016483722627,5.343332620289922,-0.4194014701128006
1746277830844432100,2.35543212890625,3.1533021181136367,6.500543923050165,-0.5250479564547539
1746277830854411000,2.365410888671875,2.2054390837103126,6.688523824685811,-0.004523614904284477
1746277830864391200,2.37539111328125,0.8734703489810228,6.2465188930988305,0.661565966400504
1746277830874371300,2.385371337890625,-0.35425855133384465,5.682128521814942,0.9842202959418296
1746277830884350200,2.39535009765625,-1.3217284957438706,5.125596462816,0.9628197805166244
1746277830894330400,2.405330322265625,-1.9914131789311766,4.65772117691338,0.8054735020756721
1746277830904310300,2.415310302734375,-2.2183546793848277,4.409083100697398,0.5280687655806541
1746277830914289200,2.4252890625,-1.920355483150482,4.398452401089668,0.11565525465905666
1746277830924269300,2.435269287109375,-1.2101827222302555,4.438562293159961,-0.30072599084973334
1746277830934249200,2.445249267578125,-0.31250907536298034,4.510839593863487,-0.5329840101510286
1746277830944228000,2.45522802734375,0.48331864648908374,4.637117364823818,-0.4351455672115087
1746277830954208300,2.465208251953125,0.9900091084763407,4.564466554632783,-0.041509237474203105
1746277830964188200,2.475188232421875,1.1908476149022578,4.272514821869135,0.2641103706359863
1746277830974167000,2.4851669921875,1.1344351150676608,3.780159759226441,0.4336749101370573
1746277830984147200,2.495147216796875,0.9380334220454096,3.093960871350765,0.37029520163834095
1746277830994127400,2.50512744140625,0.7717997805327177,2.4331588750600814,0.0582972906678915
1746277831004106200,2.515106201171875,0.7436094588369131,1.9336469264000653,-0.356152694517374
1746277831014086100,2.525086181640625,0.9390925757095218,1.468994109675288,-0.9653940149188042
1746277831024066300,2.53506640625,1.3918243607550858,1.0952607502818108,-1.68469730001688
1746277831034045200,2.545045166015625,2.0153765305817126,0.8020248229265212,-2.159747592115402
1746277831044025000,2.555025146484375,2.677260184629261,0.5428448944300412,-2.2881875095456836
1746277831054005200,2.565005126953125,3.132027567155659,0.4342705379426479,-2.0702485229760406
1746277831063984000,2.574984130859375,3.2639722778365012,0.4385112442523241,-1.611228743702173
1746277831073964000,2.584964111328125,3.1281811208605763,0.47475978471934793,-1.146044012057781
1746277831083943200,2.594943115234375,2.7889307535663246,0.5467173519492149,-0.7454138779103755
1746277831093923000,2.604923095703125,2.3200497977524996,0.4668862748652696,-0.49672728637754915
1746277831103903200,2.6149033203125,1.836650487242639,0.27594109368324277,-0.32427930039465425
1746277831113882400,2.62488232421875,1.387381702132523,-0.05548340229094028,-0.15431962409615516
1746277831123862300,2.6348623046875,0.9909674321144819,-0.5098597396731376,0.0045972646623849865
1746277831133842200,2.64484228515625,0.6820335848897695,-0.9664268650978803,0.093929160541296
1746277831143821300,2.6548212890625,0.4909656541109085,-1.3315291742682456,0.06315759018063545
1746277831153801200,2.66480126953125,0.35552170313745735,-1.5634019936442374,-0.017816227197647094
1746277831163781000,2.674781005859375,0.32092005309462546,-1.7883049740076065,-0.08519114281237125
1746277831173760300,2.68476025390625,0.3004962737470865,-1.8316227222084998,-0.10176233838498591
1746277831183740200,2.694740234375,0.2499105803698301,-1.7405308309197425,-0.03553717732727527
1746277831193720000,2.704719970703125,0.23965339024960994,-1.6458435454875229,0.0854763894945383
1746277831203699200,2.71469921875,0.25471388899832964,-1.5589233869254588,0.2975204728066921
1746277831213679000,2.72467919921875,0.35924101592153307,-1.460696821451187,0.4692471587777137
1746277831223659300,2.7346591796875,0.5050225287750363,-1.4711357978790998,0.46445466380417344
1746277831233638400,2.744638427734375,0.5529970167405903,-1.5805249778807162,0.3846346926361322
1746277831243618300,2.754618408203125,0.5309428597122431,-1.7721856138557195,0.21594225979447362
1746277831253598200,2.76459814453125,0.5136410117775202,-1.9543337405979633,-0.03675122929215431
1746277831263577300,2.774577392578125,0.45805765624344347,-2.0845605414450166,-0.2826502359330654
1746277831273557200,2.78455712890625,0.38221126488149165,-2.3033447466671464,-0.2910720273196697
1746277831283537200,2.794537109375,0.30896482688486576,-2.49036135622859,-0.2824059057831764
1746277831293516000,2.80451611328125,0.16158669248968363,-2.6121295408099887,-0.2845516856402159
1746277831303496200,2.81449609375,-0.026022183876484632,-2.7174229759305715,-0.3064537208467722
1746277831313476000,2.82447607421875,-0.19163842414319515,-2.8275416392505166,-0.25420915434658525
1746277831323455000,2.834455078125,-0.34544176928028464,-2.946593550610542,-0.10104629907011985
1746277831333435400,2.844435302734375,-0.4424234492599964,-2.9988439623296257,0.08553484168350696
1746277831343415300,2.854415283203125,-0.4045464308083057,-2.980948824676871,0.16195172640979288
1746277831353394200,2.864394287109375,-0.27020956429392096,-2.90985693436563,0.2083615954071283
1746277831363374300,2.874374267578125,-0.16030015981048346,-2.7881004402220246,0.09454875374436378
1746277831373354200,2.884354248046875,-0.013872165746986865,-2.662545722839236,-0.10060177017301321
1746277831383333000,2.8943330078125,0.19494038829803464,-2.5085867487490177,-0.2883972551524639
1746277831393313300,2.904313232421875,0.42630058197677134,-2.351592352485657,-0.4312354080304503
1746277831403292200,2.914292236328125,0.5532990684270859,-2.233629405406117,-0.5432745180189609
1746277831413272000,2.92427197265625,0.5849304704874754,-2.0627830094009636,-0.6982303941920399
1746277831423252200,2.934252197265625,0.5837701945364475,-1.8585235886156557,-0.9537129294753074
1746277831433231000,2.944231201171875,0.541200634354353,-1.5875462548196315,-1.1385893121376633
1746277831443211300,2.954211181640625,0.3939987333089113,-1.3269979605793951,-1.1496598644673823
1746277831453191200,2.964191162109375,0.15971008496284483,-1.2624702510893344,-1.1471247930318116
1746277831463170300,2.97417041015625,-0.07243278352618217,-1.2476865234553813,-1.175929154972732
1746277831473150200,2.984150146484375,-0.26564766320586203,-1.335071961441636,-1.2239315538585185
1746277831483130000,2.994130126953125,-0.4293500326752662,-1.453770237058401,-1.3180021686971186
1746277831493109200,3.004109130859375,-0.5121959275357425,-1.4636924961358309,-1.5150696321517227
1746277831503089200,3.014089111328125,-0.49351124694049353,-1.3038584925323724,-1.7948267769917845
1746277831513069000,3.024069091796875,-0.5278652058325708,-1.0393068078696728,-2.027155231180787
1746277831523048200,3.034048095703125,-0.6415570514641702,-0.689218527957797,-2.239245491722226
1746277831533028000,3.044028076171875,-0.6715868635468184,-0.21156652892827987,-2.531342185914516
1746277831543008300,3.05400830078125,-0.6226226338915527,0.35228199056386944,-2.848949168938398
1746277831552987400,3.0639873046875,-0.6097188747853041,0.8548100721746683,-3.044258390548825
1746277831562967300,3.07396728515625,-0.7672643290601671,1.0695856262773276,-3.0786949131578205
1746277831572947200,3.083947265625,-0.9731715170525014,1.041619176465273,-3.143066555303335
1746277831582926300,3.09392626953125,-1.1160169764541088,0.788231859895587,-3.3650326054319737
1746277831592906200,3.10390625,-1.1463719288378953,0.4663619587302208,-3.69326210475713
1746277831602886100,3.11388623046875,-1.0185831687927245,0.2802186248719692,-4.12232572170645
1746277831612865300,3.123865234375,-0.8318350009091198,0.3566267417699098,-4.667064467059076
1746277831622845200,3.13384521484375,-0.6431142908435314,0.7720727522552013,-5.26457589443922
1746277831632825000,3.1438251953125,-0.5406634587377309,1.4888427194833755,-5.736912835925817
1746277831642804200,3.15380419921875,-0.6379395916193723,2.195184231677651,-5.871419506049156
1746277831652784400,3.163784423828125,-0.9263713335633277,2.7950843077600003,-5.674437382790446
1746277831662764300,3.173764404296875,-1.23220955286026,3.295610986420512,-5.394712678915262
1746277831672743400,3.183743408203125,-1.5129969175308942,3.526280859747529,-5.10239561997056
1746277831682723300,3.193723388671875,-1.7054712079763412,3.3616642980426548,-4.859036360940337
1746277831692702200,3.2037021484375,-1.8535194967180488,2.8427438845574855,-4.654201770615577
1746277831702682400,3.213682373046875,-2.077405993515253,2.2024691279888153,-4.353822401246428
1746277831712662300,3.223662353515625,-2.279151385653019,1.5841846694320438,-4.073083551892638
1746277831722641200,3.23364111328125,-2.433431262260675,1.120101761549711,-3.8096149862915274
1746277831732621300,3.243621337890625,-2.6518992411404847,0.7393132229477166,-3.428095210805535
1746277831742601200,3.253601318359375,-2.8957956757873293,0.41997196347713467,-2.937464195476472
1746277831752580000,3.263580078125,-3.08013225248456,0.2146329307615757,-2.419488953886926
1746277831762560300,3.273560302734375,-3.118982499882579,0.08556348325610161,-1.906121790614724
1746277831772540400,3.28354052734375,-3.014809593224525,0.029115035325288773,-1.3645008850216864
1746277831782519300,3.293519287109375,-2.7980688765287396,0.037632103779911996,-0.8401280513495206
1746277831792499200,3.303499267578125,-2.4458967760801316,0.09904606516361236,-0.20967209348380564
1746277831802479400,3.313479248046875,-1.958433577132225,0.05408697949647903,0.449367569309473
1746277831812458200,3.323458251953125,-1.4940549011737108,-0.05078676890730858,0.958853799495101
1746277831822438100,3.333438232421875,-1.1161545582938939,-0.2243096906453371,1.3291530927866697
1746277831832418300,3.343418212890625,-0.7430605197172612,-0.4239320992797613,1.659564612326026
1746277831842397200,3.353397216796875,-0.37839448307231066,-0.6119967565894127,1.8319909709990023
1746277831852377000,3.363377197265625,-0.0653384413510561,-0.7998106540083885,1.945356068894267
1746277831862357200,3.373357177734375,0.1325976216316223,-0.9835136089771985,2.077002673411369
1746277831872336100,3.383336181640625,0.27025135760903357,-1.12866442271173,2.200957554382086
1746277831882316300,3.39331640625,0.3797698630787432,-1.266793959507346,2.273023258161545
1746277831892296200,3.403296142578125,0.427355790118128,-1.393871940934658,2.361519287738204
1746277831902275300,3.413275390625,0.43191316116154194,-1.5614251406133175,2.4257184959262608
1746277831912255200,3.423255126953125,0.4657825514070689,-1.6990344529271124,2.4629162999421355
1746277831922235100,3.433235107421875,0.4932955583631992,-1.7799106551498174,2.5004952122300863
1746277831932214300,3.44321435546875,0.48463528204560274,-1.8929794004470109,2.5006641390562057
1746277831942194200,3.453194091796875,0.47936355218775567,-1.9396505507290362,2.4880636006802317
1746277831952174000,3.463174072265625,0.4990076523996889,-1.9327415019929408,2.468617141932249
1746277831962153200,3.4731533203125,0.5548994893610477,-1.9369097275882958,2.372141804039478
1746277831972133000,3.483133056640625,0.6497674651224166,-1.9144091419667004,2.2259359282940623
1746277831982113000,3.493113037109375,0.7322014912463725,-1.8868080183356999,2.0529308929502963
1746277831992092200,3.503092041015625,0.7021762822736054,-1.8926842168927192,1.8796850345879792
1746277832002072300,3.513072265625,0.5978426320958882,-1.8346756800383328,1.7189035210013388
1746277832012052200,3.52305224609375,0.4069663514316082,-1.901207715088129,1.7107424263775348
1746277832022031400,3.53303125,0.19035364502966404,-2.074419671180844,1.6870868255019187
1746277832032011300,3.54301123046875,-0.020520225459337234,-2.1974983538389203,1.577548592418432
1746277832041991200,3.5529912109375,-0.17307868510186672,-2.2813205463856456,1.4055769917756318
1746277832051970300,3.56297021484375,-0.3637696723271161,-2.2791315119087696,1.278806468862295
1746277832061950200,3.5729501953125,-0.6125181501150131,-2.211018929669261,1.3243570906817912
1746277832071930000,3.58293017578125,-0.9020265813797712,-2.1159037742137907,1.5054367114096878
1746277832081909200,3.5929091796875,-1.0946833157200366,-1.9221096333414316,1.6431325329631565
1746277832091889200,3.60288916015625,-1.227364450916648,-1.6482909386396407,1.7342518967807292
1746277832101869300,3.612869384765625,-1.293224870315194,-1.3055401620090008,1.839912411648035
1746277832111848200,3.62284814453125,-1.2524889553010463,-0.8517956927895546,1.8572317952394484
1746277832121828400,3.632828369140625,-1.1181114645153283,-0.25383973651230335,1.7814923713833093
1746277832131807200,3.64280712890625,-0.9358896149497479,0.3872989434093237,1.8816110342144965
1746277832141787400,3.652787353515625,-0.7163789951492101,1.0874240653067826,1.9698866990387438
1746277832151767300,3.662767333984375,-0.45687217278592285,1.9713509263724087,1.8859312355011701
1746277832161746200,3.67274609375,-0.18491116171479224,2.9788650041401383,1.610725470355153
1746277832171726300,3.682726318359375,-0.008419964755699038,3.949699748808145,1.4637608851969242
1746277832181706200,3.692706298828125,-0.065394555452466,4.626402494063973,1.6595546754539012
1746277832191685000,3.70268505859375,-0.255192977752164,4.990133514881133,2.088204450905323
1746277832201665300,3.712665283203125,-0.46176228291504084,5.154613298463821,2.4052672440499068
1746277832211645200,3.722645263671875,-0.5775414562147111,5.305716298601031,2.44675719230175
1746277832221624000,3.7326240234375,-0.5665940188080072,5.59936314484477,2.0917712034761906
1746277832231604200,3.742604248046875,-0.45594994337446987,5.979608662611246,1.577388433420658
1746277832241584400,3.75258447265625,-0.3390191158216446,6.251861423170566,1.210885025280714
1746277832251563300,3.762563232421875,-0.4129587967794388,6.318388782045245,1.133591942241788
1746277832261543200,3.772543212890625,-0.767780023497343,6.125917998731136,1.3536118267387152
1746277832271523300,3.7825234375,-1.3382622819155454,5.7870046083062885,1.6812626493930816
1746277832281502200,3.792502197265625,-1.8992554119765757,5.251957820406556,2.011146345666051
1746277832291482000,3.802482177734375,-2.312801141798496,4.4758951217323535,2.056604028505087
1746277832301462300,3.812462158203125,-2.424119244036078,3.650448506686091,1.6406033067464827
1746277832311441200,3.822441162109375,-2.162510042566061,2.8714795651763674,0.8228624437719583
1746277832321421000,3.832421142578125,-1.6071762534409761,2.2705419627398253,-0.1263449909776449
1746277832331401500,3.8424013671875,-0.8824922982178628,1.8256126681387423,-1.0620932246953247
1746277832341380000,3.852380126953125,-0.26241343052498994,1.4874118098974227,-1.8840280322283505
1746277832351360300,3.8623603515625,0.2960777997177094,1.2027934887617826,-2.5087591827064752
1746277832361340200,3.872340087890625,0.8209884665936231,0.8856412637680768,-3.068304452046752
1746277832371319300,3.8823193359375,1.2935223919570444,0.5348427897602319,-3.555902091029286
1746277832381299200,3.89229931640625,1.7563742967396974,0.17542495596706867,-3.8430321027249095
1746277832391279000,3.902279052734375,2.173526526620984,-0.259836346578598,-3.865638486808538
1746277832401258200,3.91225830078125,2.5072908637195823,-0.6820324158459902,-3.6779321414172648
1746277832411238100,3.922238037109375,2.7714304604500533,-0.9689818102777004,-3.3781010535806417
1746277832421218000,3.932218017578125,2.957485531502962,-1.0824953767329453,-3.1563164974987505
1746277832431197200,3.942197265625,2.967103254675865,-1.211492928045988,-2.8283365890204903
1746277832441181000,3.952180908203125,2.82818812046051,-1.358205584269762,-2.3430507341116664
1746277832451160800,3.962160888671875,2.626180277994275,-1.4326988074570894,-1.9621435375660656
1746277832461140000,3.972139892578125,2.397031330624223,-1.4061439780086278,-1.6032903519183397
1746277832471120000,3.982119873046875,2.195341468065977,-1.2268617620915174,-1.2693728700846434
1746277832481099800,3.992099853515625,2.042035551057011,-0.9979548067837953,-0.8218588196873664
1746277832491079000,4.002078857421875,1.8939866777934133,-0.7432938170164823,-0.2967196778178215
1746277832501059000,4.01205908203125,1.7194165850900112,-0.4770353284358978,0.2795265509545803
1746277832511039000,4.0220390625,1.5796259832143782,-0.27606208971440793,0.8372247311234474
1746277832521018000,4.03201806640625,1.4548621239483355,-0.12178513571619987,1.3878689011275767
1746277832530998000,4.041998046875,1.3985380330495536,-0.0634299773812294,1.879792002093792
1746277832540978000,4.05197802734375,1.398469205597043,-0.09662906714975833,2.315247950428724
1746277832550957000,4.06195703125,1.3769431640960275,-0.21100831052362917,2.598051915618777
1746277832560937000,4.07193701171875,1.3739971737720071,-0.3632388533860445,2.738994171747565
1746277832570916900,4.081916748046875,1.3603450805164872,-0.4664601584076881,2.7495214109808206
1746277832580896000,4.09189599609375,1.379243842253834,-0.5252092844963073,2.736105464568734
1746277832590876000,4.1018759765625,1.424803816423565,-0.591904401153326,2.7079712569743393
1746277832600855800,4.111855712890625,1.3353772279985248,-0.5740297217667103,2.728869083574414
1746277832610835000,4.1218349609375,1.1586822520956397,-0.6425514693289995,2.7892800053954123
1746277832620815000,4.131815185546875,1.0086217467486858,-0.7451637025415897,2.8361913941740986
1746277832630795000,4.141794921875,0.8621125041425227,-0.9282534940481185,2.914786207461357
1746277832640774000,4.15177392578125,0.7470388487637043,-1.226174364349246,2.9077111545085907
1746277832650754000,4.161754150390625,0.66170873587206,-1.5576801088660954,2.775591087260842
1746277832660734000,4.17173388671875,0.6348756740041077,-1.826049890512228,2.535595167183876
1746277832670712800,4.181712890625,0.658760115199536,-2.0497452486515044,2.2524410733819007
1746277832680693000,4.19169287109375,0.7519656376414,-2.204730058658123,1.8627561116188764
1746277832690673000,4.2016728515625,0.8543127901770174,-2.256357370042801,1.5698001702487467
1746277832700651800,4.21165185546875,1.0488035350114107,-2.3085019832998515,1.2225140882760286
1746277832710632000,4.2216318359375,1.2339366689138114,-2.3358897564411163,0.8638666543334722
1746277832720612000,4.231612060546875,1.3656300351820885,-2.35096983667314,0.5759159739047288
1746277832730591000,4.241591064453125,1.4574270060002803,-2.3201316308170554,0.2811158659726381
1746277832740571100,4.251571044921875,1.5203969646543263,-2.276654308140278,0.021561843466758726
1746277832750551000,4.261551025390625,1.560753378831595,-2.198071769812703,-0.2739958048343658
1746277832760530000,4.271530029296875,1.5643017189629376,-2.1517554243177175,-0.5540069244354963
1746277832770510000,4.281510009765625,1.541457288339734,-2.192504783335328,-0.8783154509246349
1746277832780490000,4.291489990234375,1.4253924299664795,-2.245138641414046,-1.2220540695488453
1746277832790468900,4.30146875,1.3129450314380229,-2.266947153118253,-1.564697294151783
1746277832800448800,4.31144873046875,1.177874151560664,-2.289842875537276,-1.918647217927873
1746277832810429000,4.321428955078125,1.009463677465543,-2.3847154544085263,-2.284662258028984
1746277832820407800,4.33140771484375,0.7889508948851376,-2.5539199284255503,-2.501664548270404
1746277832830387700,4.3413876953125,0.6606565964706241,-2.5393349382340906,-2.8721973580569027
1746277832840366800,4.351366943359375,0.7398960643369704,-2.2474001566052437,-3.4680648176223037
1746277832850347000,4.361346923828125,0.750582804980874,-1.7717583283543585,-4.007290937033296
1746277832860327000,4.371326904296875,0.5441998161703347,-1.1356588116437196,-4.438061065639555
1746277832870306000,4.38130615234375,0.23441088648624717,-0.23666472982764242,-4.83474830738008
1746277832880286000,4.391285888671875,0.10030344481356442,0.9259949014663695,-5.3069449636131525
1746277832890265900,4.401265869140625,0.002127111689187586,2.1261972046911715,-5.672634132760763
1746277832900245000,4.411244873046875,-0.3721866779407486,3.011125351753831,-5.602367587357759
1746277832910225000,4.421224853515625,-1.0095435377687214,3.3086855720490216,-5.126545726364851
1746277832920204800,4.431204833984375,-1.6368302179485559,3.0674229930371046,-4.61454605205357
1746277832930184000,4.441183837890625,-2.0274457385599614,2.3355478111356494,-4.281517920275032
1746277832940163800,4.451163818359375,-2.1762901461154223,1.4201917925834655,-4.164758796027303
1746277832950144000,4.46114404296875,-2.1441221529603003,0.7672048539578914,-4.349541655187308
1746277832960123000,4.471122802734375,-2.0527999600470066,0.49471419298946856,-4.962416655915975
1746277832970103000,4.48110302734375,-2.016160958957672,0.6373731899082661,-5.841449315199256
1746277832980083000,4.4910830078125,-2.16178406637907,1.1309054796367883,-6.603460692167282
1746277832990062000,4.50106201171875,-2.394737082207203,1.8118068456262348,-6.98804745400846
1746277833000042000,4.5110419921875,-2.5402690042138096,2.5801731445789335,-6.889632087963819
1746277833010022000,4.52102197265625,-2.4991408750116824,3.335430955633521,-6.304702201998233
1746277833020001000,4.5310009765625,-2.253545819753408,3.7872722215801473,-5.418190585136413
1746277833029981000,4.54098095703125,-1.9185843818247317,3.872675545838475,-4.344795045182108
1746277833039960800,4.5509609375,-1.586454367929697,3.6620927672505377,-3.2220605970412493
1746277833049940000,4.56093994140625,-1.3614695545017719,3.214984959566593,-2.1411118652284142
1746277833059920000,4.570919921875,-1.266109484374523,2.6319880874902006,-1.248058279377222
1746277833069900000,4.580900146484375,-1.2990367714643478,2.013848005840182,-0.605520838573575
1746277833079879200,4.590879150390625,-1.348472125762701,1.3789596184849737,-0.11982406477630138
1746277833089859000,4.600859130859375,-1.457560276991129,0.7887748807311058,0.16058160710036753
1746277833099839000,4.6108388671875,-1.643003353625536,0.2448661564618349,0.36613223673999307
1746277833109817900,4.62081787109375,-1.7974281916618347,-0.2055781021684408,0.5217138435959816
1746277833119798000,4.630798095703125,-1.7937860357671975,-0.512326422047615,0.6044307052493095
1746277833129778000,4.64077783203125,-1.5709996091663836,-0.6028045653522014,0.6373837113022804
1746277833139756800,4.6507568359375,-1.2323580214202403,-0.6260282045513391,0.815692113751173
1746277833149737000,4.660737060546875,-0.8990449352204799,-0.7071738713651895,1.1088082141190767
1746277833159716900,4.670716796875,-0.5391180559266359,-0.6854582986414433,1.2987129463374614
1746277833169695700,4.68069580078125,-0.17642741100788115,-0.5976765548139811,1.4516823248684405
1746277833179676200,4.69067626953125,0.23639709186740218,-0.45493572483062744,1.5896400122284888
1746277833189656000,4.700656005859375,0.6245283213824033,-0.34542379523217676,1.775409252077341
1746277833199635000,4.710635009765625,0.953460489084199,-0.30702187612354753,2.0007628988176585
1746277833209615000,4.720614990234375,1.2124609693605453,-0.3099421474844217,2.140778687751293
1746277833219595000,4.730594970703125,1.4898359683044253,-0.34932840145528316,2.186814462739229
1746277833229574000,4.740573974609375,1.717952942278236,-0.4119838873326778,2.1580559857666493
1746277833239554000,4.750553955078125,1.9326818807601926,-0.4542302069097757,2.067319483786821
1746277833249534000,4.760533935546875,2.1399252857923505,-0.5400210691809654,1.922147627264261
1746277833259512800,4.770512939453125,2.2876982647240163,-0.5950070433437824,1.7199281878739594
1746277833269493000,4.780492919921875,2.380763063520938,-0.6319394744217396,1.4568781399458646
1746277833279473000,4.790472900390625,2.400014730349183,-0.6863391731292009,1.1230623649209737
1746277833289451800,4.80045166015625,2.306259903461486,-0.7469687061369419,0.7873965781152248
1746277833299432000,4.810431884765625,2.1244407164126633,-0.8334820374637841,0.5484194796919822
1746277833309412000,4.820412109375,1.8856630860842762,-0.9152636640936136,0.3094032183021307
1746277833319391000,4.830390869140625,1.6151660831511019,-0.9872083718419075,0.0991010102212429
1746277833329371000,4.840370849609375,1.329849842879176,-1.0928957747161387,-0.09823065712749958
1746277833339351000,4.85035107421875,1.0700416264165191,-1.205868073901534,-0.22732699263989925
1746277833349330000,4.860329833984375,0.925113004065305,-1.2967559670507907,-0.37437925608158107
1746277833359309800,4.870309814453125,0.8209189084887504,-1.3920944098681212,-0.4596504783928394
1746277833369290000,4.8802900390625,0.7243898676473647,-1.5061410602867602,-0.5280851321935653
1746277833379268900,4.890268798828125,0.5917384700018912,-1.554625981992483,-0.5064122295677662
1746277833389248800,4.900248779296875,0.4208575141400099,-1.5853116276353596,-0.3830377788335085
1746277833399229000,4.91022900390625,0.2501291184913367,-1.690885048741102,-0.2702951967507601
1746277833409208000,4.9202080078125,0.052764790982007974,-1.7564251501441002,-0.14453531218469143
1746277833419188000,4.93018798828125,-0.18214929578602312,-1.7824200076222418,-0.01790215191543102
1746277833429167900,4.94016796875,-0.3675836045920849,-1.750496344617009,0.12019523617625236
1746277833439147000,4.95014697265625,-0.5320839195061474,-1.6664029339134692,0.34589491987526416
1746277833449124400,4.960124267578125,-0.6482540648847818,-1.5788719499766826,0.5300315900862217
1746277833459104300,4.970104248046875,-0.6738824271380901,-1.4612877730816602,0.6454635573834181
1746277833469083400,4.98008349609375,-0.6481582032948732,-1.2978811716884373,0.7888181353509426
1746277833479063300,4.990063232421875,-0.5405448373267426,-1.154547051987052,0.9679793552368878
1746277833489043200,5.000043212890625,-0.4868073653876781,-0.9922814373224973,1.2079863812297582
1746277833499022300,5.010022216796875,-0.4521305677494034,-0.8280266946673392,1.488250598809123
1746277833509002200,5.020002197265625,-0.43558856173865496,-0.6783189482808113,1.7629086669445038
1746277833518982400,5.029982421875,-0.40471999727692454,-0.594879033049941,2.1067104139328
1746277833528961500,5.03996142578125,-0.34634270017538216,-0.5122247152388095,2.4249112711966037
1746277833538941400,5.04994140625,-0.3301888166993856,-0.3840823194503784,2.67223592672646
1746277833548921300,5.05992138671875,-0.28974519916269925,-0.21164485486149787,2.8275936616986987
1746277833558900500,5.069900390625,-0.20509937874078749,-0.035309798312187196,2.974694440457225
1746277833568880400,5.07988037109375,-0.18113160664346067,0.14080021730959413,3.162829824915528
1746277833578860300,5.0898603515625,-0.1939671593517065,0.24970365962088106,3.409581064471602
1746277833588839200,5.099839111328125,-0.1787620645005256,0.3435100705653429,3.592767886611819
1746277833598819300,5.1098193359375,-0.07464468742199241,0.6483207003802061,3.5470419082254168
1746277833608799200,5.11979931640625,0.13503569896612316,1.0722989768892526,3.3322277756780383
1746277833618778000,5.129778076171875,0.3761340638596564,1.4877075779736042,3.161662534701824
1746277833628758500,5.139758544921875,0.5344949992358684,1.8339409360229968,3.090882194557786
1746277833638738400,5.149738525390625,0.6805272719800471,2.1866163098186253,3.0405367396771905
1746277833648717300,5.15971728515625,0.9070189097743481,2.6568840438157317,2.85791690376997
1746277833658697500,5.169697509765625,1.1724818640630692,3.2475667942196127,2.538336574846506
1746277833668677400,5.179677490234375,1.2849801890611647,3.7408477395355697,2.406402385559678
1746277833678656300,5.18965625,1.1350544160097837,3.911734467551112,2.5201503452926874
1746277833688636400,5.199636474609375,0.7844483227688819,3.9838101082026958,2.6427199093848466
1746277833698616300,5.2096162109375,0.45897652465403077,4.237534693902731,2.462716393455863
1746277833708595200,5.21959521484375,0.3155991868654266,4.718344280180335,1.782550356003642
1746277833718575400,5.229575439453125,0.23924364040493964,5.301010897389054,0.95327921423316
1746277833728555300,5.23955517578125,0.07622928973231465,5.81161940960288,0.4101742075622081
1746277833738534100,5.2495341796875,-0.2662286414315924,6.162990130540728,0.18821487943530082
1746277833748514300,5.259514404296875,-0.7347849318683147,6.292766265010833,0.08966156622469425
1746277833758494500,5.269494384765625,-1.305754097020626,6.1835097714781755,0.09401508525907992
1746277833768473300,5.279473388671875,-1.8001766135871409,5.845419972395897,0.01882978815436363
1746277833778453200,5.289453369140625,-2.095071414065361,5.319150949713587,-0.31116964345276354
1746277833788433400,5.299433349609375,-2.220479416453838,4.623880866631866,-0.7631786671817302
1746277833798412300,5.309412353515625,-2.264231464418769,3.8761137035936115,-1.4242746779829263
1746277833808392200,5.31939208984375,-2.1525772620946166,3.155283647319674,-2.1015771426975727
1746277833818372400,5.329372314453125,-1.9593039302259683,2.4362726231664418,-2.750033452156186
1746277833828351200,5.339351318359375,-1.691160943073034,1.7695967664062975,-3.403193409261107
1746277833838331100,5.3493310546875,-1.2825596839159725,1.1508750854760408,-3.999195893383026
1746277833848311600,5.3593115234375,-0.7377922969907522,0.5638672241926193,-4.448196382945776
1746277833858290400,5.36929052734375,-0.15142689832933245,-0.06828092454373837,-4.682009814995527
1746277833868270300,5.379270263671875,0.49706747811734675,-0.7227537178128958,-4.759772269111871
1746277833878250200,5.389250244140625,1.1860123767655342,-1.281751290142536,-4.649904950204491
1746277833888229400,5.3992294921875,1.84316220722422,-1.7529086664557456,-4.393583918270468
1746277833898209300,5.409209228515625,2.3938795885950324,-2.214073641064763,-4.0997482714563604
1746277833908189200,5.419189208984375,2.8313094673514363,-2.5868571523874997,-3.8348879592359064
1746277833918168300,5.429168212890625,3.21922449683249,-2.8016613480627535,-3.5554636996120212
1746277833928148200,5.439148193359375,3.485748358350992,-2.9411849695652723,-3.348090530720353
1746277833938128100,5.449128173828125,3.5870062543451784,-3.0186335354268548,-3.0809213570356366
1746277833948107300,5.459107177734375,3.5308617577970027,-3.0842823579013348,-2.7828169468611477
1746277833958087200,5.469087158203125,3.3276848715513943,-3.1056384496629237,-2.454165422731638
1746277833968067300,5.4790673828125,3.025670009934902,-3.055155632138252,-2.140385304519534
1746277833978046500,5.48904638671875,2.6578140181422234,-2.99825827139616,-1.8725053522169588
1746277833988026400,5.4990263671875,2.2608755781196055,-2.928273465543985,-1.5362603042185305
1746277833998006300,5.50900634765625,1.8139274910420178,-2.7960142820864915,-1.2165928815335034
1746277834007985400,5.5189853515625,1.3429977860048412,-2.5846155109405515,-0.8873580045580863
1746277834017965300,5.52896533203125,0.9136668964214623,-2.39985223326385,-0.5681576148629188
1746277834027945200,5.5389453125,0.48796354968547817,-2.2343711636841297,-0.31271862646043297
1746277834037924400,5.54892431640625,0.11233758147843181,-2.0750790118724107,-0.07659107224941253
1746277834047904300,5.558904296875,-0.24035963882282374,-1.9428689282536507,0.08435761459767818
1746277834057884200,5.56888427734375,-0.5198316100459546,-1.8422879086077213,0.2379290506750345
1746277834067863300,5.57886328125,-0.7231435208480804,-1.7821710012972354,0.3190022367745638
1746277834077843500,5.588843505859375,-0.8337111700445413,-1.7440519907832144,0.34030922869741914
1746277834087823400,5.5988232421875,-0.8818260163288563,-1.7610072172373532,0.3221551478475332
1746277834097802500,5.608802490234375,-0.8402718437343836,-1.7927070083588361,0.2890332149684429
1746277834107782400,5.618782470703125,-0.7703056695174425,-1.85827341324687,0.26987375646829603
1746277834117762300,5.62876220703125,-0.622337533339858,-1.9767729514211414,0.33546529579758644
1746277834127741400,5.638741455078125,-0.4102940345495939,-2.132235315811634,0.3640057461053133
1746277834137721300,5.648721435546875,-0.18690891140326857,-2.343849775534868,0.3176426388591528
1746277834147701200,5.658701171875,0.011560673934221267,-2.5174860945194957,0.24266660059094428
1746277834157680400,5.668680419921875,0.16224223378896713,-2.683018017503619,0.17397826429009436
1746277834167660300,5.678660400390625,0.3228478062868118,-2.8595155711382625,0.037407062852382655
1746277834177640200,5.68864013671875,0.49619946311116214,-2.9590152252882715,-0.11548398974537849
1746277834187619300,5.698619384765625,0.6609761838138103,-3.042596594816446,-0.32495559222102166
1746277834197599500,5.708599609375,0.8080775470942259,-3.0606583212077614,-0.5373053804814816
1746277834207579400,5.718579345703125,0.9676270346678792,-3.0474072099685667,-0.7898825497120618
1746277834217558300,5.728558349609375,1.1378026918046176,-2.9396681352615355,-1.000566450586915
1746277834227538400,5.738538330078125,1.313769207302481,-2.772307243284583,-1.1871376544684171
1746277834237518300,5.748518310546875,1.4581525437958538,-2.5250024614989757,-1.3262158702909945
1746277834247497200,5.758497314453125,1.5795673848949372,-2.2289520612448452,-1.465734231096506
1746277834257477400,5.768477294921875,1.6361768686063587,-1.8824410552978514,-1.54976392891407
1746277834267457300,5.778457275390625,1.5914175432950257,-1.587485464543104,-1.4882108513206243
1746277834277436200,5.788436279296875,1.4769931456051766,-1.3894260674417018,-1.452930863624811
1746277834287416300,5.798416259765625,1.2942986370265483,-1.195983224225044,-1.482965351882577
1746277834297396500,5.808396484375,1.0653145248293876,-0.9963099621862173,-1.5130179603189229
1746277834307375400,5.818375244140625,0.7823761196047068,-0.8573679399639368,-1.5702023213088512
1746277834317355500,5.82835546875,0.5074829275391995,-0.8763964655607939,-1.476622120335698
1746277834327335400,5.83833544921875,0.36039106273949145,-0.7442857506632804,-1.5774468856096266
1746277834337314300,5.848314208984375,0.36045543321259316,-0.46629766132235523,-1.7575468476504086
1746277834347294200,5.858294189453125,0.26153160618916155,-0.20115677859485148,-1.7332745761811732
1746277834357274400,5.8682744140625,0.0006324526846408844,-0.08216215038001537,-1.3518658598542213
1746277834367253200,5.878253173828125,-0.23779475677087902,-0.03924655323922634,-1.02655546284616
1746277834377233200,5.888233154296875,-0.12093684832379221,0.11180793158113955,-1.125650627848506
1746277834387213300,5.89821337890625,0.2756354618001729,0.4738566983997822,-1.492531052607298
1746277834397192200,5.908192138671875,0.6036668812699616,0.7808195378124714,-1.6260434509962796
1746277834407172000,5.918172119140625,0.7261766779989004,1.09087917419672,-1.586208284214139
1746277834417152500,5.928152587890625,0.8037795576393604,1.472069863858819,-1.6053455308824776
1746277834427131400,5.93813134765625,0.9363737452048808,1.8754174402713775,-1.7362959698289633
1746277834437111300,5.948111328125,1.0913877082407475,2.3813784189403058,-2.0012083044975997
1746277834447091200,5.95809130859375,1.2242577901382,3.0894635599315166,-2.3814438853919504
1746277834457070000,5.968070068359375,1.2928149743400514,3.97872885941565,-2.8594600415587426
1746277834467050000,5.978050048828125,1.1658055281043052,4.914333885270357,-3.164215726315975
1746277834477030400,5.988030517578125,0.8087065657127648,5.691180427798629,-3.2408494686633347
1746277834487009300,5.99800927734375,0.32433957921452816,6.113810212308168,-3.055088996642828
1746277834496989200,6.0079892578125,-0.16928988727815447,6.133796769282221,-2.7529233283787966
1746277834506969000,6.017968994140625,-0.7284229956209659,5.697083514362573,-2.4068285020172593
1746277834516948200,6.0279482421875,-1.2889514307796954,4.986263395449519,-2.146805108433962
1746277834526928100,6.03792822265625,-1.7841425936311481,4.0990006679594515,-1.9664532174587248
1746277834536908000,6.047907958984375,-2.149973217076063,3.189236770325899,-1.8327865052908658
1746277834546887200,6.05788720703125,-2.392884732338786,2.3065338980972765,-1.8458797956198454
1746277834556867000,6.0678671875,-2.593641697961092,1.5158698426187038,-1.8756056563198564
1746277834566847000,6.077846923828125,-2.76998143068552,0.8223153312832117,-1.8708698599696159
1746277834576826000,6.087826171875,-2.9036843832105395,0.25786183163523674,-1.791289542776346
1746277834586806300,6.09780615234375,-2.862670235776901,-0.22282208243608473,-1.7596195622712372
1746277834596786200,6.1077861328125,-2.656267957744002,-0.515191163828969,-1.7023077755093574
1746277834606765300,6.117765380859375,-2.2986855226844547,-0.720386404159665,-1.5617618252217769
1746277834616745200,6.1277451171875,-1.7514152130275964,-0.8090431772559881,-1.2722241678625343
1746277834626725000,6.13772509765625,-1.1495768623590468,-0.7906471043437718,-0.9127554806649685
1746277834636704300,6.147704345703125,-0.47057102779261767,-0.7946148389309644,-0.6192085876643657
1746277834646684200,6.15768408203125,0.21195231337547302,-0.8993956483542919,-0.2973597292870283
1746277834656664000,6.1676640625,0.8361427811056376,-0.966361983168125,-0.0009656301617622375
1746277834666643200,6.177643310546875,1.4346096095144747,-0.9387836558908224,0.2986293108314276
1746277834676623000,6.187623046875,2.0053882205307483,-0.8853490028232336,0.6267804842233657
1746277834686603300,6.197603271484375,2.599225051051378,-0.8742693904042244,0.9814993465453385
1746277834696582100,6.20758203125,3.1740918081641194,-0.8941507334381341,1.350542502295971
1746277834706562300,6.217562255859375,3.6612992787852883,-0.929890155339241,1.749461740872264
1746277834716542200,6.227542236328125,4.001104941874742,-0.9237497528880834,2.076065100300312
1746277834726521300,6.237521240234375,4.147918135863542,-0.9721154321283102,2.3752912079811095
1746277834736501200,6.247501220703125,4.17477750121653,-1.0273585959225893,2.5796763009727
1746277834746481200,6.257481201171875,4.103819758678973,-1.0599813471078872,2.7558377545207735
1746277834756460300,6.267460205078125,3.9815754810184236,-1.0041834720402956,2.825444374710321
1746277834766440200,6.277440185546875,3.8582676657795902,-0.8243862923383712,2.8217759153306483
1746277834776420000,6.287420166015625,3.698798988357186,-0.5767565163820981,2.793116807079315
1746277834786399200,6.297399169921875,3.5089012704014775,-0.19688392358124254,2.766975234606862
1746277834796379100,6.307379150390625,3.3134932645916937,0.3452794183254242,2.730027605959773
1746277834806359300,6.317359375,3.162204678754508,0.9326900151908397,2.750774041390419
1746277834816338200,6.327338134765625,3.0357179412186146,1.5801923849254846,2.8535698144763706
1746277834826318300,6.337318359375,2.901961797201633,2.1759324187189337,3.000283055222034
1746277834836298200,6.34729833984375,2.703398542231321,2.719963308063149,3.170093678438663
1746277834846277000,6.357277099609375,2.480145082640648,3.156087949439883,3.2533266729205845
1746277834856257300,6.36725732421875,2.272676052159071,3.5063235288679597,3.1772160776644944
1746277834866237200,6.3772373046875,2.024173585021496,3.718980775642395,2.988423690602183
1746277834876216000,6.387216064453125,1.6967355283349752,3.7645430878996846,2.7108091107487677
1746277834886196200,6.3971962890625,1.328774468732625,3.722507196202874,2.318131396910548
1746277834896176000,6.407176025390625,1.0605984560929238,3.735813837021589,1.7609996184527872
1746277834906155000,6.417155029296875,0.8306015135914087,3.799617908412218,1.1475035632163286
1746277834916135400,6.427135498046875,0.5745446855515242,3.773468152633309,0.7446972540736198
1746277834926115300,6.437115234375,0.26247093286588785,3.733622464457154,0.42177112185359
1746277834936094200,6.44709423828125,0.012564298018813133,3.8010897345304486,0.08118132264912128
1746277834946074400,6.457074462890625,-0.16642931021526455,4.123865060102939,-0.2896159832924604
1746277834956054300,6.46705419921875,-0.343335444650799,4.593843455764651,-0.6206091021120548
1746277834966033200,6.477033203125,-0.6663953593183308,4.907139589852094,-0.6609720921605825
1746277834976013000,6.487012939453125,-1.1674311565447597,4.942817052432894,-0.3952168769270181
1746277834985993200,6.4969931640625,-1.6589719071298836,4.643452413064241,0.04921849667727947
1746277834995972000,6.50697216796875,-2.045590467059612,3.9666801097035407,0.4074526736438274
1746277835005952000,6.516951904296875,-2.2684084578424693,2.9424247404932973,0.5590905113101006
1746277835015932200,6.52693212890625,-2.3432079704999924,1.6386042418837545,0.5944862343400716
1746277835025911000,6.5369111328125,-2.210585798949003,0.3316232334166765,0.47011400474011894
1746277835035891200,6.54689111328125,-1.8388316306740045,-0.7330652684688568,0.09945990666151046
1746277835045871400,6.556871337890625,-1.4727256974190472,-1.5582880116313695,-0.400780356273055
1746277835055850200,6.566850341796875,-1.11491939047575,-2.1239257526278497,-0.9686065472245216
1746277835065830100,6.576830078125,-0.728406044486165,-2.4609148969918486,-1.4804858100265263
1746277835075810300,6.586810302734375,-0.38786881571915,-2.613906487354636,-1.8217150761783123
1746277835085789200,6.5967890625,-0.1074404205540195,-2.5743501375138758,-2.0277859302997587
1746277835095769000,6.60676904296875,0.25720892068445683,-2.209530736938119,-2.0902941166609526
1746277835105749200,6.616749267578125,0.6304793387413025,-1.6096575488626956,-1.9474661929160355
1746277835115728100,6.62672802734375,0.9502554824978112,-0.9684516489237547,-1.7422130849182604
1746277835125708000,6.6367080078125,1.1763561482131482,-0.39870121191143987,-1.480522050383687
1746277835135688200,6.646688232421875,1.3195675183176994,0.08275719366371631,-1.04647363075912
1746277835145667000,6.6566669921875,1.4461813893646,0.48514147800207136,-0.5309639025002718
1746277835155647200,6.666647216796875,1.428812905934453,0.7489572496056556,0.016910802790522574
1746277835165627100,6.676627197265625,1.2635241440564393,0.91280867215693,0.5230658427268267
1746277835175606300,6.686606201171875,0.8898375464141368,0.9805524210840463,1.0449363381892443
1746277835185586200,6.696586181640625,0.3261807501018047,0.9699152917355298,1.4500059160888195
1746277835195566000,6.706566162109375,-0.2779997797787189,0.8870674971789121,1.6957465172976254
1746277835205545200,6.716545166015625,-0.8702326822340488,0.7164537408858537,1.8427800760388373
1746277835215525000,6.726525146484375,-1.3823030836939811,0.5132675022900104,1.9047873271405695
1746277835225505000,6.736505126953125,-1.8487527207076548,0.343642172512412,1.870707362884283
1746277835235484200,6.746484130859375,-2.1989807013511657,0.2440466567724943,1.8137305071651935
1746277835245464000,6.756464111328125,-2.379590951001644,0.19284429280161858,1.7661258754253386
1746277835255444200,6.7664443359375,-2.4783681360960004,0.1399433082193136,1.7259569466441869
1746277835265423400,6.77642333984375,-2.4199054257333277,0.09656769235134124,1.6850521048039198
1746277835275403300,6.7864033203125,-2.2529168742001056,0.051801498907804486,1.6701140633910894
1746277835285383200,6.796383056640625,-1.8836743964850902,-0.03766074535250664,1.646643755954504
1746277835295362300,6.8063623046875,-1.4225404015362262,-0.12599369332194327,1.5846797594726085
1746277835305342200,6.81634228515625,-0.9803636205136775,-0.2600204709738493,1.5050602793127297
1746277835315322000,6.826322021484375,-0.6195803435862064,-0.46694998775124547,1.4236638526082037
1746277835325301200,6.83630126953125,-0.33050153591036796,-0.6398848804682493,1.3447276785373687
1746277835335281200,6.84628125,-0.07968319304585457,-0.8142565279901027,1.2936463105976581
1746277835345261000,6.856260986328125,0.14355799158513546,-0.9816115747481584,1.265790919944644
1746277835355240200,6.866240234375,0.29439737235009666,-1.1540566381216049,1.2297463776171207
1746277835365220400,6.876220458984375,0.3726192606717348,-1.3134867370992898,1.1800386361181736
1746277835375200300,6.8862001953125,0.4316881202340126,-1.4306260928362606,1.102356261500716
1746277835385179400,6.896179443359375,0.44738253297209735,-1.504787307590246,1.0553846669673919
1746277835395159300,6.9061591796875,0.42452597351968285,-1.481853591248393,1.0104185670375823
1746277835405139200,6.91613916015625,0.35775077736377714,-1.511471899920702,1.0976134508877993
1746277835415118300,6.926118408203125,0.23479776691198348,-1.4921365003317593,1.1261568238049744
1746277835425098200,6.93609814453125,0.0996978070706129,-1.394134975785017,1.0722925471484661
1746277835435078100,6.946078125,-0.03315641967058182,-1.2518997572362422,0.9921417365908622
1746277835445056800,6.956056884765625,-0.15563538286983966,-1.0818255146473645,0.9464332938611507
1746277835455036700,6.96603662109375,-0.30995442244410515,-0.9305991803914307,0.902472571581602
1746277835465016600,6.9760166015625,-0.46883448632359503,-0.6979606373399496,0.7762544218540192
1746277835474995700,6.98599560546875,-0.586212326991558,-0.48007484226226804,0.6151151808708906
1746277835484975600,6.9959755859375,-0.7627636566400527,-0.33505028525590896,0.4849035775929689
1746277835494955500,7.00595556640625,-0.9237900848984718,-0.3102951987057924,0.31155776598751544
1746277835504934700,7.0159345703125,-1.00318686221838,-0.3790934251219034,-0.017813889110088348
1746277835514914600,7.02591455078125,-1.0186953969955443,-0.5106769012749195,-0.5607037917256354
1746277835524894500,7.03589453125,-1.0279869569540023,-0.6879378404974937,-1.219784955573082
1746277835534873600,7.04587353515625,-0.9626771571755409,-0.7855670246005058,-1.9078692188039421
1746277835544853500,7.055853515625,-0.8363923719525337,-0.7983037565767764,-2.668642286148667
1746277835554833700,7.065833740234375,-0.7588239791035651,-0.7494698753029108,-3.456812478984892
1746277835564812500,7.0758125,-0.7598550757169723,-0.6531979510277509,-4.151628973080218
1746277835574792700,7.085792724609375,-0.8429144671976566,-0.5142582668930292,-4.6525814759373665
1746277835584772600,7.095772705078125,-0.9703601128935814,-0.36704350636601446,-5.1079035697370765
1746277835594751500,7.10575146484375,-1.100885019904375,-0.17692016296088695,-5.587555802673101
1746277835604731600,7.115731689453125,-1.2515490441024302,0.040457098072767254,-6.0082303614616395
1746277835614711600,7.125711669921875,-1.4307260460793971,0.23548984082937238,-6.312471666955948
1746277835624690400,7.1356904296875,-1.6735937222003936,0.4597422483295202,-6.511136044213176
1746277835634670600,7.145670654296875,-2.014960350996256,0.6129033500403166,-6.56728229432702
1746277835644650500,7.155650390625,-2.4728759684205053,0.5882949784845113,-6.42022769279778
1746277835654629400,7.16562939453125,-3.0193337926506993,0.2996510550945997,-6.137789053788781
1746277835664609800,7.17560986328125,-3.4777333941996096,-0.16449381210803984,-5.843475852590799
1746277835674589700,7.185589599609375,-3.7432150531888007,-0.7669839046835899,-5.697341873037815
1746277835684568600,7.195568603515625,-3.8082676633358,-1.4060679901629685,-5.669662423473596
1746277835694548500,7.205548583984375,-3.8066707495331764,-2.0692180108845233,-5.6654638027399775
1746277835704528600,7.215528564453125,-3.824388777053356,-2.7379695048749446,-5.703956322741508
1746277835714507500,7.225507568359375,-3.8364755206882952,-3.2968314681261774,-5.729598128998279
1746277835724487400,7.2354873046875,-3.7630513880372045,-3.6316152114003897,-5.835396591031551
1746277835734467600,7.245467529296875,-3.536007888513803,-3.703665133088827,-5.944957035946846
1746277835744446500,7.255446533203125,-3.19205065870285,-3.5405741735160348,-5.9812897475659845
1746277835754426400,7.26542626953125,-2.6401123572349547,-3.133217361462116,-5.85729278101921
1746277835764406800,7.27540673828125,-1.8767559953987598,-2.5073785420030354,-5.657101048064232
1746277835774385400,7.285385498046875,-1.0691174242436885,-1.8332944548130035,-5.418303982383012
1746277835784365600,7.295365478515625,-0.3192822227597236,-1.2615864539921282,-5.0383402041673655
1746277835794345700,7.305345703125,0.36491350859999655,-0.722467886608839,-4.694749761842191
1746277835804324600,7.31532470703125,0.9940560457795857,-0.1635854650914669,-4.416926507674157
1746277835814304500,7.325304443359375,1.5315022960364817,0.42589959996044635,-4.144150307762622
1746277835824284700,7.33528466796875,1.9278356097728013,0.9642541972339153,-3.843997440625727
1746277835834263600,7.345263671875,2.1163100169271227,1.3910884476959704,-3.4606372979700564
1746277835844243500,7.355243408203125,2.118204452371597,1.752402470499277,-3.014793226611614
1746277835854223600,7.3652236328125,1.9609382534295319,2.015177793139219,-2.577805830925703
1746277835864202500,7.375202392578125,1.7179039885699747,2.2583178564608097,-2.1369904013842342
1746277835874182400,7.385182373046875,1.336951783838868,2.377688332250714,-1.6701292609602212
1746277835884162600,7.39516259765625,0.9423194288015365,2.4411937129557133,-1.234490357273817
1746277835894141700,7.4051416015625,0.5746890624582767,2.4719267048716542,-0.8478419867277145
1746277835904121600,7.41512158203125,0.32064415876269337,2.522823948416114,-0.5335685320407152
1746277835914101500,7.4251015625,0.16299458652622997,2.6089380512923,-0.20819617571234703
1746277835924080600,7.43508056640625,0.07200374445915221,2.6892911064237355,0.08071721226871013
1746277835934060500,7.445060546875,0.04846095630824566,2.804232075333595,0.39628479841947556
1746277835944040400,7.45504052734375,0.05408763708360493,2.9327339520841833,0.7184995674997567
1746277835954019600,7.46501953125,0.08836385456435382,3.0275977631270883,1.105786235949397
1746277835963999500,7.47499951171875,0.12516140721626579,3.0708775174051524,1.5073732324302196
1746277835973979400,7.4849794921875,0.16097915505059063,3.0423820752829314,1.902116062104702
1746277835983958500,7.49495849609375,0.2251806282609701,2.9316993483394382,2.248244206213951
1746277835993938700,7.504938720703125,0.34118425796627994,2.778659242659807,2.4741063869982955
1746277836003918600,7.514918701171875,0.5520347475796937,2.6429215694367882,2.63903917504549
1746277836013897700,7.524897705078125,0.7750405160196125,2.550359605595469,2.7944501015096903
1746277836023877600,7.534877685546875,0.9922305839180946,2.5314333713293076,2.9965690031349657
1746277836033857500,7.544857421875,1.2570786211788654,2.4951252096295353,3.23451675851047
1746277836043836700,7.554836669921875,1.5278611630551515,2.463676178398728,3.4703555589079853
1746277836053816600,7.564816650390625,1.837959524014592,2.4343729270249606,3.660480655878782
1746277836063796500,7.57479638671875,2.1296938146352766,2.417305472368002,3.900154504394531
1746277836073775600,7.584775634765625,2.369023379758,2.3797429266929626,4.206234131231904
1746277836083755500,7.594755615234375,2.6229905420422552,2.3499515995413063,4.498571648442745
1746277836093735400,7.6047353515625,2.9055063379406927,2.28051098356843,4.8024178171396255
1746277836103714600,7.614714599609375,3.2011607246145606,2.1992197708040475,5.083837049973011
1746277836113694700,7.62469482421875,3.4003605239227412,2.0862977405011653,5.271139490738511
1746277836123674600,7.634674560546875,3.5227006631731985,1.9476561625301836,5.414798020088672
1746277836133653800,7.64465380859375,3.578571311216056,1.864276453053951,5.486464495417476
1746277836143633700,7.654633544921875,3.6291868152096867,1.852357467201352,5.436133069062232
1746277836153613600,7.664613525390625,3.654902855746448,1.8654086719542742,5.380290770331025
1746277836163592700,7.6745927734375,3.635388884720206,1.9121546410381793,5.318374120122194
1746277836173572600,7.684572509765625,3.5861198268994685,2.0254647938758135,5.2249160842239855
1746277836183552500,7.694552490234375,3.4836586925953625,2.246233450913429,5.1214247300893065
1746277836193531400,7.704531494140625,3.2544682441711426,2.5453327173441647,5.060087341073155
1746277836203511600,7.714511474609375,2.955650425030291,2.7715514564812183,5.083850493976474
1746277836213491700,7.72449169921875,2.6175503968149423,3.003055442544818,5.101274506986141
1746277836223470300,7.73447021484375,2.2126471153929828,3.193360572257638,5.07412171164453
1746277836233450800,7.74445068359375,1.800180851370841,3.314179493290186,5.059246214073896
1746277836243430700,7.7544306640625,1.4076919381029902,3.316629224529862,5.027567465740442
1746277836253409500,7.764409423828125,1.006384343085438,3.251478999227285,4.934682261294126
1746277836263389700,7.7743896484375,0.6754578597612678,3.0983067916005846,4.79397965914011
1746277836273369600,7.78436962890625,0.4117962558060884,2.9002181684046984,4.510806276115775
1746277836283348500,7.794348388671875,0.24850845848694442,2.7575106561690568,4.088816543075442
1746277836293328600,7.80432861328125,0.21069807553067801,2.763634692007303,3.5070343074858186
1746277836303308500,7.81430859375,0.3186692054279148,2.977047725585103,2.8674831890165806
1746277836313287400,7.824287353515625,0.41933775722682476,3.2327111703932285,2.4789275235444306
1746277836323267600,7.834267578125,0.4027865815289318,3.446449198141694,2.240057392627001
1746277836333247700,7.844247802734375,0.3189483146302402,3.619217502120137,1.9832780955314635
1746277836343226600,7.8542265625,0.22420279620476066,3.8334699091315265,1.5441478425979613
1746277836353206500,7.86420654296875,0.12934782605543732,4.061624000245333,1.026029393145442
1746277836363186700,7.874186767578125,0.023204934498667715,4.3654497106760735,0.39182314283549785
1746277836373165600,7.88416552734375,-0.13106434764973818,4.760598783063888,-0.4061380839139223
1746277836383145500,7.8941455078125,-0.30174422798156736,5.158788538321852,-1.155609712782502
1746277836393125600,7.904125732421875,-0.5160836922219023,5.393531360176206,-1.8398183036237954
1746277836403104500,7.9141044921875,-0.788890031543374,5.405263299024105,-2.369994855138659
1746277836413084400,7.92408447265625,-1.1543541597634552,5.107683789506554,-2.6908301525592804
1746277836423064600,7.934064697265625,-1.631695193147659,4.584817268744111,-2.8306682468384503
1746277836433043500,7.94404345703125,-2.198853275579214,3.941197877922654,-2.845631422692537
1746277836443023600,7.954023681640625,-2.7960008380830286,3.284897869226336,-2.970816137719154
1746277836453003500,7.96400341796875,-3.3441374091804024,2.5026152731239795,-3.1088182487428186
1746277836462982400,7.973982421875,-3.9057740978419777,1.5479600943624972,-3.2169290793716905
1746277836472962300,7.98396240234375,-4.38076827583909,0.517550294175744,-3.383846319234371
1746277836482942500,7.9939423828125,-4.637202705019712,-0.43015141218602654,-3.7219764503270385
1746277836492921300,8.00392138671875,-4.670343927121162,-1.228091596147418,-4.1660140567854045
1746277836502901500,8.013901611328125,-4.6301615543365475,-1.9668208817273378,-4.63855850354284
1746277836512881400,8.02388134765625,-4.550103098237514,-2.5029355911195275,-5.196030766001344
1746277836522860500,8.033860595703125,-4.47472666247487,-2.835785735982656,-5.742696095502376
1746277836532840400,8.04384033203125,-4.424582867646217,-3.0206600728183983,-6.165395438116788
1746277836542820400,8.0538203125,-4.300071814097464,-3.1021289802372456,-6.411908192741871
1746277836552799500,8.063799560546874,-4.07628731637001,-3.0207758081525564,-6.433073730367422
1746277836562779400,8.073779296875,-3.774941732317209,-2.841763641348481,-6.081293259584903
1746277836572759300,8.08375927734375,-3.2996646457254886,-2.509046767476201,-5.556037213337421
1746277836582738400,8.093738525390625,-2.8967244810700414,-2.112619345715642,-4.945708097699284
1746277836592718300,8.10371826171875,-2.620392926764488,-1.7716127824038266,-4.2133261353194715
1746277836602698200,8.1136982421875,-2.419678485109657,-1.4514923552542924,-3.391302480459213
1746277836612677400,8.123677490234375,-2.179251772399992,-1.1071803206562996,-2.698808584092557
1746277836622657500,8.133657470703126,-2.0417000354923305,-0.777121852338314,-2.0669950741380454
1746277836632637400,8.143637451171875,-2.0104139397382736,-0.5954039337068796,-1.3658160592734814
1746277836642616600,8.153616455078126,-1.995938839662075,-0.536966942307353,-0.721266694125533
1746277836652596500,8.163596435546875,-2.02379247674942,-0.5660018981337547,-0.2263046638548374
1746277836662576400,8.173576416015624,-2.055449013251066,-0.6435714600265026,0.17586510095000266
1746277836672555500,8.183555419921875,-2.051979145183414,-0.699960871246457,0.5546653883442282
1746277836682535400,8.193535400390624,-1.9728642535448073,-0.7543886270046234,0.8503057464927435
1746277836692515300,8.203515380859375,-1.8539210632562637,-0.8545862002909183,1.0130512536287306
1746277836702494500,8.213494384765625,-1.6744646598160267,-0.950129225769639,1.183441430298984
1746277836712474400,8.223474365234376,-1.3950105895757674,-0.9976023400843143,1.337289637491107
1746277836722454500,8.23345458984375,-1.0517243908941745,-1.0003881714105605,1.4731149889975785
1746277836732433700,8.24343359375,-0.697161595916748,-1.0001011711627243,1.5727479141384362
1746277836742413600,8.25341357421875,-0.2885866219784133,-0.9550672666937112,1.6884668816834687
1746277836752393500,8.2633935546875,0.051525604575872415,-0.8727133931338786,1.7536767282187937
1746277836762372600,8.27337255859375,0.2828139203284867,-0.8171651089131832,1.7673668153971434
1746277836772352500,8.2833525390625,0.44144203700721263,-0.7581587931931019,1.7942191664874552
1746277836782332400,8.29333251953125,0.5054863468945026,-0.7673071452885866,1.7023937002271412
1746277836792311600,8.3033115234375,0.5259825704237446,-0.8589549168944358,1.5557798282027244
1746277836802291500,8.31329150390625,0.5208726435314863,-1.0133791704088448,1.3804676849603652
1746277836812271400,8.323271240234375,0.5452583853125572,-1.242571372398734,1.1541460699707269
1746277836822250200,8.333250244140626,0.5454406830769032,-1.4604764566987751,0.9513865323543548
1746277836832230400,8.34323046875,0.5477221450775861,-1.6538877357333897,0.7915075205653905
1746277836842210600,8.35321044921875,0.5333271245002746,-1.7835580717414616,0.6798597479820251
1746277836852189400,8.363189453125,0.5361936198472976,-1.870268971467018,0.6054916124790907
1746277836862169600,8.373169677734374,0.5801273810546845,-1.830768151205778,0.5625228238463401
1746277836872149500,8.3831494140625,0.6945199953667819,-1.7651333572566508,0.4801210194915533
1746277836882128400,8.39312841796875,0.8594576787848025,-1.6915034729003906,0.39563130294680593
1746277836892108500,8.403108642578125,1.0403576320968568,-1.6007991196244955,0.2735062677517533
1746277836902088400,8.41308837890625,1.244512569594383,-1.5061545042902231,0.13169599661678075
1746277836912067300,8.4230673828125,1.4474137076385318,-1.3951175570815801,-0.006165829153358936
1746277836922047500,8.433047607421875,1.6502752443246542,-1.3488251769840716,-0.06197042622268199
1746277836932027400,8.44302734375,1.8533162292309104,-1.2964409097522496,-0.1527031288102269
1746277836942006300,8.45300634765625,2.041927852898836,-1.2333739204645155,-0.29981355217993255
1746277836951986400,8.462986328125,2.225876891583204,-1.1494213795363903,-0.4516641558140516
1746277836961966600,8.472966552734375,2.435083267251402,-1.0734124910891056,-0.6306821678370237
1746277836971945500,8.482945556640624,2.6042320655584335,-1.0258850162386894,-0.6992986079454422
1746277836981925400,8.49292529296875,2.77740368964076,-1.0085404982060193,-0.8006170019552111
1746277836991905500,8.502905517578125,2.984949292489886,-1.0208663112938403,-0.8998334552496671
1746277837001884400,8.512884521484375,3.1813807961285114,-1.0134808772176505,-0.9455682014644146
1746277837011864300,8.5228642578125,3.329839419236779,-1.0544997008264063,-0.9507453118413686
1746277837021844500,8.532844482421876,3.455817330467701,-1.0959206754952668,-0.9592384148985147
1746277837031823400,8.5428232421875,3.545966387948394,-1.1732897463798522,-0.9457046873256564
1746277837041803300,8.55280322265625,3.62650473651886,-1.250119303560257,-0.9832394682109356
1746277837051783700,8.56278369140625,3.703802787993848,-1.279959146028757,-1.091269050297141
1746277837061762300,8.57276220703125,3.7301048117250204,-1.2858628171145916,-1.2503715247556566
1746277837071742500,8.582742431640625,3.672832187929749,-1.2513795327544213,-1.4115882148891687
1746277837081722600,8.59272265625,3.5774773784995078,-1.1559154177308082,-1.5921706997498868
1746277837091701500,8.602701416015625,3.4711961013853547,-1.0242162062436342,-1.777578120549023
1746277837101681400,8.612681396484374,3.3025688427343964,-0.8817360730230808,-1.9281372230678795
1746277837111661300,8.622661376953126,3.116777391053736,-0.7234457917302847,-2.0605942671850324
1746277837121640400,8.632640380859375,2.895938299128413,-0.5417430706679821,-2.188461060902476
1746277837131620400,8.642620361328126,2.7591613459855315,-0.2650783388853073,-2.4442197827786205
1746277837141600300,8.652600341796875,2.716079744628072,0.20711831734776495,-2.831015452840924
1746277837151579400,8.662579345703126,2.5239491530537603,0.7466530643165111,-3.149538381665945
1746277837161559300,8.672559326171875,2.155284621357173,1.2587977000564337,-3.1963223446726796
1746277837171539500,8.68253955078125,1.7178706708222626,1.6114128680974245,-3.1148724342152474
1746277837181518600,8.6925185546875,1.3179109832823275,1.848288025805354,-3.0636516578048467
1746277837191498500,8.70249853515625,0.9261812178187072,1.9491934551000594,-2.9618223916634916
1746277837201478400,8.712478515625,0.46976621421575543,1.84797822920382,-2.7811031286805865
1746277837211457500,8.72245751953125,-0.04912365800067782,1.5286679493933915,-2.5532389604240655
1746277837221437400,8.7324375,-0.48237025972306724,1.0958142925113439,-2.39787538023293
1746277837231417300,8.742417236328125,-0.7865583006601781,0.7185860767394304,-2.388250058275461
1746277837241396500,8.752396484375,-0.799743945447728,0.6599988632142544,-2.7271061655551194
1746277837251376400,8.76237646484375,-0.435228496254608,1.1099445246726274,-3.360282488295436
1746277837261356300,8.772356201171876,-0.03485445576012134,1.994114546844363,-3.9889299354344603
1746277837271335400,8.78233544921875,0.10374211402535438,3.0496067658394574,-4.269490505611897
1746277837281315300,8.7923154296875,-0.018146445532701908,4.019092433986067,-4.091223604217172
1746277837291295500,8.80229541015625,-0.28707857376933094,4.65667780534029,-3.6015976742774245
1746277837301274600,8.812274658203124,-0.5863163353553041,5.080651405674219,-3.0833371860057115
1746277837311254500,8.822254638671875,-0.8309814528197049,5.22811517252624,-2.533082307580113
1746277837321234400,8.832234375,-1.0494155294299126,5.019821381658315,-1.8814543823480605
1746277837331213600,8.842213623046876,-1.2999907111883162,4.684095389097929,-1.46015029348433
1746277837341193500,8.852193359375,-1.5439187100172043,4.254069064596295,-1.1240320867359637
1746277837351173400,8.86217333984375,-1.851751318001747,3.7462200802236794,-0.7256716510862111
1746277837361152500,8.872152587890625,-2.243103920716047,3.194664056071639,-0.18826456379592418
1746277837371132400,8.88213232421875,-2.5942203746318815,2.600952313235402,0.4108995992273092
1746277837381112300,8.8921123046875,-2.8058500319242476,2.062614667096734,0.8941571631789207
1746277837391091500,8.902091552734374,-2.9593080707550046,1.5804846458703279,1.3322048815727232
1746277837401071600,8.912071533203125,-3.055530895191431,1.2751625594019889,1.7556939132601022
1746277837411051500,8.922051513671875,-3.1311691967606543,1.1228215419024228,2.2410352977484465
1746277837421030400,8.932030517578125,-3.164673991477489,1.1033306594908237,2.782368034049868
1746277837431010600,8.942010498046875,-3.1228526193141937,1.1191858157485723,3.2215526475191116
1746277837440990500,8.951990478515626,-3.0164170284211633,1.2378981198906898,3.5954268766880033
1746277837450969300,8.96196923828125,-2.8708605564951895,1.3046902671813965,3.992544618800282
1746277837460949800,8.97194970703125,-2.6929706717193125,1.3037725678145884,4.333430770602822
1746277837470929700,8.9819296875,-2.4827754311442374,1.182640927571058,4.5004912183284755
1746277837480908500,8.991908447265626,-2.217496016728878,1.0059539888441562,4.462589649957418
1746277837490888700,9.001888671875,-1.9840484953820705,0.7741255931317805,4.307030839455128
1746277837500868600,9.01186865234375,-1.7499767046570778,0.4515677097022533,4.067549298641086
1746277837510847500,9.021847412109375,-1.4792460390985012,0.1330161393046379,3.741541567018628
1746277837520827600,9.03182763671875,-1.2236755332708358,-0.14933072976768016,3.448565751904249
1746277837530807600,9.0418076171875,-0.9722644852101803,-0.3986415906786918,3.182182760161161
1746277837540786400,9.051786376953125,-0.7375193252682686,-0.644710108667612,2.956647911635041
1746277837550766600,9.0617666015625,-0.5000409409701824,-0.7859329353034495,2.7245822000354525
1746277837560746800,9.071746826171875,-0.20323709200024603,-0.8587573484957217,2.5562510017216202
1746277837570725600,9.0817255859375,0.070240835573012,-0.9463801023691892,2.377742692786455
1746277837580705500,9.09170556640625,0.2699193491756916,-1.0176391659408808,2.1822218742519617
1746277837590685700,9.101685791015624,0.4162894755721092,-1.0539642787754535,2.009202225860953
1746277837600664600,9.11166455078125,0.566491727477312,-1.103074638903141,1.8591373365998267
1746277837610644500,9.12164453125,0.6709387749016285,-1.14309919077754,1.745360150772333
1746277837620624600,9.131624755859375,0.7726374004006386,-1.2032973466306924,1.5970225236952305
1746277837630603500,9.141603515625,0.7706102784872054,-1.3144827623993158,1.419739372640848
1746277837640583400,9.15158349609375,0.6671382135748862,-1.4414432549268006,1.329174720096588
1746277837650563600,9.1615634765625,0.4748573998749256,-1.5980553738743066,1.2948241222053765
1746277837660542500,9.17154248046875,0.2622399005889892,-1.783969575151801,1.3065437860935927
1746277837670522400,9.1815224609375,0.05796820484399795,-1.946698715674877,1.3241735508084296
1746277837680502500,9.19150244140625,-0.13495558293461798,-2.0246634143650533,1.4118956734031438
1746277837690481700,9.201481689453125,-0.38722120199799537,-2.0426468148231507,1.5256827961027621
1746277837700461600,9.211461669921874,-0.6010720424711704,-1.9787708472400902,1.7240455600649118
1746277837710441500,9.22144140625,-0.7486310863912106,-1.8443840041041373,1.9784417614161967
1746277837720420600,9.231420654296874,-0.8445721712768077,-1.6419178964763879,2.3016630771905184
1746277837730400500,9.241400390625,-0.9210545224547385,-1.4439198741734027,2.7420909687191246
1746277837740380400,9.25138037109375,-0.9397732514500617,-1.2815659967035054,3.1973218771040437
1746277837750359600,9.261359619140626,-0.9352291782796383,-1.139531853684783,3.566685935372114
1746277837760339500,9.27133935546875,-0.9057534929484129,-1.0546510919958352,3.874464182820916
1746277837770319400,9.2813193359375,-0.8205196800380945,-0.9838128841847181,4.112405508455634
1746277837780298500,9.291298583984375,-0.6889438026696443,-0.943704161158204,4.227882483938336
1746277837790278700,9.301278564453124,-0.5561620566427707,-0.9235895938903093,4.25797542438507
1746277837800258600,9.311258544921875,-0.4475970525056123,-0.8743021236300468,4.261889967480301
1746277837810237700,9.32123779296875,-0.3817202664941549,-0.7936199826747179,4.1997488608658315
1746277837820217600,9.331217529296875,-0.2608382170975208,-0.5814870520353317,3.9527269876748323
1746277837830197500,9.341197509765625,0.0009755670338869094,-0.10569207904934882,3.466964162904024
1746277837840176600,9.3511767578125,0.34350017022583634,0.5858294651538133,2.9538702636152503
1746277837850156500,9.361156494140625,0.7828993397612124,1.5685247434854506,2.380062660166621
1746277837860136400,9.371136474609376,1.2515145573109387,2.891574843221903,1.631345064535737
1746277837870115600,9.381115478515625,1.660827179607749,4.25847986677587,1.0351689774125814
1746277837880095500,9.391095458984376,1.8322732950717209,5.362636455696821,0.9137187727391719
1746277837890075600,9.40107568359375,1.6157470979094504,6.035586570420861,1.3416279589563607
1746277837900054500,9.411054443359374,1.0040021971892565,6.132802497547865,2.1274597719728945
1746277837910034700,9.42103466796875,0.2144055152138695,5.886491987496614,2.5054350067198277
1746277837920014600,9.4310146484375,-0.3523532657017931,6.0830696216076605,1.8002040861159563
1746277837929993700,9.44099365234375,-0.4616079691361636,6.807737064087391,0.37246494689285753
1746277837939973600,9.4509736328125,-0.5483855774223804,7.621680872866511,-0.766752434015274
1746277837949953500,9.46095361328125,-0.9066793756216764,8.271307979670166,-1.36800041757524
1746277837959932700,9.4709326171875,-1.5453239006400108,8.501476333215832,-1.4045353737682102
1746277837969912600,9.48091259765625,-2.2466917160749436,8.29933346619308,-1.2449322563111782
1746277837979892500,9.490892578125,-2.7646634505331513,7.941044928690791,-1.0925228497505188
1746277837989871600,9.50087158203125,-3.0403485236287113,7.413738379654288,-1.0426403362065553
1746277837999851500,9.5108515625,-3.181987529850006,6.49794163159728,-1.0899059452503919
1746277838009831700,9.520831787109374,-3.222159381240606,5.278473486888409,-1.2685469406545162
1746277838019810600,9.530810546875,-3.091238168388605,3.935052214774489,-1.5937901176452636
1746277838029790700,9.540790771484374,-2.696991013276577,2.642742705738544,-2.0658815599381923
1746277838039770600,9.5507705078125,-2.1411510281950235,1.3378484404176474,-2.5030910739421843
1746277838049749500,9.56074951171875,-1.497956000265479,0.12159750418961048,-2.9850375552952286
1746277838059729700,9.570729736328126,-0.7345341719776391,-0.9330331295400858,-3.5093700569570063
1746277838069709600,9.58070947265625,0.02700779738035053,-1.8785019622832535,-3.854104116359353
1746277838079688400,9.5906884765625,0.7560463310837745,-2.6691484821051357,-4.059695662531256
1746277838089668600,9.600668701171875,1.5126386056125163,-3.198575092035532,-4.235052813959121
1746277838099648500,9.6106484375,2.2662942421674726,-3.5350223846077915,-4.194218114745617
1746277838109627400,9.62062744140625,2.891152818417549,-3.8148254144161937,-3.83095558822304
1746277838119607600,9.630607666015624,3.411547396108508,-3.9831536901205777,-3.230112093810737
1746277838129587700,9.640587646484375,3.8508728793531652,-4.026144106063247,-2.676473418165743
1746277838139566600,9.650566650390624,4.160715073594451,-3.8780192449539896,-2.2958006148979067
1746277838149546500,9.66054638671875,4.259252604714035,-3.6466315787464376,-1.913148912772536
1746277838159525600,9.670525634765625,4.103769197535515,-3.489088900950551,-1.5394649454787372
1746277838169505500,9.680505615234376,3.6651761202186344,-3.3619933838665483,-1.2756906749293206
1746277838179485400,9.6904853515625,2.951599396073818,-3.2315514789640902,-1.1275865643471479
1746277838189465600,9.700465576171876,2.113524185600877,-3.098586193063855,-0.9472849422544241
1746277838199444500,9.710444580078125,1.3233867843449114,-2.957743305656314,-0.7787403934508562
1746277838209424400,9.72042431640625,0.6101594581596553,-2.777957816392183,-0.6340723947972059
1746277838219403500,9.730403564453125,-0.0787275728214532,-2.6123440603435037,-0.45074294931590553
1746277838229383400,9.740383544921874,-0.6962414853971451,-2.412715221968293,-0.2774991367802024
1746277838239363600,9.750363525390625,-1.292422906282544,-2.1601719550073146,-0.07264321140646934
1746277838249342700,9.7603427734375,-1.8623375939458608,-1.905930067434907,0.19048282436728475
1746277838259322600,9.770322509765625,-2.3544372205227613,-1.7317413752645252,0.4922942723661661
1746277838269302500,9.780302490234375,-2.7290117069154975,-1.5914906085312366,0.7331061850011348
1746277838279281700,9.79028173828125,-2.9500562582850454,-1.52960318441689,0.9583253917068243
1746277838289261600,9.800261474609375,-3.068248337945342,-1.5646417645722626,1.1042208863288163
1746277838299241500,9.810241455078126,-3.037490211588144,-1.6551941421568392,1.1082821444183588
1746277838309220600,9.820220703125,-2.817925085121393,-1.7663965090602636,0.950142085251212
1746277838319200500,9.830200439453124,-2.3568407745331523,-1.8556319588273762,0.7526847456961869
1746277838329180400,9.840180419921875,-1.6706822186678647,-1.968247115138173,0.4618056106001138
1746277838339159600,9.85015966796875,-0.8806243123888969,-1.992643305248022,0.1034343632504344
1746277838349139500,9.860139404296875,-0.12307517552673816,-1.9366846866607665,-0.3210340348631143
1746277838359119600,9.87011962890625,0.5661831729847937,-1.8223218098998069,-0.7590770770817995
1746277838369098800,9.8800986328125,1.1728426601994781,-1.704162463465333,-1.1713555634468793
1746277838379078700,9.89007861328125,1.7013626036137341,-1.553670873224735,-1.5281903950095175
1746277838389058600,9.90005859375,2.1412913134485483,-1.489490954259038,-1.8324033511921762
1746277838399037700,9.91003759765625,2.5644156034767627,-1.5413883147567509,-2.066131735306978
1746277838409017600,9.920017578125,2.9090163918882608,-1.7106944955825805,-2.1898665437862275
1746277838418997500,9.92999755859375,3.163865597704053,-1.977474962210655,-2.304006133185327
1746277838428976600,9.9399765625,3.2952795625090596,-2.1694506554841992,-2.4325787370845675
1746277838438956500,9.94995654296875,3.366078607353568,-2.2650620700240136,-2.6532705294936894
1746277838448937200,9.959937255859375,3.351428735232353,-2.1982909655213354,-2.8459625543430445
1746277838458915800,9.969915771484375,3.169813107931614,-1.9193179567962884,-2.8546108479619026
1746277838468896300,9.979896240234375,2.8439392318218943,-1.4154086499601601,-2.749910702559352
1746277838478876200,9.989876220703126,2.6020383549064396,-0.7130038926929235,-2.5694071281537414
1746277838488855000,9.99985498046875,2.4522744944185018,0.13004676810503005,-2.3633032485455274
1746277838498835200,10.009835205078126,2.2390642899364233,0.905682181277871,-2.066346839362383
1746277838508815000,10.019815185546875,1.9809809245049952,1.5380448495477437,-1.5874749431490898
1746277838518794000,10.0297939453125,1.6862328390210866,1.98015148794353,-1.0416852274388073
1746277838528774100,10.039774169921875,1.400371239826083,2.223775535389781,-0.5017407306253909
1746277838538754000,10.049754150390624,1.1800164242863656,2.4177982243210074,-0.24950492217838763
1746277838548733000,10.05973291015625,1.1255063240069896,2.8120442103892564,-0.43056057750880716
1746277838558712800,10.069712890625,1.1218617569595575,3.622152386528253,-0.9236375246852636
1746277838568693200,10.079693359375,1.0336726013749837,4.722841591599583,-1.315147948309779
1746277838578672000,10.089672119140625,0.7042518464386462,5.808147934100032,-1.3972101454466581
1746277838588652000,10.099652099609376,0.17772271151542662,6.702036801731586,-1.2957383144408463
1746277838598632200,10.109632080078125,-0.42748657689094544,7.226885436221957,-1.0465431888639927
1746277838608611000,10.119611083984376,-1.0204887101531028,7.2433508333325385,-0.7510445772737264
1746277838618591000,10.129591064453125,-1.605238563376665,6.784197198545932,-0.5315349803864956
1746277838628571100,10.139571044921874,-2.0774749670982358,6.114380705672502,-0.5023246679931879
1746277838638550000,10.149550048828125,-2.3833833290219304,5.432458764463663,-0.6843459534853696
1746277838648530000,10.159530029296874,-2.5495056191146372,4.838093526154756,-0.9785849204033613
1746277838658510000,10.169510009765625,-2.649220377320051,4.259203504875302,-1.2136240948557853
1746277838668489000,10.179489013671875,-2.7830548472702503,3.7159932842642065,-1.2863473857611416
1746277838678469000,10.18946923828125,-2.9046248789310454,3.2167326800167557,-1.2182190214306114
1746277838688449000,10.199448974609375,-2.9429858815073966,2.722092136785388,-1.0226111091345549
1746277838698428200,10.20942822265625,-2.8512369876146315,2.251712759107351,-0.6982131507962942
1746277838708408000,10.219407958984375,-2.5340333246946334,1.8131302031844854,-0.22510347137153147
1746277838718388000,10.229387939453124,-2.200535529577732,1.4199422017365693,0.19461597864925861
1746277838728367000,10.2393671875,-1.9325813429951666,1.0324363375782966,0.5597486829578876
1746277838738347000,10.249346923828124,-1.7406220163345336,0.597646744197607,0.8965969575464725
1746277838748327000,10.259326904296875,-1.512380246937275,0.18764730868041515,1.2204139011263846
1746277838758306000,10.26930615234375,-1.2514566896438597,-0.2086936038404703,1.4333850361555813
1746277838768286000,10.279285888671875,-0.9736299283444881,-0.6144476568728685,1.609831736385822
1746277838778265900,10.289265869140625,-0.7172095276892185,-1.0409317787230015,1.6697873156547545
1746277838788245000,10.299244873046876,-0.4856324763894081,-1.4139911843776702,1.6602268756270409
1746277838798225200,10.30922509765625,-0.24345219801068305,-1.7994810325384138,1.7098749958932398
1746277838808205000,10.319205078125,-0.03410743678510189,-2.1196026287317276,1.8073890291839836
1746277838818184200,10.32918408203125,0.13521103726672007,-2.3526895000725982,1.9087772735595703
1746277838828164000,10.3391640625,0.2632371131991036,-2.4948569140821695,2.076339241066575
1746277838838144000,10.34914404296875,0.36507132951021193,-2.5815666447639463,2.2699638705909253
1746277838848123100,10.359123046875,0.5003395951231941,-2.5494261241376397,2.37599847946763
1746277838858103000,10.36910302734375,0.6286527078360319,-2.428541152131557,2.42404091810286
1746277838868083000,10.3790830078125,0.7264023034483194,-2.304766888424754,2.4701544345021245
1746277838878062000,10.38906201171875,0.8386732494313269,-2.2027561282366515,2.6008003375440834
1746277838888042000,10.3990419921875,0.9101677291940897,-2.141534474554658,2.7547353462368247
1746277838898022100,10.409022216796876,0.9532786297112703,-2.0789105528593064,2.821445660462975
1746277838908001300,10.419001220703125,1.0193839637815951,-1.9930659145742653,2.8728245500445366
1746277838917981200,10.428981201171876,1.0839835694640874,-1.937109049552679,2.8409067322582007
1746277838927961000,10.438961181640625,1.0899982997089623,-1.8664684101402758,2.793963194775581
1746277838937940200,10.448940185546874,1.0179279197543858,-1.893777272826433,2.7057611797094343
1746277838947920100,10.458920166015625,0.8733382470339536,-1.9174129999577998,2.595986215260625
1746277838957900000,10.468900146484375,0.6324965237826109,-1.9600474420696496,2.380070258951187
1746277838967879200,10.478879150390625,0.33628362644314763,-2.035657686588168,2.1300912895202635
1746277838977859000,10.488859130859375,0.0007674772411584853,-2.073955560800433,1.9680407789111136
1746277838987839000,10.4988388671875,-0.34226503894031046,-2.121598770985007,1.8667279378592967
1746277838997818000,10.508818115234375,-0.609385112786293,-2.174177099484205,1.8241431801080703
1746277839007798000,10.518798095703126,-0.7779857756912708,-2.1557143910765646,1.7975369127333163
1746277839017778200,10.528778076171875,-0.9020353492081165,-2.1379829195529223,1.7940993395000695
1746277839027757000,10.538757080078126,-1.0298621031761168,-2.073865544429421,1.7688269510775803
1746277839037737200,10.5487373046875,-1.170669919270277,-1.953308489203453,1.7958225100308656
1746277839047717000,10.558717041015624,-1.3202315351843834,-1.8347510833621024,1.9102981995165347
1746277839057696000,10.568696044921875,-1.4184475792646407,-1.7921517125636337,2.0924089168578384
1746277839067676200,10.57867626953125,-1.5234814866662025,-1.8138462424993513,2.291065110808611
1746277839077656000,10.588656005859375,-1.557257499539852,-1.7344290069133041,2.4123785373598334
1746277839087635000,10.598635009765625,-1.3740584024399518,-1.3872574912309645,2.281273784634471
1746277839097615000,10.608614990234376,-1.0006395158231258,-0.8096089944452047,1.976345081397891
1746277839107595000,10.618594970703125,-0.6007827041357755,-0.12804536515474318,1.7457658089637755
1746277839117574000,10.628573974609376,-0.3041536272108555,0.6468459516525268,1.6490765360593795
1746277839127554300,10.63855419921875,0.0038028811479918654,1.5576900457382201,1.5712784261077641
1746277839137534200,10.6485341796875,0.297086173042655,2.5657769549578426,1.4152484909623861
1746277839147513000,10.65851318359375,0.44304421150684353,3.561626313894987,1.419010473844409
1746277839157493000,10.668492919921874,0.37041912027895446,4.3224727387368675,1.6540408804684876
1746277839167473200,10.67847314453125,0.08184298316193744,4.836092707726359,1.916403530654311
1746277839177452000,10.6884521484375,-0.22297639621496199,5.231222490891814,1.8928695103317499
1746277839187432000,10.698431884765625,-0.4844640171319246,5.631096838235854,1.5333300959855318
1746277839197412000,10.708412109375,-0.6385287896841764,6.128218676888943,0.8156243092119694
1746277839207391000,10.718390869140626,-0.7185650339514017,6.6264961153179405,0.02557809337079525
1746277839217371000,10.728370849609375,-0.8294692946910858,7.174205985435843,-0.6200333480507135
1746277839227351000,10.73835107421875,-1.0301438427269458,7.7600851349502795,-1.039101056164503
1746277839237330000,10.748329833984375,-1.4621978736639023,8.158010101792216,-1.1512579473137854
1746277839247310000,10.75831005859375,-2.0943115356087683,8.133063292062282,-1.0031038601100444
1746277839257290200,10.768290283203125,-2.7858208048522473,7.657708464059233,-0.7583183676689863
1746277839267269000,10.77826904296875,-3.4223359166264533,6.664346245762705,-0.5550011961698532
1746277839277249000,10.7882490234375,-3.8735692798078056,5.236417136925459,-0.5659668268203735
1746277839287229200,10.798229248046875,-4.0707320203304285,3.773304486504197,-0.9850193373650312
1746277839297208000,10.8082080078125,-3.8390497550904747,2.5544541814327237,-1.7406658554762602
1746277839307188000,10.81818798828125,-3.289695040374994,1.5302993499875068,-2.565414551386237
1746277839317167900,10.82816796875,-2.7030992670238017,0.5942354744493961,-3.309385829272866
1746277839327147000,10.83814697265625,-2.1089199066758155,-0.13864274701476095,-3.9437931551128624
1746277839337127000,10.848126953125,-1.4200187741041184,-0.8219634491056204,-4.258903645145893
1746277839347107000,10.858107177734375,-0.572663109588623,-1.3847954850316047,-4.294468295001983
1746277839357086200,10.868086181640624,0.29549393541514873,-1.7543126880347728,-4.138191107097268
1746277839367066000,10.878066162109375,1.1443120006334035,-2.078648102530837,-3.834180687749386
1746277839377046000,10.8880458984375,1.903869043251872,-2.4205583366841075,-3.344209889894724
1746277839387025200,10.898025146484375,2.609881469622254,-2.7263053705662488,-2.745663566508889
1746277839397005000,10.908005126953125,3.236152835279703,-2.942462734416127,-2.1122996122419835
1746277839406984200,10.917984130859375,3.6636242146015165,-3.147628748652339,-1.5762310800790786
1746277839416964000,10.927964111328125,3.8357512980669735,-3.306752558159828,-1.173469194599986
1746277839426944000,10.937944091796876,3.7665842383384702,-3.410062710508704,-0.8346902442097663
1746277839436923100,10.947923095703125,3.4841134506255385,-3.485749527394771,-0.5641664994001389
1746277839446903000,10.957903076171876,3.012493717497587,-3.5385733550876375,-0.4293161304056644
1746277839456882200,10.967882080078125,2.4231847396649417,-3.4657658930301665,-0.3697480891495943
1746277839466861300,10.977861328125,1.7455283469460903,-3.32450331890583,-0.3125163818866014
1746277839476841200,10.98784130859375,1.094846397327259,-3.1471108622580766,-0.18585633361041545
1746277839486821400,10.9978212890625,0.5294396155424416,-2.893957938966155,0.04613455918729305
1746277839496800500,11.007800537109375,0.11017192787714301,-2.6763392703920603,0.3227741565287113
1746277839506780400,11.017780517578124,-0.2603501413196325,-2.4745295808464287,0.62962593678236
1746277839516760300,11.02776025390625,-0.5554325002592057,-2.297384961479902,0.9780161806046962
1746277839526739500,11.037739501953125,-0.7946376352846622,-2.1503420503884554,1.3456775266081094
1746277839536719400,11.04771923828125,-0.9652038991741836,-2.0613234582424163,1.6580355030626057
1746277839546699300,11.05769921875,-0.9896947818301618,-1.9405027836441993,1.810486410677433
1746277839556678400,11.067678466796876,-0.9220306740105152,-1.7520365597963332,1.829539486193657
1746277839566658300,11.077658203125,-0.7706640545010566,-1.4984627807438373,1.7490648505091666
1746277839576638200,11.08763818359375,-0.6139198336064815,-1.2394061863660812,1.6855612233698367
1746277839586617300,11.097617431640625,-0.46269349935054777,-1.0611620813250542,1.735011190715432
1746277839596597500,11.107597412109374,-0.26934651772379875,-0.9913426951676606,1.8191876035273074
1746277839606577400,11.117577392578125,-0.011294058887287973,-0.9840671512067317,1.8165081551849842
1746277839616556300,11.127556396484374,0.2911766567379236,-1.0038140542060137,1.666565430998802
1746277839626536400,11.137536376953125,0.6307230843693018,-1.0601087728798388,1.4025392315149305
1746277839636516400,11.147516357421875,0.9519928276844322,-1.1791109998792408,1.1569926915735005
1746277839646495200,11.1574951171875,1.2675165746934711,-1.2950737130522727,0.9846569337934254
1746277839656475400,11.167475341796875,1.5984240610562264,-1.3760492839962244,0.7744745526999235
1746277839666455300,11.177455322265626,1.8723628750063477,-1.4817273345202207,0.5221259315282106
1746277839676434200,11.18743408203125,2.0501186120085415,-1.5608856269091367,0.2822194433003664
1746277839686414300,11.197414306640624,2.152961439106613,-1.6794699207574129,0.14620704478919505
1746277839696394200,11.207394287109375,2.209408133471757,-1.7060715119570493,-0.07717793222665786
1746277839706373000,11.217373046875,2.2591676051579412,-1.5882354061275719,-0.3649894964456558
1746277839716353500,11.227353515625,2.2696691254280505,-1.321153326204419,-0.6370809289634227
1746277839726333400,11.23733349609375,2.153697206035256,-0.9886030410706996,-0.758358115157485
1746277839736312300,11.247312255859375,1.9605871019043026,-0.6348813730925321,-0.8027011147528886
1746277839746292500,11.25729248046875,1.8428250842243432,-0.2198819373309612,-0.9265981280565261
1746277839756272400,11.2672724609375,1.7849778754115104,0.30922727721333504,-1.0778180325716733
1746277839766251300,11.277251220703125,1.694954051745683,0.8030980051159858,-1.1786767001152039
1746277839776231200,11.287231201171876,1.5349696798861026,1.2323036608844995,-1.1751128701537847
1746277839786211300,11.29721142578125,1.3634773871928452,1.644435432255268,-1.2190619019955395
1746277839796190200,11.307190185546874,1.209224252461642,2.1205536458462477,-1.339424895954132
1746277839806170000,11.317170166015625,1.1042436826825142,2.680054491522908,-1.555338514176011
1746277839816150500,11.327150634765625,0.9980804789900779,3.4039012652695178,-1.832899902537465
1746277839826129400,11.33712939453125,0.9563613981574773,4.397700705939531,-2.257265132537484
1746277839836109300,11.347109375,0.9105494219880551,5.5853679372400045,-2.694053790780902
1746277839846089500,11.35708935546875,0.7734411179989575,6.713837129640579,-2.9480975254327055
1746277839856068400,11.367068359375,0.4425830602684989,7.637253705051541,-2.9451626410245892
1746277839866048300,11.37704833984375,-0.08303601060509681,8.074715732511878,-2.752155851137638
1746277839876028400,11.3870283203125,-0.7359358554691076,7.951492672947048,-2.454582771360874
1746277839886007300,11.39700732421875,-1.3537924440026283,7.289891635233164,-2.1937585827887056
1746277839895987200,11.4069873046875,-1.8994857136011123,6.275138253861665,-1.9132412672311065
1746277839905967400,11.41696728515625,-2.2945208042204377,5.023023977091908,-1.657871252411604
1746277839915946200,11.4269462890625,-2.640228092569113,3.6432746695339677,-1.4036965848565102
1746277839925926100,11.436926025390624,-2.9459657741010186,2.255520919218659,-1.0475228475511074
1746277839935906300,11.44690625,-3.1980221343278883,0.9908838454842567,-0.7652993125975132
1746277839945885400,11.456885498046875,-3.353782020360231,0.06706219640374184,-0.5294716181159019
1746277839955865300,11.466865234375,-3.456163367426395,-0.5388204612195492,-0.4260720339179039
1746277839965845200,11.47684521484375,-3.4825615450084206,-0.8759931454569101,-0.3172153533577919
1746277839975824400,11.486824462890626,-3.4166227996766567,-1.1014566823124885,-0.09789338799715042
1746277839985804300,11.49680419921875,-3.2431729431748386,-1.1717021849274634,0.21981647087931633
1746277839995784200,11.5067841796875,-2.9307343026995656,-1.1214859093844889,0.660480509251356
1746277840005763300,11.516763427734375,-2.5190461834430695,-0.978040730524063,1.1493202572494745
1746277840015743200,11.5267431640625,-2.0731693788588044,-0.8190443467885256,1.4328221415758131
1746277840025723100,11.53672314453125,-1.6551707612812518,-0.7374678873419761,1.7007675603300332
1746277840035702300,11.546702392578124,-1.2083388479292392,-0.7328162621438503,2.0807541348993777
1746277840045682400,11.556682373046876,-0.703040132561326,-0.7503267843931913,2.401687631997466
1746277840055661300,11.566661376953125,-0.23630700243115424,-0.8828601086169481,2.694823606109619
1746277840065641500,11.576641357421876,0.12458905068840831,-1.1152139895081519,2.9296523526817557
1746277840075621400,11.586621337890625,0.4561942004591226,-1.4320470655500888,3.032273938244581
1746277840085600300,11.596600341796876,0.7997842774581163,-1.7338900777310131,3.0174925486981867
1746277840095580400,11.606580322265625,1.1354806055326014,-2.03220374674201,2.984071340611577
1746277840105560300,11.616560302734374,1.4546628019839525,-2.336046992829442,2.965554856190085
1746277840115539200,11.626539306640625,1.7502372552894054,-2.5670582269400355,2.877654454419017
1746277840125519400,11.636519287109374,1.9652413574509322,-2.7029373544603583,2.7893057243585586
1746277840135499300,11.646499267578125,2.1772551917552945,-2.7741467336714267,2.6647663214981554
1746277840145478100,11.65647802734375,2.3394946490652857,-2.8097523000597953,2.567341135534644
1746277840155458300,11.666458251953125,2.412122516772151,-2.7894214596927163,2.4849106896072626
1746277840165438500,11.6764384765625,2.4160078337728974,-2.7492729891777037,2.3482933109402655
1746277840175417300,11.686417236328126,2.341638529226184,-2.707808175367117,2.1899679583340883
1746277840185397500,11.6963974609375,2.175346727785468,-2.656772400134802,1.9762176556259392
1746277840195377400,11.70637744140625,1.9003332703411577,-2.5935955207318067,1.7343693856805562
1746277840205356300,11.716356201171875,1.5179213683210313,-2.512287356832623,1.5601514674156904
1746277840215336400,11.72633642578125,1.0934189948726445,-2.45749953559041,1.467715175780654
1746277840225316400,11.73631640625,0.6850515444714576,-2.4209476282626388,1.3435691561520098
1746277840235295200,11.746295166015624,0.3491566250849515,-2.3885680381834504,1.2195055541098117
1746277840245275100,11.756275146484375,0.05619366945214569,-2.3806308154433964,1.1551806737154722
1746277840255255300,11.76625537109375,-0.2755523866266012,-2.389867430344224,1.1228560286939144
1746277840265234200,11.776234130859375,-0.5903793835431337,-2.3610388107448816,1.0324462744504213
1746277840275214300,11.78621435546875,-0.8183248003423214,-2.0915297959357497,0.7876596129655837
1746277840285194500,11.796194580078126,-0.8910767328202724,-1.5165607474923133,0.3603536533385515
1746277840295173400,11.80617333984375,-0.8893266742825507,-0.6488917782664299,-0.13652210159897804
1746277840305153300,11.8161533203125,-0.8343810321301222,0.653563277208805,-0.7023819609135389
1746277840315133400,11.826133544921875,-0.6984598190337419,2.3685452408522365,-1.2189572725772857
1746277840325112300,11.8361123046875,-0.6040104340106248,4.1668385249108075,-1.5547300268888473
1746277840335092200,11.84609228515625,-0.7108066749095916,5.70393294186592,-1.4592448690772055
1746277840345072400,11.856072265625,-1.000493385350704,6.625476709142327,-0.8501508481919765
1746277840355051300,11.86605126953125,-1.4198784888505935,6.797653476968407,-0.0016290625065565108
1746277840365031200,11.87603125,-1.8939537984371184,6.299555486759543,0.7916548200815916
1746277840375011300,11.88601123046875,-2.391357376641035,5.3521986483126875,1.1728735667943955
1746277840384990200,11.895990234375,-2.8484324515879154,4.290836075979471,1.040770450681448
1746277840394970400,11.905970458984376,-3.123006933093071,3.4847271986097095,0.5162234294861555
1746277840404950300,11.9159501953125,-3.2632933556616304,2.958059531998634,-0.331501068341732
1746277840414929400,11.925929443359376,-3.3534757308900356,2.6186072123914954,-1.199676233524084
1746277840424909300,11.935909423828125,-3.3673440972447395,2.6378449968248603,-2.061136995759606
1746277840434889200,11.94588916015625,-3.23541283056736,3.0026760878384113,-2.776504694974422
1746277840444868400,11.955868408203125,-2.964691517359018,3.6043034261047837,-3.138865011960268
1746277840454848500,11.9658486328125,-2.5278490831017493,4.2217894277602435,-3.0831407866507767
1746277840464828400,11.975828369140626,-1.9292671038806437,4.60007387458682,-2.7843653453469277
1746277840474807600,11.9858076171875,-1.3850819007575512,4.489710296595097,-2.2670237254858017
1746277840484787500,11.995787353515626,-0.9560369885087012,3.8413819974303243,-1.5948568700939416
1746277840494767400,12.005767333984375,-0.4776449847668409,2.92337867923975,-1.0936416246473788
1746277840504746500,12.01574658203125,0.1157885256499052,1.93367556797266,-0.8986533055543899
1746277840514726400,12.025726318359375,0.7660656207948923,0.9888228213012218,-0.9715238959759473
1746277840524706300,12.035706298828124,1.3757616992264985,0.18097089965641497,-1.115251398909092
1746277840534685400,12.045685546875,1.9019652554571627,-0.48668461579084393,-1.268590195274353
1746277840544665300,12.055665283203124,2.299416175046563,-0.9982739557355642,-1.288135438221693
1746277840554644200,12.065644287109375,2.5784295157819983,-1.2604589112669229,-1.1415186435878275
1746277840564624600,12.075624755859375,2.7490479482501744,-1.3839157795876265,-0.8687111717551946
1746277840574604500,12.0856044921875,2.880154454541206,-1.3349667475014924,-0.496908488163352
1746277840584583400,12.09558349609375,2.965890956276655,-1.2739473383933304,-0.09523439792096615
1746277840594563600,12.1055634765625,2.956619854584336,-1.1595388689249753,0.29374679948687554
1746277840604543500,12.11554345703125,2.9783365963518618,-0.9871884980976581,0.5869628530979156
1746277840614522400,12.1255224609375,2.993373421964049,-0.8367267184734344,0.7803180180311202
1746277840624502500,12.13550244140625,2.9506881264477967,-0.7024655475437641,0.8808598747104406
1746277840634482400,12.145482421875,2.8048119210481643,-0.6228291162490844,0.8772247330784797
1746277840644461300,12.15546142578125,2.5155378830611705,-0.5574105953991413,0.8022048556685447
1746277840654441500,12.16544140625,2.0524631293080744,-0.5256774865299463,0.7173480593770742
1746277840664421600,12.175421630859375,1.5660411099761724,-0.4581950188875198,0.6714186673730611
1746277840674400300,12.185400146484374,1.134972071488574,-0.35503099701106544,0.69309215452075
1746277840684380400,12.19538037109375,0.7500643340647221,-0.2739934667468071,0.7537006447404623
1746277840694360600,12.205360595703125,0.3681722912002355,-0.17476853788495061,0.8265309031516314
1746277840704339500,12.21533935546875,0.040020460221171374,-0.12653846772313118,0.9787053319126366
1746277840714319400,12.2253193359375,-0.21416940490305422,-0.11128653805553912,1.1143220091044903
1746277840724299500,12.235299560546874,-0.4029273051738739,-0.06012801322638988,1.2119804193019865
1746277840734278400,12.2452783203125,-0.5605915635228157,-0.06169803902208805,1.3401333364844321
1746277840744258300,12.25525830078125,-0.6257218420159071,-0.13771861790716647,1.5081845488131045
1746277840754238500,12.265238525390625,-0.623159955638647,-0.15099486358761788,1.6284288848280906
1746277840764217300,12.27521728515625,-0.5317518380075693,-0.1529366453051567,1.6858686818838118
1746277840774197200,12.285197265625,-0.36996268174834546,-0.12146364867687225,1.7824071481406687
1746277840784177700,12.295177734375,-0.18478665855228898,-0.1909562870979309,2.0262141509383915
1746277840794156500,12.305156494140626,0.049721185502409934,-0.336128143620491,2.2562983333319426
1746277840804136400,12.315136474609375,0.26022622267901896,-0.509605472651124,2.4575147331595417
1746277840814116400,12.325116455078126,0.4485251271359622,-0.7451163562685251,2.638597276496887
1746277840824095500,12.335095458984375,0.6314408772498369,-1.0091291117489338,2.78939632525146
1746277840834075400,12.345075439453124,0.807333523793891,-1.2574556377977133,2.8463866249740124
1746277840844055300,12.35505517578125,0.9932255863048136,-1.4851123007833957,2.9314205313980577
1746277840854034400,12.365034423828124,1.217631065474823,-1.63822138004601,3.008170593601465
1746277840864014300,12.375014404296875,1.4393290392518043,-1.723214954459667,3.027387919768691
1746277840873994200,12.384994140625,1.6570317328475415,-1.7998451896756886,3.0856308499008414
1746277840883973400,12.394973388671875,1.844648646389693,-1.8731833976089953,3.090068540087342
1746277840893953500,12.40495361328125,1.9857390788175164,-1.9544921460300684,3.087763770276308
1746277840903932400,12.414932373046875,2.052370336458087,-2.092309548136592,3.088395638439059
1746277840913912600,12.42491259765625,2.0679291401177644,-2.287481407102942,3.048677376034856
1746277840923892500,12.434892578125,2.0416503511317075,-2.511312958842516,2.952542814403772
1746277840933871600,12.44487158203125,2.0721577175982295,-2.704590382364392,2.84223125886023
1746277840943851500,12.4548515625,2.124588600450754,-2.7996061690986154,2.690669993561506
1746277840953831400,12.46483154296875,2.21138878589496,-2.8063930527597662,2.566816819399595
1746277840963810600,12.474810546875,2.340980211447924,-2.767355173835158,2.4821575915068386
1746277840973790500,12.48479052734375,2.518454062768817,-2.6617542802006007,2.3390356532514094
1746277840983770400,12.494770263671874,2.671187878978252,-2.5010277116715907,2.2451135069727894
1746277840993749500,12.50474951171875,2.7859909007221457,-2.340539628073573,2.0539865394830703
1746277841003729400,12.5147294921875,3.010807371845841,-1.9180314241170882,1.5506693533211946
1746277841013709600,12.52470947265625,3.3188089066565034,-1.101881045204401,0.7935182758659124
1746277841023688400,12.5346884765625,3.4891812554091213,-0.13241641984581948,0.1575116981357336
1746277841033668600,12.544668701171876,3.4300673876613375,0.9081225601673125,-0.26219664596915243
1746277841043648500,12.5546484375,3.227961345517635,2.0491139650106427,-0.7898030547350645
1746277841053627400,12.56462744140625,2.914694437524676,3.2815497278422114,-1.3307967683404682
1746277841063607600,12.574607666015625,2.350762185271829,4.309215782278776,-1.5915490607202052
