time,seconds_elapsed,z,y,x
1746278138370733800,0.01873388671875,-2.642413035392761,1.2217092016339302,-0.9008879327386617
1746278138380712700,0.028712646484375,-2.73549814632535,1.4304700254917144,-1.1284680233567952
1746278138390691800,0.03869189453125,-2.707936770182848,1.586366689646244,-1.4071797507971524
1746278138400670700,0.048670654296875,-2.656297768360376,1.6009516798377037,-1.5684136843264103
1746278138410650600,0.058650634765625,-2.6212112574100495,1.5101806910663842,-1.658354067492485
1746278138420629800,0.068629638671875,-2.6104998937815425,1.397079797065258,-1.6687293310344218
1746278138430608600,0.078608642578125,-2.5384938112348316,1.3131646655380724,-1.7351088058710098
1746278138440587800,0.088587890625,-2.451201896750927,1.3433762639284133,-1.7946756780833004
1746278138450566700,0.098566650390625,-2.232997537243366,1.4755892701566218,-1.6754028174489735
1746278138460545800,0.1085458984375,-1.8600427610069512,1.714669828954339,-1.347067519661784
1746278138470524700,0.118524658203125,-1.3597440458834171,1.9450170461982488,-1.0002262588471174
1746278138480504800,0.1285048828125,-0.9834738614886999,2.1943279071092605,-0.7930424750477075
1746278138490483700,0.138483642578125,-0.7191378654032945,2.3143910413384434,-0.6336205593764782
1746278138500462800,0.148462890625,-0.4620557859688997,2.3414041359484195,-0.6011269875288009
1746278138510441500,0.15844140625,-0.20840777263641355,2.3299621199578047,-0.6473591618716716
1746278138520420600,0.168420654296875,0.03271802825331688,2.27627729152143,-0.7268336806029081
1746278138530399500,0.1783994140625,0.28581016126871106,2.264831183877587,-0.7775660889744758
1746278138540378600,0.188378662109375,0.5645160434901714,2.278371633452177,-0.7218740123689175
1746278138550357500,0.198357421875,0.8424094402849673,2.1980542341560123,-0.5929723226457834
1746278138560337700,0.208337646484375,1.033769047486782,2.0438012455552816,-0.5120645562410354
1746278138570316500,0.218316650390625,1.165085981658101,1.9268752403080462,-0.4788426701188087
1746278138580295700,0.228295654296875,1.1156757618010043,1.7516957835346458,-0.4111299008518457
1746278138590274600,0.238274658203125,0.9249281490176916,1.4868489153176545,-0.3287865486860275
1746278138600253700,0.248253662109375,0.6119184306561947,1.1990619010180235,-0.35037820276916026
1746278138610232600,0.258232666015625,0.15084639502763747,0.9125953216671943,-0.4551344622731209
1746278138620211700,0.268211669921875,-0.3113672118514776,0.6277426072537898,-0.5192711266189813
1746278138630191600,0.278191650390625,-0.8205161729067564,0.33566812489330766,-0.5109679931759834
1746278138640170500,0.28817041015625,-1.1950310380667448,0.1376391229301691,-0.4248024523735046
1746278138650149600,0.298149658203125,-1.2319891881078482,-0.025958617120981214,-0.28596272148191926
1746278138660128500,0.30812841796875,-1.0342705672681332,-0.20167115785777567,-0.10990998900532722
1746278138670107600,0.318107666015625,-0.7130711127102375,-0.4136871841192245,0.03752396723031998
1746278138680086500,0.32808642578125,-0.35762744324505324,-0.574170007020235,0.18147358848154543
1746278138690065700,0.338065673828125,0.015898995399475098,-0.7040279745548963,0.29290450344383717
1746278138700045600,0.348045654296875,0.19173954643011093,-0.7546738736867904,0.46117724956870076
1746278138710024700,0.358024658203125,0.34636896712779996,-0.6460539244920015,0.5366933860629797
1746278138720003600,0.368003662109375,0.51276481346488,-0.5765922657310962,0.5775286697983741
1746278138729982700,0.377982666015625,0.5150806891918182,-0.5804360816776752,0.74956456784904
1746278138739961600,0.387961669921875,0.5118780937582255,-0.5668050312101841,0.8709019597977399
1746278138749940700,0.397940673828125,0.6174953540056943,-0.5743740051597357,0.8438730830967426
1746278138759919000,0.407919189453125,0.7591700160622596,-0.6391559816718101,0.8039251035898923
1746278138769898200,0.417898193359375,0.8716144919812678,-0.7359031222432851,0.7096393846958875
1746278138779878400,0.42787841796875,1.002284360420704,-0.7768155628681183,0.6516922226399183
1746278138789857300,0.437857177734375,0.9897416897118091,-0.9114367992818355,0.6548387039721012
1746278138799836400,0.44783642578125,0.9209452168613672,-0.8398030571788548,0.7127975564658642
1746278138809815300,0.457815185546875,0.7947451873123645,-0.7226426586538552,0.9898100787729024
1746278138819794200,0.467794189453125,0.6814870569229126,-0.686605715110898,1.2460510312080382
1746278138829773300,0.477773193359375,0.6794353850901127,-0.619159487825632,1.327990478748083
1746278138839752200,0.487752197265625,0.6929489466577768,-0.5307143116533756,1.3946879334926605
1746278138849732400,0.497732421875,0.8036492092579602,-0.5952107492223382,1.362586575832963
1746278138859711200,0.507711181640625,1.003926866930723,-0.7086208553031087,1.2705793232649565
1746278138869690000,0.517690185546875,1.226909108364582,-0.838060889686644,1.1961837152332067
1746278138879669200,0.527669189453125,1.4366238719463347,-1.1074185133263468,1.2917138812303541
1746278138889648000,0.537648193359375,1.4137199662208557,-1.3444894858673213,1.3767302519977092
1746278138899627300,0.547627197265625,1.5694740070343016,-1.3979592102482914,1.4795254405617713
1746278138909606100,0.557606201171875,1.951544402140379,-1.6130857697457075,1.5763362940192223
1746278138919586300,0.56758642578125,2.2621312772691247,-1.8325252240061758,1.6671873622894287
1746278138929565200,0.577565185546875,2.5314105749756095,-1.871960285554826,1.643090447387099
1746278138939544300,0.58754443359375,2.6221260341674086,-1.9080232403218744,1.6255390086054802
1746278138949523200,0.597523193359375,1.8429145160734652,-1.774752833995223,1.2892980522602795
1746278138959502300,0.60750244140625,1.1511772832930087,-1.6204621437326072,0.6897738237529992
1746278138969481200,0.617481201171875,0.4664601584076881,-1.7044000716134904,0.24188509482443332
1746278138979460400,0.62746044921875,-0.19537351901829242,-1.5711431092903017,-0.032410569739341734
1746278138989439200,0.637439208984375,-0.5241045381247997,-1.279504095737636,-0.11462474256753921
1746278138999419100,0.647419189453125,-0.4607230760604143,-1.0002870491236449,-0.012563713496923446
1746278139009398300,0.657398193359375,-0.14132687153220175,-0.9662295889601111,0.35620004079043865
1746278139019377200,0.667377197265625,0.37913960235118865,-0.9566761631950735,0.6167354755491018
1746278139029356300,0.677356201171875,0.8453191902518272,-0.8714224765405059,0.8425181613564491
1746278139039335200,0.687335205078125,1.0520797802031039,-0.9099234721094369,1.0873831487745047
1746278139049314300,0.697314208984375,1.0231856941521167,-0.942117184227705,1.2635878569424153
1746278139059293200,0.707293212890625,0.7760872485935687,-0.9100164110898971,1.3211603404670953
1746278139069273300,0.7172734375,0.343386736446619,-0.8437053253144026,1.2447265046060085
1746278139079252200,0.727252197265625,-0.1831143414258957,-0.7562427304387093,1.1376835954695939
1746278139089231400,0.7372314453125,-0.6596750380873679,-0.6250824481338262,1.043998765078187
1746278139099210200,0.747210205078125,-1.0514946737915276,-0.394801281863451,0.9552852933585643
1746278139109189400,0.757189453125,-1.2260054375231266,0.07045943762660026,0.7883008334785699
1746278139119168300,0.767168212890625,-1.202335808122158,0.553352844440937,0.7046043131381273
1746278139129147400,0.7771474609375,-1.120842350783944,0.9290297391176223,0.737130618211627
1746278139139127300,0.787127197265625,-0.9771066645443439,1.2909323754638433,0.6737286978811026
1746278139149106200,0.797106201171875,-0.8482897304952144,1.7567419610083101,0.3484282377451658
1746278139159085300,0.807085205078125,-0.7797241437911987,2.213541726145148,-0.011518003836274146
1746278139169064200,0.817064208984375,-0.7479302446454763,2.3917776478797195,-0.24358663804531097
1746278139179043300,0.827043212890625,-0.8999801702439785,2.29252115483582,-0.3689098847597837
1746278139189022200,0.837022216796875,-1.2983335916310548,1.948069419506192,-0.4480535641014576
1746278139199001300,0.84700146484375,-1.9240028997421263,1.3895751205235718,-0.45914837408959863
1746278139208980200,0.856980224609375,-2.545079034844041,0.8429448623359203,-0.41883565292358393
1746278139218960400,0.86696044921875,-2.874446598288417,0.46459319549202915,-0.3348901262581348
1746278139228939300,0.876939208984375,-2.8453794937580823,0.35027883404791355,-0.2284790852844715
1746278139238918400,0.88691845703125,-2.4459511366158724,0.3642886546999216,-0.12070435474216937
1746278139248897300,0.896897216796875,-1.9067846384376286,0.5281237106382847,-0.17439619744122029
1746278139258876400,0.90687646484375,-1.326397656598687,0.6994283718049525,-0.3531950137555599
1746278139268855300,0.916855224609375,-0.8279740876972674,0.7990285637199879,-0.6283680456757545
1746278139278834400,0.92683447265625,-0.371783394369483,0.880989638569951,-0.9438935462504625
1746278139288814300,0.936814453125,-0.04577040205001831,1.0092693970024584,-1.2288193259000777
1746278139298793200,0.946793212890625,0.1728483834773302,1.2326409300148486,-1.4966624533236026
1746278139308772400,0.9567724609375,0.31093817278444763,1.451940683543682,-1.7420196081727741
1746278139318751200,0.966751220703125,0.3447685461938381,1.6379782189399004,-1.9276053081482647
1746278139328730400,0.97673046875,0.3106172702670097,1.755560057747364,-2.0965976007193325
1746278139338709200,0.986709228515625,0.19759937837421893,1.7320652003914117,-2.2926339675605294
1746278139348688400,0.9966884765625,-0.03186228820681572,1.705754701092839,-2.460479428184032
1746278139358668300,1.006668212890625,-0.36444238395690914,1.6675591182112692,-2.5069307982355356
1746278139368647400,1.0166474609375,-0.7622562916398048,1.461616274383664,-2.268790735158324
1746278139378626300,1.026626220703125,-1.1494400842368602,1.1316320403456688,-1.7925515255361795
1746278139388605400,1.03660546875,-1.5093518390268086,0.7377443661957979,-1.2117846044689415
1746278139398584300,1.046584228515625,-1.736186079713702,0.22841186526715754,-0.6823088946998119
1746278139408563500,1.0565634765625,-1.8609435092389583,-0.4319967477917671,-0.34747195993363855
1746278139418542300,1.066542236328125,-1.7860054648935795,-1.0473299553275108,-0.3549041557610035
1746278139428522200,1.076522216796875,-1.467073370745778,-1.4466110129535197,-0.28725860651135443
1746278139438501400,1.08650146484375,-1.0696084226310252,-1.850733080869913,-0.11562836665213107
1746278139448480300,1.096480224609375,-0.48631636700034137,-2.205288861584663,0.04930734400451183
1746278139458459400,1.10645947265625,0.10659399632513522,-2.434852234974503,0.2479454177767038
1746278139468438300,1.116438232421875,0.5656932705760002,-2.58530816937983,0.45407998478412626
1746278139478417400,1.12641748046875,0.941775823444128,-2.6507471484959124,0.5691939721733331
1746278139488396300,1.136396240234375,1.2185521989077328,-2.6728765627175566,0.668908730378747
1746278139498375200,1.146375244140625,1.367394268375635,-2.771986925289035,0.7486953837990761
1746278139508355300,1.156355224609375,1.4590385328501463,-2.8521149394929406,0.7899994540899992
1746278139518334500,1.16633447265625,1.478684898084402,-2.869899017986655,0.7247089435338974
1746278139528313300,1.176313232421875,1.4624620775580406,-2.809287605157494,0.605543050405383
1746278139538292200,1.186292236328125,1.5100316379845142,-2.690205883181095,0.5708943463504315
1746278139548271000,1.19627099609375,1.5512959607869385,-2.632312497138977,0.7068740116357803
1746278139558250200,1.206250244140625,1.5847878960222004,-2.5919232036054134,0.947156347438693
1746278139568229000,1.21622900390625,1.527881767451763,-2.5767098523825407,1.2101830144912005
1746278139578209300,1.226209228515625,1.4519962131232023,-2.66324773362875,1.5510831948190926
1746278139588188200,1.236188232421875,1.3432880011230706,-2.733554026520252,1.8274626799196003
1746278139598167300,1.246167236328125,1.202334054556489,-2.7689398126780986,1.9565449869066476
1746278139608146200,1.256146240234375,1.1429399085626006,-2.8340719178020954,2.0085043067246673
1746278139618125300,1.266125244140625,1.286124975182116,-2.8308114547014234,1.9195102644979953
1746278139628104200,1.276104248046875,1.1130997738331556,-2.81966520678699,1.8164684076964854
1746278139638083300,1.286083251953125,0.6754393011912703,-2.767396674889326,1.6018027437090874
1746278139648062200,1.296062255859375,0.34257892719507216,-2.6120348482638596,1.2469745757937432
1746278139658042000,1.3060419921875,0.016688099950551986,-2.5040181256592273,0.7973919024288654
1746278139668021200,1.316021240234375,-0.29055180283784865,-2.3844553421676156,0.2700023512840271
1746278139678000000,1.326000244140625,-0.5456450465425848,-2.2462124081254005,-0.23236732489466666
1746278139687979300,1.335979248046875,-0.6340630424469709,-2.1421149047911165,-0.726839525821805
1746278139697958100,1.345958251953125,-0.6089233404934405,-1.9888398213118315,-1.1378554449051619
1746278139707937300,1.355937255859375,-0.5475128862410783,-1.8543892652899026,-1.4302180965572595
1746278139717916200,1.365916259765625,-0.4483683291390538,-1.8227163621753453,-1.6554975090175865
1746278139727896300,1.375896240234375,-0.32273791617155073,-1.7867337791681288,-1.9636744003951547
1746278139737875200,1.385875244140625,-0.22110563390702007,-1.6114508620202541,-2.333653960213065
1746278139747854300,1.395854248046875,-0.21235914061069489,-1.3034276998996734,-2.622200852969289
1746278139757833200,1.405833251953125,-0.3163727650538087,-0.7574731490164994,-2.7752590788275002
1746278139767812000,1.41581201171875,-0.5061889422059059,-0.0339589682251215,-2.71893630310297
1746278139777791000,1.425791015625,-0.818994954688847,0.6241583190262318,-2.5914602622687815
1746278139787770000,1.43577001953125,-1.230234453395009,1.1640753433108328,-2.56665899848938
1746278139797749000,1.4457490234375,-1.6863707861870527,1.6119897912025452,-2.5409815363973376
1746278139807729000,1.45572900390625,-2.2342273712992666,1.888165278163552,-2.6297002688139677
1746278139817708000,1.4657080078125,-2.744867447695136,1.9935697724431751,-2.7655343881487844
1746278139827687000,1.47568701171875,-3.1524902172088622,2.061032950863242,-3.020778146240115
1746278139837666000,1.485666015625,-3.390944753062725,2.1287129869043824,-3.4499311950385567
1746278139847645000,1.49564501953125,-3.2365120239809153,2.2632740175634622,-3.9508091713547704
1746278139857624000,1.5056240234375,-2.7442884787634014,2.5251778180658815,-4.135609273910522
1746278139867603000,1.51560302734375,-2.2944468622013927,3.113585024753213,-4.243304509475827
1746278139877583000,1.5255830078125,-2.002477593781054,3.8765035796940324,-4.356984080147743
1746278139887562000,1.53556201171875,-1.8438532582283018,4.60697415549457,-4.216899902153015
1746278139897541000,1.545541015625,-1.8299360842958092,4.9651194851338865,-3.6802567849725483
1746278139907520000,1.55552001953125,-1.8624615125864743,4.847478609615564,-2.9728853452086446
1746278139917499100,1.5654990234375,-1.9672633647978304,4.392923993057012,-2.2694740412473675
1746278139927478000,1.57547802734375,-2.0806477519154547,3.804078394952416,-1.725973313257098
1746278139937457200,1.58545703125,-2.121856837399304,3.2299715162962674,-1.3868056558102368
1746278139947437000,1.59543701171875,-2.0150337084934113,2.7689234460651875,-1.0910662212014197
1746278139957416000,1.605416015625,-1.795090688624978,2.496192546600103,-0.7387526664555072
1746278139967395000,1.61539501953125,-1.3948463389247654,2.3501439072430133,-0.26337738018631934
1746278139977374000,1.6253740234375,-0.9367071418777108,2.226815049216151,0.21925240725576875
1746278139987353000,1.63535302734375,-0.4475853620678186,2.0411849255770442,0.6737871500700712
1746278139997332200,1.645332275390625,-0.027803368204832077,1.7387895402103661,1.0634604213953018
1746278140007311000,1.65531103515625,0.3701157534182071,1.350191204640269,1.38139122954607
1746278140017290200,1.665290283203125,0.744275229269266,0.9995943906843662,1.601900358864665
1746278140027270100,1.675270263671875,1.0339435272708535,0.7229688218683004,1.773264641264081
1746278140037249000,1.6852490234375,1.1748480817377567,0.5324474190562963,1.9713222847998142
1746278140047228200,1.695228271484375,1.1949831072717905,0.41709962291121483,2.2212579996109008
1746278140057207000,1.70520703125,1.1575374659746884,0.3056897507369518,2.4672470226228236
1746278140067186200,1.715186279296875,1.1201403399944305,0.24079496150016783,2.679330853423476
1746278140077165000,1.7251650390625,1.004005192863941,0.14352759644687174,2.8608681547909973
1746278140087144200,1.735144287109375,0.8959995761752128,-0.020468787533044815,2.953002248609066
1746278140097124000,1.7451240234375,0.9061571053132415,-0.24288170464634895,2.925388850018382
1746278140107103200,1.755103271484375,1.0302169079631567,-0.5150578928381204,2.7720003692924973
1746278140117082000,1.76508203125,1.3063432950854301,-0.7370008543521166,2.5764298663973806
1746278140127061200,1.775061279296875,1.665437303751707,-0.9183762431561946,2.4047709849655625
1746278140137040100,1.7850400390625,2.0666846930146217,-1.0422685802847147,2.3219892413824796
1746278140147019300,1.795019287109375,2.4009762688577174,-1.121668864735961,2.3082062152236698
1746278140156998100,1.804998046875,2.62758780670464,-1.0938941381037235,2.3298989915937183
1746278140166977300,1.814977294921875,2.7689237383261323,-1.0258826781511305,2.3498282654225826
1746278140176957200,1.824957275390625,2.802005046933889,-0.9376999523073434,2.3577017752766607
1746278140186936000,1.83493603515625,2.710860256414115,-0.8184235845416784,2.370265488773584
1746278140196915200,1.844915283203125,2.5111457855820656,-0.713996995383501,2.3860259524852037
1746278140206894000,1.85489404296875,2.3613041836827993,-0.4976099144309759,2.374793779852986
1746278140216873200,1.864873291015625,2.2557398226663468,-0.27502865501344204,2.3335703735828397
1746278140226852000,1.87485205078125,2.2117022357583043,-0.10912029993236064,2.284547107216716
1746278140236831200,1.884831298828125,2.1939713487565515,-0.057957683449983595,2.232718135780096
1746278140246811100,1.89481103515625,2.1760192202195525,-0.003919803792238235,2.015902015760541
1746278140256790300,1.904790283203125,2.2592969306260344,0.03915478330254554,1.8417396270751951
1746278140266769200,1.91476904296875,2.34681154794991,-0.01956102503836155,1.7581968359917401
1746278140276748300,1.924748291015625,2.4607892247855663,-0.003537526476383209,1.8317419646739959
1746278140286727200,1.93472705078125,2.539095868781209,0.07329787592291831,1.9731173515230416
1746278140296706000,1.9447060546875,2.691388370963931,0.031055647999048232,2.1291887877225872
1746278140306685000,1.954684814453125,2.6953765638172626,0.01618891825675964,2.182525241112709
1746278140316665000,1.9646650390625,2.539714292940497,0.02593406720161438,2.288647528272867
1746278140326644200,1.974644287109375,2.29628839841485,0.1013666170656681,2.4510335544466972
1746278140336623000,1.984623046875,1.9571715943723915,0.13886837246418,2.5683862606734036
1746278140346602000,1.99460205078125,1.7255863597661256,0.160047354093194,2.632336462536454
1746278140356580900,2.004580810546875,1.5320751274883746,0.2811760717272758,2.507502460643649
1746278140366560000,2.01456005859375,1.3917863668322563,0.4275122958540916,2.2873732705533505
1746278140376539000,2.024538818359375,1.1977034721463917,0.47241059124469753,1.9990917507350443
1746278140386518000,2.03451806640625,1.0477034648150205,0.4668097024977207,1.6856225981682538
1746278140396498000,2.044497802734375,1.0609171666532755,0.6246791280299425,1.465920693579316
1746278140406477000,2.05447705078125,1.248445817390084,0.9131190532803535,1.161523905262351
1746278140416456000,2.0644560546875,1.5253537102788686,1.3300339672744272,0.9362088369667529
1746278140426435000,2.07443505859375,1.7279349687188863,1.8326544033437966,0.913360460820794
1746278140436414000,2.0844140625,1.5753326699346304,2.155906114256382,0.9962713837414979
1746278140446393000,2.09439306640625,1.1463415336996317,2.176502327561378,1.1300269432365895
1746278140456372000,2.1043720703125,0.6154670630484819,1.9676777908176182,1.2230571091115474
1746278140466351900,2.114351806640625,0.03685936584174633,1.6402011556863785,1.0103934325963257
1746278140476331000,2.1243310546875,-0.4379980340331793,1.3113701833367346,0.517374937608838
1746278140486310000,2.134309814453125,-0.5999599895760417,1.2519839283883571,-0.15660276659727096
1746278140496289000,2.1442890625,-0.4306196142196655,1.6343255416512488,-0.6380746161758899
1746278140506268000,2.154267822265625,-0.11887772383689879,2.257259871840477,-0.801536747148633
1746278140516247000,2.1642470703125,0.133541916744411,2.887407202148437,-0.8080494900435209
1746278140526226000,2.174225830078125,0.26608254749178883,3.4662492926329374,-0.7578168478876351
1746278140536205000,2.184205078125,0.2571276721417904,3.9138744021892546,-0.7337894910901784
1746278140546185000,2.19418505859375,0.007120645660161971,4.090095476970077,-0.8438356736958026
1746278140556164000,2.2041640625,-0.4558171838402748,4.140473665076494,-1.051661847051978
1746278140566143000,2.21414306640625,-1.0104776037484406,4.099217525580525,-1.3448884220570325
1746278140576122000,2.2241220703125,-1.556623293289542,3.9743776784688234,-1.7206436426669358
1746278140586101000,2.23410107421875,-2.1825427767693997,3.74021294876337,-2.1763941910117865
1746278140596080000,2.244080078125,-2.874736521145701,3.298831702032685,-2.669025147986412
1746278140606059000,2.25405908203125,-3.4515921139881014,2.712716405674815,-3.1750913405954835
1746278140616039000,2.264038818359375,-3.906821561068296,1.9267904846340416,-3.5943642158925533
1746278140626018000,2.27401806640625,-4.157777851098776,0.9477221646279096,-3.738281103917956
1746278140635997200,2.2839970703125,-4.046470270255208,-0.04531622854173183,-3.7342835587143894
1746278140645976000,2.29397607421875,-3.634474692484736,-0.9017150312125682,-3.664605042332411
1746278140655955200,2.303955078125,-3.1351784324020144,-1.6646049445807933,-3.449095328736305
1746278140665934000,2.31393408203125,-2.718565131703019,-2.2892829035669564,-3.3035347651571034
1746278140675913200,2.323913330078125,-2.5969416162893175,-2.71841374053359,-3.461107838091254
1746278140685892000,2.33389208984375,-2.653728210133314,-3.1021658051162957,-3.4575784949213264
1746278140695872000,2.3438720703125,-2.6291017183989287,-3.3453982228964567,-3.2536306243032214
1746278140705851100,2.35385107421875,-2.4402220914445816,-3.416141153639555,-2.8694372456938027
1746278140715830000,2.363830078125,-2.0386220893517137,-3.4000428362756967,-2.3668331762373445
1746278140725809200,2.37380908203125,-1.5665629418931901,-3.372936218163371,-1.8496230738013981
1746278140735788000,2.3837880859375,-1.0305838415794073,-3.3858909768044945,-1.3829349518567322
1746278140745767200,2.39376708984375,-0.540221267928183,-3.3706408007025717,-0.9922200625240802
1746278140755746000,2.40374609375,-0.14573124397099016,-3.3272032255142925,-0.6095581312656402
1746278140765725000,2.413724853515625,0.08101531843245029,-3.3303310021460053,-0.30139643745720385
1746278140775704800,2.423704833984375,0.13363602476865052,-3.3484383212447164,-0.07969722157120704
1746278140785684000,2.43368408203125,0.06293196473121643,-3.3395980121850966,-0.018202596166729926
1746278140795662800,2.443662841796875,-0.16302067081555724,-3.3596465284794568,-0.045186172421276566
1746278140805642000,2.45364208984375,-0.4189015577666461,-3.3964188005596396,-0.14192162255495785
1746278140815620900,2.463620849609375,-0.7054980471074581,-3.42763869920969,-0.21068945383280516
1746278140825600000,2.47360009765625,-0.9905972836278378,-3.445197736775875,-0.2979468815252185
1746278140835579000,2.483578857421875,-1.3116039920926092,-3.3427468316048383,-0.39779958689659833
1746278140845558800,2.493558837890625,-1.6513133552007375,-3.278364668065309,-0.5074830736696719
1746278140855538000,2.503537841796875,-1.9175689211718736,-3.2783670061528682,-0.6943719651982188
1746278140865516800,2.513516845703125,-1.9815898501835763,-3.29121304372251,-1.0103680058941245
1746278140875496000,2.523495849609375,-1.7788308970890938,-3.236609931397438,-1.5620970485255121
1746278140885474800,2.533474853515625,-1.9410497500024735,-3.00258490242362,-1.5985416960865257
1746278140895454000,2.543453857421875,-2.421991876618564,-2.6843799535065886,-1.3179875556498766
1746278140905432800,2.553432861328125,-2.271030623039603,-2.6622254048436877,-1.7643746478438376
1746278140915413000,2.5634130859375,-2.0010762025505304,-2.621417009115219,-2.3203631014853716
1746278140925392000,2.573391845703125,-1.9079130579456687,-2.585250301712751,-2.5082678920581936
1746278140935371000,2.58337109375,-1.9755909020297229,-2.5837995183825493,-2.698868789847195
1746278140945350000,2.593349853515625,-2.0481933430343866,-2.5552532228559253,-2.9272239564910527
1746278140955329000,2.6033291015625,-2.075728707952797,-2.4924708957284687,-3.1299449156627057
1746278140965308000,2.613307861328125,-2.1483418164819477,-2.531229373189807,-3.266619285213947
1746278140975287000,2.623287109375,-2.2914836284816262,-2.610444948723912,-3.3764936183840035
1746278140985266000,2.633265869140625,-2.2987065654724836,-2.4926450832515954,-3.5667929028779266
1746278140995245800,2.643245849609375,-2.099431947362423,-2.1844617621332407,-3.7650916616931553
1746278141005225000,2.653224853515625,-1.9615081622719763,-1.7195207761168478,-3.808366447535157
1746278141015203800,2.663203857421875,-1.9848858229890465,-1.193223111861944,-3.745728497314453
1746278141025183000,2.673182861328125,-2.1086025112897158,-0.6781576202392577,-3.7654651711806655
1746278141035161900,2.683161865234375,-2.166510802640021,-0.23250176492929459,-3.8589422040402885
1746278141045141000,2.69314111328125,-2.0429645024701952,0.25108546936810017,-3.9610809745222326
1746278141055120000,2.703119873046875,-1.966904468357563,0.728749158835411,-3.8916099634110926
1746278141065100000,2.71310009765625,-1.973013891148567,1.177538635995984,-3.613177052912116
1746278141075079000,2.723078857421875,-2.01248168592304,1.504287541374564,-3.261446266490221
1746278141085058000,2.73305810546875,-1.9671604889452456,1.7301520602464675,-2.9140041171729565
1746278141095037000,2.743036865234375,-1.8026430037006735,1.9635083961784838,-2.5478438233822582
1746278141105016000,2.75301611328125,-1.5319719593748449,2.3959663317412137,-2.3021137435674666
1746278141114995000,2.762994873046875,-1.2449845710203051,3.1342122177183627,-2.044768629282713
1746278141124974000,2.77297412109375,-0.9497370115816592,4.026224185562134,-1.7063012290596962
1746278141134953000,2.782952880859375,-0.6628785103037953,4.9372646790027614,-1.3613590798646211
1746278141144932900,2.792932861328125,-0.45839200276434416,5.841491400775313,-1.0570283425211906
1746278141154912000,2.802912109375,-0.3495610411673784,6.479630314359069,-0.7622855177342891
1746278141164891000,2.812890869140625,-0.274420752248168,6.82754417284131,-0.6070750822782516
1746278141174870000,2.8228701171875,-0.1605132180392742,7.056084048402309,-0.7334206577777862
1746278141184849000,2.832848876953125,-0.11545943982601165,7.038635485473275,-0.7588613885045051
1746278141194827800,2.842827880859375,-0.05764554876089096,6.619540889352559,-0.6349082610994577
1746278141204807000,2.852806884765625,0.10023469042629003,6.098907826730609,-0.4542255307346582
1746278141214785800,2.862785888671875,0.2966530423223972,5.566491387334466,-0.21330665059387682
1746278141224766000,2.872765869140625,0.5982327273920178,5.0215831306338305,0.1857715779364109
1746278141234745000,2.8827451171875,0.9416945749014616,4.440303583869338,0.7086620640963316
1746278141244723700,2.8927236328125,1.2369658074766396,3.86733243124485,1.263864335796237
1746278141254702800,2.902702880859375,1.4841127683520317,3.323238998058438,1.7142846290290354
1746278141264681700,2.912681640625,1.7213655272006987,2.8301176272183657,1.98520584872365
1746278141274660900,2.922660888671875,1.973062406465411,2.2943086227744818,2.2451257819324733
1746278141284639700,2.9326396484375,2.248971935966611,1.765204084405303,2.465207625749707
1746278141294620000,2.942619873046875,2.532580787798762,1.3488988267421722,2.6594863352686167
1746278141304598800,2.952598876953125,2.73506793821454,1.0054624059349297,2.8300895701676607
1746278141314578000,2.962577880859375,2.857946714386344,0.7241817047894,2.9776930377513167
1746278141324556800,2.972556884765625,2.979689764526486,0.526108863684535,3.072353435176611
1746278141334536000,2.982535888671875,3.146589468732476,0.3653466393202543,3.2061370517224073
1746278141344514800,2.992514892578125,3.312206147390604,0.25389175896048544,3.348877297183871
1746278141354494000,3.002493896484375,3.502908751988411,0.16543021617531775,3.4800188747882843
1746278141364473900,3.012473876953125,3.710294780361652,0.08198913190066814,3.635424540555477
1746278141374452700,3.02245263671875,3.906784736189246,0.026304654079675673,3.752017368325591
1746278141384431900,3.032431884765625,4.055784042045474,-0.03421002037674188,3.787016200992465
1746278141394410800,3.04241064453125,4.153978458815812,-0.07266980715245008,3.809039816752076
1746278141404390000,3.052389892578125,4.185355593854188,-0.10796908407062292,3.7426036432921883
1746278141414368800,3.06236865234375,4.177200344449282,-0.10935849260240793,3.704981476384401
1746278141424348000,3.072347900390625,4.064211094129085,-0.04160480680316686,3.6024785487651823
1746278141434326800,3.082326904296875,3.8897991145968436,0.06867635360211134,3.55708867046535
1746278141444307000,3.092306884765625,3.7064433656305074,0.10748100829273462,3.4842110657811163
1746278141454285800,3.102285888671875,3.4280542942732573,0.1571843658775091,3.255329244914651
1746278141464265000,3.112264892578125,3.160338592621684,0.21779694775044917,2.9934155075401065
1746278141474243800,3.122243896484375,2.9329607465773817,0.2834071917802095,2.740913157111406
1746278141484223000,3.132222900390625,2.7193939837425947,0.3314537220686674,2.5073650979995725
1746278141494201900,3.142201904296875,2.5169904199570414,0.3175578831851482,2.279389286062121
1746278141504181000,3.152180908203125,2.391948328271508,0.2337994035243988,2.102387290036678
1746278141514159900,3.162159912109375,2.3028975874215365,0.13194587972462177,1.9734873538792133
1746278141524139800,3.172139892578125,2.1751778009593488,-0.012311200040578842,1.913964320808649
1746278141534119000,3.182118896484375,2.017498345041275,-0.18506196836233138,1.9133891512691974
1746278141544097800,3.192097900390625,1.9068635488927363,-0.37942251094579693,1.9514538012474774
1746278141554077000,3.202076904296875,1.7848989649564027,-0.5330027148514985,2.0402146192401647
1746278141564055800,3.212055908203125,1.5973539476066827,-0.6484416964113712,2.075580531653762
1746278141574035000,3.222034912109375,1.3650520891636608,-0.6558855826765299,2.0438573596566916
1746278141584013800,3.232013916015625,1.112804298017919,-0.6013175416648388,2.0250076977580784
1746278141593994000,3.241993896484375,0.8735784855306148,-0.4724953469187021,2.0043033479034897
1746278141603972900,3.251972900390625,0.5254585830822587,-0.2655056243866682,1.9450112009793519
1746278141613952000,3.261951904296875,0.1262146425962448,-0.02735387087166309,1.8377713079661129
1746278141623931000,3.271930908203125,-0.2783995927512646,0.19932547151446342,1.6736124269008636
1746278141633910000,3.281909912109375,-0.7181938625514507,0.3074924162447452,1.405567054903507
1746278141643889000,3.291888916015625,-1.0938730953156948,0.2234551196426153,1.0814262861967086
1746278141653868000,3.301867919921875,-1.3602502418398856,0.02637713479399681,0.6188111127793788
1746278141663847000,3.311846923828125,-1.3876599345520138,-0.19839082101285457,-0.14572072257697583
1746278141673826800,3.321826904296875,-1.1824123795121908,-0.30662849289178845,-1.0001327353447675
1746278141683806000,3.331805908203125,-1.021758291697502,-0.3838239607751369,-1.5475415766894816
1746278141693784800,3.341784912109375,-1.004915877968073,-0.5131833311378956,-1.9380963070243595
1746278141703764000,3.351763916015625,-1.092097317814827,-0.4728565814465284,-2.384868599143624
1746278141713742800,3.361742919921875,-1.260665832015872,-0.16970073310136793,-2.8670652558654544
1746278141723722000,3.371721923828125,-1.5756033035695551,0.2648264099508524,-3.183671537414193
1746278141733700900,3.381700927734375,-2.0710344126567244,0.6189759479522705,-3.199677500319481
1746278141743681000,3.391680908203125,-2.745069107747078,0.6281693082332611,-2.996618687495589
1746278141753660000,3.401659912109375,-3.366218308085203,0.3180886290609836,-2.789931747302413
1746278141763638800,3.411638671875,-3.7570214602231977,-0.21467969251275063,-2.6977187430292364
1746278141773617700,3.42161767578125,-3.648807753741741,-0.5374474193006754,-2.853902991953492
1746278141783596800,3.4315966796875,-3.0719778798624873,-0.24187866508364675,-3.1490356928408145
1746278141793575700,3.44157568359375,-2.276261801691353,0.6410398957222699,-3.2769624000519513
1746278141803554800,3.451554931640625,-1.5890400005087255,1.8147960905700922,-3.0503654752522706
1746278141813533700,3.46153369140625,-1.194731762859225,2.7032915747255086,-2.6041964097231625
1746278141823513900,3.471513916015625,-1.1388795272558927,3.095519791230559,-2.092544525936246
1746278141833492700,3.48149267578125,-1.3605585771366953,3.048329585510492,-1.6610007826089859
1746278141843472000,3.491471923828125,-1.7302765634089707,2.6431898649841545,-1.5131477241784332
1746278141853450800,3.50145068359375,-2.1019079820871354,2.065156168273091,-1.6352525933682918
1746278141863430000,3.511429931640625,-2.4275746451869606,1.4323989477276802,-1.8968243854373692
1746278141873408800,3.52140869140625,-2.609222128930688,0.9211404471725225,-2.2013439233511685
1746278141883388000,3.531387939453125,-2.6164643551439046,0.6816390326142311,-2.6421751349836584
1746278141893367800,3.541367919921875,-2.5574270597636697,0.5397983663409948,-3.066860098457336
1746278141903346700,3.5513466796875,-2.466435413978994,0.25591069756746293,-3.308579773586988
1746278141913325800,3.561325927734375,-2.298539392212033,-0.04757365207970142,-3.5616514483362436
1746278141923304700,3.5713046875,-2.0954113135442136,-0.38985681119859217,-3.7352421746134756
1746278141933283800,3.581283935546875,-1.857543929928541,-0.841222276327014,-3.724610305961966
1746278141943262700,3.5912626953125,-1.6111080399319528,-1.2437006686896086,-3.6633389679193495
1746278141953241600,3.60124169921875,-1.4942603606179357,-1.503133110642433,-3.648949208039045
1746278141963220500,3.611220458984375,-1.5097013831168413,-1.7437895404547452,-3.564339664506912
1746278141973201000,3.621200927734375,-1.637189698910713,-1.9576760367631911,-3.324284123197198
1746278141983179800,3.6311796875,-1.673468049994111,-2.1028554920703173,-2.866834954240918
1746278141993159000,3.641158935546875,-1.67855192912966,-2.131511093190312,-2.3433605307132006
1746278142003137500,3.651137451171875,-1.6254185970962047,-2.129814226144552,-1.8998036935091018
1746278142013116700,3.66111669921875,-1.4922035742186008,-2.1269541605383155,-1.2812018395662308
1746278142023095600,3.671095458984375,-1.284845456765592,-2.01485922870934,-0.6063567048758268
1746278142033074700,3.68107470703125,-1.0294223965846,-1.8617881433695553,0.04863806644082069
1746278142043054800,3.691054931640625,-0.812156048579514,-1.790083089596033,0.5769119992047548
1746278142053033500,3.701033447265625,-0.6317156025379895,-1.7419681702464818,1.0281903705716133
1746278142063012600,3.7110126953125,-0.40269904937595125,-1.7097487391650676,1.3769219751775263
1746278142072991500,3.720991455078125,-0.18165128313601017,-1.6506278571546076,1.5638023911386727
1746278142082970600,3.730970703125,-0.058652095454931254,-1.60860482493937,1.7499784582227467
1746278142092949500,3.740949462890625,0.07865560356378555,-1.5911925023674964,1.9734587123066185
1746278142102928600,3.7509287109375,0.21135843913555144,-1.5991759023368357,2.136809784120321
1746278142112907800,3.76090771484375,0.3517591357335448,-1.6144266629606485,2.2120944499462842
1746278142122887700,3.7708876953125,0.4441539263144135,-1.5776467920958994,2.2295734080135823
1746278142132866600,3.780866455078125,0.4707008647173643,-1.5549328559845685,2.2123159837424753
1746278142142845700,3.790845703125,0.4474386470735073,-1.5714812552034854,2.1390502565234897
1746278142152824600,3.800824462890625,0.4160740792557597,-1.5407570311158894,1.938266987416148
1746278142162803700,3.8108037109375,0.3395633787661791,-1.5140999103367327,1.7377391543745992
1746278142172782600,3.820782470703125,0.2635641349300742,-1.5504606790065765,1.5746967101186513
1746278142182761700,3.83076171875,0.24883389104902742,-1.6402917565792798,1.3295640116751193
1746278142192740600,3.84074072265625,0.21020488518625496,-1.761670065060258,0.9851479321807622
1746278142202720800,3.850720703125,0.16769728432446718,-1.9060165766745805,0.5815338137865066
1746278142212699600,3.86069970703125,0.19359774151742457,-2.1027391722142696,0.17927286356687544
1746278142222678800,3.8706787109375,0.25425357801020143,-2.2890905958652494,-0.17687164764404295
1746278142232657700,3.88065771484375,0.299601955255866,-2.4707442170888183,-0.5200368502944708
1746278142242636800,3.89063671875,0.29648586906194685,-2.585088389149308,-0.8278466619253159
1746278142252615700,3.90061572265625,0.27590923724025485,-2.6772435257554053,-1.0525719476342201
1746278142262594800,3.9105947265625,0.28773469959050413,-2.6819834137588736,-1.2111521517843007
1746278142272574700,3.92057470703125,0.22964199158400295,-2.6574679811835287,-1.2709317899644375
1746278142282553600,3.9305537109375,0.23931202946603297,-2.643759773826599,-1.1575585087627172
1746278142292532700,3.94053271484375,0.42769145181328055,-2.6100281846165654,-1.0449006823539733
1746278142302511600,3.95051171875,0.8184156934961676,-2.505721422445774,-0.927456206190586
1746278142312490800,3.96049072265625,1.1234095709234475,-2.4063678987681865,-0.7224696401745081
1746278142322469600,3.9704697265625,1.309538291734457,-2.342850827625394,-0.4516068726688623
1746278142332448800,3.98044873046875,1.4325789804697036,-2.1567373043835163,-0.3411351581275463
1746278142342428700,3.9904287109375,1.7083371188014744,-1.7567378693550824,-0.32061142553687094
1746278142352407800,4.00040771484375,2.0423338033512235,-1.0887965227037668,-0.32104514077901836
1746278142362386700,4.01038671875,2.1211177094697953,-0.2143020913720131,-0.2605558930248022
1746278142372365800,4.02036572265625,1.9467326179444788,0.7801724720805883,-0.24916940661370754
1746278142382344700,4.0303447265625,1.5978572209537028,1.8595868339329957,-0.3932441155493259
1746278142392323800,4.04032373046875,1.219566636647284,2.896348633494973,-0.62031976377666
1746278142402302700,4.050302734375,0.7670309586957097,3.7855320999145508,-0.7927373546212911
1746278142412281900,4.06028173828125,0.059413727477192875,4.717092234292626,-0.46469022612571714
1746278142422261800,4.07026171875,-0.8626479261934756,5.242188121542334,-0.015606734454631805
1746278142432240600,4.08024072265625,-1.1883826860934494,4.982386261755228,-0.36829438320994373
1746278142442219800,4.0902197265625,-1.3333014446377753,4.46542224303484,-0.7432341957837343
1746278142452198700,4.10019873046875,-1.607620197816193,3.9311312419384716,-0.9436603220164775
1746278142462177800,4.110177734375,-1.7266963668346405,3.502837440317869,-1.2917156347960232
1746278142472156700,4.12015673828125,-1.6136971796423196,3.258937498539686,-1.6198574558377266
1746278142482135800,4.1301357421875,-1.4950430354282258,3.3697382989048954,-1.8099872289836405
1746278142492114700,4.14011474609375,-1.4873291000500322,3.7122090895503757,-1.8391724069356916
1746278142502094800,4.1500947265625,-1.619957116819918,4.194426789060235,-1.8453285914778708
1746278142512073700,4.16007373046875,-1.8326888901352882,4.654991459688544,-1.8810440479815005
1746278142522052900,4.170052978515625,-1.8786784878939389,5.201587815606594,-2.0220605383902788
1746278142532031700,4.18003173828125,-1.8476438826829193,5.600432235381007,-2.0197534304916855
1746278142542011000,4.190010986328125,-1.8247300400853157,5.576754422673583,-1.7709341524899005
1746278142551989800,4.19998974609375,-1.6194748862609267,5.359760023477673,-1.471720904290676
1746278142561969000,4.209968994140625,-1.308518008776009,4.8578755004674194,-1.0426263076812028
1746278142571948800,4.21994873046875,-1.0515580944165588,4.092568004563451,-0.5614630856603384
1746278142581927700,4.229927734375,-0.7886296270415186,3.3893004929870365,-0.015322656816244125
1746278142591906800,4.23990673828125,-0.45181379341781136,2.865043979170918,0.5523462977468967
1746278142601885700,4.2498857421875,-0.23078736222684382,2.2207325144320724,1.2346388258337975
1746278142611864800,4.25986474609375,-0.07292085930407047,1.6079828936487435,1.8898937093913555
1746278142621843700,4.26984375,0.13649404454827307,1.1215589746206998,2.3189941512197256
1746278142631822600,4.279822509765625,0.33655776720941066,0.6425304265409708,2.6835107694566247
1746278142641801500,4.289801513671875,0.5533107588648796,0.25131518647074697,2.889271242454648
1746278142651782000,4.299781982421875,0.7944038265287876,0.0034931028127670287,2.973858574154973
1746278142661760800,4.3097607421875,1.017735612052679,-0.3339806101977825,3.156139971888065
1746278142671740000,4.319739990234375,1.2557482493579386,-0.7495669059365987,3.2987598058402536
1746278142681718500,4.329718505859375,1.4447703535228966,-1.0678162785172463,3.3490818798452615
1746278142691697700,4.33969775390625,1.509061916169524,-1.2752660197764634,3.264392841336131
1746278142701676500,4.349676513671875,1.4357982347771525,-1.44256319886744,3.1786469872504473
1746278142711655700,4.35965576171875,1.4964263064801693,-1.5527362227231263,3.189724846103787
1746278142721635800,4.3696357421875,1.6578487483188509,-1.591295962741971,3.2055098597347733
1746278142731614500,4.379614501953125,1.8303899655431508,-1.6176958938896655,3.2168285416066644
1746278142741593600,4.389593505859375,1.9827990798428654,-1.61837744641304,3.1820296154260634
1746278142751572700,4.39957275390625,2.1469582531690596,-1.5171967073082924,3.0185891117632386
1746278142761551600,4.409551513671875,2.3182693440765143,-1.3976087893754243,2.7495506370753047
1746278142771530800,4.41953076171875,2.432760231131315,-1.26005383759737,2.4804192234069107
1746278142781509600,4.429509521484375,2.4821631444647907,-1.0529109703302382,2.3005004631519315
1746278142791488800,4.43948876953125,2.461636197003722,-0.8667869256943463,2.200667631524801
1746278142801468700,4.44946875,2.2951018189787864,-0.7146668574690819,2.0757582263082264
1746278142811447600,4.459447509765625,2.028113262557983,-0.588704143807292,1.9378373638272284
1746278142821426700,4.4694267578125,1.693559528647363,-0.5795376715332269,1.7988363048940896
1746278142831405600,4.479405517578125,1.3779063100397586,-0.6447416728496551,1.5777993523091076
1746278142841384700,4.489384765625,1.135028112524748,-0.7636310871243477,1.324390992951393
1746278142851363600,4.499363525390625,1.0043155739873648,-0.9065805914223194,0.9965069460630416
1746278142861342700,4.5093427734375,0.8627642460495233,-1.0062760604053735,0.6662070702046156
1746278142871321600,4.519321533203125,0.5933730124011636,-1.1368249328136444,0.4449918384432792
1746278142881301800,4.5293017578125,0.3751090316608548,-1.3283341776192188,0.21706804895401
1746278142891280600,4.53928076171875,0.18865794702768324,-1.5221680659800767,-0.034795419049263
1746278142901259800,4.549259765625,0.041597500279545785,-1.8021581427931785,-0.2657926246345043
1746278142911238700,4.55923876953125,-0.144097797550261,-2.0156027405530215,-0.526765281766653
1746278142921217800,4.5692177734375,-0.44987902596294876,-2.2499439958691596,-0.7253834817945957
1746278142931196700,4.57919677734375,-0.7272007603496312,-2.5085452476948498,-1.003874844482541
1746278142941175800,4.58917578125,-0.8923767095029354,-2.676661926475167,-1.258271045833826
1746278142951155700,4.59915576171875,-0.9735127317056059,-2.6832091561615465,-1.471681741324067
1746278142961134600,4.609134521484375,-0.9656690324679017,-2.5180577569276092,-1.6653683301687239
1746278142971113700,4.61911376953125,-0.9796467044159769,-2.1292858183562755,-1.7780583052814005
1746278142981092600,4.629092529296875,-1.13123807259202,-1.70655491155982,-1.6925480135172604
1746278142991071700,4.63907177734375,-1.3200535482689737,-1.3364122701346874,-1.5686299574255942
1746278143001050600,4.649050537109375,-1.3922209588572383,-1.0847791037559509,-1.382519356793165
1746278143011029800,4.65902978515625,-1.321893915438652,-1.0206482846289873,-1.2225520821988582
1746278143021008600,4.669008544921875,-1.185531972837448,-1.0250362904548644,-1.0471943462491036
1746278143030988800,4.67898876953125,-1.1423463265836238,-0.9370335973531008,-0.7661702502131462
1746278143040967700,4.6889677734375,-1.2708829823866485,-0.9728905081540346,-0.3271510564386844
1746278143050946800,4.69894677734375,-1.3624582732781767,-1.0596095911860466,0.027122400203347205
1746278143060925700,4.70892578125,-1.2490975592970848,-1.0780582710683344,0.17615327024161814
1746278143070904800,4.71890478515625,-1.0336357764959334,-1.020577557480335,0.19331541744470596
1746278143080883700,4.7288837890625,-0.831208831834793,-0.9038730860292911,0.10811492228209972
1746278143090862800,4.73886279296875,-0.6878446092560887,-0.6096995855629443,-0.11465455318391322
1746278143100841700,4.748841796875,-0.6496773756861687,-0.1928121440976858,-0.24274551104605196
1746278143110821600,4.758821533203125,-0.5271338228181004,0.2733276963144541,-0.3613905951708555
1746278143120800800,4.76880078125,-0.3951905734419823,0.8485743926554917,-0.5771007997751235
1746278143130779600,4.778779541015625,-0.3767003925055265,1.3702876517295837,-0.8103267873257398
1746278143140758800,4.7887587890625,-0.5300578935712575,1.8763970989584922,-1.0418243436485528
1746278143150737700,4.798737548828125,-0.9823799287721514,2.0453058048993347,-1.0110773232072592
1746278143160716800,4.808716796875,-1.6066592438295482,1.6867758598566054,-0.8716320276379584
1746278143170695700,4.81869580078125,-2.2264564450368285,0.8749725702375173,-0.6601812340438366
1746278143180675800,4.82867578125,-2.6390757076635953,-0.20891747572422026,-0.5366489623993634
1746278143190654700,4.83865478515625,-2.739984059567749,-1.1640081232935189,-0.7091098078638315
1746278143200633900,4.8486337890625,-2.535658880069852,-1.5249246712118387,-1.3065385253965853
1746278143210612700,4.85861279296875,-2.0278031736955047,-1.1750555870085955,-1.910862847661972
1746278143220591900,4.868591796875,-1.390757316045463,-0.277317058211565,-2.2920488611489533
1746278143230570800,4.87857080078125,-0.9207184223681688,0.9180500799417495,-2.420055647858977
1746278143240550000,4.8885498046875,-0.5822971993744372,2.121632673254609,-2.312836797633767
1746278143250528800,4.89852880859375,-0.4801671967208385,2.9681355203330515,-2.133655119481683
1746278143260508700,4.9085087890625,-0.5976484977632761,3.2823055146455764,-1.8673259037524461
1746278143270487800,4.91848779296875,-0.9705389765918254,3.002732786461711,-1.6599194171130656
1746278143280466700,4.928466796875,-1.4178355848461388,2.1587568275123834,-1.5420681137144565
1746278143290445800,4.93844580078125,-1.7679758872061966,1.211446166294813,-1.6557465153425932
1746278143300424700,4.9484248046875,-1.9988252087533473,0.3270563638925552,-1.8742051418721675
1746278143310403600,4.958403564453125,-2.100345262815058,-0.4535673590868711,-2.208113563616574
1746278143320382700,4.9683828125,-2.147295376168936,-1.039403253981471,-2.63737007278949
1746278143330361600,4.978361572265625,-2.1141354493670166,-1.4411772974669932,-3.002544278152287
1746278143340341800,4.988341796875,-2.0280365440599617,-1.7398592152684926,-3.311524594867229
1746278143350321000,4.99832080078125,-1.9058445811085403,-1.9607786789536474,-3.5617186683535573
1746278143360299500,5.008299560546875,-1.727786938550323,-2.0861364124596116,-3.7724139674052592
1746278143370278700,5.018278564453125,-1.5097123429022727,-2.1731027482509613,-3.8863825841516255
1746278143380257500,5.028257568359375,-1.2776584678709506,-2.2649293835550544,-3.9145194220945236
1746278143390236700,5.038236572265625,-1.1205780007593333,-2.1399773082405327,-3.8450700382933016
1746278143400215600,5.048215576171875,-1.0515798678569495,-2.0223183125436304,-3.437050670677423
1746278143410195700,5.05819580078125,-1.0185621260046958,-1.9397966812014578,-2.9161650945991275
1746278143420174600,5.068174560546875,-0.9227665870696306,-1.7568343154668806,-2.4043726332977413
1746278143430153700,5.07815380859375,-0.7616355293929576,-1.5484762271910906,-1.8815753783792257
1746278143440132600,5.088132568359375,-0.6014591420926153,-1.3650433213353157,-1.4652052387863397
1746278143450111700,5.09811181640625,-0.46809097447991366,-1.1151479385346175,-1.0327069712132215
1746278143460090600,5.108090576171875,-0.33322949956953524,-0.9619330608099699,-0.5387503185927868
1746278143470069800,5.11806982421875,-0.1879500910192728,-0.8538613931477069,-0.13839140260219573
1746278143480048600,5.128048583984375,-0.08301014551147819,-0.7405424724817276,0.20351181728839873
1746278143490028500,5.138028564453125,0.03013049597814679,-0.6757850458890199,0.5460954206585884
1746278143500007700,5.148007568359375,0.14428630585968494,-0.6568365997910499,0.8922346706837415
1746278143509986600,5.157986572265625,0.2073340059250593,-0.6332768605053425,1.3555056776612997
1746278143519965700,5.167965576171875,0.27259470586478707,-0.7875877167731523,1.8227602013170718
1746278143529944600,5.177944580078125,0.32797420938983557,-1.038811717829108,2.175844155913591
1746278143539923700,5.187923828125,0.4343085318654775,-1.308191553300619,2.4541993250012397
1746278143549902600,5.197902587890625,0.5851958434253931,-1.5820301217466592,2.608745743590593
1746278143559881700,5.2078818359375,0.8095932123541831,-1.7818091822475195,2.6672265741318464
1746278143569861600,5.217861572265625,0.9963543858498334,-1.9162989012360572,2.713773805773258
1746278143579840800,5.2278408203125,1.1648396056815982,-1.9975731628656386,2.655522107812762
1746278143589819600,5.237819580078125,1.379071262165904,-2.003603675201535,2.5461206528514624
1746278143599798800,5.247798828125,1.6828449501484632,-1.8751836315155028,2.424910102152824
1746278143609777700,5.257777587890625,1.9957740044891834,-1.658869031277299,2.3090058411687613
1746278143619756800,5.2677568359375,2.2473753144249318,-1.3334785547703505,2.2059745057612656
1746278143629735700,5.277735595703125,2.5653107987508177,-1.0093108980566263,2.074029795080423
1746278143639714800,5.28771484375,2.8109990852504967,-0.6302548823356628,1.9108026419073343
1746278143649694700,5.29769482421875,2.9591765533298253,-0.19315058227181434,1.7534791598200796
1746278143659673600,5.307673583984375,2.98934372805655,0.2794698523312807,1.645199986886978
1746278143669652700,5.31765283203125,2.8909219322711226,0.5245423450201749,1.4910188944786786
1746278143679631600,5.327631591796875,2.7390377186283468,0.5552051943093538,1.2735393421143293
1746278143689610800,5.33761083984375,2.4992607019990682,0.3214075443506241,0.9129694156765937
1746278143699589600,5.347589599609375,2.1883000251218676,-0.08523030577898025,0.5335206012457608
1746278143709568800,5.35756884765625,1.8483277732938528,-0.560035098683834,0.1638555142045021
1746278143719547600,5.367547607421875,1.565415087032318,-1.0239788903564213,-0.2773585592657328
1746278143729527800,5.37752783203125,1.45170219861269,-1.2771698075711726,-0.7427332605242729
1746278143739506700,5.387506591796875,1.4584069569483398,-1.1162456706434487,-1.3062269752293825
1746278143749485800,5.39748583984375,1.4755042222216725,-0.6987941655546427,-1.8380927950054406
1746278143759464700,5.407464599609375,1.4523106858998536,-0.05876432365775108,-2.226020099446177
1746278143769444400,5.4174443359375,1.442485457456112,0.8467857556730508,-2.510985042062402
1746278143779423500,5.427423583984375,1.444953455004841,2.034296335107088,-2.62572376639843
1746278143789402400,5.43740234375,1.457414731040597,3.3263433938145637,-2.4832564926594496
1746278143799381500,5.447381591796875,1.5002999330431221,4.57198876683116,-2.36010942094028
1746278143809361400,5.457361328125,1.58338971966207,5.832663951197266,-2.3199410766810176
1746278143819340500,5.467340576171875,1.5722902334988116,6.829850696218013,-2.1615572718858718
1746278143829319400,5.4773193359375,1.3484946298554539,7.151708322423696,-1.801401771467924
1746278143839298600,5.487298583984375,0.9835194541960954,6.811327782055735,-1.474386324107647
1746278143849277400,5.49727734375,0.6216448749005794,6.206495510268211,-1.4254209254086017
1746278143859256600,5.507256591796875,0.15393150156140326,5.619144534635543,-1.526127032738924
1746278143869235500,5.5172353515625,-0.4392115014761686,5.136781289175152,-1.5248410845816134
1746278143879214600,5.527214599609375,-1.1898521741241217,4.841937342101335,-1.5272230112820864
1746278143889194500,5.537194580078125,-1.94389593321383,4.612977779823542,-1.6616238829433918
1746278143899173400,5.54717333984375,-2.5032009640574455,4.4092146181225775,-1.8306465706527233
1746278143909152500,5.557152587890625,-2.732916313138604,4.1558273015528915,-1.9968758282512424
1746278143919131400,5.56713134765625,-2.6525200033873317,3.808904792195558,-2.0911615471452474
1746278143929110500,5.577110595703125,-2.320412055193633,3.350608066499233,-1.943882489210367
1746278143939089400,5.58708935546875,-1.7507840755172073,2.7649451900839805,-1.590741835990548
1746278143949068300,5.597068359375,-0.9950104238949715,2.1625959672838446,-1.0604665002763272
1746278143959047400,5.60704736328125,-0.29522607825919983,1.6138836421251297,-0.547727990296483
1746278143969027600,5.617027587890625,0.24415026327744124,1.126525072595477,-0.16053309178352354
1746278143979006500,5.62700634765625,0.6122102532096206,0.6999597022026777,0.26224048511087894
1746278143988985300,5.6369853515625,0.9151305392332375,0.3181628633409738,0.6840045927017927
1746278143998964200,5.646964111328125,1.1458208708263933,-0.029535891085863113,0.9995265861451625
1746278144008943400,5.656943359375,1.278155895999074,-0.26111644951701163,1.2968085740208626
1746278144018922200,5.666922119140625,1.262028937062621,-0.5287719454139471,1.6381366243720055
1746278144028901400,5.6769013671875,1.180161824106425,-0.8873591736018657,1.9775334143996237
1746278144038880300,5.68688037109375,1.0576000049293042,-1.2206138076126574,2.2223902185112236
1746278144048860400,5.6968603515625,0.9978208051405847,-1.4627701205939054,2.358973694908619
1746278144058839300,5.70683935546875,1.0558410324327647,-1.6301175685673952,2.352846736460924
1746278144068818400,5.716818359375,1.0756827741086483,-1.72153094689548,2.417138883629441
1746278144078797300,5.72679736328125,1.0694143613636493,-1.8683394647091627,2.5370155553758145
1746278144088776400,5.7367763671875,1.0987078219957649,-1.9524796371638773,2.5799942808806895
1746278144098755300,5.74675537109375,1.1450861268110573,-1.9203344403624534,2.5916788734555243
1746278144108734500,5.756734375,1.1946657118856907,-1.7684037572294473,2.5572242306679485
1746278144118713300,5.76671337890625,1.2338028134010732,-1.5395973396867513,2.594061384677887
1746278144128693200,5.776693359375,1.2862388108201324,-1.277445117381215,2.5830589291483164
1746278144138672400,5.78667236328125,1.3206367549844085,-0.9731962131023406,2.5509149013906716
1746278144148651300,5.7966513671875,1.3641373124063014,-0.5923375318735837,2.5055437277913093
1746278144158630400,5.80663037109375,1.364391579428315,-0.13845570001006124,2.4649498515963555
1746278144168609300,5.816609375,1.2459687597520648,0.46897652514278887,2.5010703817695377
1746278144178588400,5.82658837890625,0.9937516560055315,1.0624392616540193,2.6880677021086212
1746278144188567300,5.8365673828125,0.7003390569090843,1.610197647088766,2.766062795937061
1746278144198546400,5.84654638671875,0.33719723415672775,2.1072639561623334,2.7814783917337653
1746278144208526300,5.8565263671875,-0.03441372625529766,2.518655138298869,2.6644308059334754
1746278144218505500,5.86650537109375,-0.4290038495860994,2.7809581672519443,2.4825626651763915
1746278144228484400,5.876484375,-0.8987718904327601,2.79004865168035,2.3485171828240157
1746278144238463500,5.88646337890625,-1.3350082485556602,2.4688036044150588,2.1980460508495567
1746278144248442400,5.8964423828125,-1.7147598453253508,1.9552438411802053,1.947890555807948
1746278144258421500,5.90642138671875,-1.9288485862076281,1.3617401881366968,1.6832617142558097
1746278144268400400,5.916400390625,-1.941712890086323,0.8358177869349718,1.3169167115479707
1746278144278379500,5.926379638671875,-1.800948767003417,0.4295037619322538,0.8635334768563508
1746278144288359400,5.936359375,-1.5273831702798604,0.24246318697333336,0.4039595708310604
1746278144298338300,5.94633837890625,-1.2425105821222067,0.22673370292186737,-0.017095511707663536
1746278144308317400,5.9563173828125,-0.9333862538266926,0.4970686471611261,-0.5174503409326077
1746278144318296300,5.96629638671875,-0.5568068573523313,1.2178764916032552,-1.1519821699351072
1746278144328275500,5.976275390625,-0.12878653891086578,2.3600819484114646,-1.724259495076537
1746278144338254300,5.98625439453125,0.10969320444948971,3.482061194270849,-1.9155676643520592
1746278144348233500,5.9962333984375,-0.04448854554593563,4.119938826569914,-1.6362334210991858
1746278144358212400,6.00621240234375,-0.6011561770906672,4.307999392226338,-1.0693646770030258
1746278144368192500,6.016192626953125,-1.312913905647397,4.185453209009767,-0.3771703481048345
1746278144378171400,6.02617138671875,-2.0174802248626946,3.733692022562027,0.25459318522810936
1746278144388150500,6.036150634765625,-2.720392347130179,2.924116930386424,0.676255001488328
1746278144398129400,6.04612939453125,-3.3230484439224,1.8589000207126138,0.7511556364327668
1746278144408108500,6.056108642578125,-3.6247283744961023,0.7720973021745682,0.5418155513823032
1746278144418087400,6.06608740234375,-3.579472351709008,-0.22428864785730837,0.14983224954903124
1746278144428066600,6.076066650390625,-3.3388802193045612,-1.0455272898197174,-0.3392231870263815
1746278144438045400,6.08604541015625,-2.9623838249385357,-1.6538748762518167,-0.8598854757428169
1746278144448024600,6.096024658203125,-2.413542904964089,-2.037192641070485,-1.2724351802647114
1746278144458004500,6.10600439453125,-1.7292144871354103,-2.061079712614417,-1.4721990431964396
1746278144467983400,6.1159833984375,-0.9279758461505174,-1.8813491684079169,-1.5698656367003916
1746278144477962500,6.12596240234375,-0.10706913955621421,-1.6183791999787092,-1.6259920130699872
1746278144487941400,6.13594140625,0.740301064941287,-1.3028081066966055,-1.5918763929784296
1746278144497920500,6.14592041015625,1.5819401053756474,-1.039652844828367,-1.4556751938968897
1746278144507899600,6.155899658203125,2.30958568688333,-0.8407499826401471,-1.2285533684402703
1746278144517878300,6.165878173828125,2.892758500048518,-0.6996300318568944,-0.9003069179803133
1746278144527857400,6.175857421875,3.2926094665169714,-0.5985469079077244,-0.5861491986274718
1746278144537837600,6.185837646484375,3.5575825914621353,-0.550329697227478,-0.3316320012450218
1746278144547816400,6.19581640625,3.759896723398566,-0.49790802059471606,-0.11672668328285217
1746278144557795600,6.205795654296875,3.8410722008287905,-0.3663701371490955,0.062324646487832064
1746278144567774200,6.215774169921875,3.8295091888070103,-0.21801146728396414,0.2549596804529428
1746278144577753300,6.22575341796875,3.7562902233392,-0.0048643911659717555,0.4762549917131662
1746278144587732200,6.235732177734375,3.591955401185155,0.21442250288128853,0.775204620540142
1746278144597711400,6.24571142578125,3.382061773905158,0.43481589686572547,1.0951356625974178
1746278144607690200,6.255690185546875,3.142783062186837,0.7506336583852767,1.3674106349885462
1746278144617670400,6.26567041015625,2.904547137519717,1.0219669660121202,1.6789058571338653
1746278144627649300,6.275649169921875,2.7252508930772543,1.3061574171245098,1.9219617493033407
1746278144637628400,6.28562841796875,2.485246789693832,1.4460311672389508,2.269635953810811
1746278144647607300,6.295607177734375,2.356343930926919,1.5163397982180118,2.598574478188157
1746278144657586400,6.30558642578125,2.306301112254709,1.4979700287908315,2.8132044863402843
1746278144667565300,6.3155654296875,2.1846149068683385,1.3700585191488266,2.941210688528418
1746278144677544400,6.32554443359375,1.978749219930172,1.1734317851990461,3.082401950982213
1746278144687523300,6.3355234375,1.7363778028935193,0.9927671750128269,3.0493226882010696
1746278144697502500,6.34550244140625,1.4720330389797687,0.8252554763883352,2.9540882902801036
1746278144707482400,6.355482421875,1.2157254510492086,0.62112172780931,2.764247855469584
1746278144717461200,6.365461181640625,0.979068977593258,0.4071154045134783,2.5805261958003043
1746278144727440400,6.3754404296875,0.8196393900722265,0.15683073013424872,2.327244093170762
1746278144737419300,6.385419189453125,0.6915835765887052,-0.08182195864021778,2.031221165445447
1746278144747398400,6.3953984375,0.6314718569099903,-0.23412907387018203,1.6999971604794264
1746278144757377300,6.405377197265625,0.6143482150863856,-0.3695914372831583,1.418881879028678
1746278144767356000,6.41535595703125,0.6298807883262634,-0.5280985761970282,1.1927023028582333
1746278144777335000,6.4253349609375,0.6552759263455867,-0.6967237890213728,1.0201280601471663
1746278144787315200,6.435315185546875,0.6907990751475095,-0.8836603190839291,0.9405828142672776
1746278144797294000,6.445294189453125,0.7031843633376061,-1.0533464391380547,0.8153788100183009
1746278144807273200,6.455273193359375,0.6451863478772342,-1.1377975772380828,0.7507254283219575
1746278144817251800,6.465251953125,0.6116396137148141,-1.2342577175617218,0.6865840878009796
1746278144827231000,6.47523095703125,0.47547173238098617,-1.1908242340266704,0.6107622463583946
1746278144837209900,6.4852099609375,0.2616881119251251,-1.0834195058405398,0.5694704510271549
1746278144847189000,6.49518896484375,0.012661986239627002,-0.9370394425719976,0.46847266727387904
1746278144857168000,6.50516796875,-0.3088484339635819,-0.7521615986049175,0.4386147046267986
1746278144867147000,6.51514697265625,-0.6798737034421414,-0.5862462292611599,0.39851474942862986
1746278144877127000,6.525126953125,-1.0746277120977639,-0.49816170309484004,0.4256611150294542
1746278144887106000,6.53510595703125,-1.4601193138241768,-0.5570335787802935,0.4454974498778581
1746278144897085000,6.5450849609375,-1.8140449799418448,-0.6721230162501335,0.3541360939979553
1746278144907064000,6.55506396484375,-2.121260332810879,-0.7922130384862422,0.24265140302181243
1746278144917043000,6.56504296875,-2.339704346293211,-0.9186006995618343,-0.0001391162097454071
1746278144927022000,6.57502197265625,-2.3613532835215327,-0.9439677805304527,-0.3935153337061405
1746278144937001000,6.5850009765625,-2.3094079922288655,-0.8351046702295541,-0.8125333574593067
1746278144946980000,6.59497998046875,-2.277980003786087,-0.6166144795179367,-1.1713701764941216
1746278144956960000,6.6049599609375,-2.249649981358647,-0.3434907813429832,-1.4170955801337957
1746278144966939000,6.61493896484375,-2.2097306434243915,-0.07214227614700794,-1.6043039128750562
1746278144976918000,6.62491796875,-2.113067089483142,0.2744768663495779,-1.7781991750568151
1746278144986897000,6.63489697265625,-2.0441315004229543,0.6243681623846292,-1.7643764014095067
1746278144996876000,6.6448759765625,-1.9753040479123591,0.9182751208692789,-1.652128324845433
1746278145006855000,6.65485498046875,-1.9163152678489683,1.1809282784342765,-1.4622522341996431
1746278145016834000,6.664833984375,-1.8178297591775654,1.3411965818017721,-1.3245581662118433
1746278145026813000,6.67481298828125,-1.7447265290439127,1.375052089652419,-1.1921160274028777
1746278145036793000,6.68479296875,-1.7111568523973226,1.233518881893158,-1.0024772526443004
1746278145046772000,6.69477197265625,-1.7030103708207607,0.9349380863785743,-0.8790285676300525
1746278145056751000,6.704751220703125,-1.711639082956314,0.5539689305126667,-0.7973726132065058
1746278145066730000,6.71472998046875,-1.7413316259086131,0.167188458019495,-0.8597048584789038
1746278145076709000,6.724709228515625,-1.7672826442450285,-0.16187807665169238,-0.8976222089409828
1746278145086688000,6.73468798828125,-1.8058616734862327,-0.40671968319416046,-0.9609709377795457
1746278145096667100,6.744667236328125,-1.8599661886394023,-0.4796230068415403,-1.0789514205157755
1746278145106646000,6.75464599609375,-1.9503104764312504,-0.4137976587563753,-1.2498790650635958
1746278145116625200,6.764625244140625,-2.0663076763957737,-0.2374929973453283,-1.3845570001006127
1746278145126605000,6.77460498046875,-2.23701904784441,0.03713292208611965,-1.3438099791705607
1746278145136584000,6.784583984375,-2.3801404015779495,0.1424573368668556,-1.239424891066551
1746278145146563000,6.79456298828125,-2.3742414066672324,0.20073650735616683,-1.221170856973529
1746278145156542000,6.8045419921875,-2.3592712165504692,0.2285270160794258,-1.2504717702597379
1746278145166521000,6.81452099609375,-2.353268176743388,0.3097662063956261,-1.3619371720135212
1746278145176500000,6.8245,-2.4138000945955516,0.39476737959384917,-1.3840367756187915
1746278145186479000,6.83447900390625,-2.4522429302364586,0.3840262053489685,-1.443367500987649
1746278145196458000,6.8444580078125,-2.48750772036314,0.4213578648775816,-1.6049404572129249
1746278145206438100,6.854438232421875,-2.5228952600866554,0.4417606014370918,-1.7878870408564804
1746278145216417000,6.8644169921875,-2.605360777327418,0.44850306143462654,-2.0758307070225475
1746278145226396200,6.874396240234375,-2.666973476153612,0.4112584956675768,-2.320285360074043
1746278145236375000,6.884375,-2.572106157979369,0.24435703789591787,-2.4752076262384652
1746278145246354200,6.894354248046875,-2.3272294801235196,-0.05910042374432087,-2.5876632080733772
1746278145256333000,6.9043330078125,-1.9989866829253733,-0.37075697393119333,-2.6346891631424425
1746278145266312200,6.914312255859375,-1.5925456705421208,-0.6573229220032691,-2.574478147807717
1746278145276291000,6.924291015625,-1.1642232273489237,-0.8176882560044526,-2.4864731166183947
1746278145286270200,6.934270263671875,-0.7623906586091965,-0.8893231671512126,-2.3546961637198924
1746278145296250000,6.94425,-0.3795276518207043,-0.8167875077724456,-2.1014766049325466
1746278145306229000,6.95422900390625,-0.03066036507114768,-0.659195730137825,-1.7574486479729412
1746278145316208000,6.9642080078125,0.23628537512123585,-0.5332733484864235,-1.476810920906067
1746278145326187000,6.97418701171875,0.4610800728045404,-0.3503904777288437,-1.2610522009849547
1746278145336166100,6.984166259765625,0.7502204014092684,-0.1164636484324932,-1.0482213512092828
1746278145346145300,6.994145263671875,1.0978132112435997,0.1968067666918039,-0.8139987538367509
1746278145356124000,7.0041240234375,1.5101434277959167,0.4792009820371866,-0.46858080382347106
1746278145366103000,7.01410302734375,1.9036030857920645,0.7182382862150669,-0.1603267555564642
1746278145376083200,7.024083251953125,2.2614872802771626,0.9512579375386238,0.1354091719210148
1746278145386062000,7.03406201171875,2.5444153102383016,1.1664648687958716,0.43362464125454425
1746278145396041000,7.044041015625,2.714336700353026,1.4010732506155967,0.7699082676976918
1746278145406019800,7.054019775390625,2.8170880497753616,1.570678122127056,1.1475637689709663
1746278145415999000,7.0639990234375,2.8256454502403736,1.6710124735355376,1.5043851565301418
1746278145425977900,7.073977783203125,2.7816128317683932,1.701232255232334,1.860693918392062
1746278145435957000,7.08395703125,2.6893933977544306,1.6346733321756124,2.2140935148090124
1746278145445935900,7.093935791015625,2.554948686951399,1.5183230809897184,2.548105689188838
1746278145455916000,7.103916015625,2.4172540344417093,1.4400012394249437,2.7976082732796668
1746278145465895000,7.11389501953125,2.317396945156157,1.3753864361733197,3.020229864707589
1746278145475874000,7.1238740234375,2.3013462663263082,1.2163275085955858,3.179055568051338
1746278145485853000,7.13385302734375,2.2959330091059207,0.9961708459764719,3.3090731100618838
1746278145495832000,7.14383203125,2.3082547305405137,0.8030331231862307,3.394512674677372
1746278145505811000,7.15381103515625,2.3580416747555137,0.6306161168634891,3.481205454224348
1746278145515790000,7.1637900390625,2.426600247196853,0.4431628694504499,3.5303730974972245
1746278145525769000,7.17376904296875,2.477867493097484,0.30050153444409367,3.5124113243490456
1746278145535748000,7.183748046875,2.525997025494277,0.23087913216352463,3.467482633820176
1746278145545728000,7.19372802734375,2.5568875460594893,0.27205168502926824,3.3790129077285527
1746278145555707000,7.203706787109375,2.568956169515848,0.3274532542556524,3.325167920294404
1746278145565686000,7.21368603515625,2.5424007555454966,0.3693307405203581,3.2397774555176495
1746278145575665000,7.223664794921875,2.414978636855632,0.4558744669854641,3.063307374411821
1746278145585644000,7.23364404296875,2.182275065743923,0.5977291617840528,2.8123779723882674
1746278145595623000,7.243622802734375,1.8904715092793105,0.7280980014503001,2.585526780566573
1746278145605602000,7.25360205078125,1.577493793491274,0.862580121654272,2.302826860272884
1746278145615581000,7.263580810546875,1.2893448140114545,0.9743319391340016,1.9525766677975653
1746278145625561000,7.27356103515625,1.0645230821907519,1.0709323647111653,1.661826712039113
1746278145635540000,7.2835400390625,0.8678589388400316,1.101481816753745,1.3666466648787259
1746278145645519000,7.29351904296875,0.6431121719516814,1.0988549753814936,1.082289040505886
1746278145655498000,7.303498046875,0.37464243706241246,1.0389268686413764,0.8344505902349948
1746278145665477000,7.31347705078125,0.07440320681631565,0.9648258596420287,0.567644404643774
1746278145675456000,7.3234560546875,-0.21313597020208835,0.8764256916552782,0.2404915946394205
1746278145685435100,7.33343505859375,-0.438984633917734,0.8908072682291269,-0.11901625552475452
1746278145695414000,7.3434140625,-0.5458124389987439,1.1009440566152333,-0.6380623412162065
1746278145705393200,7.35339306640625,-0.6524274781119078,1.4180436746388674,-1.0923726276248693
1746278145715373000,7.363373046875,-0.8771206151168793,1.6887456986248492,-1.3558487920105458
1746278145725352000,7.37335205078125,-1.2022153235476463,1.8376918129891155,-1.522495982760191
1746278145735331000,7.3833310546875,-1.485443724694848,1.885489336952567,-1.671522761145234
1746278145745310000,7.39331005859375,-1.6047095710664987,1.9720342324614524,-1.8560089754462241
1746278145755289000,7.4032890625,-1.6328624833613634,2.164311539030075,-2.1195698955059052
1746278145765267700,7.413267822265625,-1.636570690229535,2.5230408060371876,-2.4132687641978263
1746278145775246600,7.42324658203125,-1.692075135308504,3.014737112510204,-2.7856635684639213
1746278145785225700,7.433225830078125,-1.8152713068664073,3.523861523646116,-3.108261783903837
1746278145795205600,7.44320556640625,-2.035605664139986,3.8372342301011084,-3.1730367461532354
1746278145805184500,7.4531845703125,-2.381786415219307,3.828676829636097,-2.9171628734648225
1746278145815163600,7.46316357421875,-2.7534417992949485,3.4928169815629717,-2.552435242825746
1746278145825142500,7.473142578125,-3.0963270159602163,2.988461100003123,-2.2243337537944314
1746278145835121700,7.48312158203125,-3.4179672000229355,2.336992164725065,-1.8991326623797415
1746278145845100500,7.4931005859375,-3.747275142234564,1.5505296525895595,-1.5813602596610783
1746278145855079700,7.50307958984375,-4.054848222500086,0.5739513958334922,-1.3692992252141236
1746278145865058600,7.51305859375,-4.2628865773022175,-0.5530518156677484,-1.1927239301681518
1746278145875037700,7.52303759765625,-4.28522466583848,-1.723530596280098,-1.1864712995141744
1746278145885017600,7.533017578125,-4.062138379508257,-2.8656448676735162,-1.3506775268524884
1746278145894996700,7.542996826171875,-3.6576305271446703,-3.7188112642943856,-1.7685832054495811
1746278145904975600,7.5529755859375,-3.193102798104286,-4.22871367406547,-2.309626895676553
1746278145914954800,7.562954833984375,-2.7993653460800645,-4.4776153696537015,-2.8323233205690976
1746278145924933600,7.57293359375,-2.4319372243106363,-4.396630446359515,-3.3472987958207723
1746278145934912800,7.582912841796875,-2.055853502398729,-4.086797019946575,-3.8262919803261757
1746278145944891600,7.5928916015625,-1.6107447595775126,-3.6060908940434455,-4.1403991385355585
1746278145954870800,7.602870849609375,-1.1142191332519054,-2.952929183372855,-4.25594362629652
1746278145964849700,7.612849609375,-0.5619733732700347,-2.316932542514801,-4.067778431221843
1746278145974829600,7.62282958984375,0.09570439005289226,-1.7569062116593122,-3.7821453800857063
1746278145984808700,7.63280859375,0.7824123599618673,-1.2787754892021417,-3.44460970775485
1746278145994787600,7.64278759765625,1.4173855029910802,-0.8514701140969991,-2.9718314522415397
1746278146004766700,7.6527666015625,1.9724556727439164,-0.5177671517968178,-2.4364766213059426
1746278146014745600,7.66274560546875,2.3607757758945227,-0.25887013189494607,-1.8936305578321218
1746278146024724700,7.672724853515625,2.655678759679198,-0.017532149559259413,-1.3244991295009851
1746278146034703600,7.68270361328125,2.852952559360862,0.20543840143680572,-0.7832984951466322
1746278146044682800,7.692682861328125,2.977834492048621,0.37766894527673717,-0.2573696642041206
1746278146054661600,7.70266162109375,2.932660302326083,0.3802659760326147,0.28255729695260523
1746278146064641800,7.712641845703125,2.760579980611801,0.33872342081069945,0.7240104398757219
1746278146074620700,7.72262060546875,2.4764269389003513,0.3463455862522125,1.085381161302328
1746278146084599800,7.732599853515625,2.1856940804071723,0.42436990617513654,1.4106278454244137
1746278146094578700,7.74257861328125,1.9180207565926015,0.521502246671915,1.6629969248622656
1746278146104557800,7.752557861328125,1.7170434262178838,0.6221756207764149,1.875378861826658
1746278146114536700,7.76253662109375,1.6537269922137259,0.806001325342059,2.086739054527879
1746278146124515800,7.772515869140625,1.6267504302218556,1.0281839408308266,2.2633026591360568
1746278146134494700,7.78249462890625,1.6198516106188297,1.1911486436754464,2.491618662813306
1746278146144473900,7.792473876953125,1.6547519513472915,1.284811846756935,2.756182037913799
1746278146154453800,7.802453857421875,1.69399441293329,1.2566197714954614,3.1023177808076143
1746278146164432600,7.8124326171875,1.8133336168020964,1.2043413027256726,3.383594390299916
1746278146174411800,7.822411865234375,1.986388044245541,1.169026828238368,3.5442286043703555
1746278146184390700,7.832390625,2.148241863238811,1.0591431427180766,3.7127503568202256
1746278146194369800,7.842369873046875,2.290110002040863,0.8942296438932418,3.8962726945251225
1746278146204349000,7.852348876953125,2.4063582541570065,0.656877516323328,4.062887152048945
1746278146214327800,7.862327880859375,2.4996345037475227,0.3622971886217594,4.1503298731803895
1746278146224306700,7.872306640625,2.5861574796855447,0.14332301378548146,4.103614883756637
1746278146234285600,7.88228564453125,2.6543694306463004,-0.047343350455164905,3.9233267056673764
1746278146244265700,7.892265625,2.668452608795464,-0.22562603394091127,3.6706817318975924
1746278146254244900,7.902244873046875,2.6498855632305145,-0.4023205714523792,3.4858301914155483
1746278146264223700,7.9122236328125,2.616561970299482,-0.6052320847600698,3.279991392484307
1746278146274202600,7.92220263671875,2.600353178298473,-0.7752274168938398,3.044303398734331
1746278146284181500,7.932181396484375,2.6253645776972174,-0.9516244327634572,2.7768068927913903
1746278146294160600,7.94216064453125,2.6986773589283226,-1.1028308932751416,2.493935123062134
1746278146304139500,7.952139404296875,2.7507223112031816,-1.2427590039253233,2.249393376249075
1746278146314118700,7.96211865234375,2.788871424594521,-1.434820037394762,2.0676415553480387
1746278146324097500,7.97209765625,2.922326832099259,-1.6005810929596422,1.8646306733191012
1746278146334077700,7.98207763671875,3.107692459583282,-1.7443880908697842,1.70379479919672
1746278146344056600,7.992056640625,3.2917233313322067,-1.823130788195133,1.5605787529170512
1746278146354035700,8.00203564453125,3.395053065164387,-1.870572922849655,1.4569249016970396
1746278146364014600,8.0120146484375,3.4699066460967063,-1.8071493752092123,1.4509475808531045
1746278146373993700,8.02199365234375,3.500172312761843,-1.7090391295909881,1.425220434400439
1746278146383972600,8.03197265625,3.425775243425369,-1.463559809666872,1.3646505226254462
1746278146393951700,8.04195166015625,3.2878412292018533,-1.1338684210956096,1.2500871548563242
1746278146403930600,8.0519306640625,3.0719492382898923,-0.8163941245406866,1.117986961352825
1746278146413909800,8.06190966796875,2.824881480130553,-0.4722030859738588,0.9713122990518808
1746278146423889700,8.0718896484375,2.5984853385999798,-0.13544950393140315,0.854115075647831
1746278146433868500,8.08186865234375,2.334158694864809,0.13669044390320778,0.740478175073862
1746278146443847700,8.09184765625,2.056730285233259,0.40852760939896104,0.6726543466478586
1746278146453826600,8.10182666015625,1.7266043046370148,0.6213444306492805,0.5751368062257767
1746278146463805700,8.1118056640625,1.35565414622128,0.7513572964847087,0.44168519811332224
1746278146473784600,8.12178466796875,0.8680128142274915,0.8031523656517267,0.33562019409835336
1746278146483763700,8.131763671875,0.35840690318495033,0.7839356240063905,0.2219961530059576
1746278146493742600,8.14174267578125,-0.12586100685298443,0.6657429598242044,0.13105156123340128
1746278146503721700,8.1517216796875,-0.5917645542912184,0.4176707007974386,-0.02766249842941761
1746278146513700600,8.16170068359375,-0.8928728224568069,0.26609949862658977,-0.3537649225980043
1746278146523680800,8.1716806640625,-1.04902857593894,0.3664963938772678,-0.8311147238105535
1746278146533659600,8.18165966796875,-1.2394541171610354,0.6487701977133751,-1.3589759841203688
1746278146543638800,8.191638671875,-1.6958248432308434,0.8625555717349052,-1.8052876729905605
1746278146553617700,8.20161767578125,-2.247424122002721,1.0025976641535759,-2.2570605498760936
1746278146563596800,8.2115966796875,-2.700029358059168,1.1318155802190304,-2.683904152688384
1746278146573575700,8.22157568359375,-3.0012492699056863,1.2951672365546225,-3.010248568919301
1746278146583554800,8.231554931640625,-3.188706608971953,1.3425129250973462,-3.174029264321923
1746278146593533700,8.24153369140625,-3.3512931261539456,1.2907728009879589,-3.217879511964321
1746278146603512800,8.251512939453125,-3.4927222890168426,1.1550246063709257,-3.137390847754478
1746278146613492700,8.26149267578125,-3.463891915851831,0.9993266796588897,-3.028779081866145
1746278146623471600,8.2714716796875,-3.2254449787825346,0.9594196166843175,-2.9153859269201754
1746278146633450800,8.28145068359375,-2.8176614657491443,1.0998024853646755,-2.773974299713969
1746278146643429600,8.2914296875,-2.3621768748641014,1.4454665190935134,-2.687396670979261
1746278146653408800,8.30140869140625,-1.9612591559469699,1.952713445919752,-2.715439693158865
1746278146663387600,8.3113876953125,-1.7096236514806746,2.438935704895854,-2.670859962198138
1746278146673366800,8.32136669921875,-1.616672980582714,2.964461215734482,-2.6457676065176723
1746278146683346000,8.331345947265625,-1.5649614980459212,3.4665982522010803,-2.611030639657378
1746278146693324800,8.34132470703125,-1.5291905119627713,3.801644445803761,-2.47430337087512
1746278146703304000,8.351303955078125,-1.448483236566186,4.2485441636949774,-2.5046792199164627
1746278146713283800,8.361283935546876,-1.3768921645611525,4.32774629522562,-2.2288269735604525
1746278146723262700,8.3712626953125,-1.3005553593337535,4.228996582660079,-2.0066595556408164
1746278146733241900,8.381241943359376,-1.1665326733350754,4.076736813703179,-1.810098288142681
1746278146743220700,8.391220703125,-1.077174985427782,3.8672605350524183,-1.5682511872410774
1746278146753199900,8.401199951171876,-1.1400625995606184,3.508108074197173,-1.1692664822131396
1746278146763178500,8.411178466796875,-1.2345552392035721,2.8742735798090693,-0.7036749233335257
1746278146773161500,8.421161376953124,-1.2918518283963203,2.215543129095435,-0.40031098519563674
1746278146783140400,8.431140380859375,-1.2131827077638357,1.6186925037115811,-0.24825287629067896
1746278146793119500,8.441119384765624,-1.1067278276484458,0.9862631999462842,-0.14264730648100377
1746278146803099400,8.451099365234375,-0.9887584508281201,0.386848861554265,-0.007851882544159888
1746278146813078500,8.46107861328125,-0.7936322576344013,-0.04751929154396057,0.0504892472654581
1746278146823057400,8.471057373046875,-0.5249160006381571,-0.3786094409972429,0.06491290941536426
1746278146833036500,8.48103662109375,-0.2429536008387804,-0.6629366702318191,0.12525485765337943
1746278146843015400,8.491015380859375,0.014408026189357041,-0.8866314438492059,0.20030863733291626
1746278146852994600,8.50099462890625,0.2753822907567024,-1.1146107629179953,0.3691998076170683
1746278146862973200,8.51097314453125,0.5383423223137855,-1.4338468084484337,0.6036871934056282
1746278146872952300,8.520952392578126,0.7870071404062211,-1.7772440662890672,0.8240045995444059
1746278146882931200,8.53093115234375,1.0538882909297942,-2.0683669470131396,0.9635767363637685
1746278146892910300,8.540910400390626,1.2810937030166387,-2.306852462527156,1.0938438692212105
1746278146902890500,8.550890380859375,1.4495289462268353,-2.5351076759278772,1.1995108138293027
1746278146912869000,8.560869140625,1.5943490667022764,-2.7047119629174468,1.2079185766905545
1746278146922848300,8.57084814453125,1.7201017908751963,-2.7908406788408753,1.1637070945203303
1746278146932827100,8.5808271484375,1.7758360991872846,-2.804215124198794,1.1838941425025462
1746278146942806300,8.59080615234375,1.8296563905715941,-2.8449574689537287,1.1715794353306292
1746278146952785200,8.60078515625,1.8414131715998052,-2.915145688423514,1.136730240267515
1746278146962764300,8.610764404296875,1.809497984161973,-2.952797081425786,1.1186503936976193
1746278146972743200,8.6207431640625,1.7614865251868963,-2.9678964508801697,1.1855997773766518
1746278146982722300,8.630722412109375,1.7177520128786563,-3.095508685314655,1.2666127577215431
1746278146992701200,8.640701171875,1.655979739576578,-3.238677969843149,1.26156482668221
1746278147002681300,8.650681396484375,1.5406572240032255,-3.2630209684610363,1.1790163073331117
1746278147012660200,8.66066015625,1.3890700936108826,-3.2023803295373914,1.1214438238084317
1746278147022639400,8.670639404296875,1.236795711606741,-3.0327620140224694,1.0153776507496832
1746278147032618200,8.6806181640625,1.0954076114065945,-2.662628140425682,0.8724223012328147
1746278147042597400,8.690597412109375,0.9387439084023237,-2.145674058577418,0.7730383824169635
1746278147052576300,8.700576171875,0.7776734948717057,-1.6082944438159466,0.7760691284149884
1746278147062555400,8.710555419921874,0.6622305677890777,-1.1538076317965984,0.8747317472189664
1746278147072534300,8.7205341796875,0.5677490340620279,-0.8025964853346347,0.9939292045295238
1746278147082513400,8.730513427734374,0.4163666324615478,-0.48163142405450343,1.175621404197812
1746278147092492300,8.7404921875,0.22661562950015066,-0.1882160484790802,1.415487560415268
1746278147102472200,8.75047216796875,-0.07303484107255935,-0.030102292796969413,1.7211773111522197
1746278147112451300,8.760451416015625,-0.3922995281755924,0.009930442383885383,2.053369868889451
1746278147122430200,8.77043017578125,-0.629596126165986,-0.00991407577097416,2.3299843317896127
1746278147132409300,8.780409423828125,-0.7952987295418977,-0.010328501790761948,2.506585345798731
1746278147142388200,8.79038818359375,-0.8175473862290382,-0.019984803408384322,2.6028145999759436
1746278147152367400,8.800367431640625,-0.6660610858626663,0.07568389427661895,2.586281982848048
1746278147162346200,8.81034619140625,-0.43497079516649245,0.2782242361843586,2.5393524738907813
1746278147172325400,8.820325439453125,-0.12808642781749366,0.6596528262555599,2.403892448565364
1746278147182304300,8.83030419921875,0.26481939568817614,1.388444655188918,2.0831419068187476
1746278147192284400,8.840284423828125,0.599446487095952,2.321436283674836,1.8861895941764115
1746278147202263300,8.85026318359375,0.6979739352129399,3.123315560650825,1.9391689046919345
1746278147212242400,8.860242431640625,0.5803197618216276,3.6195348975062367,2.096760682326555
1746278147222221300,8.87022119140625,0.36521176089420915,3.9150621506690975,2.1312346143364906
1746278147232200400,8.880200439453125,0.14598083481788635,4.136109040126204,2.024789671093225
1746278147242179300,8.890179443359376,-0.032914573738723994,4.165560760059953,1.654088811263442
1746278147252158500,8.900158447265625,-0.25273952018544077,3.983773867845535,0.9831740017592906
1746278147262137300,8.910137451171876,-0.44491935772895813,3.712106213697791,0.30457623653709887
1746278147272116500,8.920116455078125,-0.505077181571722,3.654335577252507,-0.4383493316888809
1746278147282095400,8.930095458984376,-0.4167113542459905,3.9189270094037054,-1.3597101436138153
1746278147292075500,8.940075439453125,-0.32565044261738657,4.54776091902554,-2.2639392034739254
1746278147302054400,8.950054443359376,-0.3496948966801166,5.398655279061198,-3.041951282650232
1746278147312033500,8.960033447265625,-0.4976052382558584,6.27524112971425,-3.5549727012246843
1746278147322012400,8.970012451171876,-0.8451790511287748,6.935219534662365,-3.6867192589849234
1746278147331991600,8.979991455078125,-1.3860662356197833,6.890925634905695,-3.299108180886507
1746278147341970400,8.989970458984375,-1.8987983158588408,6.1243947346866126,-2.7290666519731284
1746278147351949300,8.99994921875,-2.2077841855317355,4.875084993943572,-2.310298219066858
1746278147361928200,9.00992822265625,-2.2576935870826245,3.4196325028866528,-1.9748954671114682
1746278147371907300,9.0199072265625,-2.168977192753553,2.0608248610705138,-1.7460691758245228
1746278147381886200,9.02988623046875,-1.9836422526687383,0.8831079458981752,-1.7602923469662666
1746278147391866400,9.039866455078124,-1.8581898266166448,-0.08173018870353699,-1.8517314442574977
1746278147401845200,9.04984521484375,-1.7886282146126031,-0.8204016066163777,-1.9800836834043263
1746278147411824000,9.05982421875,-1.693438240355253,-1.3320897307604551,-2.1302911960065365
1746278147421803300,9.06980322265625,-1.5113586488045752,-1.645970386737585,-2.1634061146229504
1746278147431782100,9.0797822265625,-1.1839188385523856,-1.7922493277192115,-2.0548031165629626
1746278147441761300,9.08976123046875,-0.719032651463151,-1.8060311848342419,-1.8382658134847878
1746278147451740200,9.099740234375,-0.24530747048854826,-1.778663869959116,-1.4676093773186205
1746278147461719300,9.10971923828125,0.2205617362886667,-1.7603104671448468,-0.9737228673249483
1746278147471698200,9.1196982421875,0.6461544622570276,-1.838138387712836,-0.4457721751660108
1746278147481677300,9.12967724609375,1.0447077901303767,-1.910156160697341,0.11720306862294673
1746278147491657200,9.1396572265625,1.4212906937360763,-1.9854548550486564,0.647602907499671
1746278147501636400,9.14963623046875,1.7280248389594255,-1.975927148246765,1.0590034419864416
1746278147511615200,9.159615234375,1.9511358213394878,-1.8782091168165205,1.4285112926393746
1746278147521594400,9.169594482421875,2.096987622950226,-1.7657476897627113,1.6937901225328444
1746278147531573200,9.1795732421875,2.185789211344719,-1.6481664354771375,1.9464947175353764
1746278147541552400,9.189552490234375,2.1481436635613442,-1.4762597167640923,2.1941636564582585
1746278147551531300,9.19953125,2.0087813701003787,-1.3632792342722415,2.4902532196789977
1746278147561510400,9.209510498046875,1.773696164549142,-1.3912754947006702,2.814958636531234
1746278147571489300,9.2194892578125,1.4769550055518745,-1.651822619897127,3.154220986524224
1746278147581468400,9.229468505859375,1.2187503518283367,-1.9577438413023946,3.405424529314041
1746278147591448300,9.2394482421875,1.0843149933755398,-2.138818785855174,3.413593807244301
1746278147601427200,9.24942724609375,1.0510767406404018,-2.1452520337730645,3.194130387586355
1746278147611406300,9.25940625,1.058271328319609,-2.016506411394477,2.9355139381915327
1746278147621385200,9.26938525390625,1.0392293587192893,-1.8733605077415703,2.8078526039183136
1746278147631364400,9.2793642578125,0.9789654441535472,-1.6927888365358112,2.7481524607151746
1746278147641343200,9.28934326171875,0.8688175547391176,-1.4640455473572014,2.683281052353978
1746278147651322400,9.299322265625,0.7634168598517775,-1.3341887488663196,2.545878660789132
1746278147661301200,9.30930126953125,0.7053291202813387,-1.3605027552962303,2.376767710274458
1746278147671280400,9.3192802734375,0.741895640656352,-1.5237345846444368,2.0929817483097315
1746278147681259500,9.329259521484374,0.8075124605573714,-1.5970862365812062,1.7174556602805853
1746278147691239400,9.339239501953125,0.9317046574153005,-1.5077911655813454,1.345569974580407
1746278147701218300,9.34921826171875,1.0720729130484163,-1.3915513890326023,0.858529384958744
1746278147711197400,9.359197509765625,1.1936482054062187,-1.2836188375800848,0.38483050746917724
1746278147721176300,9.36917626953125,1.218279811707139,-1.1840186456650494,-0.01270867492556572
1746278147731155500,9.379155517578125,1.1616307266376913,-1.0948895788818598,-0.3592734568864107
1746278147741134300,9.38913427734375,1.0555730291463434,-1.0957897425919771,-0.657448009687662
1746278147751113500,9.399113525390625,0.9635586161851882,-1.106290093818307,-0.9442179558992385
1746278147761092400,9.40909228515625,0.8848357926040887,-1.064345972058177,-1.2771855896621942
1746278147771068400,9.419068359375,0.7770118160925805,-0.9639005614906548,-1.5277379750669002
1746278147781047300,9.42904736328125,0.6918963688649237,-0.8611866214692592,-1.6994564777314662
1746278147791027200,9.439027099609374,0.6662218293823301,-0.6293868673294782,-2.003270497724414
1746278147801006300,9.44900634765625,0.6623585780829191,-0.11810323233306408,-2.3387124126464127
1746278147810985200,9.458985107421874,0.5733483153738081,0.6075473759651183,-2.4564450581014157
1746278147820964400,9.46896435546875,0.38689796139299865,1.2185171275943516,-2.343520105189085
1746278147830943200,9.478943115234374,0.1651104827016592,1.7224439700871705,-2.201663656824827
1746278147840922400,9.48892236328125,0.00443242948949337,2.2528350411355493,-2.127828605285287
1746278147850901200,9.4989013671875,-0.08349325285330414,2.7987966062813996,-2.0326982522606847
1746278147860880400,9.50888037109375,-0.22789332128576933,3.209315097236633,-1.8752993668496607
1746278147870859300,9.518859375,-0.47633390216827387,3.3259780676335096,-1.6113398028612136
1746278147880838400,9.52883837890625,-0.756160897374153,3.2050100935190913,-1.3321470139056444
1746278147890818300,9.538818359375,-0.9558850128173828,2.8785838442236185,-1.0912222885459661
1746278147900797400,9.54879736328125,-1.0423990747965872,2.3408371497154232,-0.9729846161782741
1746278147910776300,9.5587763671875,-1.03446287496984,1.8131869018077849,-0.9373007238566875
1746278147920755500,9.56875537109375,-1.0262152711063623,1.2871627937972545,-0.7141665067315102
1746278147930734300,9.578734375,-0.9566852232843637,0.8635171102434396,-0.5900391918033361
1746278147940713500,9.58871337890625,-0.8509820383191108,0.7582581619143486,-0.6157359431177377
1746278147950692400,9.5986923828125,-0.7403366477113217,0.8115817558228969,-0.5435632718324661
1746278147960671500,9.60867138671875,-0.5867236375145614,1.1968687748879194,-0.5341179826170206
1746278147970650400,9.618650390625,-0.3862502380739897,1.7089771702706813,-0.31722178309857846
1746278147980629500,9.62862939453125,-0.13795754122957588,2.22433609188199,-0.04303834673762321
1746278147990609400,9.638609375,0.054216304964572186,2.7160394126176834,0.20992460694015025
1746278148000588500,9.648588623046875,0.2424292847037315,3.1382518484979864,0.5199497565329074
1746278148010567400,9.6585673828125,0.415380690164119,3.477833347442746,0.7573381244599818
1746278148020546600,9.668546630859375,0.5105167422771454,3.7585792110592124,1.043289740025997
1746278148030525400,9.678525390625,0.615049129897356,3.857407249557972,1.4230623795837163
1746278148040504600,9.688504638671875,0.7066624147117138,3.7279432497769593,1.7804975151270628
1746278148050483500,9.6984833984375,0.8155904069423675,3.460807978361845,2.0403566580593586
1746278148060462600,9.708462646484374,0.9390871688820421,3.0145868903845545,2.272143552717566
1746278148070441500,9.71844140625,1.018012237036973,2.4507395399361847,2.4201702141493557
1746278148080420600,9.728420654296874,1.1150398019850254,1.9037077152103186,2.440749476319551
1746278148090400500,9.738400390625,1.1426475014872848,1.3937719876915216,2.359524899050593
1746278148100379400,9.74837939453125,1.0584529684968291,0.9628080900788306,2.289206915721297
1746278148110358500,9.758358642578125,0.9633611939169466,0.5668418560892343,2.2715233749926087
1746278148120337400,9.76833740234375,0.8602204067856073,0.21697394092977046,2.3196394633859394
1746278148130316500,9.778316650390625,0.7689644109763205,-0.11502864719331264,2.3947195465505122
1746278148140295400,9.78829541015625,0.6764416101016104,-0.4514098887920379,2.4592706369161603
1746278148150274600,9.798274658203125,0.6063597736157477,-0.7581026790916919,2.516854226356745
1746278148160253400,9.80825341796875,0.5598112268000841,-1.0128758970618248,2.5291151575148105
1746278148170232300,9.818232421875,0.5463092095397413,-1.2326789239376783,2.5265660575538873
1746278148180211200,9.828211181640626,0.5799398225933313,-1.4060276581525801,2.471270286789536
1746278148190191600,9.838191650390625,0.6273977393388748,-1.5015858812004328,2.37323895162642
1746278148200170500,9.84817041015625,0.6587495938055217,-1.5166308901190757,2.258348836120963
1746278148210149600,9.858149658203125,0.6714348878555,-1.5065782826602458,2.2462591698765753
1746278148220128300,9.868128173828126,0.6465845242373645,-1.4079711934357881,2.2362644300848245
1746278148230107400,9.878107421875,0.5879746604889631,-1.3025175993174314,2.243445281499624
1746278148240086300,9.888086181640626,0.4653460596859455,-1.145158461394906,2.2461469416737554
1746278148250065400,9.8980654296875,0.30363442564234133,-0.9889812267333269,2.2736124562263487
1746278148260044300,9.908044189453125,0.10956731304749846,-0.9022387628257275,2.2375135533630846
1746278148270023400,9.9180234375,-0.11716405178681015,-0.8460890055805445,2.137914530491829
1746278148280002300,9.928002197265625,-0.3304810776442289,-0.8224994556784629,1.953196261000633
1746278148289982200,9.937982177734375,-0.47961876905784007,-0.8983534458249807,1.802037731283903
1746278148299961300,9.94796142578125,-0.6228600228440017,-1.0292068541377781,1.6325918497264384
1746278148309940200,9.957940185546875,-0.737007941680029,-1.1588088010847568,1.4302163429915904
1746278148319919400,9.96791943359375,-0.8158931892812251,-1.2418915734410285,1.2405956884115934
1746278148329898200,9.977898193359374,-0.8590962981265038,-1.3805237990617751,1.090172487232089
1746278148339877400,9.98787744140625,-0.9112882576566189,-1.548708282381296,0.9455378063261508
1746278148349856300,9.997856201171874,-0.9828267226915806,-1.6430173821508884,0.8065221343457698
1746278148359835400,10.00783544921875,-1.0729413664460181,-1.6045307073682546,0.6779542066216468
1746278148369814300,10.017814208984374,-1.24298930554986,-1.5160890383273362,0.5607552296519279
1746278148379793400,10.02779345703125,-1.4329378769099712,-1.3157681260347365,0.461350268048048
1746278148389773300,10.037773193359374,-1.6203250733494758,-1.0253741441071034,0.3937280996739864
1746278148399752400,10.04775244140625,-1.8241402574986219,-0.7454016029506921,0.3960702788859606
1746278148409731300,10.0577314453125,-1.9697791470110415,-0.43304771814942356,0.433509490442276
1746278148419710500,10.06771044921875,-2.0661925255835056,-0.08211480410695075,0.5397574498087168
1746278148429689300,10.077689453125,-2.096855374872684,0.1718026738166809,0.6586907032251358
1746278148439668500,10.08766845703125,-2.0612316883057353,0.2529471715867519,0.7328110014468431
1746278148449647400,10.0976474609375,-1.9709107813894748,0.20500468619465828,0.7799561989814042
1746278148459626500,10.10762646484375,-1.7990560851246118,0.1286988606274128,0.7831891895532608
1746278148469605400,10.11760546875,-1.5553993044525385,0.15810440333187578,0.6994453229397535
1746278148479584500,10.12758447265625,-1.3441530935198067,0.3385813819915056,0.6221592541635036
1746278148489564400,10.137564453125,-1.2314929290235042,0.6617565205365419,0.47089141885340213
1746278148499543600,10.14754345703125,-1.1463730978816746,1.2505921817690133,0.15734803200662134
1746278148509522400,10.1575224609375,-1.1013771873354912,2.032881207612157,-0.27626959498524667
1746278148519501600,10.16750146484375,-1.2163082193732262,2.8555227021098135,-0.6132143156856298
1746278148529480400,10.17748046875,-1.4943337181150913,3.354309843626618,-0.7608990318119525
1746278148539459600,10.18745947265625,-1.8971838663995264,3.464430260512233,-0.7386252406835555
1746278148549438500,10.1974384765625,-2.491677699524164,3.1054952417999506,-0.5768856957197189
1746278148559417600,10.20741748046875,-3.139623721373081,2.297021388864517,-0.2547819857984781
1746278148569396500,10.217396484375,-3.709745329785347,1.4257646242797375,-0.14706512292325497
1746278148579375600,10.227375732421875,-4.230119449210167,0.7741162407815456,-0.5292302105754614
1746278148589354500,10.2373544921875,-4.533453576731682,0.7665741548389196,-1.311647246712446
1746278148599334400,10.24733447265625,-4.728195227587223,1.1536790369808674,-2.230041610047221
1746278148609313500,10.2573134765625,-4.960760120880604,1.8254834888011215,-2.950008327490091
1746278148619292400,10.26729248046875,-5.188716643595695,2.538789579311013,-3.434766943654418
1746278148629271600,10.277271484375,-5.177243647944927,3.188783181339502,-3.7023470362275837
1746278148639250400,10.28725048828125,-4.8172927301883695,3.7110114041984077,-3.865325183075666
1746278148649229600,10.2972294921875,-4.185921411043405,3.750394735559821,-3.825011877387762
1746278148659208200,10.307208251953124,-3.4013001428604124,3.2538375450521704,-3.682392627957463
1746278148669187300,10.317187255859375,-2.496847211116552,2.498834001019597,-3.6184424260944126
1746278148679166200,10.327166259765624,-1.6559902609705923,1.6089356643289328,-3.6371634931772947
1746278148689146600,10.337146728515625,-0.8876654630720615,0.6572498567670584,-3.8343408467471596
1746278148699125500,10.34712548828125,-0.2497416535437107,-0.27562954351603985,-4.15724768974483
1746278148709104400,10.3571044921875,0.21683424019813535,-1.1091747093439102,-4.453886119019985
1746278148719083300,10.367083251953124,0.5344973373234272,-1.797293167105317,-4.688409745165705
1746278148729062400,10.3770625,0.7248802084475755,-2.3749083461433647,-4.850266194507479
1746278148739041300,10.387041259765626,0.9054653236567973,-2.8558582176744935,-4.893825350248814
1746278148749020400,10.3970205078125,1.1795569900810718,-3.20426658167541,-4.8718818139880895
1746278148758999300,10.406999267578126,1.4831453846246003,-3.3503251579046247,-4.726458613052964
1746278148768978400,10.416978515625,1.7194301752239465,-3.305817907658219,-4.356149382889271
1746278148778957300,10.426957275390626,1.8686422470480202,-3.118752198258042,-3.803099905309081
1746278148788936400,10.4369365234375,1.9451906491994857,-2.8393250160247088,-3.218530084827542
1746278148798916400,10.446916259765626,1.8864017756223677,-2.455913143181801,-2.6468413732290266
1746278148808895200,10.456895263671875,1.7238140893965959,-1.9632658195942638,-2.0860300294756886
1746278148818874400,10.466874267578126,1.4697896439671516,-1.4255600416183472,-1.5239666398346423
1746278148828853200,10.476853271484375,1.166806667970866,-0.8818938939332962,-0.9220341811418533
1746278148838832400,10.486832275390626,0.792695707436651,-0.5329571221441031,-0.3577186286598444
1746278148848811300,10.496811279296875,0.42018122231364247,-0.3725724989205599,0.19156126725375652
1746278148858790400,10.506790283203125,0.0241945300579071,-0.41683249640762804,0.7569336353123187
1746278148868769300,10.516769287109375,-0.30653511551991103,-0.6767933461487293,1.234022155240178
1746278148878748400,10.52674853515625,-0.4672432716093957,-1.063138934355974,1.6199626697778702
1746278148888727600,10.5367275390625,-0.47489232505783435,-1.4519354228466748,1.947480221441388
1746278148898707500,10.54670751953125,-0.27212475026547905,-1.7477742261767386,2.11823718559742
1746278148908686300,10.556686279296875,0.06912965032756328,-1.8271265798330305,2.154088835701346
1746278148918665500,10.56666552734375,0.4228614013083279,-1.771110093578696,2.252793540081382
1746278148928644400,10.576644287109374,0.7533173445113003,-1.6457979527801274,2.422042437762022
1746278148938623500,10.58662353515625,1.0352543176084756,-1.5063333679884672,2.57941501968801
1746278148948602400,10.596602294921874,1.298441143658757,-1.343186878836155,2.727494288089871
1746278148958581500,10.60658154296875,1.5470909103125332,-1.2141080789804457,2.896404747596383
1746278148968560400,10.616560302734374,1.8028754972822962,-1.1126257265806196,3.069040365105867
1746278148978539500,10.62653955078125,2.0323831949621436,-1.0666881512701512,3.1786534169912337
1746278148988518400,10.636518310546874,2.228369292920828,-1.0059107342243194,3.199572870901227
1746278148998497500,10.64649755859375,2.4052812725752593,-0.9491799622207879,3.1388615048289297
1746278149008477400,10.6564775390625,2.5971599352151156,-0.9882675255060195,3.10624226077497
1746278149018456600,10.66645654296875,2.7115459005907177,-0.9814280348747968,2.9594109466075897
1746278149028435500,10.676435546875,2.723850378629565,-0.9235790724962949,2.7076392485409975
1746278149038414600,10.68641455078125,2.6690093658953904,-0.8447633099347353,2.3943103812277315
1746278149048393500,10.6963935546875,2.5289111593753097,-0.781924284183979,2.1186118641287086
1746278149058372600,10.70637255859375,2.381375496330857,-0.681579411381483,1.7934183714985847
1746278149068351500,10.7163515625,2.2804650986000894,-0.39362814643085,1.3588953200995921
1746278149078330600,10.72633056640625,2.0617977977558968,0.08820961385071277,0.9357575860679149
1746278149088309500,10.7363095703125,1.7502825557358561,0.6141477971434592,0.6288555369317531
1746278149098288400,10.746288330078125,1.3866760380811989,1.1386749445945024,0.45863341030478477
1746278149108268500,10.7562685546875,1.0394283884227276,1.6883412094771861,0.31503917836248874
1746278149118247400,10.766247314453125,0.6857295167982578,2.2616654133230445,0.224082311630249
1746278149128226600,10.7762265625,0.2490847970701754,2.778724124589562,0.19800795917510985
1746278149138205400,10.786205322265625,-0.22184351972751318,3.2326515491604804,0.12728899382948874
1746278149148184300,10.796184326171876,-0.7592956882685422,3.492729303279519,0.08749883523285389
1746278149158163200,10.8061630859375,-1.3253612992882728,3.475115905177593,0.11992401801943778
1746278149168142300,10.816142333984375,-1.7432295684844255,3.6687189073920248,-0.2698123816698789
1746278149178121200,10.826121337890624,-1.957974727448821,3.924104704302549,-0.7107184121042489
1746278149188100400,10.836100341796875,-1.9300456870377063,4.25430287335217,-1.208999357664585
1746278149198079200,10.846079345703124,-1.7935878828465937,4.699007127025723,-1.6352584385871887
1746278149208059400,10.856059326171875,-1.6302993548750877,5.255561397856473,-1.8904887526750564
1746278149218038300,10.866038330078124,-1.5828969677090643,5.890278520298004,-1.9789719227701423
1746278149228017400,10.876017333984375,-1.6110697537481784,6.390847284534573,-1.7229922516196965
1746278149237996300,10.885996337890624,-1.72464586404562,6.521307894137501,-1.2361398780465125
1746278149247975400,10.895975341796875,-1.8384312331795691,6.375289649918675,-0.6635293754279613
1746278149257954300,10.905954345703124,-1.831989801955223,6.068875092038512,-0.10895955641269683
1746278149267933400,10.915933349609375,-1.668171697151661,5.538626059809327,0.5045248083859681
1746278149277912300,10.925912353515624,-1.3986381324231625,4.927966104781627,0.9956377620130776
1746278149287891500,10.935891357421875,-1.1407681174814701,4.325689362695813,1.3714461741149424
1746278149297870300,10.945870361328126,-0.9293997414737939,3.9354356611341235,1.5581670156002043
1746278149307849500,10.955849365234375,-0.7374696409076452,3.736658471152186,1.6671189732283354
1746278149317829400,10.965829345703124,-0.5584667899211868,3.6051802089393137,1.8238906666517256
1746278149327808300,10.975808349609375,-0.4334562624176964,3.383652257966995,2.1430922253906726
1746278149337787400,10.985787353515626,-0.3086053093900904,3.0541216129153965,2.5291180801242588
1746278149347766300,10.995766357421875,-0.15544073708057402,2.649375275620818,2.9118700277537104
1746278149357745400,11.005745361328126,0.09708031804859638,2.1267209363043307,3.295021788355708
1746278149367724500,11.015724609375,0.4277227237343788,1.5454337907552718,3.6327450922131534
1746278149377703400,11.025703369140626,0.743294401538372,0.9729396079927682,3.8167169272512194
1746278149387682600,11.0356826171875,0.995758831109479,0.4621966557443142,3.884102364259958
1746278149397661400,11.045661376953126,1.2072978144437074,0.07232523149847984,3.8444852241426704
1746278149407640600,11.055640625,1.3515788596063851,-0.33448446806669235,3.837807061553001
1746278149417620500,11.065620361328126,1.4362825111627577,-0.748145348700881,3.834095932075381
1746278149427599400,11.075599365234375,1.4991975247591733,-1.0444061768352986,3.72833312587738
1746278149437578500,11.08557861328125,1.5398270567893981,-1.3340420338720083,3.6235721901983022
1746278149447557400,11.095557373046875,1.6466501856952904,-1.606445601078868,3.434969188228249
1746278149457536500,11.10553662109375,1.7719005133040249,-1.8429776444375514,3.1348020003050565
1746278149467515400,11.115515380859375,1.942464292975515,-2.0463953537017106,2.776604063695669
1746278149477494500,11.12549462890625,2.078743817990273,-2.1814614112734794,2.4687094963908196
1746278149487473400,11.135473388671874,2.22577766899243,-2.2517454923331734,2.2427006006121633
1746278149497452500,11.14545263671875,2.3234951159007844,-2.2480419616401193,2.0362153204709292
1746278149507431400,11.155431396484374,2.3341011194586754,-2.2085241902440784,1.8445652058899402
1746278149517410600,11.16541064453125,2.2541170437701044,-2.1148604026407,1.6862053664922714
1746278149527390500,11.175390380859374,2.1085843911111355,-1.9777140316635369,1.5236089124381542
1746278149537369600,11.18536962890625,1.899517862305045,-1.8112889592319725,1.3208406069934366
1746278149547348500,11.195348388671874,1.5918303618796168,-1.5917729326039551,1.06409755025506
1746278149557327600,11.20532763671875,1.1576456025242805,-1.4271405888080597,0.7596452323585748
1746278149567306500,11.215306396484374,0.763786496881768,-1.2986632619768381,0.43361996507942674
1746278149577285600,11.22528564453125,0.372161506966874,-1.183750934639573,0.1419610777825117
1746278149587264300,11.23526416015625,0.07467442497313022,-1.1420768619924784,-0.11598960117995738
1746278149597243400,11.245243408203125,-0.14379011984057724,-1.1572300074607134,-0.30231881299912927
1746278149607222300,11.25522216796875,-0.3688771515339613,-1.2436556605041027,-0.4487836319416761
1746278149617201400,11.265201416015625,-0.5814443819373846,-1.4076064517766236,-0.5502759212136268
1746278149627180300,11.27518017578125,-0.7625807012885808,-1.585234470745921,-0.5927607257217169
1746278149637160200,11.28516015625,-0.9702449620813131,-1.7453981446951627,-0.6205033036500215
1746278149647139300,11.295139404296876,-1.1775754608750342,-1.872439885765314,-0.6402385162115096
1746278149657118200,11.3051181640625,-1.4311749588906764,-2.002383778017759,-0.6443202325671911
1746278149667097300,11.315097412109376,-1.7514859401762484,-2.0978063919872043,-0.5961281563282013
1746278149677076200,11.325076171875,-2.012358059543371,-2.0614128900915385,-0.5959247427105904
1746278149687055400,11.335055419921876,-2.1318238124012945,-1.8212895442426205,-0.6591530600398778
1746278149697034200,11.3450341796875,-2.1831366510093213,-1.3640034568935633,-0.7442372353464365
1746278149707013400,11.355013427734375,-2.2221780370652673,-0.7357254275888204,-0.7819809828072786
1746278149716992300,11.3649921875,-2.2317864078879355,-0.1280062021881342,-0.8180208489596843
1746278149726971400,11.374971435546875,-2.1276947497725485,0.5831161145418882,-0.950608533719182
1746278149736951300,11.384951416015625,-1.9915584326207636,1.4144032723098992,-1.1380436609536408
1746278149746930400,11.394930419921875,-1.886252138018608,2.214349535396695,-1.3164841653496027
1746278149756909300,11.404909423828125,-1.9179355625271797,2.630816705623269,-1.3238082246273755
1746278149766888400,11.414888427734375,-1.9898376001775264,2.7208184635877606,-1.3586726172596215
1746278149776866800,11.42486669921875,-1.9478724356293677,3.0157138485878705,-1.8667922352671622
1746278149786846000,11.434845947265625,-1.7860243157245217,3.7195787415355444,-2.8229630792886016
1746278149796824800,11.444824951171874,-1.7274936546921729,4.629630223938823,-3.7914740571841596
1746278149806804000,11.454803955078125,-1.965253778541088,5.399530308330059,-4.415985719692706
1746278149816782800,11.464782958984374,-2.489102296078205,5.8952329278349875,-4.731744152240455
1746278149826762000,11.474761962890625,-3.048444151800871,6.019782852089405,-4.783559387412667
1746278149836740900,11.484740966796876,-3.3255729939639567,5.7033431592792265,-4.803841420201957
1746278149846721000,11.494720947265625,-3.349069897146523,5.015534498119354,-4.943653503257036
1746278149856700000,11.504699951171874,-3.1484628613889214,3.981650299820304,-5.410525165075064
1746278149866679000,11.514678955078125,-2.8542098659455775,2.563308519017696,-6.187265909141302
1746278149876658000,11.524657958984376,-2.684429637867212,1.1005360603362322,-6.990372097563744
1746278149886637000,11.534636962890625,-2.601061618828773,-0.2986053454339504,-7.661307949855924
1746278149896616000,11.544615966796876,-2.5001976905882355,-1.6459586962997912,-8.045908740222453
1746278149906595000,11.554594970703125,-2.1321090590834615,-2.7549989656090736,-8.232904306995868
1746278149916574000,11.564573974609376,-1.4790449635684488,-3.4382366655915972,-8.1520146607697
1746278149926553000,11.574552978515625,-0.6808908445954323,-3.7080227437764406,-7.653851204109191
1746278149936532000,11.584531982421876,0.186132739399001,-3.5532606366097923,-6.725465023592114
1746278149946510800,11.5945107421875,1.0505366424143314,-3.149728351280093,-5.516088649308681
1746278149956491000,11.604490966796876,1.9207143795907495,-2.656988088712096,-4.235492374420166
1746278149966470000,11.614469970703125,2.6559727741897103,-2.1077491093307734,-3.1459155149936673
1746278149976449000,11.624448974609376,3.112957832765579,-1.769225010484457,-2.3454218471571804
1746278149986428000,11.634427978515625,3.2814696483433243,-1.6250737291812896,-1.6937980135783552
1746278149996406800,11.64440673828125,3.188037331408262,-1.4806173274517058,-1.2398422396957873
1746278150006386000,11.654385986328125,2.8473499170482155,-1.3074684997230768,-0.8289078614160418
1746278150016364800,11.66436474609375,2.393582066953182,-1.0739660333186387,-0.34671763443499803
1746278150026344000,11.674343994140624,1.9351836344480513,-0.7573831326454877,0.2881628618746996
1746278150036322800,11.68432275390625,1.5730910284876822,-0.4387368697017431,0.9771066645443439
1746278150046302000,11.694302001953124,1.2632277914583683,-0.18468086009025572,1.7454314624428748
1746278150056280800,11.70428076171875,0.9730448219329119,-0.06020750820338726,2.4787188492298124
1746278150066260700,11.7142607421875,0.6585580167561769,-0.0763134243518114,3.0964678857356307
1746278150076240000,11.724239990234375,0.3316711642116308,-0.29115444490611553,3.5216537844687696
1746278150086218800,11.73421875,0.012365560576319694,-0.6443225706547498,3.789028125336766
1746278150096198000,11.744197998046875,-0.2722276261180639,-0.9657482351839541,3.8406227034956215
1746278150106176800,11.7541767578125,-0.514959693160653,-1.1796353160142898,3.6788352277368306
1746278150116156000,11.764156005859375,-0.6030898120343685,-1.23728203381896,3.400162663263082
1746278150126134800,11.774134765625,-0.6220534557014703,-1.1712532721161841,3.245190128216147
1746278150136114000,11.784114013671875,-0.5303589223444461,-1.0029226583242417,3.2480221367716786
1746278150146092800,11.7940927734375,-0.3041927536448464,-0.7268962244451046,3.29220205475986
1746278150156072000,11.804072021484375,0.004472761499881744,-0.5026432324230671,3.3310078784942627
1746278150166050800,11.81405078125,0.297781754091382,-0.3182429428398609,3.3427485851705074
1746278150176031000,11.824031005859375,0.5854810535749421,-0.14083470410108564,3.271104906195402
1746278150186009900,11.834009765625,0.8972405161470174,-0.034795419049263,3.0719805102109907
1746278150195989000,11.843989013671875,1.156344456797838,0.022761866906285285,2.764806073874235
1746278150205968000,11.8539677734375,1.4013403771191835,-0.0014075287103652954,2.382349894320965
1746278150215947000,11.863947021484375,1.6318144356131552,-0.0401239205956459,1.9870453391104936
1746278150225926000,11.87392578125,1.8386527669757604,-0.08818740201890468,1.5329448960602283
1746278150235905000,11.883905029296875,1.9854566086143255,-0.1282581311225891,1.14957101714015
1746278150245884000,11.8938837890625,2.020433229449391,-0.18283201735317706,0.8641308582276105
1746278150255863000,11.903863037109375,2.00980545245111,-0.16121113717556,0.6229770002871752
1746278150265842000,11.913842041015625,1.9113064997762441,-0.06621697775125503,0.5442839873224496
1746278150275821000,11.923821044921874,1.784756926137209,0.023535773888230322,0.6813678144574165
1746278150285801000,11.933801025390625,1.7343612023741006,0.08939443972110747,0.8809376161217689
1746278150295779800,11.94377978515625,1.69502930893898,0.1455459505319595,1.0315227298647165
1746278150305759000,11.953759033203125,1.641283690226078,0.20498656601607798,1.0594225441813467
1746278150315737900,11.96373779296875,1.5186358002007008,0.4000596407830715,0.882065743368864
1746278150325717000,11.973717041015625,1.207041209334135,0.638076369741559,0.8427624915063381
1746278150335696000,11.98369580078125,0.7421919932544231,0.9774486098498105,0.9027899669677019
1746278150345675000,11.993675048828125,0.2061795386603102,1.3465262523919344,0.9257844735860824
1746278150355654000,12.00365380859375,-0.37113523265905674,1.738759729593992,0.8237146766871214
1746278150365633000,12.013633056640625,-0.9556862023096531,2.205175464338064,0.6300035379230976
1746278150375612000,12.02361181640625,-1.3869545627616344,2.598136086770892,0.6327607276767492
1746278150385590800,12.0335908203125,-1.4813514869451523,2.835702733874321,0.8711205709844827
1746278150395570000,12.04356982421875,-1.3338031105495989,2.976864770233631,1.136875786218047
1746278150405550000,12.053550048828125,-1.1650701995670796,3.16607099879384,1.3620891477048396
1746278150415529000,12.063529052734374,-0.9979624055683612,3.5044255862921476,1.43185826497972
1746278150425508000,12.073508056640625,-0.9123768566109239,3.744605630764365,1.5184265413641929
1746278150435486700,12.08348681640625,-0.8096671543732284,3.9103701934605835,1.6097516568869352
1746278150445465900,12.0934658203125,-0.7086579724431038,4.082871955457329,1.624884344089031
1746278150455444700,12.10344482421875,-0.635631314677,4.293686789235473,1.546916138267517
1746278150465424000,12.113423828125,-0.6220647077478468,4.54600735335648,1.495022284901142
1746278150475402800,12.12340283203125,-0.7537573433637619,4.771920972067117,1.5364397524386644
1746278150485382000,12.1333818359375,-0.9804356628365815,5.084991480705142,1.5939602135151625
1746278150495360800,12.14336083984375,-1.282715751260519,5.4932917110890145,1.6746955459624528
1746278150505340000,12.15333984375,-1.6041911001503466,5.889933067861199,2.0457477034479377
1746278150515319800,12.16331982421875,-1.7852105151236055,6.187830557286739,2.61854291498363
1746278150525299000,12.173298828125,-1.6504386181928217,6.1706748398244375,3.1243612703114745
1746278150535277800,12.18327783203125,-1.0125544830877333,5.705564342460036,3.1484850732207295
1746278150545257000,12.193257080078125,0.04810490941219032,4.717500230571627,2.512987029534578
1746278150555235800,12.20323583984375,1.2589292174816131,3.4121652357459067,1.6723445989221333
1746278150565215000,12.213215087890624,2.288991227144003,2.0743091965436933,1.065317447438836
1746278150575193900,12.22319384765625,3.021434564322233,0.8016881383180617,0.7231599605262279
1746278150585173000,12.233173095703124,3.3067981508672237,-0.219376910418272,0.6967424937218427
1746278150595152000,12.24315185546875,3.0702000565350054,-0.8410475042819976,0.7891963210135697
1746278150605131000,12.253131103515624,2.5535703843355178,-1.1962719780385493,0.8809797016978264
1746278150615110000,12.26310986328125,1.9408768776535987,-1.4812906966686248,1.0003075073897838
1746278150625089000,12.273089111328124,1.3887339935243128,-1.7662959712952375,1.120917169585824
1746278150635069000,12.28306884765625,0.8630044845461845,-1.9960405464708804,1.2138491357833145
1746278150645047800,12.2930478515625,0.40434301719069476,-2.1700620653808116,1.3998112678557633
1746278150655027000,12.30302685546875,0.04623805609438568,-2.3140175318509337,1.6199807899564505
1746278150665005800,12.313005859375,-0.20635610080361366,-2.319039743927121,1.7467670949608087
1746278150674985000,12.32298486328125,-0.4900012295255437,-2.2090625349044797,1.6847744569063186
1746278150684963800,12.3329638671875,-0.8272223925471305,-2.030163180825114,1.5223855081230402
1746278150694943000,12.34294287109375,-1.119143072585389,-1.8945844975560902,1.3241758888959885
1746278150704921900,12.352921875,-1.3773510142445564,-1.8118910167783497,1.1158458576709032
1746278150714901000,12.36290087890625,-1.5227391438663005,-1.793302051642537,0.9554629880130291
1746278150724880000,12.3728798828125,-1.643154160273075,-1.7822247773110866,0.8804279130339622
1746278150734859000,12.38285888671875,-1.709007565408945,-1.7781015599012373,0.8422171325832605
1746278150744838000,12.392837890625,-1.5909949339687823,-1.8084177877098322,0.8657014685451984
1746278150754818000,12.402818115234375,-1.4063783712863922,-1.7922218551903961,0.8725397901326417
1746278150764797000,12.412796875,-1.2235294758636504,-1.7051456292837857,0.8322872747212647
1746278150774776300,12.4227763671875,-1.0648375549674034,-1.5694558868557213,0.7346826405376196
1746278150784755200,12.432755126953126,-0.9493419478494673,-1.3655992016524077,0.6611480332493782
1746278150794734300,12.442734375,-0.8796341323077678,-1.2068763741612434,0.655187663540244
1746278150804713200,12.452713134765625,-0.8729355114519596,-1.0781553017020225,0.7230278585791587
1746278150814692400,12.4626923828125,-0.9688672439873218,-1.0128227055698633,0.8054273248463869
1746278150824671200,12.472671142578125,-1.1535280842028557,-0.9778010765492916,0.9166969117671251
1746278150834650400,12.482650390625,-1.4248198907755314,-0.997142321357131,0.9827543150424957
1746278150844629200,12.492629150390625,-1.6799778702795505,-1.074776765179634,1.0884627607047557
1746278150854608400,12.5026083984375,-1.867410805556923,-1.196095452427864,1.2329524801820515
1746278150864588300,12.51258837890625,-2.0339771861553193,-1.382616971948743,1.3720412173986434
1746278150874567200,12.522567138671874,-2.2267922528624533,-1.659049648541212,1.5511112518697976
1746278150884546300,12.53254638671875,-2.330188183798641,-1.9524404741972683,1.652193791297078
1746278150894525200,12.542525146484374,-2.324505461987108,-2.127275647577643,1.5636019001305101
1746278150904504300,12.55250439453125,-2.2050747804425654,-1.9393577052623032,1.2323650356829166
1746278150914483200,12.562483154296874,-2.0432009415745735,-1.392199039286375,0.8562854054242373
1746278150924462300,12.57246240234375,-1.9271511346399783,-0.6920633959949016,0.5463537793338299
1746278150934441200,12.582441162109374,-1.9770495764054357,0.07464753696620464,0.35156712029278275
1746278150944420400,12.59242041015625,-2.1558945699490604,0.7982984958797693,0.25891163294911385
