time,seconds_elapsed,z,y,x
1746277982111169500,0.02716943359375,-1.041083462153375,-1.1858031909942626,0.2650543734878301
1746277982121149400,0.0371494140625,-1.3737366231396793,-1.1452771193385123,0.14683189868927002
1746277982131128600,0.047128662109375,-1.569124462944269,-0.9109405401974916,-0.2511567810386419
1746277982141107500,0.057107421875,-1.5730679398730396,-0.4901514151185751,-0.6930564986854791
1746277982151086600,0.067086669921875,-1.5684008248448371,-0.18091069390177725,-0.7903817314058542
1746277982161065500,0.0770654296875,-1.586133465412259,-0.02080839475095272,-0.6599819120794534
1746277982171044600,0.087044677734375,-1.499043210980296,0.1862906333744526,-0.5575140557736158
1746277982181023500,0.0970234375,-1.3246955288559197,0.41651743910908695,-0.5215057538032531
1746277982191002600,0.107002685546875,-1.2139344759792088,0.6509446191430092,-0.5337357053011655
1746277982200981500,0.1169814453125,-1.296876378560066,0.8484101420044898,-0.5500052875787019
1746277982210960600,0.126960693359375,-1.5626301324889063,0.9362988533377646,-0.5555605836182832
1746277982220939500,0.136939453125,-1.860421823452413,0.994150738325715,-0.5991127250969409
1746277982230918700,0.146918701171875,-2.1708590609773992,1.0215478638172149,-0.9330833984225988
1746277982240897500,0.1568974609375,-2.366871170160174,1.2861463102310895,-1.4714911871880292
1746277982250876400,0.16687646484375,-2.290423305773735,1.8066197983771561,-2.0029285524189473
1746277982260855600,0.17685546875,-1.9563398197233677,2.451414078196883,-2.3185469919741153
1746277982270834400,0.18683447265625,-1.3486571269407868,3.0276532927066087,-2.363281621235609
1746277982280813600,0.1968134765625,-0.8310220770910381,3.3734330617696044,-2.3211066133290528
1746277982290792400,0.20679248046875,-0.5257075894072651,3.415993269601464,-2.181465502926707
1746277982300771600,0.216771484375,-0.4501072817608714,3.2478356742888685,-2.1254227131873367
1746277982310750500,0.22675048828125,-0.5116647432684898,3.1326661573201418,-2.1645155371695757
1746277982320729600,0.2367294921875,-0.511582325682044,3.018389205276966,-2.26846223385632
1746277982330708500,0.24670849609375,-0.48213265157490964,2.886758382850885,-2.3752631509304045
1746277982340687600,0.2566875,-0.5014990308240056,2.8686475566208363,-2.3847183770179745
1746277982350666500,0.26666650390625,-0.5321726937681436,2.9224732548326253,-2.2440894246220586
1746277982360645600,0.276645751953125,-0.49505438472926616,3.001343377929926,-1.9215198507547377
1746277982370624500,0.28662451171875,-0.31950521786063907,3.0410365058928726,-1.4246622159957885
1746277982380603600,0.296603759765625,-0.10066665210276841,2.968309123334288,-0.8329337559312582
1746277982390582500,0.30658251953125,0.10088438650667667,2.808309115514159,-0.23040391586720943
1746277982400561700,0.316561767578125,0.25951193692982194,2.5116759469360113,0.3134288205564022
1746277982410540500,0.32654052734375,0.3486912725955248,2.130613852089643,0.8146317910432815
1746277982420519700,0.336519775390625,0.43045594809055326,1.5893512584149836,1.1725129167884587
1746277982430498600,0.34649853515625,0.7900327718377113,1.0340016871988773,1.464158360081911
1746277982440477700,0.356477783203125,1.2578858459085225,0.6815647983342409,1.6358604961335659
1746277982450456600,0.36645654296875,1.225305180299282,0.21245675576627254,1.7714321651399134
1746277982460435700,0.376435791015625,1.1916261980593204,-0.2939151417911052,1.9373907891035078
1746277982470414600,0.38641455078125,1.3018231873124837,-0.6003904899477959,1.9590800583422183
1746277982480393500,0.3963935546875,1.396611595031619,-0.871795109245181,1.8776333627551793
1746277982490372400,0.406372314453125,1.4390893852770328,-1.1746119348943234,1.7815934936702251
1746277982500351500,0.4163515625,1.5567548107147215,-1.329831138178706,1.7028320916444062
1746277982510330400,0.426330322265625,1.8526602495402096,-1.423683726352453,1.6608756949245929
1746277982520309500,0.4363095703125,2.2452350875258444,-1.5378250693172215,1.611392994353175
1746277982530288400,0.446288330078125,2.3966847091436385,-1.6194079585045575,1.6500363210022448
1746277982540267500,0.456267578125,2.3094401409327983,-1.6091525219500065,1.6797142509073018
1746277982550246400,0.466246337890625,2.079401551246643,-1.5474112283080816,1.7226935609340668
1746277982560225500,0.4762255859375,1.7489175509929655,-1.500758782726526,1.6128192277640103
1746277982570204400,0.486204345703125,1.4796224711954593,-1.5506851354122162,1.37726976570189
1746277982580183600,0.49618359375,1.359339556735754,-1.4809540120601654,0.9444400742173195
1746277982590162400,0.506162353515625,1.2213093886613846,-1.2966706268548964,0.3466179734528064
1746277982600141800,0.516141845703125,0.8687871596008538,-1.1278168659716843,0.023227730852365493
1746277982610120400,0.526120361328125,0.4310544985055923,-1.0855477500408888,0.112877606639266
1746277982620099600,0.536099609375,-0.20677461847662926,-0.8657540755152702,0.23472937785089015
1746277982630078500,0.546078369140625,-0.8028694570571183,-0.5722738180100917,0.15251052884757518
1746277982640057600,0.5560576171875,-1.210864567014575,-0.4648749350428581,-0.02010287683010101
1746277982650036500,0.566036376953125,-1.5577531741023063,-0.5244435608208179,-0.1555196475356817
1746277982660016600,0.5760166015625,-1.7507494425952435,-0.6636258215397596,-0.16508885539174079
1746277982669995500,0.58599560546875,-1.466163270163536,-0.7737246111154555,-0.17791443469524382
1746277982679974700,0.595974609375,-0.6844020675867796,-0.5611410140991211,-0.0726537328004837
1746277982689953500,0.60595361328125,0.2067459769040346,-0.4726467380881309,0.11973404840528964
1746277982699932700,0.6159326171875,0.9314403073906898,-0.6327794323772191,0.21013445029854774
1746277982709911600,0.62591162109375,1.5016262132108211,-0.8999754940688609,0.41955256902128457
1746277982719890700,0.635890625,1.9380594821453094,-0.8833721497923135,0.5886205571770667
1746277982729869600,0.64586962890625,2.323586155185103,-0.863393191602826,0.6926978945061564
1746277982739848700,0.6558486328125,2.962970684915781,-0.8684031287193298,0.8854594774603843
1746277982749827600,0.66582763671875,3.1200609427690504,-1.08795130405128,1.1392045214265585
1746277982759806700,0.675806640625,1.4798907667428254,-1.1067325768887997,0.9711407418772577
1746277982769785600,0.68578564453125,0.8174363270699977,-0.788177499359846,-0.01930909610390663
1746277982779764700,0.6957646484375,0.09010989451408385,-0.9451473457038402,-0.6234326351001859
1746277982789743600,0.70574365234375,-0.3439011157095432,-0.8194745548993349,-0.5685539207041264
1746277982799722800,0.71572265625,-0.0016039280652999878,-0.3451899864763021,-0.36860651789903637
1746277982809701600,0.72570166015625,0.8728326355993747,-0.2961421701908111,0.3953860960140824
1746277982819680800,0.7356806640625,1.6198293987870216,-0.6560737987250089,0.9159595374032854
1746277982829659600,0.74565966796875,2.1466753445744513,-0.7476298003941774,0.870301363556087
1746277982839638800,0.755638671875,2.126017171949148,-0.8086398571521043,1.0273393067002297
1746277982849617700,0.76561767578125,1.7063567586392163,-0.8554547998189925,1.3122475506931544
1746277982859596800,0.7755966796875,1.3357494223117827,-0.7771347118198871,1.243643970066309
1746277982869575700,0.78557568359375,1.0251280603915451,-0.6016945582836866,0.917952172525227
1746277982879554800,0.795554931640625,0.7223118192642927,-0.5009714998185635,0.7154568388029933
1746277982889533700,0.80553369140625,0.4757195696622133,-0.4780857142716646,0.5547983670741319
1746277982899512800,0.815512939453125,0.2992214315056801,-0.40526422368884085,0.29021920988261696
1746277982909491500,0.825491455078125,0.1379834063231945,-0.1652799940496683,-0.08564502405971289
1746277982919470600,0.835470703125,-0.07099602872133255,0.2175526176005602,-0.38198447038829325
1746277982929449500,0.845449462890625,-0.3868213890254497,0.5695768340110778,-0.4093105764701962
1746277982939428600,0.8554287109375,-0.742238755005598,0.6828250275284051,-0.1638616516843438
1746277982949407500,0.865407470703125,-1.0385971982955933,0.6253560043781995,0.06383358974605799
1746277982959386600,0.87538671875,-1.330504507395625,0.5013093534708023,0.15246932005435226
1746277982969365500,0.885365478515625,-1.6236270375043154,0.33215690190196034,0.10389847363084555
1746277982979344600,0.8953447265625,-1.8436837468802927,0.09526771566867828,0.04912029699981212
1746277982989323500,0.905323486328125,-1.9279133511841295,-0.10272095428407192,-0.01668225473165512
1746277982999302700,0.915302734375,-1.8275801688194273,-0.23447335726320742,-0.15600509296506643
1746277983009281500,0.925281494140625,-1.5484914247602224,-0.12562369096577167,-0.3565975156754255
1746277983019260700,0.9352607421875,-1.1866624381721018,0.2792541637539863,-0.6791074683099985
1746277983029239600,0.945239501953125,-0.8405062370121479,0.8421013972491025,-1.020238242523372
1746277983039218700,0.95521875,-0.5552484489291906,1.5150199477910995,-1.325191495679319
1746277983049197600,0.965197509765625,-0.14546704007685182,2.2826100016742945,-1.4085238588824867
1746277983059176700,0.9751767578125,0.14276888703405857,2.896919126859307,-1.210157880049944
1746277983069155600,0.985155517578125,0.24004443539381026,3.279454216867685,-0.9655150109499693
1746277983079134700,0.995134765625,0.019195114335417745,3.4881419754892584,-0.7305757897406816
1746277983089113600,1.005113525390625,-0.5494330406486988,3.218690828347206,-0.571788372580707
1746277983099093800,1.01509375,-1.3711346239477396,2.413668577170372,-0.4154103546500206
1746277983109072600,1.02507275390625,-2.150470060682297,1.5412363390654324,-0.43587621957361694
1746277983119051800,1.0350517578125,-2.737890009897947,0.8131272316992283,-0.6575576075419783
1746277983129030700,1.04503076171875,-3.0701696613967417,0.05361527033150196,-0.7310232412472367
1746277983139009800,1.055009765625,-3.014573446381092,-0.6651701283723116,-0.630676030357182
1746277983148988700,1.06498876953125,-2.548998254114389,-1.1829887180954217,-0.45624446934163565
1746277983158967800,1.0749677734375,-1.7795517587095497,-1.5596604690283535,-0.320007029902935
1746277983168946700,1.08494677734375,-0.8966156622469424,-1.7772113330632446,-0.22127076134085655
1746277983178925800,1.09492578125,0.024353520011901855,-1.8872820655882356,-0.13647154045552015
1746277983188904700,1.10490478515625,0.7997638922572136,-1.9671943912148475,-0.022726211071014402
1746277983198883800,1.1148837890625,1.3514040875613689,-1.9640017326533794,0.10983458568155764
1746277983208862500,1.124862548828125,1.6638269459456205,-1.8405150537163018,0.09427110584676265
1746277983218841600,1.134841552734375,1.7204893288880585,-1.6328782654523848,0.04679389987885952
1746277983228820500,1.144820556640625,1.594593250721693,-1.3733897093981504,-0.029725276178121565
1746277983238799600,1.154799560546875,1.26361591399312,-1.136079667404294,-0.15958382823467254
1746277983248778500,1.164778564453125,0.7623433854013681,-0.9945856226116419,-0.2291176754489541
1746277983258757600,1.174757568359375,0.21167583452165126,-0.9627817865937948,-0.1594444197639823
1746277983268736500,1.184736572265625,-0.3062269263535738,-1.0496171894818545,0.005338438418507576
1746277983278715600,1.194715576171875,-0.7426140180587768,-1.3145242634534835,0.19182079497277735
1746277983288694500,1.204694580078125,-1.1325091154411435,-1.6250807434439658,0.39447161151766774
1746277983298673700,1.214673583984375,-1.1426362494409084,-1.7930740881055593,0.7770897036343812
1746277983308652500,1.224652587890625,-0.7497413857206702,-2.056929607197642,1.3720616756647825
1746277983318631700,1.234631591796875,-0.48134003989249463,-2.345866376054287,1.8648130441486834
1746277983328610600,1.244610595703125,-0.24757950707376003,-2.535620886147022,2.2189140668332574
1746277983338589700,1.254589599609375,-0.007355038937926292,-2.6215005957454443,2.4660762252777815
1746277983348568600,1.264568603515625,0.13310966280698774,-2.722205534031987,2.5540339101940392
1746277983358547700,1.274547607421875,0.16558219186663628,-2.822099155935645,2.444933484005928
1746277983368526600,1.284526611328125,0.11391162586212157,-2.916568999224901,2.0870412523448465
1746277983378505700,1.294505615234375,-0.037325814309716224,-2.8274557145327326,1.5766899297624826
1746277983388484600,1.304484619140625,-0.388036902295053,-2.7583868544816967,1.1102116511762141
1746277983398463700,1.314463623046875,-0.6861629397794604,-2.714275910076499,0.7783511018723249
1746277983408442600,1.324442626953125,-0.7312374685198069,-2.5085259584724904,0.5253577530562877
1746277983418421800,1.334421875,-0.6388654742926358,-2.089021612507105,0.12991174354851245
1746277983428400600,1.344400634765625,-0.48248365696966644,-1.7123247271329163,-0.16560498822033404
1746277983438379800,1.3543798828125,-0.3003624182343483,-1.4214835859596728,-0.2970107697188854
1746277983448358700,1.364358642578125,-0.14462912794798613,-1.2326380074054002,-0.4163555265456438
1746277983458337500,1.374337646484375,-0.06426204429119825,-1.1260574550837277,-0.5935130053937435
1746277983468316700,1.384316650390625,-0.10496873321086167,-1.0885749889075755,-0.7751052518188953
1746277983478295600,1.394295654296875,-0.39251170962154863,-0.9862614463806152,-1.0691565872102975
1746277983488274700,1.404274658203125,-0.8290367484927177,-0.8030325386643409,-1.4266548511177302
1746277983498253600,1.414253662109375,-1.3001222286134957,-0.49906420489251613,-1.68035196428895
1746277983508233500,1.4242333984375,-1.8233745338231324,-0.052432782548666,-1.8818582869738338
1746277983518212600,1.434212646484375,-2.4146409293338653,0.36720600345134735,-1.9726064793914555
1746277983528191500,1.44419140625,-2.9472309717312455,0.6590379092276096,-2.0306535946905613
1746277983538170600,1.454170654296875,-3.2717598629727958,0.9403390686392784,-2.151239876011014
1746277983548149500,1.4641494140625,-3.449033953937888,1.1138754343807697,-2.2543302481293677
1746277983558128600,1.474128662109375,-3.5484967832088468,1.040593340548873,-2.2159622312903404
1746277983568107500,1.484107421875,-3.3751346049904822,0.6888181304633617,-2.1767320446640253
1746277983578086700,1.494086669921875,-3.035410482704639,0.20893208877146244,-2.1311358301371333
1746277983588065500,1.5040654296875,-2.7988632417768238,-0.2748264104396105,-1.9191963762432336
1746277983598044000,1.5140439453125,-2.5486881652519107,-0.42233167834579943,-1.7022756268054247
1746277983608023000,1.52402294921875,-2.4553093320697545,-0.19945465085208414,-1.5063497346013783
1746277983618002000,1.534001953125,-2.261819727101922,0.55224692902565,-1.7222627683013676
1746277983627981000,1.54398095703125,-1.9038186282388865,1.4841010779142378,-2.252098543554544
1746277983637960000,1.5539599609375,-1.4274667520225046,2.3333634528338907,-2.8329660023868084
1746277983647939000,1.56393896484375,-0.9300397929430008,3.1677994300216437,-3.1052567568689584
1746277983657918000,1.57391796875,-0.490642121244967,3.8006817382514475,-2.7847359322249887
1746277983667897000,1.58389697265625,-0.13522621656954287,4.0887113291352986,-2.2384873668313023
1746277983677876000,1.5938759765625,0.11723375602215527,3.9269536639928817,-1.8276099794358014
1746277983687855000,1.603855224609375,0.2598410227537155,3.348962637379765,-1.594887849754095
1746277983697834000,1.613833984375,0.3093114483654499,2.7209809606730935,-1.544618382719159
1746277983707812900,1.623812744140625,0.2610363700181246,2.260458375620842,-1.5289707317322492
1746277983717791700,1.633791748046875,0.12401464833393692,1.92819216812551,-1.471629718875885
1746277983727771000,1.64377099609375,-0.04374766405075788,1.7819424532383679,-1.3248042499274015
1746277983737749800,1.653749755859375,-0.18844518105983732,1.7712328431755304,-1.0549854385167359
1746277983747729000,1.66372900390625,-0.30407120962440964,1.8003320964097975,-0.6702560533344746
1746277983757707800,1.673707763671875,-0.6485322973042726,1.844337826874852,-0.030979660153388974
1746277983767687000,1.68368701171875,-1.1497194857001305,1.9634616344273088,0.534893058642745
1746277983777665800,1.693665771484375,-0.4696206682652235,1.7958529051691292,1.1578057615220545
1746277983787645000,1.70364501953125,-0.24000571081861852,1.6318126820474863,1.6358961519688366
1746277983797623800,1.713623779296875,-0.13173589023575186,1.4554764564543963,2.044710761615634
1746277983807603000,1.72360302734375,0.013730419188737868,1.1731126362472772,2.4426497569829224
1746277983817581800,1.733581787109375,0.02694879720211029,0.8809422922968864,2.7629946405380963
1746277983827561000,1.74356103515625,0.09209376180768013,0.5264133995890617,2.992355184832215
1746277983837539800,1.753539794921875,0.12037030048221349,0.2056786399334669,3.058783174985647
1746277983847519000,1.76351904296875,0.15512626430392265,-0.12254267608523368,3.078879037553072
1746277983857497900,1.773497802734375,0.19437807824015615,-0.4857978960841894,3.076225308173895
1746277983867477000,1.78347705078125,0.26448592595010995,-0.7948959939599036,3.01131298328042
1746277983877456000,1.793455810546875,0.3923948052436113,-0.9997498735070228,2.9409418084591628
1746277983887435000,1.80343505859375,0.5020587105333805,-1.2134838096022604,2.9644571240812536
1746277983897415000,1.813414794921875,0.64876566766873,-1.4489987848728894,2.9524978062182665
1746277983907394000,1.82339404296875,0.808455732756853,-1.5970710390120744,2.7955542633593082
1746277983917373000,1.833373046875,0.957018400761485,-1.6600936046361923,2.5624814205437896
1746277983927352000,1.84335205078125,1.1291519139677286,-1.6831600074470041,2.367818680143356
1746277983937331000,1.8533310546875,1.2588207886710763,-1.6872674427658318,2.282323585948348
1746277983947310000,1.86331005859375,1.33911159222126,-1.726065083193779,2.182946681395173
1746277983957289000,1.8732890625,1.3113216680198907,-1.7843787404745817,1.9446967282027006
1746277983967268000,1.88326806640625,1.239938831938058,-1.9071312599182129,1.6183073037862776
1746277983977247000,1.8932470703125,1.1289648669630288,-2.014700238755345,1.440261936187744
1746277983987226000,1.90322607421875,0.9653899232655763,-2.078164702928066,1.3064543542444704
1746277983997205000,1.913205078125,0.77555328784734,-2.194668098849058,1.2014514265030622
1746277984007184000,1.923183837890625,0.6034237201638519,-2.3488579590857026,1.058284480062127
1746277984017162800,1.933162841796875,0.47988326521292324,-2.421730887594819,0.797320006236434
1746277984027142000,1.943141845703125,0.3248468711495399,-2.4072557875186202,0.5298328526437283
1746277984037120800,1.953120849609375,0.2256174122430384,-2.4718273361504077,0.3821832078307867
1746277984047100000,1.963099853515625,0.19653101849034427,-2.4798621740460396,0.24466332736611365
1746277984057078800,1.973078857421875,0.29344606297463177,-2.408520692887902,0.18684242203831672
1746277984067058000,1.983057861328125,0.4970768304675817,-2.2496078957825896,0.29205577766001223
1746277984077036800,1.993036865234375,0.7643748912289738,-2.027852565795183,0.529503182297945
1746277984087016000,2.003015869140625,0.9535817043110728,-1.7189543744057416,0.7203682839810848
1746277984096994800,2.012994873046875,1.0766221007853747,-1.4344441898196936,0.9269465031027794
1746277984106974000,2.022973876953125,1.1243722784757613,-1.2849714212328194,1.2075181791961191
1746277984116952800,2.032952880859375,1.1263006161898375,-1.1502432173132895,1.4308388588041066
1746277984126932000,2.042931884765625,1.0922156834974885,-0.8820271649241447,1.377353352332115
1746277984136910800,2.052910888671875,1.0484424466140567,-0.44741117454469204,1.1352554915398358
1746277984146890000,2.062889892578125,1.0339083098269999,-0.00699263536632061,0.915999577152729
1746277984156868900,2.072868896484375,1.0398071586072444,0.5350859508663416,0.7018816101759672
1746277984166848000,2.082847900390625,1.2089888362705707,1.3846779961317777,0.24364918188750742
1746277984176827000,2.092826904296875,1.4929235590562224,2.498131990230083,-0.3426683590441942
1746277984186806000,2.102805908203125,1.5825269653528928,3.5217929006785154,-0.5890805759042501
1746277984196785000,2.112784912109375,1.3508955535173415,4.03070688393414,-0.24196458980143068
1746277984206764000,2.122763916015625,0.7882587479025125,3.9834073726207015,0.44564942556917664
1746277984216743000,2.132742919921875,0.028709669394791124,3.468674473953247,1.2394985408246517
1746277984226722000,2.14272216796875,-0.7054471937030553,2.5824293990731237,1.864770958572626
1746277984236701000,2.152700927734375,-1.3134253623008727,1.66543145853281,1.9502239671915769
1746277984246680000,2.16268017578125,-1.6635643494866788,1.2151935361295938,1.4273539392977952
1746277984256658700,2.17265869140625,-1.6208248395651579,1.3433867853224277,0.6019084932953119
1746277984266637800,2.182637939453125,-1.2349059523373842,1.8028508012324571,-0.17281038955450057
1746277984276616700,2.19261669921875,-0.6090256318241357,2.4397025976151228,-0.7424521054953336
1746277984286597000,2.20259716796875,0.09143442111611366,3.252425340166688,-1.1867214748829602
1746277984296575700,2.21257568359375,0.6804882551439106,4.24904217634499,-1.6319021138966083
1746277984306555000,2.222554931640625,1.0147441751517354,5.031893512246012,-1.953726422354579
1746277984316533800,2.23253369140625,0.9561088847011328,5.414506928187609,-2.152135948067903
1746277984326513000,2.242512939453125,0.5359779312700033,5.406868980655074,-2.2778052317410706
1746277984336491800,2.25249169921875,-0.16966142400428652,5.108439576309919,-2.5416420461326834
1746277984346471000,2.262470947265625,-1.0791402210861445,4.594156174975633,-2.9763936455905435
1746277984356449800,2.27244970703125,-2.1237385594926774,3.723989543715119,-3.2689120723262426
1746277984366429000,2.282428955078125,-3.130102444311976,2.493772625976801,-3.4115748686373233
1746277984376407800,2.29240771484375,-3.897793620482087,1.1887135254830121,-3.5811908460646866
1746277984386387000,2.302386962890625,-4.407768510967493,-0.19367606745064259,-3.625727614666521
1746277984396365800,2.31236572265625,-4.65518493643403,-1.5350328082501887,-3.565585280653834
1746277984406345000,2.322344970703125,-4.62402173640728,-2.704092954236269,-3.4854590200155973
1746277984416323800,2.33232373046875,-4.378377581310272,-3.552933304351568,-3.3760064193889496
1746277984426303000,2.342302978515625,-3.898549991807341,-4.079506278416514,-3.265817613442242
1746277984436281900,2.35228173828125,-3.288936330962181,-4.304071405127644,-3.065903820645809
1746277984446261000,2.362260986328125,-2.668082898700237,-4.345065678817034,-2.7628677992880344
1746277984456239900,2.372239990234375,-2.04402745552659,-4.279463618093729,-2.338497308591008
1746277984466219000,2.382218994140625,-1.3952607649445532,-4.09786552644968,-1.8769807440653443
1746277984476198000,2.392197998046875,-0.735218574045226,-3.7686429244339466,-1.5129963330090046
1746277984486177000,2.402177001953125,-0.10799027298912406,-3.3133944803923367,-1.2427780008867382
1746277984496156000,2.412156005859375,0.4520231983847916,-2.773297423365712,-0.9653379008173942
1746277984506135000,2.422135009765625,0.9057618223853409,-2.174350702485442,-0.6342556424096226
1746277984516114000,2.432114013671875,1.260715077985078,-1.5664455991238355,-0.2635331552699208
1746277984526093000,2.442093017578125,1.5312820774145424,-0.9549369183123111,0.19820552757382393
1746277984536072000,2.452072021484375,1.7326245878398416,-0.45088265004754063,0.7021995900839567
1746277984546050800,2.46205078125,1.829659459311515,-0.10979892984628677,1.2580594489097594
1746277984556029700,2.47202978515625,1.836981180501729,-0.031123452538251876,1.7804174356281757
1746277984566008800,2.4820087890625,1.6716320667386053,-0.1293394966185093,2.1770091080397367
1746277984575987700,2.49198779296875,1.3195669337958096,-0.4127326598733663,2.4692858349740505
1746277984585966800,2.501966796875,0.8303647822260856,-0.8771551749736071,2.741430458983779
1746277984595946000,2.511946044921875,0.342916780847311,-1.4054934051454067,2.838261186185479
1746277984605925000,2.521925048828125,-0.07277984339818358,-1.849818888634443,2.8411750278055665
1746277984615904000,2.531904052734375,-0.38621173269450665,-2.2702684064954517,2.9428701461732385
1746277984625883100,2.541883056640625,-0.6281669701457023,-2.582173963007331,2.973151302668452
1746277984635862000,2.551862060546875,-0.7212614334285259,-2.8322786046445367,2.9382395637631413
1746277984645841200,2.561841064453125,-0.6245601778253913,-2.9908769289731976,2.851049356088042
1746277984655821000,2.571821044921875,-0.3699748836427927,-3.009908961701393,2.694615516316891
1746277984665800200,2.58180029296875,0.0047153380841016765,-3.0044787533462047,2.545237440276146
1746277984675779000,2.591779052734375,0.47423605310618877,-3.015554274111986,2.338534425731003
1746277984685758200,2.60175830078125,0.8956959170535206,-2.991594721853733,2.0342130407378076
1746277984695737000,2.611737060546875,1.2054099548704922,-2.8922125566035506,1.6748618424400685
1746277984705716200,2.62171630859375,1.456632202360779,-2.7638521341502664,1.2854770326673983
1746277984715695000,2.631695068359375,1.7098546837575732,-2.564843473500013,0.8725210854321718
1746277984725674200,2.64167431640625,1.9479174438148736,-2.4399475122869014,0.45257980935424563
1746277984735653000,2.651653076171875,2.1249472046300766,-2.347740353232622,0.0012009002223610876
1746277984745632300,2.66163232421875,2.208554877643287,-2.146857130882144,-0.5334086653038859
1746277984755611100,2.671611083984375,2.28790489321202,-1.6931769590705632,-1.1302613365143537
1746277984765590300,2.68159033203125,2.2897674722135064,-1.049164769539237,-1.651098981797695
1746277984775569200,2.691569091796875,2.117320655274391,-0.30924715095758437,-2.005741564013064
1746277984785548300,2.70154833984375,1.818488076955825,0.48423663811683654,-2.318433594727516
1746277984795527200,2.711527099609375,1.5348770331665873,1.4930945317089557,-2.622336462047696
1746277984805506300,2.72150634765625,1.2464825544930993,2.5897277393877505,-2.840924852436781
1746277984815485200,2.731485107421875,0.789634127908945,3.2031109818994996,-2.7955253295257685
1746277984825464300,2.74146435546875,0.14883797781467437,3.325195392823219,-2.592995801272988
1746277984835443200,2.751443115234375,-0.5706003318399191,3.129216893649101,-2.4096365451753137
1746277984845422300,2.76142236328125,-1.1717781727731227,2.7878923504292965,-2.424634792342782
1746277984855401000,2.77140087890625,-1.509937676090747,2.5033681373178958,-2.6100468893170357
1746277984865380000,2.781380126953125,-1.497890826074779,2.6317186228990552,-2.970555440956354
1746277984875359000,2.79135888671875,-1.1950532498985529,3.4284301418483256,-3.3938597637265917
1746277984885338000,2.801338134765625,-0.8597079272188246,4.7052784623801704,-3.4926176595985887
1746277984895317000,2.81131689453125,-0.7248737787067889,5.945725097709894,-3.1718980975121256
1746277984905296100,2.821296142578125,-0.83956983294487,6.824533300587534,-2.614330265724659
1746277984915275000,2.83127490234375,-1.1495440560679882,7.14405517732203,-1.940488170596957
1746277984925254100,2.841254150390625,-1.5781617558807133,6.674452629235386,-1.448497849613428
1746277984935233000,2.85123291015625,-2.0169443644203247,5.683467661464214,-1.1603577840924262
1746277984945212200,2.861212158203125,-2.3647179376490413,4.51217697994709,-1.1656523833692074
1746277984955191000,2.87119091796875,-2.558139007425308,3.4899832194417715,-1.2519015108019114
1746277984965170200,2.881170166015625,-2.6297207270801066,2.751863005670905,-1.1860194640934467
1746277984975149000,2.891149169921875,-2.665665900686383,2.235435578045249,-0.8838923742741346
1746277984985129200,2.901129150390625,-2.719232655701041,1.8630624010890722,-0.4734276593327522
1746277984995108000,2.911108154296875,-2.679840556511283,1.4822779541403055,-0.08320786004066467
1746277985005087200,2.921087158203125,-2.55162684905231,1.070489297118783,0.3078039664119482
1746277985015066000,2.931066162109375,-2.336967176414281,0.7840057666331529,0.6418225705325603
1746277985025045200,2.941045166015625,-2.0762802043557165,0.514212089663744,1.0973895790040493
1746277985035024100,2.951024169921875,-1.7471698305428027,0.08191431309878826,1.4488526544004678
1746277985045003300,2.961003173828125,-1.3642916261851787,-0.28444647170007226,1.4780553680092094
1746277985054982100,2.970982177734375,-0.9626419397316872,-0.6418254931420088,1.3517010246813297
1746277985064961300,2.980961181640625,-0.5872485381714999,-1.0182564210563898,1.2048895842581986
1746277985074940200,2.990940185546875,-0.26909502718076106,-1.3991922591745853,1.0733809269070624
1746277985084919300,3.000919189453125,0.05867547633051872,-1.7332716535717247,1.043655650728941
1746277985094898200,3.010898193359375,0.35987127664908763,-2.0596856279075144,1.005831239247322
1746277985104877300,3.020877197265625,0.6299655440002679,-2.256295410722494,0.9226169494658708
1746277985114856200,3.030856201171875,0.8451426646411418,-2.391325812458992,0.8602531400114297
1746277985124835300,3.04083544921875,0.9806646492868661,-2.428681437385082,0.7325210785895585
1746277985134814200,3.050814208984375,1.0135619796298443,-2.320237429279089,0.6308616160571575
1746277985144793300,3.06079345703125,1.0271434918671847,-2.1938947763890027,0.5687415522307158
1746277985154772000,3.07077197265625,1.08489250100255,-2.0186802483022213,0.4227326603621244
1746277985164751000,3.080751220703125,1.1650421425163746,-1.7890414715886116,0.26815701567828654
1746277985174730000,3.09072998046875,1.2197814484417437,-1.6501783598214388,0.19244389530718325
1746277985184709000,3.100709228515625,1.2449984534151852,-1.5168401489555834,0.13363807059526442
1746277985194688000,3.11068798828125,1.2074791623599828,-1.3378104464948177,0.10783552081882954
1746277985204667100,3.120667236328125,1.1368687719553707,-1.1890735909670591,0.0400368268340826
1746277985214646000,3.13064599609375,1.055931194934249,-1.1712889279514551,-0.024546412235498426
1746277985224625200,3.140625244140625,0.8997611206658184,-1.224385727366805,-0.15133856245875357
1746277985234604000,3.15060400390625,0.6741209120690822,-1.2661708591729401,-0.22956980313062667
1746277985244583200,3.160583251953125,0.34794308457672596,-1.2627443918555974,-0.2305102988511324
1746277985254562000,3.17056201171875,0.019230770170688628,-1.2625550067633389,-0.2290361346453428
1746277985264541200,3.180541259765625,-0.2633919932335615,-1.275423840686679,-0.25866204210221766
1746277985274520000,3.19052001953125,-0.46724005673900243,-1.2423510076463222,-0.237454418900609
1746277985284499200,3.200499267578125,-0.6339009837530553,-1.236691082188487,-0.1189998889118433
1746277985294478000,3.21047802734375,-0.8004984901420772,-1.3020634258091448,0.011920154896378517
1746277985304457200,3.220457275390625,-0.9433889577291905,-1.4053484437167643,0.1555775152027607
1746277985314437000,3.23043701171875,-1.1052331321112812,-1.4993348874032497,0.2727566184282303
1746277985324416300,3.240416259765625,-1.3139132919482885,-1.6039508616536855,0.40737551675438877
1746277985334395100,3.25039501953125,-1.506948138885945,-1.7952783201515674,0.5010100782632827
1746277985344374300,3.260374267578125,-1.6599967201329766,-2.0328426291674373,0.5842126776069403
1746277985354353200,3.270353271484375,-1.756283695846796,-2.24347158498466,0.6426461618751287
1746277985364332300,3.280332275390625,-1.8406418949663639,-2.3627917918920516,0.6905033070713281
1746277985374311200,3.290311279296875,-1.9620698878079652,-2.5364134978294373,0.8069272080153226
1746277985384290300,3.300290283203125,-1.8560867168575523,-2.682204363033175,0.8520254098922013
1746277985394269200,3.310269287109375,-1.5087772540092468,-2.7428093461215495,0.8409037118971348
1746277985404248300,3.320248291015625,-1.176649285940826,-2.889520833301544,0.8464023093134164
1746277985414227200,3.330227294921875,-1.005472196676582,-2.9691672014683483,0.8400152386248111
1746277985424206300,3.340206298828125,-0.8330354627400636,-2.939549477317929,0.9017869274049997
1746277985434185200,3.350185302734375,-0.645767508766055,-2.9032687881469723,0.9045657444685697
1746277985444164000,3.3601640625,-0.45429450431764123,-2.83249663130939,0.8671651113569736
1746277985454143000,3.37014306640625,-0.3787586402095854,-2.7647908763051032,0.8088087839782238
1746277985464122000,3.3801220703125,-0.36513913404941556,-2.723818814447522,0.7602128031134605
1746277985474101000,3.39010107421875,-0.3780773799471557,-2.6736884636223315,0.8037053233593702
1746277985484080000,3.400080078125,-0.3512367192946374,-2.658799522048235,0.7959452107518911
1746277985494059000,3.41005908203125,-0.2440175768084824,-2.4424615409344432,0.57757367798388
1746277985504038100,3.4200380859375,0.02005129277333617,-1.8277379897296429,0.10103636219799518
1746277985514017000,3.43001708984375,0.4684557161390781,-0.7565747388720512,-0.6243430279433727
1746277985523996200,3.43999609375,1.0704222232319414,0.8807406322449445,-1.3289198685526846
1746277985533975000,3.44997509765625,1.7523083624750375,2.820366633054614,-1.804275865599513
1746277985543954200,3.4599541015625,2.317124265694618,4.638642382434011,-1.958194507679343
1746277985553933000,3.46993310546875,2.5388871944665907,6.192290459305048,-1.6845833182483911
1746277985563912200,3.479912109375,2.2877824358761307,7.322029817771911,-0.8773433910220861
1746277985573891000,3.48989111328125,1.5693747844435273,7.43855776361227,0.3515308799356222
1746277985583870200,3.4998701171875,0.5925292550534009,6.878512143534421,1.2690998983621598
1746277985593849000,3.50984912109375,-0.23765666347444056,6.592827069950103,1.3057283780574798
1746277985603829000,3.5198291015625,-0.7244622752964496,6.588758797597885,1.0041390483766794
1746277985613809000,3.529808837890625,-1.0829758537262677,6.283996098577976,1.0087304678201674
1746277985623787800,3.539787841796875,-1.4606656956605613,5.6383793964594595,1.2350263638466596
1746277985633767000,3.549766845703125,-1.7043689458228646,4.972116212153434,1.4503601363539695
1746277985643745800,3.559745849609375,-1.6283489514596758,4.460939544662833,1.4661813903421164
1746277985653725000,3.569724853515625,-1.2290823607504366,4.086138263776898,1.3390671685576438
1746277985663703800,3.579703857421875,-0.6174608672142028,3.820649590525031,1.1748813994854688
1746277985673683000,3.589682861328125,-0.09085852092429995,3.4413673648327587,0.9574392565220594
1746277985683661800,3.599661865234375,0.33753815654888747,2.949322098791599,0.5913081888258457
1746277985693641000,3.609640869140625,0.7539609031118452,2.700857041054964,0.022076807251572607
1746277985703619800,3.619619873046875,1.0320758337028324,2.6379046180576085,-0.6385492479503154
1746277985713599000,3.629598876953125,1.13504696335569,2.527223060157895,-1.2061883918970822
1746277985723577900,3.639577880859375,1.0231180357433856,2.1954542807906865,-1.6964058579891919
1746277985733557000,3.649556884765625,0.7487433145940303,1.7035756034880876,-2.1501585105150935
1746277985743535900,3.659535888671875,0.5532086136646568,1.1405968525677919,-2.5062609361499546
1746277985753515000,3.669514892578125,0.47865986089780926,0.47223991085290906,-2.742090384197235
1746277985763494000,3.679493896484375,0.5138385801762342,-0.2589513804376125,-2.8526456853687763
1746277985773472800,3.68947265625,0.623798691933602,-0.9908072731167078,-2.8686148233950135
1746277985783452000,3.699451904296875,0.8126806569755077,-1.611773518103361,-2.7882366338223217
1746277985793430800,3.7094306640625,0.9524385256253183,-2.099855141210556,-2.578645204359293
1746277985803410000,3.719409912109375,1.0231412704885006,-2.4495745878100394,-2.256590009754896
1746277985813388800,3.729388916015625,1.0346600049771368,-2.653416659966111,-1.958923990997672
1746277985823368000,3.739367919921875,1.0407429781526327,-2.7513942191153764,-1.6629402262389659
1746277985833346800,3.749346923828125,1.0039904336862266,-2.6843314381897447,-1.434120949214697
1746277985843326000,3.759325927734375,0.9540168808579444,-2.4789012200593947,-1.0826935296535491
1746277985853304800,3.769304931640625,0.9325602513313292,-2.233107427358627,-0.6581950286626815
1746277985863284000,3.779283935546875,0.9576708733208477,-1.9047160154700278,-0.3193494427770376
1746277985873262800,3.789262939453125,1.0079249966561794,-1.4659569339364766,-0.0174848032861948
1746277985883242000,3.799241943359375,1.0505793125122784,-1.1014981833666562,0.35954175243377684
1746277985893220900,3.809220947265625,1.0323111037634312,-0.8247919505298137,0.7373837161898612
1746277985903200000,3.819199951171875,0.9834392285667359,-0.5528863959729671,0.9812655377894639
1746277985913180000,3.829179931640625,0.930004867760092,-0.19532909535467624,1.046074402308464
1746277985923158800,3.83915869140625,0.850710381770879,0.03906301336586475,1.0885884329110382
1746277985933138000,3.849137939453125,0.6826613613992929,0.12067337508201599,1.1830267120182514
1746277985943116800,3.85911669921875,0.5078028071433306,0.207198396846652,1.2112632109433412
1746277985953096000,3.869095947265625,0.3114839700989425,0.30818975085914135,1.1968652677565812
1746277985963074800,3.87907470703125,0.09255918736234307,0.4095400013118982,1.13977969096601
1746277985973054000,3.889053955078125,-0.1532997795291245,0.3804863407850265,1.1327753651618957
1746277985983032800,3.89903271484375,-0.3646796998441219,0.2770002473473549,1.0957394737094641
1746277985993012000,3.909011962890625,-0.4969184250354767,0.15813655203580856,0.9484913954347372
1746277986002990800,3.918990966796875,-0.5544293876312673,-0.015465864679217338,0.7909551473796367
1746277986012970000,3.928969970703125,-0.517414100575447,-0.20457330904006957,0.6624281361877918
1746277986022948900,3.938948974609375,-0.40248774471282955,-0.35870997778475283,0.5252063618868589
1746277986032928000,3.948927978515625,-0.16313304514884946,-0.4437953221350908,0.3262029619336128
1746277986042907000,3.958906982421875,0.10643018406555056,-0.5468044457107782,0.2619575765162706
1746277986052886000,3.968885986328125,0.3977490257531404,-0.639016280940175,0.16746610591709613
1746277986062865000,3.978864990234375,0.6481969278700649,-0.6924316447854042,0.09065525343716144
1746277986072843800,3.98884375,0.8532571436442434,-0.7496750424861908,0.1018938558101654
1746277986082823000,3.998822998046875,1.0693646770030258,-0.831628518551588,0.10584230117499828
1746277986092801800,4.0088017578125,1.2673093616835773,-0.8909709343582392,0.13974515529870987
1746277986102781000,4.018781005859375,1.4432127488173543,-0.970204045549035,0.21944939113259315
1746277986112759800,4.028759765625,1.6261190004505217,-1.08373631670475,0.32054069838821886
1746277986122739000,4.038739013671875,1.77816205791682,-1.1763836207419633,0.3662286828517914
1746277986132717800,4.0487177734375,1.849039720955491,-1.2736094847410917,0.43419338105320926
1746277986142697000,4.058697021484375,1.8421692506641147,-1.3461585881233216,0.5310936663597822
1746277986152675800,4.06867578125,1.7767406468115745,-1.4733680869758128,0.704888390776515
1746277986162655000,4.078655029296875,1.7028759307861328,-1.7182348279595374,0.8529694127440453
1746277986172633900,4.0886337890625,1.5663018067389727,-1.9813982731342314,0.915266586703062
1746277986182613000,4.098613037109375,1.4122557388871908,-2.246739062348008,0.9640829323202371
1746277986192593000,4.108593017578125,1.2441834837704897,-2.476688220185041,1.0003519310534
1746277986202571800,4.11857177734375,1.1006401052325963,-2.59545430034101,0.9518611641287803
1746277986212551000,4.128551025390625,1.027489528825879,-2.638313783380389,0.9590057751864194
1746277986222529800,4.13852978515625,1.0023184088207782,-2.585521519869566,0.9311649975806474
1746277986232509000,4.148509033203125,0.9802867558851838,-2.4459692567944527,0.9361720120877027
1746277986242487800,4.15848779296875,0.9784097099669277,-2.3441063806444404,0.9239695331186055
1746277986252467000,4.168467041015625,0.9325836322069168,-2.3257705134868623,0.9616875616163015
1746277986262445800,4.17844580078125,0.9063391838818788,-2.2589672602802513,0.9615396775782108
1746277986272425000,4.188425048828125,0.8804062857240438,-2.190848248299956,0.8594085058808326
1746277986282403800,4.19840380859375,0.8366589139342308,-2.082068724629283,0.6500175674259662
1746277986292383000,4.208383056640625,0.7336836926281451,-2.0289076278060674,0.47409927498400206
1746277986302361900,4.21836181640625,0.5959734041579068,-2.065527924194932,0.2179880864083767
1746277986312341000,4.228341064453125,0.4544542249239981,-2.0550123753994702,-0.06958499287962913
1746277986322320000,4.23831982421875,0.3140999978162348,-2.0256606087088582,-0.3322293826162815
1746277986332299000,4.248299072265625,0.23974121466353535,-2.0092542483091353,-0.5533680420100688
1746277986342278000,4.25827783203125,0.1532154622465372,-1.9124638531178235,-0.7133166119039058
1746277986352257000,4.268257080078125,0.047103769545629615,-1.845302287992835,-0.8492477618724107
1746277986362236000,4.27823583984375,-0.06201894153952598,-1.798596650919318,-1.0138225302621722
1746277986372214800,4.28821484375,-0.20026823225729165,-1.7648112856954334,-1.1823048274844885
1746277986382194000,4.29819384765625,-0.36257659008502957,-1.8174188402891158,-1.3802254006370902
1746277986392172800,4.3081728515625,-0.5368747339792549,-1.9097411501556634,-1.5778110427469014
1746277986402152000,4.31815185546875,-0.7396494691647589,-2.0720669705748556,-1.7108964478954671
1746277986412130800,4.328130859375,-0.8999649726748465,-2.21836870791018,-1.9181632338032126
1746277986422110000,4.33810986328125,-0.9600590836316346,-2.257054120135307,-2.1852260245040056
1746277986432089900,4.34808984375,-0.9633482613701373,-2.174530150705576,-2.4603800594627856
1746277986442068700,4.35806884765625,-0.9892735607434063,-1.9821341861933468,-2.683459039269388
1746277986452048000,4.3680478515625,-0.946296515738964,-1.5413123269110918,-2.948520427019894
1746277986462026800,4.37802685546875,-0.8211544708102941,-0.9243389509528874,-3.111376116532087
1746277986472006000,4.388005859375,-0.5964268470138311,-0.2682294963926077,-3.0712595024600624
1746277986481984800,4.39798486328125,-0.39942536146752533,0.3361439257115125,-2.9726024366140362
1746277986491964000,4.4079638671875,-0.2424480624694377,0.804738758060336,-2.9148128032073375
1746277986501942800,4.41794287109375,-0.16190379561483859,1.2505103487044573,-2.8945278478085994
1746277986511922000,4.427921875,-0.1819371143400669,1.5944132179796695,-2.9028701442182063
1746277986521900800,4.43790087890625,-0.24072006963305173,1.7405512891858814,-2.973269376090169
1746277986531880000,4.4478798828125,-0.3103044779907912,1.8143138600111006,-3.167598354491591
1746277986541858800,4.45785888671875,-0.42750053235106167,2.091718011984229,-3.44974794742614
1746277986551838000,4.467837890625,-0.5135801484357565,2.669048528861999,-3.755739603719115
1746277986561816800,4.47781689453125,-0.5935767182797194,3.5635850467473267,-4.026099390138685
1746277986571796000,4.4877958984375,-0.7157768645375967,4.593797863057255,-4.157952915404737
1746277986581774800,4.49777490234375,-0.9499223050206899,5.637700182023644,-4.077899427741766
1746277986591754000,4.50775390625,-1.318715869924426,6.375090327954292,-3.742595167724788
1746277986601732900,4.51773291015625,-1.830007103705406,6.4414458373934025,-3.107819300833344
1746277986611712000,4.5277119140625,-2.2898475517123935,5.853896708840131,-2.2897633805602786
1746277986621691000,4.53769091796875,-2.6265631398320197,4.907535895693302,-1.5757003342032432
1746277986631670000,4.547669921875,-2.809197004264593,3.7970132788717743,-1.0989806475877761
1746277986641649000,4.55764892578125,-2.900944729113579,2.692386149829626,-0.7428899123907089
1746277986651629000,4.567629150390625,-2.9451193864047527,1.709197535023093,-0.4307452864259481
1746277986661608000,4.57760791015625,-2.9815467905700204,0.8654290813446044,-0.22325170602500438
1746277986671587000,4.587587158203125,-3.0332500898003576,0.2888853309303522,-0.16736439910829065
1746277986681566000,4.59756591796875,-3.052571460863948,0.012118307816982268,-0.12745032187104224
1746277986691545000,4.607545166015625,-3.063231971088052,-0.104337741830945,-0.03580430383086204
1746277986701524000,4.61752392578125,-2.986870615941286,-0.05679623845517635,0.08669161050319671
1746277986711503000,4.627503173828125,-2.7471564354151488,0.10255027389228344,0.2428010406255722
1746277986721482000,4.63748193359375,-2.2958377320379015,0.25603520072996616,0.4558738824635744
1746277986731461000,4.647461181640625,-1.6954361361742019,0.37875907860100266,0.6689174982070922
1746277986741440000,4.65743994140625,-1.1420388680696487,0.3933504985332489,0.8833236344754696
1746277986751419100,4.667419189453125,-0.6177524705719203,0.20331483341157436,1.061568908560276
1746277986761398000,4.67739794921875,-0.08231631802842021,-0.07335574358999729,1.2203981190353632
1746277986771377200,4.687377197265625,0.4620616311877966,-0.4711357490032911,1.2712895173609255
1746277986781356000,4.69735595703125,0.9750370186634362,-0.9462269576340914,1.275322718399763
1746277986791335200,4.707335205078125,1.405773537261039,-1.4688123233675956,1.2524544685095549
1746277986801314000,4.71731396484375,1.730794449803233,-1.945270144176483,1.2265554726213217
1746277986811293200,4.727293212890625,1.9937902833260595,-2.3688141209214923,1.1418459758460522
1746277986821272000,4.73727197265625,2.1346162195988,-2.7127953161299225,1.0490075331509112
1746277986831251200,4.747251220703125,2.2050350329540667,-3.0016514209657905,0.90003336173594
1746277986841229800,4.757229736328125,2.277894079068303,-3.194857532817125,0.6760603556990623
1746277986851209000,4.767208984375,2.346364827095717,-3.282590176805854,0.408654450649023
1746277986861187800,4.777187744140625,2.3823189146608112,-3.2809546845585107,0.17466624655425547
1746277986871167000,4.7871669921875,2.349808683939278,-3.2355554539084435,0.008445172262191773
1746277986881147100,4.797147216796875,2.2578367949455975,-3.1701831102877853,-0.043536943909525866
1746277986891126000,4.8071259765625,2.0871077417097985,-3.119977356138825,-0.0825701466590166
1746277986901105000,4.81710498046875,1.9364583305589853,-3.023424276834726,-0.08974982903003692
1746277986911084000,4.827083984375,1.7727713047891853,-2.868894224858284,-0.10862228728234767
1746277986921063000,4.83706298828125,1.6885354168750344,-2.7082582572221754,-0.15630290686786175
1746277986931042000,4.8470419921875,1.6517863795399665,-2.4503180996537206,-0.2101402955174446
1746277986941021000,4.85702099609375,1.6377249748311935,-2.0321528933376074,-0.19605039536654947
1746277986951000000,4.867,1.6187439416378735,-1.5419062011510132,-0.14844225649535656
1746277986960979000,4.87697900390625,1.5526403611332178,-1.1069652166008948,0.003711713999509811
1746277986970958000,4.8869580078125,1.3739075957924127,-0.7283014150679111,0.2680149768590927
1746277986980937000,4.89693701171875,1.1027687878243624,-0.38306057518720626,0.570050296741724
1746277986990916000,4.906916015625,0.7665536965727806,-0.14441373163163662,0.9207371270686387
1746277987000895000,4.91689501953125,0.4167652763903141,-0.049941550254821776,1.2173217803299425
1746277987010874000,4.9268740234375,0.08175678444951773,-0.07860299659371375,1.4941267973661423
1746277987020853000,4.93685302734375,-0.234473211132735,-0.18461480911672115,1.7837948031067847
1746277987030832000,4.94683203125,-0.5565361506521701,-0.3642237727701664,2.0041630626499654
1746277987040811000,4.95681103515625,-0.8380727262549101,-0.5903431431859731,2.2070716533482075
1746277987050790100,4.9667900390625,-1.0902676912348717,-0.7923977474033832,2.4002830258965493
1746277987060769000,4.97676904296875,-1.280812694118172,-0.9799480254501104,2.5420973886847493
1746277987070748200,4.986748046875,-1.387756672924757,-1.0136088875114917,2.5010668746382
1746277987080727000,4.99672705078125,-1.3263462186723947,-0.7972691528320313,2.3886469486385584
1746277987090706200,5.0067060546875,-1.1718470732908695,-0.4824333880871534,2.2574451652795076
1746277987100686000,5.01668603515625,-0.88188687967062,-0.01756546730697155,2.1683073306679725
1746277987110665000,5.0266650390625,-0.4606108478575945,0.6729436849832534,1.955022307384014
1746277987120644000,5.03664404296875,0.06282660466060042,1.5312567968428135,1.7103180634856223
1746277987130623000,5.046623046875,0.5724544352740049,2.4937825628489256,1.5687942080765962
1746277987140602000,5.05660205078125,0.8391022154331207,3.295207666316628,1.6451649155735968
1746277987150581200,5.066581298828125,0.9180230458043516,3.570184883403778,1.8481950868248938
1746277987160560000,5.07656005859375,0.7687403929620981,3.347812298300862,1.9727385813385248
1746277987170539300,5.086539306640625,0.5915636248916387,2.7301380805969235,1.8231711202055214
1746277987180518000,5.096517822265625,0.3817249426692724,1.8278981487274168,1.4259756366819143
1746277987190497000,5.1064970703125,0.03059577540233731,1.0920698452860116,0.8169196097195148
1746277987200476000,5.116475830078125,-0.2445679041676223,0.8164952468276023,-0.1279138477295637
1746277987210455000,5.126455078125,-0.23444296212494373,0.9729320092082023,-1.163461595326662
1746277987220434000,5.136433837890625,0.050042672541737554,1.5160738407582044,-2.253780797553062
1746277987230413000,5.1464130859375,0.35178149369582534,2.3383839113444087,-3.1633757683604955
1746277987240392000,5.156391845703125,0.5036706757746636,3.2002520853370426,-3.640391223052144
1746277987250371000,5.16637109375,0.5697608122758567,3.967074661979079,-3.7274727096557614
1746277987260350000,5.176349853515625,0.723764794551581,4.517880744546652,-3.512414831480384
1746277987270329000,5.1863291015625,0.9080039022237062,4.548324398127198,-3.1808412824243306
1746277987280308000,5.196307861328125,1.0466460647165774,4.1108103482186795,-2.871137619870901
1746277987290287000,5.206287109375,1.0982995334558188,3.288712459078431,-2.560446699845791
1746277987300266000,5.216265869140625,1.108483950600773,2.329929386731982,-2.440499885472655
1746277987310245000,5.2262451171875,1.1215022759974003,1.6271446902364493,-2.5916116534382105
1746277987320224000,5.23622412109375,1.1425509092450141,1.0967565417975187,-2.90286312995553
1746277987330204000,5.246203857421875,1.1219834836430846,0.6736416041195392,-3.129289374363422
1746277987340183000,5.25618310546875,1.0503605551950632,0.37164077102839943,-3.258639392375946
1746277987350162000,5.266161865234375,0.9944256097443401,0.25592180348336696,-3.3478970539748665
1746277987360141000,5.27614111328125,1.004593952537328,0.23909984802007675,-3.257339415693283
1746277987370120000,5.286119873046875,1.1000251882046461,0.20111820015013215,-2.933415504607558
1746277987380099000,5.29609912109375,1.2523771654896438,0.12704407915771007,-2.3886405188977715
1746277987390078000,5.306077880859375,1.4499695296011865,0.12441840682923794,-1.7422358812719583
1746277987400057000,5.31605712890625,1.6238788203082979,0.11810557042062282,-1.1252958230614662
1746277987410036000,5.326035888671875,1.7724182535678148,0.010484569135308265,-0.5754939491003751
1746277987420015000,5.33601513671875,1.866837243452668,-0.12609247752130032,-0.11190905386805533
1746277987429994000,5.345993896484375,1.919021896459162,-0.19442074833810327,0.24956103627979753
1746277987439973000,5.35597314453125,1.923391782106459,-0.19822189418673514,0.5810422308772802
1746277987449952000,5.365951904296875,1.9175676059976219,-0.23166122245192527,0.920128639781475
1746277987459931100,5.37593115234375,1.8517898964464663,-0.3306120105475187,1.3295523212373257
1746277987469910300,5.38591015625,1.77652978053987,-0.4618763377487659,1.6797060676008462
1746277987479889000,5.395888916015625,1.724342643315345,-0.5877326684266329,2.033967833805084
1746277987489868000,5.405867919921875,1.7116829220980405,-0.7386591429531574,2.4157711024075743
1746277987499847000,5.415846923828125,1.7580390150815248,-0.9758768304884433,2.7230776406913995
1746277987509826000,5.425825927734375,1.7829478308886288,-1.1316431462615728,2.9288024578541516
1746277987519805000,5.435804931640625,1.849110448104143,-1.235292321306467,3.0240368557751176
1746277987529784000,5.4457841796875,1.9466198052197694,-1.306241003754735,3.0249048707813024
1746277987539763000,5.455762939453125,2.0720678473576903,-1.3471072671502828,3.0674206549495455
1746277987549742000,5.4657421875,2.17959503287971,-1.427660228767991,3.0864678852468725
1746277987559721000,5.475720947265625,2.383104804341495,-1.4980126988887785,3.1862031017184256
1746277987569700900,5.485700927734375,2.55692378641665,-1.4847972434848546,3.3411054941385983
1746277987579680000,5.495679931640625,2.652514158168435,-1.5043945088803767,3.5244928072869777
1746277987589659000,5.505658935546875,2.7792513633340596,-1.569658131429553,3.556903377026319
1746277987599637500,5.515637451171875,2.826838167156279,-1.6426169846564531,3.502337089580297
1746277987609616600,5.52561669921875,2.802794736006856,-1.7014906139075756,3.4087931289643048
1746277987619595500,5.535595458984375,2.7343115668892857,-1.7737334278196095,3.1771845134824512
1746277987629574700,5.54557470703125,2.5636703380674124,-1.7946739245176315,2.795250896498561
1746277987639553500,5.555553466796875,2.3037135799795387,-1.7972709552735089,2.394870937719941
1746277987649532700,5.56553271484375,1.9880800889857113,-1.7553215728163718,1.9887614953786135
1746277987659511600,5.575511474609375,1.646058357281983,-1.7118097633481024,1.6039771651387214
1746277987669490700,5.58549072265625,1.3523647492870687,-1.6880027713030576,1.2231518016576766
1746277987679469600,5.595469482421875,1.081268757547438,-1.6879279525011777,0.9264467368870973
1746277987689448700,5.60544873046875,0.8595072900801897,-1.7124281875073908,0.7908844202309846
1746277987699427600,5.615427490234375,0.6232032102584838,-1.7115929057270287,0.5716133082747459
1746277987709406700,5.62540673828125,0.47401101217865943,-1.6522715327084063,0.25193010349869727
1746277987719385600,5.635385498046875,0.5073556478977203,-1.54346044485569,-0.11979542320370673
1746277987729364700,5.64536474609375,0.5473106416672467,-1.4333400279700754,-0.36427024226039645
1746277987739343600,5.655343505859375,0.499859885314852,-1.3928987119883298,-0.4907645785808563
1746277987749322500,5.665322509765625,0.4045212963670492,-1.4009388105809688,-0.6660314213767647
1746277987759301400,5.67530126953125,0.29144962846040723,-1.456898013690114,-0.8920371022850274
1746277987769280500,5.685280517578125,0.13307298405840992,-1.6576438733965158,-1.1288044157043098
1746277987779259400,5.69525927734375,0.05354995001032948,-1.7862538866966962,-1.5206860107287763
1746277987789238500,5.705238525390625,0.15413038513436914,-1.469803672492504,-2.272725736519694
1746277987799217400,5.715217529296875,0.32082945220172404,-0.7732897268295288,-3.043066258154809
1746277987809196500,5.725196533203125,0.2599894913136959,0.018587796092033385,-3.5451164931207892
1746277987819175400,5.735175537109375,-0.05133271235227584,0.7916267630308866,-3.8327056467607616
1746277987829155300,5.7451552734375,-0.332001857470721,1.6060726761132478,-4.1522304461047055
1746277987839134500,5.755134521484375,-0.39108606073260305,2.412843816784024,-4.509815511512756
1746277987849113300,5.76511328125,-0.40708318274430927,3.1164626260161397,-4.843029521252214
1746277987859092500,5.775092529296875,-0.5013940360795707,3.6143192086845635,-5.117105697846412
1746277987869071400,5.7850712890625,-0.6696674397915602,3.9583495037317276,-5.374006575495004
1746277987879050500,5.795050537109375,-0.8328974425088613,4.188367635151744,-5.492469288790225
1746277987889029400,5.805029296875,-0.964390975356102,4.429227478581667,-5.587201582407951
1746277987899008500,5.815008544921875,-1.1296797372341156,4.785915595149993,-5.6944800538659095
1746277987908987600,5.824987548828125,-1.3847954850316047,5.184032285171747,-5.756468600267172
1746277987918966500,5.834966552734375,-1.7458160778462886,5.41758034428358,-5.610256294780969
1746277987928945700,5.844945556640625,-2.1702853527426718,5.556119046401977,-5.34077884415388
1746277987938924500,5.854924560546875,-2.692493701857328,5.5281987738192075,-4.909413380002976
1746277987948903700,5.864903564453125,-3.2018542598366735,5.269039303588867,-4.3095913375929
1746277987958882600,5.874882568359375,-3.642695992863178,4.832597266826033,-3.5905198154240843
1746277987968861700,5.88486181640625,-3.885728504157066,4.254310472136735,-2.8834231009483338
1746277987978840600,5.894840576171875,-3.9284628995120525,3.6480659954637287,-2.2154490210711955
1746277987988819700,5.90481982421875,-3.8452082777202126,2.9941666181683537,-1.550465062920749
1746277987998798600,5.914798583984375,-3.6896564814805983,2.3386960460335016,-0.9252972745910286
1746277988008777700,5.92477783203125,-3.486443939399719,1.7151543976008892,-0.4049810228332877
1746277988018756600,5.934756591796875,-3.2019010215878483,1.1897609887093306,-0.025068974804878234
1746277988028735700,5.94473583984375,-2.8869278941988945,0.7672007623046636,0.19867022247612476
1746277988038714600,5.954714599609375,-2.579137371790409,0.4218079467326402,0.3276408857822418
1746277988048693500,5.964693603515625,-2.3220038544297217,0.08187456561028957,0.4412748637467622
1746277988058672400,5.97467236328125,-2.053177561187744,-0.2043681418567896,0.5039174901425838
1746277988068651500,5.984651611328125,-1.7848878590404986,-0.3908703721553087,0.528701218265295
1746277988078631700,5.994631591796875,-1.5314502735882998,-0.5434715018957853,0.6208797357469796
1746277988088610300,6.0046103515625,-1.1850456506252287,-0.7572697353988885,0.7674643816769122
1746277988098589400,6.01458935546875,-0.7988327488869428,-0.9726911861896514,1.0151438419938086
1746277988108568300,6.024568359375,-0.40061552110016346,-1.193686053198576,1.248272798910737
1746277988118547500,6.03454736328125,0.003665536770224571,-1.3435674025863409,1.4598475111454725
1746277988128526300,6.0445263671875,0.36902503557205196,-1.4755232191830872,1.7428484602123497
1746277988138505500,6.05450537109375,0.6732324387967586,-1.608793040987849,2.0119979940593242
1746277988148484400,6.064484375,0.9160212775278836,-1.6782786651462316,2.306225270539522
1746277988158463500,6.07446337890625,1.0905442431539296,-1.6489923649072646,2.5126380699664352
1746277988168442400,6.0844423828125,1.1872438913218677,-1.630477634051442,2.702346987351775
1746277988178421500,6.09442138671875,1.2880844386868178,-1.5450497598737478,2.833482719737291
1746277988188400400,6.104400390625,1.3967415050216019,-1.336359078642726,2.8775410571724174
1746277988198379500,6.114379638671875,1.497171718019992,-1.06003220051229,2.942845011731982
1746277988208358400,6.1243583984375,1.6224739219464361,-0.7666746926039457,2.9972534782677887
1746277988218337500,6.134337646484375,1.7482013655476272,-0.38668987160027024,3.0709125887185333
1746277988228316700,6.144316650390625,1.9162993396274743,0.0409124406248331,3.180553113132715
1746277988238295600,6.154295654296875,2.089145092756301,0.5142325479298829,3.2732857573658225
1746277988248274700,6.164274658203125,2.21726863771379,1.0116729510128497,3.388704280659556
1746277988258253600,6.174253662109375,2.2771961599320174,1.5242290901631117,3.544159630787372
1746277988268232700,6.184232666015625,2.266958405164629,1.9761019202917813,3.7618706538200377
1746277988278211600,6.194211669921875,2.2286820121318103,2.3666022900909183,3.9616076287448405
1746277988288190700,6.204190673828125,2.1760009539104996,2.709593889740109,4.163446544384956
1746277988298169600,6.214169677734375,2.0992378860950467,2.923095186123252,4.359986769095063
1746277988308148700,6.224148681640625,1.9839922351501882,3.0096318983256816,4.509494608995318
1746277988318127600,6.234127685546875,1.8339776147715747,3.028530660063028,4.591014954340458
1746277988328107500,6.244107421875,1.622529305395484,3.0444734946042296,4.560248644676804
1746277988338086700,6.254086669921875,1.3102607607901096,2.984089460790157,4.452402602463961
1746277988348065500,6.2640654296875,1.0414467425078153,2.8995383694469927,4.250643181800842
1746277988358044700,6.274044677734375,0.8020027572251855,2.8353830004006624,3.959731898000836
1746277988368023600,6.2840234375,0.6893250570721924,2.8319588711708783,3.5564170548141
1746277988378002700,6.294002685546875,0.6744745478123426,2.817733361941576,3.155412826657295
1746277988387981300,6.303981201171875,0.6799993025831877,2.7994436720132825,2.8561481405317783
1746277988397960400,6.31396044921875,0.6400415323346853,2.7911539825737472,2.542678403443098
1746277988407939300,6.323939208984375,0.546478940083459,2.956698180517554,2.13233643809855
1746277988417918500,6.33391845703125,0.36186413096673786,3.4975177065998313,1.5493074173182249
1746277988427897300,6.3438974609375,0.057276130926609034,4.160494708842039,1.0237006579369305
1746277988437876500,6.35387646484375,-0.37298750946223735,4.686359826898575,0.751394121363759
1746277988447855400,6.36385546875,-0.9732815532982348,4.790148118153214,0.7403092482477426
1746277988457834500,6.37383447265625,-1.752743831282854,4.544803822785616,0.9805705412626265
1746277988467813400,6.3838134765625,-2.599406252837181,4.108987808966637,1.1397288375616073
1746277988477792500,6.39379248046875,-3.519008822917938,3.6304683794528243,1.0542974562525749
1746277988487771400,6.403771484375,-4.415776460856199,3.206228237137198,0.7688812627375126
1746277988497750500,6.41375048828125,-5.25898085091114,2.6963182285815477,0.3347159387350082
1746277988507729400,6.4237294921875,-5.834360818243026,2.188614790159464,-0.31501755105257034
1746277988517708500,6.43370849609375,-6.162329036283492,1.7342115647703409,-1.1012883400082587
1746277988527687400,6.4436875,-6.2356105455935,1.339122698137164,-1.872656158864498
1746277988537666600,6.45366650390625,-6.071282737702131,0.9812608616143464,-2.5199399174124
1746277988547645700,6.463645751953125,-5.7957975710928435,0.7228817281067371,-2.983213554738462
1746277988557624600,6.47362451171875,-5.383140314543247,0.5823024600714445,-3.271673353733122
1746277988567604500,6.4836044921875,-4.833999534839392,0.5985054068535566,-3.3493615735694764
1746277988577583600,6.49358349609375,-4.158756340742111,0.6768979755669832,-3.2888755406856536
1746277988587562500,6.5035625,-3.542328908228874,0.681558953115344,-3.245330413469672
1746277988597541600,6.513541748046875,-2.977428249335289,0.5984305880516767,-3.18004954752475
1746277988607520500,6.5235205078125,-2.3981214639484882,0.4252753305822611,-3.10266147967875
1746277988617499600,6.533499755859375,-1.7935457972705364,0.1693184557855129,-2.9746500167936083
1746277988627478500,6.543478515625,-1.2554396218001842,-0.23748422951698303,-2.797626685719192
1746277988637457700,6.553457763671875,-0.7890800011575222,-0.8066314399391412,-2.64962340516299
1746277988647436500,6.5634365234375,-0.4350596424937248,-1.3908756817281245,-2.6149188792675733
1746277988657415700,6.573415771484375,-0.1334089745471254,-1.897218353191018,-2.6504192317157984
1746277988667394600,6.58339453125,0.11380286825802177,-2.3759271677970886,-2.7129855780050156
1746277988677373700,6.593373779296875,0.2910159132182598,-2.828695485460758,-2.786815076586604
1746277988687352600,6.6033525390625,0.4306991091966629,-3.1323388250619173,-2.9172344773963093
1746277988697331700,6.613331787109375,0.5062590848326682,-3.3337551313757894,-3.0300594770655036
1746277988707310600,6.623310546875,0.5643833570212126,-3.3897277784883975,-3.1076024432122704
1746277988717289700,6.633289794921875,0.6134943016707897,-3.375612159374356,-3.1461259428739545
1746277988727268600,6.6432685546875,0.6836071178168058,-3.3067326844155787,-3.1823610393375157
1746277988737247700,6.653247802734375,0.7361153036892414,-3.157876586422324,-3.1812294049590824
1746277988747226600,6.6632265625,0.8230302015542984,-2.8942870247900485,-3.0965277992293236
1746277988757205800,6.673205810546875,0.9292571181327104,-2.6622335881501433,-2.922283577479422
1746277988767184600,6.6831845703125,0.9768073893368243,-2.4495371784090993,-2.678601954627037
1746277988777163800,6.693163818359375,0.932581294119358,-2.268479769513011,-2.3908152325883507
1746277988787142700,6.703142578125,0.7591162400484085,-1.9991963801532984,-2.178203870782256
1746277988797122800,6.713122802734375,0.5395435147970915,-1.6713193475276231,-2.0079057563096283
1746277988807101700,6.723101806640625,0.3173492088705301,-1.4340601589381694,-1.867533409023285
1746277988817080800,6.733080810546875,0.049587329989671705,-1.3795266047179697,-1.645218691587448
1746277988827059700,6.743059814453125,-0.24595570526421068,-1.459878490805626,-1.4599614929139613
1746277988837038800,6.753038818359375,-0.5250894575089216,-1.5053952103555202,-1.3157891688227652
1746277988847017700,6.763017822265625,-0.7819874125480651,-1.4994582215219736,-1.1295642941609025
1746277988856996600,6.77299658203125,-1.0532722048580645,-1.5114233846038578,-0.9567407528638839
1746277988866975500,6.7829755859375,-1.3185188860476016,-1.4534937582045793,-0.8183934816643595
1746277988876954600,6.79295458984375,-1.5045184275209902,-1.2665882078021764,-0.6382286376938223
1746277988886933500,6.80293359375,-1.5997078172564505,-1.0015648139744997,-0.4846884735375642
1746277988896912600,6.81291259765625,-1.6086732140004634,-0.7630600092381239,-0.30325580158829685
1746277988906891500,6.8228916015625,-1.469455297446251,-0.5245616342425347,-0.281194484166801
1746277988916870700,6.83287060546875,-1.1875620173603296,-0.2571972302466631,-0.4881374449476599
1746277988926849500,6.842849609375,-0.8101333105802535,-0.11321896742284297,-0.7613225179210305
1746277988936828700,6.85282861328125,-0.4946072254836559,-0.03674772216081619,-1.1835264782339334
1746277988946807600,6.8628076171875,-0.1894581574946642,-0.08230769633054733,-1.7086548064485192
1746277988956786700,6.87278662109375,0.15853873962853102,-0.25309973179996015,-2.166301251542568
1746277988966765600,6.882765625,0.4948597754726186,-0.5209270771324634,-2.4708038383215665
1746277988976744700,6.89274462890625,0.8487024029493332,-0.8653548470646143,-2.6176281382262707
1746277988986723600,6.9027236328125,1.1986533202171326,-1.052709894800186,-2.6831644402369856
1746277988996702700,6.91270263671875,1.4387918636351822,-0.9604992286145686,-2.5496114175766706
1746277989006681600,6.922681640625,1.5847224295705555,-0.7570715824782848,-2.1430556927725672
1746277989016660700,6.93266064453125,1.625925377574563,-0.5405021306961775,-1.6867925187304615
1746277989026640600,6.942640625,1.6220651950150726,-0.15082301415205002,-1.2670391664400695
1746277989036619800,6.952619873046875,1.6122610093593597,0.2705044555872679,-0.8811401529565454
1746277989046598700,6.9625986328125,1.536498204627633,0.7091063007324934,-0.5616919259801507
1746277989056577800,6.972577880859375,1.4261778812557457,1.187048222619295,-0.3148389796152711
1746277989066556700,6.982556640625,1.2509078235894442,1.7284031707525251,-0.19832330873459578
1746277989076535800,6.992535888671875,1.0530664531528948,2.052275059390068,-0.10742577097415923
1746277989086514700,7.0025146484375,0.7735188594102859,2.152315980809927,0.01650046842396259
1746277989096493800,7.012493896484375,0.4638245492070913,2.062122499665618,0.15563129121661184
1746277989106472700,7.02247265625,0.12529811227321624,1.7796067037671803,0.14614625451266763
1746277989116451800,7.032451904296875,-0.15482172839939592,1.3841712156534194,0.04193739975839853
1746277989126430700,7.0424306640625,-0.4104753094006329,0.8794774804413318,-0.1220803192704916
1746277989136409900,7.052409912109375,-0.6541846239775418,0.32048049263358114,-0.24959698437601327
1746277989146388700,7.062388671875,-0.8581196351140737,-0.1557160468906164,-0.3572589021936059
1746277989156367600,7.07236767578125,-0.9714912358153611,-0.39135669436752796,-0.4954746559679508
1746277989166346500,7.082346435546875,-0.9813410141784698,-0.5101151757389307,-0.6102838151916861
1746277989176325600,7.09232568359375,-0.8148217606574296,-0.6319055721521377,-0.5841290909767151
1746277989186304500,7.102304443359375,-0.44666364411301906,-0.7001344742476939,-0.5373489273622631
1746277989196283600,7.11228369140625,0.012252163329720496,-0.5393488690078259,-0.6192421976730227
1746277989206262500,7.122262451171875,0.5740987684149295,-0.3238941004693508,-0.798060303209722
1746277989216241700,7.13224169921875,1.0949224582381545,-0.08755611837804317,-1.0342170835152267
1746277989226221600,7.1422216796875,1.5425651034511625,0.08302607373297215,-1.2262693491563201
1746277989236200400,7.152200439453125,1.947873604673147,0.02771393635571003,-1.2175778009176255
1746277989246179600,7.1621796875,2.2866011171370744,-0.06311842721402645,-1.187790565419197
1746277989256158500,7.172158447265625,2.485199443420768,-0.06469137561917304,-1.226123803205788
1746277989266137600,7.1821376953125,2.439708588964492,-0.06704056909382343,-1.2752283181145787
1746277989276116700,7.19211669921875,2.1964679878778752,-0.18178806125819683,-1.2483636920645833
1746277989286095600,7.202095703125,1.8758840348698198,-0.43768823743164537,-1.1893521156474947
1746277989296074800,7.21207470703125,1.5744425892271101,-0.7051952647686004,-1.1951090717390178
1746277989306053600,7.2220537109375,1.350757752481848,-0.9140642251759767,-1.216625614759326
1746277989316032800,7.23203271484375,1.1653355725049972,-1.123060026833415,-1.237227965544164
1746277989326011600,7.24201171875,1.070511508950591,-1.187577799451351,-1.3840055036976933
1746277989335990800,7.25199072265625,1.1176662049658597,-1.0779688392192124,-1.582811919774115
1746277989345969700,7.2619697265625,1.2872855433940886,-0.8408698096275329,-1.8098828918263314
1746277989355948800,7.27194873046875,1.4716894862391054,-0.6287608443856239,-1.954380794610083
1746277989365927700,7.281927734375,1.5905426601566373,-0.49593350565135474,-2.023299724796414
1746277989375906800,7.29190673828125,1.5652702717341482,-0.2885661819785833,-2.051995365665853
1746277989385885700,7.3018857421875,1.385681766346842,0.035928806993365286,-2.049569015301764
1746277989395864800,7.31186474609375,1.189894259700179,0.26500702721476554,-1.912509445825219
1746277989405843700,7.32184375,0.8680307882755994,0.4807371055632829,-1.7560533942222594
1746277989415823600,7.33182373046875,0.5431782180376351,0.665007046765089,-1.5194284118831156
1746277989425802800,7.341802734375,0.4074883294790983,0.7934194916665553,-1.1802750752225517
1746277989435781600,7.35178173828125,0.5604442640066146,0.8756114526629447,-0.7988108293160796
1746277989445760800,7.3617607421875,0.7213279227934777,1.07062549071908,-0.542140545552969
1746277989455739600,7.37173974609375,0.900056596481055,1.3237614628762007,-0.2800216409951448
1746277989465718800,7.38171875,1.0408861860156058,1.3755571165651082,0.030189386558532712
1746277989475697700,7.39169775390625,1.2715695033460854,1.2415554733544587,0.2854553564816713
1746277989485676800,7.4016767578125,1.5910202145405112,0.9927163216084242,0.6601292115956544
1746277989495655400,7.411655517578125,1.9315699739955365,0.7043857019513845,1.1176648897916077
1746277989505634600,7.421634521484375,2.193323698502779,0.4971931503236294,1.4547422969609498
1746277989515613400,7.431613525390625,2.347801728031039,0.32576983121335507,1.6350550249695777
1746277989525592600,7.441592529296875,2.4365588927619157,0.15119301650822162,1.6798486909419297
1746277989535571500,7.451571533203125,2.4436310231052336,0.07162965044975281,1.5547165828853844
1746277989545550600,7.461550537109375,2.3635154299914833,0.06147708974778652,1.3219284022301434
1746277989555529500,7.471529541015625,2.2389644828237594,0.06169277832508087,1.1303852551549673
1746277989565508600,7.481508544921875,2.0554362998999656,0.07836684975028038,1.0358546215891837
1746277989575487500,7.491487548828125,1.8598948769688606,0.12144494397640228,0.949183469352126
1746277989585466600,7.501466552734375,1.6776766075998544,0.31468904975056644,0.8007412128567695
1746277989595446500,7.511446533203125,1.4919564675897359,0.5889841297924518,0.66416591976583
1746277989605426200,7.52142626953125,1.2579372838348148,0.8585445825278758,0.5727046106427908
1746277989615405000,7.531405029296875,0.9944454104233532,1.1531453684955835,0.5508639502346515
1746277989625384200,7.54138427734375,0.7575245138775557,1.4149410324484109,0.5991916355520487
1746277989635363000,7.551363037109375,0.542054620835185,1.622991662210226,0.7134586507230997
1746277989645342200,7.56134228515625,0.27756727011296894,1.8048761695802211,0.8538789288043975
1746277989655321000,7.571321044921875,-0.030444786091707646,1.9165251112073658,0.9988052861332892
1746277989665300200,7.58130029296875,-0.39706805775165555,2.028833393526077,1.0934878953903913
1746277989675279000,7.591279052734375,-0.8424035950660705,2.0186422543793916,1.1888047108978033
1746277989685258200,7.60125830078125,-1.255863400170207,1.9567723659217358,1.2685504477858542
1746277989695237000,7.611237060546875,-1.6085592322319746,1.8599556672453879,1.2567390139609576
1746277989705216300,7.62121630859375,-1.8894144014418124,1.7778221584379672,1.2321937707692383
1746277989715195100,7.631195068359375,-2.039198135674,1.7356348755717277,1.20410398683846
1746277989725174300,7.64117431640625,-2.1171312701821328,1.7329571807950734,1.1427642597347498
1746277989735153000,7.65115283203125,-2.109554697448015,1.7928198210835455,1.092916232982278
1746277989745132000,7.661132080078125,-2.04781398832798,1.933621207436919,1.109094629845023
1746277989755111000,7.67111083984375,-1.9614555553019046,2.025994955229759,1.2959364673614502
1746277989765090000,7.681090087890625,-1.7925836742401122,2.1637755324572323,1.5054758743762968
1746277989775070000,7.691070068359375,-1.5854595116734505,2.4373212554365393,1.6046294915676116
1746277989785049000,7.701049072265625,-1.383064131194353,2.746486573329568,1.6158271774083375
1746277989795028000,7.711028076171875,-1.2298890009582042,2.9425960054069757,1.750110560169816
1746277989805007000,7.721007080078125,-1.162017826259136,2.9823779806971547,1.981826143157482
1746277989814986000,7.730986083984375,-1.23027010923028,2.87639948592186,2.2338287273705006
1746277989824965000,7.740965087890625,-1.3835796795010566,2.6825316952914,2.509917705091834
1746277989834944000,7.750944091796875,-1.5994389371871947,2.3592776462912557,2.6753637033581734
1746277989844923100,7.760923095703125,-1.8158710263252258,2.0864017853975296,2.5907050599873065
1746277989854902000,7.770902099609375,-2.017878284269571,1.7943945230543612,2.499969727051258
1746277989864881200,7.780881103515625,-2.201867070442438,1.4000889157533645,2.5006284832209347
1746277989874860000,7.790860107421875,-2.308257068628073,0.9762158531844616,2.568512517401576
1746277989884839200,7.800839111328125,-2.3173545673191547,0.5682967310726642,2.619246094816923
1746277989894818000,7.810818115234375,-2.1703531572818755,0.1753717644751072,2.665061505052447
1746277989904797200,7.820797119140625,-1.9960101513326167,-0.22192425681352615,2.7234675167918203
1746277989914776000,7.830776123046875,-1.7528513833105563,-0.6672323215991258,2.777245868730545
1746277989924755200,7.840755126953125,-1.533620603364706,-1.033601289704442,2.686296600782871
1746277989934734000,7.850734130859375,-1.290088764246553,-1.2275105813890694,2.40011351454854
1746277989944713200,7.860713134765625,-1.0048703583259135,-1.2382757210314272,2.1062690999060867
1746277989954693000,7.870693115234375,-0.6895172186434269,-1.1429495531737803,1.8198744167476892
1746277989964672000,7.880672119140625,-0.4273953914761543,-0.9615776715010405,1.5214076030015944
1746277989974651100,7.890651123046875,-0.19226210899949073,-0.7452268309056759,1.3053735732704401
1746277989984630000,7.900630126953125,-0.004435315566323698,-0.4602618882894516,1.2143383806049823
1746277989994609200,7.910609130859375,0.1672316761067137,-0.15260405234992502,1.2122709266811609
1746277990004588000,7.920588134765625,0.2881353893458843,0.1446972247481346,1.2160153739064932
1746277990014567200,7.930567138671875,0.34907647252082824,0.47525545928180213,1.2048223642408846
1746277990024546000,7.940546142578125,0.40735798109769816,0.8793459630161523,1.2630302230596542
1746277990034525200,7.950525146484375,0.4523439547717571,1.1824322532564402,1.4536112471044063
1746277990044504000,7.960504150390625,0.5265303039669991,1.3893945032596586,1.6809715574920177
1746277990054483200,7.970483154296875,0.6186638132631779,1.4825819055229426,1.906239279514551
1746277990064462000,7.980462158203125,0.7796259441137313,1.3613923976123332,2.162905763885379
1746277990074441000,7.99044091796875,0.9224258108079433,1.0867074414700268,2.3074141880631447
1746277990084419800,8.000419921875,1.005986137548089,0.7746212676942348,2.230918392881751
1746277990094399000,8.01039892578125,1.015923009672761,0.4046604125767946,2.043865542963147
1746277990104378000,8.020378173828124,0.9808405903756618,-0.026367197921872136,1.7764117071181535
1746277990114357000,8.03035693359375,0.9843436300605535,-0.31494097868502136,1.4668699571281671
1746277990124336000,8.040336181640624,1.026784595426917,-0.4317658616453409,1.2371651294410229
1746277990134315000,8.05031494140625,1.1206389371663332,-0.40630817978382106,1.2450661118239164
1746277990144294100,8.060294189453124,1.3547715181678532,-0.11306757625341415,1.7406576721698044
1746277990154274000,8.070274169921875,1.712968870255351,0.11890519636571406,2.117220117509365
1746277990164253000,8.0802529296875,2.149582756453752,0.14575871649980543,1.881985128223896
1746277990174232000,8.090232177734375,2.5321219381153584,0.024856208837032316,0.8766735289365053
1746277990184211000,8.1002109375,2.749281757006049,-0.1111000755727291,-0.35299393822550773
1746277990194190000,8.110190185546875,2.44425777670145,-0.3507289159029722,-1.090677806405723
1746277990204169000,8.1201689453125,1.27555243550241,-0.7179793430179358,-1.512089155036211
1746277990214148000,8.130148193359375,0.8796317942202091,-1.174908872014284,-2.286037053513527
1746277990224127000,8.140126953125,0.5458510905086994,-1.582850790479779,-2.372263092331588
1746277990234106000,8.150106201171875,0.1374930107240565,-1.8415514110267162,-1.8277976109623908
1746277990244085000,8.1600849609375,0.3392974213063717,-1.8230998085349797,-1.7156462727710604
1746277990254064000,8.170064208984375,0.8113894481211901,-1.7450287268608808,-1.7286115528061985
1746277990264043000,8.18004296875,1.2686638450324534,-1.7677426629722117,-1.716146915769577
1746277990274022100,8.190022216796875,1.7272177603602408,-1.8378753528624772,-1.7181041873171925
1746277990284001000,8.2000009765625,2.0863035857200622,-1.9658312861680984,-1.767728926707804
1746277990293980200,8.209980224609374,2.376739653223753,-2.123880159920454,-1.9671327241554855
1746277990303959000,8.219958984375,2.5568647497057913,-2.197131274092197,-2.2888573716312646
1746277990313938200,8.229938232421874,2.591934894043207,-2.2839210842728614,-2.59351427218914
1746277990323917000,8.2399169921875,2.5052555584996936,-2.380504558715224,-2.7683351247832175
1746277990333896200,8.249896240234374,2.3553987590312957,-2.3878555059999225,-2.84354614085108
1746277990343876000,8.2598759765625,2.1027929482281205,-2.2938147017776966,-2.8522350587412713
1746277990353855200,8.269855224609374,1.8608692749589681,-2.1255390330433843,-2.7978607867360115
1746277990363834000,8.279834228515625,1.6891519413381815,-1.9753350275725126,-2.764596815037727
1746277990373813200,8.289813232421874,1.5300941828042267,-1.8360428767383097,-2.694731836172938
1746277990383792000,8.299792236328125,1.3587854299843312,-1.739144344997406,-2.6024215090051293
1746277990393771300,8.309771240234374,1.1310936956852673,-1.7459604547530412,-2.5628689585566518
1746277990403750100,8.319750244140625,0.8623878139525651,-1.7808955745339392,-2.546726509790122
1746277990413729000,8.32972900390625,0.6225450386106968,-1.8479180234491823,-2.512149994188547
1746277990423708000,8.3397080078125,0.41790626311898227,-1.9764269144624471,-2.460885086375475
1746277990433687000,8.34968701171875,0.24789107550727202,-2.0943618044912813,-2.414970599679649
1746277990443666000,8.359666015625,0.08838613946139812,-2.1420237193763256,-2.3208958931878207
1746277990453645000,8.36964501953125,-0.03656184419989586,-2.1593957099378107,-2.1588702247589824
1746277990463624000,8.3796240234375,-0.12682081006215884,-2.0847201159209012,-2.0244258062168954
1746277990473603000,8.38960302734375,-0.14866319663650354,-1.9570108508527277,-1.8072016899183392
1746277990483582000,8.39958203125,-0.0848129480165895,-1.8164800981342792,-1.4715592839881777
1746277990493561000,8.40956103515625,0.0489613161789719,-1.7332354132145642,-1.2006783963039516
1746277990503540000,8.4195400390625,0.2183668565928936,-1.6135241611629723,-0.9905246567830442
1746277990513519000,8.42951904296875,0.3112625824332237,-1.5534803190886974,-0.731298551057279
1746277990523498000,8.439498046875,0.346702729126811,-1.5589549511075018,-0.4201934972733259
1746277990533478100,8.44947802734375,0.37255437874197955,-1.5886930867671967,-0.22556933531761167
1746277990543457000,8.45945703125,0.4066425263047218,-1.4860375989347696,-0.22724223696589468
1746277990553436200,8.469436279296875,0.43960956088304515,-1.2407552628874778,-0.27609803781062364
1746277990563415000,8.4794150390625,0.4039104709923267,-0.938058848747611,-0.2881502946540713
1746277990573394200,8.489394287109375,0.2870855880320072,-0.6720546271890402,-0.20798048713505266
1746277990583373000,8.499373046875,0.1426753635317087,-0.46918227684795855,-0.07947861038446426
1746277990593352200,8.509352294921875,0.06696925285670441,-0.3353706032514572,-0.027169746476411818
1746277990603330000,8.519330078125,-0.00041209021551767363,-0.098673724719882,-0.10378040020912885
1746277990613309200,8.52930908203125,-0.08819558532536029,0.2082014364093542,-0.23706980349719523
1746277990623287800,8.539287841796876,-0.1930301707625389,0.5559066205769777,-0.4022694257870316
1746277990633267000,8.549266845703125,-0.31907880914211273,0.9050824618190526,-0.5585848998755216
1746277990643245800,8.559245849609376,-0.3632581426084041,1.3109820608019829,-0.7615478511095046
1746277990653225000,8.569224853515625,-0.2532102064371109,1.9247516722828149,-1.030188266390562
1746277990663203800,8.579203857421875,0.014526538002490997,2.876101964280009,-1.4341826162740587
1746277990673183000,8.589182861328124,0.2762321855843067,4.060831388562917,-1.9521812387391924
1746277990683161900,8.599161865234375,0.3749485804021358,5.4717848126798865,-2.4023674309551715
1746277990693141000,8.60914111328125,0.2013525934278965,6.71612903997004,-2.534237322834134
1746277990703120000,8.619119873046875,-0.1798223324094899,7.709200750887393,-2.532385557487607
1746277990713099000,8.62909912109375,-0.617523995578289,8.395783669644594,-2.50429285094738
1746277990723078000,8.639077880859375,-0.9692191261649131,8.717713192042709,-2.5011294184803963
1746277990733058000,8.64905810546875,-1.2388801166653631,8.36628635700345,-2.190736604619026
1746277990743037000,8.659036865234375,-1.3701765925705431,7.466804199409484,-1.939369395700097
1746277990753016000,8.66901611328125,-1.424569861537218,6.359574194392562,-1.877861326292157
1746277990762995000,8.678994873046875,-1.543006855869293,5.168144395688175,-1.8701444683045148
1746277990772974000,8.68897412109375,-1.793149491429329,4.050813267895579,-1.781953559154272
1746277990782953000,8.698952880859375,-2.1482512155890463,3.0330168655663727,-1.5771487794458865
1746277990792932000,8.70893212890625,-2.490318101608753,2.1949369789183137,-1.2426532054632902
1746277990802911000,8.718910888671875,-2.6737948466062544,1.6496885304778814,-0.9430021503686904
1746277990812890000,8.72889013671875,-2.683620659571886,1.3543454017102718,-0.5261345826476812
1746277990822869000,8.738868896484375,-2.5511247447490693,1.1753560312598943,0.15880758316516874
1746277990832848100,8.74884814453125,-2.234917107129097,1.0864262864410876,0.9739525844275951
1746277990842827000,8.758826904296875,-1.800599807435274,1.0638444522768258,1.6630045236468314
1746277990852806100,8.76880615234375,-1.3829571636885403,0.9243687615692615,2.3607629164129493
1746277990862785000,8.778784912109375,-0.9631371759027242,0.664596712398529,2.9445997464448213
1746277990872764200,8.78876416015625,-0.5651783067911863,0.3645703942507505,3.333961467602849
1746277990882743000,8.798742919921875,-0.19594810403585433,-0.0050339025139808655,3.5888130115061996
1746277990892722200,8.80872216796875,0.11655483384728431,-0.4420692289948463,3.7252006730705496
1746277990902701000,8.818701171875,0.3296409735582769,-0.8897580514371395,3.7487019601672884
1746277990912680000,8.828679931640625,0.564724206348136,-1.2642699939876794,3.7148639879733323
1746277990922658800,8.838658935546874,0.8104197263062,-1.5675491764515637,3.5209961973428725
1746277990932639200,8.84863916015625,1.0297988286815583,-1.8137427821248768,3.2728619789958
1746277990942618000,8.8586181640625,1.332091484326124,-2.0143173769176004,3.038435383483767
1746277990952597200,8.86859716796875,1.686625345470011,-2.2522516882896424,2.912885342276096
1746277990962576000,8.878575927734374,2.0139739703074095,-2.485185999417305,2.8037241258114576
1746277990972555000,8.888554931640625,2.3274106819093228,-2.5829355950295922,2.6893665097475052
1746277990982534000,8.898533935546874,2.6115686920568346,-2.5757909839719533,2.5632950750142336
1746277990992513000,8.908512939453125,2.84608355037421,-2.492147655123472,2.4245126272678372
1746277991002492000,8.918491943359374,3.055992667484283,-2.3658745603382587,2.334636541509628
1746277991012471000,8.928470947265625,3.192304633463919,-2.2428923237919807,2.2398569016188383
1746277991022450000,8.938449951171876,3.3059272132515907,-2.067304870739579,2.098963745328784
1746277991032429000,8.948428955078125,3.4031630141228435,-1.7964421032339333,1.9609552045643328
1746277991042408000,8.958407958984376,3.3509313071042297,-1.4459142628610133,1.9045669623881578
1746277991052387000,8.968386962890625,3.1102278232797977,-1.1582798087745905,1.8791180483549832
1746277991062366000,8.978365966796876,2.6754154335454103,-0.9048322864502668,1.75178112373054
1746277991072345000,8.988344970703125,2.03337922026217,-0.6665577833384275,1.597439287802577
1746277991082324000,8.998323974609375,1.3075436107859015,-0.5067191035598516,1.4555875156134366
1746277991092303000,9.00830322265625,0.5174427421480416,-0.3947884223818779,1.299776776176691
1746277991102282000,9.018281982421875,-0.22591595679819582,-0.3304553586810827,1.1509966660290956
1746277991112261000,9.02826123046875,-0.89559450250566,-0.37663784866333005,1.0318827953487635
1746277991122240000,9.038239990234375,-1.4471470195263623,-0.4189478811264038,0.8965987111121415
1746277991132220000,9.048219970703125,-1.8933155005335807,-0.43306992998123167,0.8771651118457316
1746277991142199000,9.058198974609375,-2.2526649452656504,-0.4424935918867588,0.9821171861827372
1746277991152178200,9.06817822265625,-2.5051433302968737,-0.5164186597973108,1.207132394748926
1746277991162157000,9.078156982421875,-2.633755681684613,-0.6179723238676786,1.493670285770297
1746277991172136200,9.08813623046875,-2.637795896986127,-0.7182949848383665,1.8133517369806766
1746277991182115000,9.098114990234375,-2.541510528707504,-0.8959721036463976,2.140251449006796
1746277991192094200,9.10809423828125,-2.3437299485474825,-1.1192144573211669,2.451056350800395
1746277991202073000,9.118072998046875,-2.018876939918101,-1.3926058665215968,2.6989590984791514
1746277991212052200,9.12805224609375,-1.570517670868337,-1.6530039386361837,2.851620433974266
1746277991222031000,9.138031005859375,-1.1311676377043127,-1.8468635459601879,2.893552865296602
1746277991232010200,9.14801025390625,-0.7240241761401295,-2.0399895783126354,2.8954888017952443
1746277991241989000,9.157989013671875,-0.29899171440303324,-2.209468777617812,2.861058708927035
1746277991251968300,9.16796826171875,0.12153232999891042,-2.2369395528674123,2.724596813082695
1746277991261947000,9.17794677734375,0.6839205676801502,-2.008328365635872,2.500031686371565
1746277991271926000,9.187926025390626,1.2333652987666428,-1.5585376024782656,2.352529341074824
1746277991281905000,9.19790478515625,1.671326946312189,-1.0552028806596994,2.2853549164682625
1746277991291884000,9.207884033203126,1.9608534977555274,-0.5136234761208296,2.2584821071118113
1746277991301863000,9.21786279296875,2.129834684410691,0.09780512519180774,2.086557268220186
1746277991311842000,9.227842041015625,2.289386071680486,0.7220598903298378,1.7813310433417557
1746277991321821000,9.237821044921875,2.4098412739671766,1.2157745508879423,1.493308466720581
1746277991331800000,9.247800048828125,2.4237013108849523,1.4884598576456307,1.2122387779772281
1746277991341780000,9.257780029296875,2.2101766336262223,1.6351777745664118,0.843357534790039
1746277991351758800,9.2677587890625,1.8345152287796138,1.8314327525943517,0.28990298354029653
1746277991361738000,9.277738037109375,1.4695248555511236,2.322328264078498,-0.37266543790102
1746277991371716900,9.287716796875,1.345502316171676,3.379155531069636,-1.2208967162072657
1746277991381696000,9.297696044921874,1.4501529233440755,5.286236522105336,-2.324877364039421
1746277991391675000,9.3076748046875,1.539540056541562,7.892643009093403,-3.2279724514335393
1746277991401654000,9.317654052734374,1.2280373817421495,10.110317304998636,-3.3303941305100917
1746277991411633000,9.3276328125,0.3913957112036645,10.951101774430274,-2.3727339247137307
1746277991421612000,9.337612060546874,-0.7474072436846793,10.538411784654855,-1.0847966394126414
1746277991431591000,9.3475908203125,-1.8017561378635465,9.397003615704179,-0.10827741936743258
1746277991441570000,9.357570068359376,-2.5528788949400183,7.829714551493525,0.38546705180704594
1746277991451549000,9.367548828125,-3.0754391262322662,6.0444274640023705,0.4287386227786541
1746277991461528000,9.377528076171876,-3.499185347551107,4.274048607307672,0.17394436202049254
1746277991471507200,9.387507080078125,-3.8131338080674406,2.7800521583229303,-0.31244623925983905
1746277991481486000,9.397486083984376,-3.9035464849203825,1.7535002026081083,-0.9347533774614334
1746277991491465200,9.40746533203125,-3.633268239304423,1.1817577149957417,-1.6025596995562315
1746277991501444000,9.417444091796876,-3.0099300044894215,0.8667711436033249,-2.1836001768678424
1746277991511423200,9.42742333984375,-2.1071797850102185,0.7223451370120048,-2.469777417883277
1746277991521402000,9.437402099609375,-1.0934775201268494,0.7230816345930099,-2.540692782583833
1746277991531381200,9.44738134765625,-0.08598623871281742,0.8201105147153138,-2.5398288592308758
1746277991541361200,9.457361083984376,0.9103928431868553,0.8532201726347207,-2.439534255310893
1746277991551340000,9.467340087890625,1.796950052756071,0.7458686359405517,-2.228558678013086
1746277991561319200,9.477319091796875,2.511165659326315,0.38536534499824043,-1.8240829743534326
1746277991571298000,9.487298095703125,2.9151316598981616,-0.07824059302210808,-1.4613888953685759
1746277991581277200,9.497277099609375,3.052410717344284,-0.6413374173641204,-1.033498413851857
1746277991591256000,9.507256103515624,2.936929065686464,-1.2906874607920646,-0.4817144261628389
1746277991601237500,9.517237548828126,2.669244928216934,-1.7907944527357815,-0.002637362766265869
1746277991611216600,9.527216552734375,2.2506654420115053,-2.1048446200609208,0.3488677982062101
1746277991621195500,9.537195556640626,1.7677958544641732,-2.2691876255214214,0.7304401806622743
1746277991631174700,9.547174560546875,1.3463561565220354,-2.34507727150321,1.0706155538469553
1746277991641153300,9.5571533203125,1.1227315255314112,-2.234452412226796,1.3909838182777166
1746277991651132400,9.56713232421875,1.0061964192979038,-2.0061480989873406,1.7613450708895921
1746277991661111300,9.577111328125,0.9720850369900464,-1.8105507080852985,2.1814614112734794
1746277991671090400,9.58709033203125,0.9778671275228261,-1.604324955663085,2.5303122583448885
1746277991681069300,9.5970693359375,1.0117653054714202,-1.4134142612725495,2.873155973955989
1746277991691048400,9.60704833984375,1.0486198490075767,-1.3553273984849452,3.1695980038762093
1746277991701027300,9.61702734375,1.0679193005003034,-1.2918605962246656,3.3363416407376527
1746277991711006500,9.62700634765625,1.0326397511959076,-1.223829847049713,3.3203473682701587
1746277991720985300,9.6369853515625,0.9764999308228492,-1.159649343562126,3.1897523186326024
1746277991730964500,9.646964599609374,0.8335743919223546,-1.1003303086310625,2.9138515569597483
1746277991740944400,9.6569443359375,0.6420457117639482,-1.0616010572642087,2.614325589549541
1746277991750923500,9.666923583984374,0.4174719633549452,-0.9771920047402382,2.300935931959748
1746277991760902400,9.67690234375,0.22651275364756582,-0.7878256171822547,1.9694114827424287
1746277991770881500,9.686881591796874,0.09615794250667095,-0.6194120012819767,1.6201684214830399
1746277991780860400,9.6968603515625,-0.026723171752691267,-0.5259890366971492,1.2801613906025886
1746277991790839600,9.706839599609374,-0.022284312522411344,-0.5054518601030111,0.9688292500644922
1746277991800818400,9.716818359375,0.06435001483559608,-0.4758920036196708,0.649398851005733
1746277991810797600,9.726797607421876,0.2014993084222078,-0.4851093292981386,0.33738252759575843
1746277991820776400,9.7367763671875,0.3375806805163622,-0.4862327803701162,0.030464111846685408
1746277991830755600,9.746755615234376,0.5200749172825366,-0.43866789611876006,-0.3192734549313783
1746277991840734500,9.756734375,0.6368710856050253,-0.41423955730497836,-0.6669897450149059
1746277991850713600,9.766713623046876,0.6825286749303341,-0.4546148223131895,-0.9311617827102542
1746277991860692500,9.7766923828125,0.6938913420744239,-0.5367962619155645,-1.1779185752242802
1746277991870671600,9.786671630859376,0.6753069069832563,-0.67293141002357,-1.3641183154448866
1746277991880650500,9.796650390625,0.6395715767353772,-0.8716694370388984,-1.5619693304926157
1746277991890629600,9.806629638671875,0.6038065089363605,-1.15699386061728,-1.7374512773439288
1746277991900608500,9.8166083984375,0.6273474704563617,-1.4881810407042502,-1.9375635153219102
1746277991910587600,9.826587646484375,0.6239058055698872,-1.867142948400974,-2.094047039453685
1746277991920566500,9.83656640625,0.6558341447502374,-2.258306166023016,-2.289931138342619
1746277991930546400,9.84654638671875,0.7238467737466097,-2.589575763696432,-2.445940907482803
1746277991940525600,9.856525634765624,0.8337643615365028,-2.8097107990056274,-2.5238427700698374
1746277991950504400,9.86650439453125,0.9296288740545511,-2.9997295129925012,-2.5597920353293415
1746277991960483600,9.876483642578124,1.0454758518934248,-3.1778678195714947,-2.5294229082897304
1746277991970462500,9.88646240234375,1.1968050620019435,-3.259727187612653,-2.472974752619862
1746277991980441300,9.89644140625,1.4031401200175284,-3.198226132467389,-2.4158286778137086
1746277991990420200,9.906420166015625,1.5543616319678724,-3.0544483606517314,-2.296852169777453
1746277992000399400,9.9163994140625,1.6869554542072116,-2.890136334851384,-2.1378964103132487
1746277992010378200,9.926378173828125,1.7884342994756997,-2.677764334759116,-2.042438725030422
1746277992020357400,9.936357421875,1.8892175636954605,-2.4084078801631925,-1.9860838006019592
1746277992030336300,9.946336181640625,2.008712396517396,-2.0669062268108127,-2.0146584454402325
1746277992040315400,9.9563154296875,2.068708746188134,-1.5972183385282754,-2.08181328856349
1746277992050294300,9.966294189453125,2.001937933946401,-1.0769202069491148,-2.110825155775249
1746277992060273400,9.9762734375,1.8205735049277543,-0.4782604863166809,-2.1011936963379383
1746277992070252500,9.98625244140625,1.5740094585068523,0.22925708391964433,-2.114374080428481
1746277992080231400,9.9962314453125,1.3084364679723977,0.9961018723934888,-2.113061244264245
1746277992090210600,10.00621044921875,0.9696880588509141,1.6721183889508247,-2.075718771080673
1746277992100189400,10.016189453125,0.6356828256685286,2.2325287506878375,-2.0971640024304388
1746277992110168600,10.02616845703125,0.4088404016751796,2.7024294049382207,-2.1001196373656392
1746277992120148500,10.0361484375,0.3389940544456243,3.421137062230706,-2.3163059350490567
1746277992130127400,10.04612744140625,0.1673275742292404,4.304570002299547,-2.496938688792288
1746277992140106500,10.0561064453125,-0.15424184615220873,5.166583722242713,-2.5296090785115957
1746277992150085400,10.06608544921875,-0.505722493737936,6.236698340830206,-2.6727409536391495
1746277992160064500,10.076064453125,-0.9709890584468841,7.499709274667501,-2.885551929670572
1746277992170043400,10.08604345703125,-1.6082091036200523,8.006376355779171,-2.525691612806916
1746277992180022500,10.0960224609375,-2.3803227724075318,7.8077926425427195,-2.012641552659869
1746277992190001400,10.10600146484375,-3.0687574565112588,7.235727498847246,-1.5820979262858628
1746277992199980500,10.11598046875,-3.54106867903471,6.410224769699573,-1.2932593571066855
1746277992209959400,10.12595947265625,-3.7680700929820534,5.28764638890326,-1.0766051496505737
1746277992219938600,10.1359384765625,-3.778324945014715,3.9944408078104257,-0.8972159662276505
1746277992229917400,10.14591748046875,-3.660527417629957,2.751875865152478,-0.7361369309991598
1746277992239896600,10.155896484375,-3.4719629941046235,1.7611469179689883,-0.720052642160654
1746277992249875500,10.16587548828125,-3.219132726895809,1.0022188939690588,-0.7523515682190656
1746277992259854600,10.1758544921875,-2.9206594834089277,0.4102338287949562,-0.7993611566752195
1746277992269833200,10.185833251953126,-2.571381935358047,0.0220423204600811,-0.8568009537309408
1746277992279812400,10.195812255859375,-2.190436160367727,-0.18258710268139838,-0.8401426643967628
1746277992289791200,10.205791259765626,-1.7939315817177295,-0.30788112330138684,-0.7371797180503606
1746277992299771600,10.215771728515625,-1.445982067400217,-0.396483535861969,-0.5544920776039362
1746277992309750500,10.22575048828125,-1.1122387730896472,-0.5162462258398532,-0.3541466153919697
1746277992319729400,10.2357294921875,-0.803095667028427,-0.7305716980874538,-0.16593173595666885
1746277992329708300,10.245708251953126,-0.49097617550492284,-1.0030945077598095,-0.004425999748706817
1746277992339687400,10.2556875,-0.14891279661655424,-1.3141753038853405,0.1536637905359268
1746277992349666300,10.265666259765625,0.2635580339828506,-1.6901438749849795,0.2938029135882854
1746277992359645400,10.2756455078125,0.6525052195232361,-2.0870371606916187,0.4526590120702982
1746277992369624300,10.285624267578125,1.049287080744654,-2.4464818824917076,0.6003717852473258
1746277992379603500,10.295603515625,1.3826830229222773,-2.6841420530974864,0.7830641018688679
1746277992389582300,10.305582275390625,1.5372656818687915,-3.07390241818428,1.1945534836828708
1746277992399561500,10.3155615234375,1.6529028163492678,-3.399107601252198,1.4672650939255951
1746277992409540400,10.325540283203125,1.7875187920659779,-3.4330420195579525,1.4290958145290613
1746277992419519500,10.33551953125,1.9189796647526323,-3.454724274533987,1.4626286662966013
1746277992429498400,10.345498291015625,2.0029390738129615,-3.538227318128943,1.5544845276951789
1746277992439477500,10.3554775390625,2.0008609523646532,-3.4582249761313197,1.4723124404430388
1746277992449456400,10.365456298828125,1.9809616352826356,-3.2367052084654566,1.3768103314965963
1746277992459435500,10.375435546875,1.9516541461251675,-2.9549703338116404,1.2813725199580193
1746277992469414400,10.385414306640625,1.9334866212718187,-2.6655752997934816,1.2081196522206068
1746277992479393500,10.3953935546875,1.8615179481260478,-2.363327798464894,1.2191110018342732
1746277992489373400,10.40537353515625,1.7896891218423843,-2.0164269164174793,1.2142834355473517
1746277992499352600,10.4153525390625,1.627674851590395,-1.5945798067182302,1.1211012939810752
1746277992509331500,10.42533154296875,1.3862094434827565,-1.1179635804772377,1.0097703322619198
1746277992519310600,10.435310546875,1.0872427904557436,-0.6751970168679953,0.8547469438105821
1746277992529289500,10.44528955078125,0.7203378888428211,-0.31978841871619224,0.611136340367794
1746277992539268600,10.4552685546875,0.4445756953904405,-0.261822551959753,0.5806967784404754
1746277992549247500,10.46524755859375,0.39454058510065076,-0.429577996212244,0.7039888115882873
1746277992559226600,10.4752265625,0.3936539384592324,-0.4468319133520126,0.8813730849295854
1746277992569205500,10.48520556640625,0.31219668494556096,-0.3956406552970409,1.105178333184123
1746277992579184600,10.4951845703125,0.10420096370875835,-0.35090134986042976,1.4173866720348596
1746277992589163500,10.50516357421875,-0.20829846704304217,-0.29988135671913624,1.7790689436286686
1746277992599142700,10.515142578125,-0.5740080944567918,-0.24882570774257182,2.186567209979892
1746277992609119500,10.525119384765626,-0.928579072740674,-0.22131869213581085,2.6463077047437427
1746277992619098400,10.535098388671875,-1.2309247737467288,-0.17207506101727485,3.053250090777874
1746277992629077500,10.545077392578126,-1.4832126046419143,-0.17218378208875654,3.4487013609826564
1746277992639056400,10.555056396484375,-1.7084271351724862,-0.13007307159006595,3.7501024746149776
1746277992649035500,10.565035400390625,-1.7365736177265643,0.1507797595322132,3.822444072726369
1746277992659015400,10.575015380859375,-1.5564175415843724,0.6879945391207933,3.7111370764046905
1746277992668994300,10.584994384765626,-1.3070862224072217,1.2905553588449954,3.646158116015792
1746277992678973400,10.594973388671875,-1.04102764031291,1.8224942438572644,3.701881756803393
1746277992688952300,10.604952392578125,-0.7064946569293737,2.3471564158648253,3.690205932056904
1746277992698931500,10.614931396484375,-0.292468450114131,2.9694051018774505,3.471460889801383
1746277992708910600,10.62491064453125,0.05040503958072513,3.600112988677621,3.269832986563444
1746277992718889500,10.634889404296874,0.20706746394336223,3.978072441333532,3.3858956529796123
1746277992728868600,10.64486865234375,0.15720482414364814,4.0526545118480914,3.5753888817876573
1746277992738847500,10.654847412109374,0.055302785027027124,3.9647207923293113,3.603572189220786
1746277992748826600,10.66482666015625,0.008677227452397346,4.040313501191139,3.1909979347795248
1746277992758805500,10.674805419921874,0.12737899193419142,4.595723862683773,2.285016478294134
1746277992768784600,10.68478466796875,0.3975660704016685,5.6410465698421,1.1218196713835
1746277992778763500,10.694763427734374,0.5595376705557108,6.762624833685159,0.31652035683095453
1746277992788742700,10.70474267578125,0.44361002869606014,7.424334592470526,0.15371113680899143
1746277992798721500,10.714721435546876,-0.055202247262001035,7.418455471304059,0.5436041883647441
1746277992808700700,10.72470068359375,-0.7728209402740002,6.988420378974079,1.0900316174566744
1746277992818680600,10.7346806640625,-1.4424445409238338,6.497488627132773,1.4516834939122198
1746277992828659500,10.744659423828125,-1.8910604150831698,5.862541787588596,1.6140385404258966
1746277992838638600,10.754638671875,-2.1417197679936884,5.10276854493618,1.4793722958266735
1746277992848617500,10.764617431640625,-2.1992495814204216,4.36775038883388,1.0725099892914294
1746277992858596600,10.7745966796875,-2.0887632538318632,3.674375325718522,0.5424684623330831
1746277992868575200,10.7845751953125,-1.809637684893608,3.112950233981013,0.04052607165575027
1746277992878554400,10.794554443359376,-1.468440567445755,2.744955125978589,-0.4745446806639433
1746277992888533200,10.804533203125,-1.0348644415080546,2.537685417461395,-0.930527868720889
1746277992898512400,10.814512451171876,-0.5480184976756572,2.4034599023669956,-1.3683464545339346
1746277992908491300,10.8244912109375,-0.04275309092230163,2.2821084818929434,-1.6833733579367398
1746277992918470400,10.834470458984375,0.3697077571392059,2.055786282381415,-1.885946433070302
1746277992928449300,10.84444921875,0.7122890224218368,1.7805320019185542,-1.9541531233340501
1746277992938428400,10.854428466796875,0.9960732308208942,1.4724410352587698,-1.9747616115987299
1746277992948407300,10.8644072265625,1.1649708308458329,1.036911437165737,-1.8556869038850068
1746277992958386400,10.874386474609375,1.2730302235484123,0.5140414092719554,-1.6531623440682888
1746277992968365300,10.884365234375,1.29205758010149,-0.062301265612244604,-1.4019365894466638
1746277992978344400,10.894344482421875,1.2072305944263935,-0.6653074910163879,-1.1819961999267339
1746277992988324400,10.904324462890624,1.0615174706339836,-1.2149895379900932,-0.9884650939047336
1746277992998303500,10.914303466796875,0.8237287052124738,-1.7294786910295485,-0.8707108211398125
1746277993008282400,10.924282470703124,0.4871931498348713,-2.137365664437413,-0.7351409056991338
1746277993018261500,10.934261474609375,0.14274140537208876,-2.457827452370524,-0.5275029483914375
1746277993028240400,10.944240478515624,-0.20976444794237611,-2.6015333279937503,-0.3306839067399502
1746277993038219500,10.954219482421875,-0.5413485183924436,-2.6065391734570262,-0.11351181288957596
1746277993048198400,10.964198486328126,-0.8628086697131395,-2.617574946734309,0.00897591813802719
1746277993058177500,10.974177490234375,-1.138244736483693,-2.5740187136024235,0.11788637471199034
1746277993068156400,10.984156494140626,-1.2074287473469971,-2.5152304245471955,0.2020627875238657
1746277993078135600,10.994135498046875,-1.092397177544236,-2.450595747551322,0.26399638886749743
1746277993088114400,11.004114501953126,-0.8931827651888131,-2.2762170857667923,0.33803017784953115
1746277993098093600,11.014093505859375,-0.6548609158039093,-2.0239216560870408,0.4538981984764337
1746277993108072400,11.024072509765626,-0.4741577271729707,-1.7834522732794285,0.5571744485557079
1746277993118051600,11.034051513671875,-0.36535248453915115,-1.7511206139951943,0.7147960368067026
1746277993128030500,11.044030517578125,-0.2604302208185196,-1.8631068247526883,0.8203162664204835
1746277993138009600,11.054009521484375,-0.11245740846581756,-1.997684222024679,0.8295534658432007
1746277993147989500,11.063989501953126,0.07433657132089137,-2.138069428792596,0.6627665743619203
1746277993157968600,11.07396875,0.29087314374670387,-2.178006302383542,0.4517296222656965
1746277993167947500,11.083947509765625,0.48358007390424607,-2.1561282325744626,0.3791781807959079
1746277993177926700,11.0939267578125,0.6665583678603172,-2.172826853919029,0.3390127591460943
1746277993187905500,11.103905517578125,0.7552899597585201,-2.132856662580371,0.25315058520436284
1746277993197884700,11.113884765625,0.796724962952733,-2.1169506529182196,0.17860241695940493
1746277993207863300,11.12386328125,0.8131511970967054,-2.1663281395494938,0.09411854563355446
1746277993217842400,11.133842529296874,0.8477280049592256,-2.3212375462323425,0.01326630880832672
1746277993227821300,11.1438212890625,0.95150270607993,-2.4431395863264798,-0.19556933385133743
1746277993237800400,11.153800537109374,1.1180325540602207,-2.5237702893555163,-0.47419542883485555
1746277993247779300,11.163779296875,1.3275373281531035,-2.6122563820600506,-0.7524094358861446
1746277993257758500,11.173758544921874,1.5348334862858055,-2.63713655629456,-1.047197268858552
1746277993267737300,11.1837373046875,1.7707051660396158,-2.5615999615341423,-1.362230309741199
1746277993277716500,11.193716552734376,1.9197034489825366,-2.4759733499139545,-1.6364005943596363
1746277993287695400,11.2036953125,2.0092935574062167,-2.4338521180212496,-1.9166396774977446
1746277993297674500,11.213674560546876,2.041928145159781,-2.4095137955784796,-2.2014088052809235
1746277993307654400,11.223654296875,2.001125302389264,-2.4445617280840874,-2.4150883808404204
1746277993317633300,11.23363330078125,1.9622642413362859,-2.54610603980422,-2.6125144484743474
1746277993327612400,11.2436123046875,1.9137825345009565,-2.7415298277050253,-2.7549975043043493
1746277993337591300,11.25359130859375,1.855994070138037,-2.957418311485648,-2.863331914556026
1746277993347570400,11.2635703125,1.8999897176004945,-3.0764924346774816,-3.044922699676454
1746277993357549300,11.27354931640625,2.0483745448201893,-2.9648885012358424,-3.285166749295592
1746277993367528400,11.283528564453125,2.2109216067746282,-2.610391172710061,-3.5081101200237867
1746277993377507300,11.29350732421875,2.2604554530113936,-2.047949597406387,-3.6047456169143315
1746277993387486500,11.303486572265625,2.1760539992719887,-1.3245511519491673,-3.5341105304598806
1746277993397465300,11.31346533203125,2.0755770245224237,-0.4808826515138149,-3.44796720148921
1746277993407444500,11.323444580078124,1.96726453384161,0.5620955383449793,-3.4565228483885524
1746277993417423400,11.33342333984375,1.7495301299333572,1.7061884163349865,-3.4456907809898256
1746277993427402500,11.343402587890624,1.2956266707599162,2.55571148801744,-3.0960210187509656
1746277993437381600,11.353381591796875,0.6591058598972857,2.8080735531926155,-2.5123484393700957
1746277993447360500,11.363360595703124,0.008340104452520609,2.6313305003643035,-1.9567890247955917
1746277993457340400,11.37334033203125,-0.4980735864199698,2.3948680151104926,-1.7333862198621033
1746277993467319600,11.383319580078124,-0.7874221509478986,2.2340005768060682,-1.8202771523296832
1746277993477298400,11.39329833984375,-0.9333797510206698,2.4152210673093792,-2.2010276970088483
1746277993487277600,11.403277587890624,-1.0717559560537337,3.051058133691549,-2.685733706203103
1746277993497256400,11.41325634765625,-1.3422481366813181,3.9385260283648966,-3.032669659563899
1746277993507235600,11.423235595703124,-1.7264485295534133,4.84619850667715,-3.1205887660354374
1746277993517214500,11.43321435546875,-2.0532032801508904,5.57269433362782,-2.940087237456441
1746277993527193600,11.443193603515626,-2.2213182053655385,6.043907239520549,-2.5471102484107018
1746277993537172500,11.45317236328125,-2.1504379119783636,6.641606006166339,-2.373552255359292
1746277993547151400,11.4631513671875,-2.12032509778738,7.051403781631588,-2.009762197831273
1746277993557130200,11.473130126953125,-2.0657856983482836,6.937044412001967,-1.5258406170129775
1746277993567109400,11.483109375,-2.062768980875611,6.72267626965642,-1.3541981021940708
1746277993577088300,11.493088134765625,-2.165456617411971,6.187459385886788,-1.0114385577350855
1746277993587067400,11.5030673828125,-2.311594688618183,5.479061525684595,-0.5787643490731715
1746277993597046300,11.51304638671875,-2.611676536345482,4.68510076674819,-0.14512275668382643
1746277993607030500,11.523030517578125,-2.8559219305604695,3.914211086797714,0.241993815895915
1746277993617009700,11.533009765625,-3.006919132235646,3.315582930347323,0.5090004924952983
1746277993626988500,11.542988525390625,-3.0147996563524004,2.810934787842631,0.7350567345470189
1746277993636967700,11.5529677734375,-2.809956298199296,2.3863567918747663,0.9760948571532964
1746277993646946600,11.562946533203124,-2.429852819252014,2.0109131214320657,1.1985492753207683
1746277993656925700,11.57292578125,-1.9042332003891467,1.7261755578309297,1.3119061899095772
1746277993666904600,11.582904541015624,-1.3019652261316776,1.4579378781318664,1.4498738141417502
1746277993676883500,11.592883544921875,-0.7115390808373689,1.171367253884673,1.5731664318114518
1746277993686862600,11.602862548828124,-0.19165712884366512,0.9012100042998791,1.791392418628931
1746277993696841500,11.612841552734375,0.1979853089518845,0.5989338613986969,2.12871707855761
1746277993706820600,11.622820556640624,0.5004939454346895,0.3286445098668337,2.4828315452456473
1746277993716799500,11.632799560546875,0.7548796253919601,0.12227321149408817,2.843226115116477
1746277993726778600,11.642778564453126,1.0005208578795195,-0.07218553076684475,3.282486716431379
1746277993736757500,11.652757568359375,1.2218285902298986,-0.29948388183414937,3.7045740646272898
1746277993746737400,11.6627373046875,1.3890280080348252,-0.4629816686421632,4.10040176692903
1746277993756716500,11.672716552734375,1.5081433400198816,-0.5718062004983425,4.404469469422102
1746277993766695400,11.6826953125,1.6352129920102656,-0.6434171462476254,4.635384841942787
1746277993776674600,11.692674560546875,1.6819994392350315,-0.7466805368453264,4.817826983195543
1746277993786653400,11.7026533203125,1.7079828985363243,-0.8870663281351328,4.964214645248651
1746277993796632600,11.712632568359375,1.7078338454544544,-1.0011655855238437,5.019726689112186
1746277993806611500,11.722611572265626,1.7095776203818618,-1.0533055226057768,5.011426478278636
1746277993816590600,11.732590576171875,1.7399901481717823,-1.1041180104762316,4.938952778220177
1746277993826569500,11.742569580078126,1.8137421976029873,-1.1541823103278874,4.818173020154237
1746277993836548600,11.752548583984375,1.8832213920205831,-1.1571627874433994,4.643573409095406
1746277993846527500,11.762527587890625,1.9510851140655576,-1.1328916850179434,4.482152428561449
1746277993856506600,11.772506591796875,1.9620221031434832,-1.1305635343313216,4.281359222581982
1746277993866485500,11.782485595703125,1.9095109946615993,-1.1290490381151437,4.019953434729576
1746277993876464600,11.792464599609374,1.8228040404587984,-1.1233096176803112,3.7217432260930536
1746277993886444500,11.802444580078125,1.6747640811540185,-1.1268944904297589,3.4257933636039493
1746277993896423700,11.812423583984375,1.464940596500784,-1.2560901946634053,3.1667034514784813
1746277993906402600,11.822402587890625,1.2360296956703065,-1.3807698827773331,2.8597563941568134
1746277993916381700,11.832381591796874,1.0287097182705998,-1.4442039518117904,2.515488198700547
1746277993926360600,11.842360595703125,0.9178270848408341,-1.4667121362179516,2.1708272045344112
1746277993936339700,11.852339599609374,0.8687078107543289,-1.4422978259295225,1.8042717739462852
1746277993946318600,11.862318603515625,0.8267163427211344,-1.3877216016113758,1.444730606034398
1746277993956297700,11.872297607421874,0.8015823398560286,-1.344611358681321,1.1183820981502532
1746277993966276600,11.882276611328125,0.7394359725445508,-1.255738312485814,0.8325830427974462
1746277993976255700,11.892255859375,0.6342683557607233,-1.1886989124357699,0.5633908388525247
1746277993986234600,11.902234619140625,0.5069735167123377,-1.1528063457995652,0.43063481178879737
1746277993996213800,11.9122138671875,0.3015304391004145,-1.13300975843966,0.3613496786385774
1746277994006192600,11.922192626953125,0.08982757044136523,-1.0928513510525226,0.3066325845450163
1746277994016172500,11.932172607421874,-0.18127733525708317,-1.0755781446903943,0.31097558218538757
1746277994026151700,11.942151611328125,-0.4344507168151438,-1.0471154357939958,0.3286474324762821
1746277994036130600,11.952130615234376,-0.7164509644068777,-1.011062710160017,0.3651759589284658
1746277994046109700,11.962109619140625,-1.0642005722381174,-1.0241986705869435,0.4546446329295635
1746277994056088600,11.972088623046876,-1.3867337596178053,-1.077663718792796,0.5763157868772745
1746277994066067500,11.9820673828125,-1.5791723942279814,-1.126191310596466,0.6175935536831617
1746277994076046600,11.992046630859376,-1.5578003742448985,-0.8938976354598999,0.44055590182244775
1746277994086025500,12.002025390625,-1.3514257148712874,-0.3707096276581287,0.12911036403775214
1746277994096004600,12.012004638671876,-1.05676823028028,0.33329964219629765,-0.15875672976076602
1746277994105983500,12.0219833984375,-0.699237233147025,1.2007903322458267,-0.505381132954359
1746277994115962600,12.031962646484375,-0.3313432474315166,2.244762793838978,-0.897670139735937
1746277994125941500,12.04194140625,-0.03710311146974563,3.388070658931136,-1.2753741563260554
1746277994135920600,12.051920654296875,0.04326967127546668,4.436318898147344,-1.5151801067888735
1746277994145900500,12.061900634765625,-0.1529529388528317,5.0123546990394585,-1.5607710606187581
1746277994155879400,12.07187939453125,-0.6119016256518661,4.917290981510281,-1.423590787371993
1746277994165858600,12.081858642578124,-1.1401409254938364,4.260202452784776,-1.1670149038940667
1746277994175837400,12.09183740234375,-1.5558920564055443,3.477469774827361,-1.1339940933018922
1746277994185816600,12.101816650390624,-1.763749209421873,3.0403578759789465,-1.481335120332241
1746277994195795500,12.11179541015625,-1.7283412114322185,3.1662171292662618,-2.142871276116371
1746277994205774600,12.121774658203124,-1.5310820247977972,3.589904898396134,-2.7075644297391173
1746277994215753500,12.13175341796875,-1.4038614200294017,3.9205122327685356,-2.9194974538922307
1746277994225732600,12.141732666015624,-1.409369954317808,4.0879105341464275,-2.83898657785058
1746277994235711500,12.15171142578125,-1.402762518876791,4.113607869982719,-2.60649474979341
1746277994245690600,12.161690673828126,-1.3506804494619369,3.9923984883278605,-2.3807149865955113
1746277994255669500,12.17166943359375,-1.3306319331675767,3.5333716947913167,-2.088758577656746
1746277994265648600,12.181648681640626,-1.304051384755969,2.7002678429901597,-1.7936954348742962
1746277994275628500,12.191628662109375,-1.1960434299796818,1.8086141870647667,-1.6513351286411284
1746277994285607700,12.201607666015626,-0.9970770010359584,0.9567179565101861,-1.6463269450902938
1746277994295586600,12.211586669921875,-0.6444809030216186,0.2693938639968633,-1.7597481570869684
1746277994305565700,12.221565673828126,-0.1246983928143978,-0.24459786091446875,-1.9124696983367204
1746277994315544600,12.231544677734375,0.5078559986352921,-0.5887134961575269,-2.091984553965926
1746277994325523700,12.241523681640626,1.123694233083725,-0.7838888622552156,-2.2020283984839915
1746277994335502600,12.251502685546875,1.65796696787104,-0.8814648548662662,-2.22166950302124
1746277994345481700,12.261481689453126,2.152623000932485,-0.9537000699937344,-2.154745838305354
1746277994355460600,12.271460693359375,2.5727654986709356,-1.0041524923801421,-1.9768150369971988
1746277994365439700,12.281439697265625,2.9377018036246296,-1.0476935279428958,-1.752305439865589
1746277994375418600,12.291418701171875,3.2472692725777623,-1.0955483350515365,-1.5304600935071706
1746277994385397800,12.301397705078125,3.458778518360853,-1.1372837824970483,-1.2920727776706218
1746277994395377700,12.311377685546875,3.536603516319394,-1.1856202356427907,-1.073698906815052
1746277994405356500,12.3213564453125,3.46450975548923,-1.21699094094038,-0.9367097722262143
1746277994415335700,12.331335693359375,3.2640017961919305,-1.1769821711570023,-0.7874766576141119
1746277994425314600,12.341314453125,2.8797546415686606,-1.118639872303605,-0.5481733959764242
1746277994435293700,12.351293701171874,2.3103071330256757,-1.0246692107081412,-0.2524199328422546
1746277994445272600,12.3612724609375,1.705104128229618,-0.9284189137428999,0.08879121313095092
1746277994455251500,12.37125146484375,1.1242279015690089,-0.8215531147390603,0.37376200096607204
1746277994465230600,12.381230712890625,0.5869255167622118,-0.7442635388314723,0.6635510027378797
1746277994475209500,12.39120947265625,0.08958988922797143,-0.7036281615823506,0.9685206225067376
1746277994485188600,12.401188720703125,-0.3778079884212464,-0.6819856540948153,1.2753911074608564
1746277994495167500,12.41116748046875,-0.7548912427645176,-0.6318868674516678,1.5514473519563674
1746277994505146600,12.421146728515625,-1.0208733255565166,-0.5516916332304478,1.7723627239882944
1746277994515125500,12.43112548828125,-1.199340060372278,-0.3929448403418064,1.9561814142912626
1746277994525104600,12.441104736328125,-1.324467565318942,-0.19462708456516264,2.0834768378615376
1746277994535084500,12.45108447265625,-1.4485720838934182,-0.057367316341400146,2.2079607111424204
1746277994545063400,12.4610634765625,-1.573484996241331,-0.018428806138038635,2.399733575320244
1746277994555042600,12.47104248046875,-1.648057129883766,-0.06933481751084328,2.5921505826205014
1746277994565021400,12.481021484375,-1.7410434566169977,-0.22729016776084898,2.8283611389398575
1746277994575000600,12.49100048828125,-1.7711761445522307,-0.5465946023523807,3.097884766796231
1746277994584979500,12.5009794921875,-1.6296429367929697,-0.8635784850418567,3.213630622348189
1746277994594958600,12.51095849609375,-1.2964251276612282,-0.9624263972848653,3.125070879885554
1746277994604933400,12.520933349609376,-0.8562012342721224,-0.755629566976428,2.8569629640460015
1746277994614912300,12.530912353515625,-0.39015199475288387,-0.39898470502793787,2.6103286288678644
1746277994624891400,12.540891357421875,-0.11376315730214118,-0.14141162720620631,2.5375106454163787
1746277994634870300,12.550870361328125,0.0008691840499639511,-0.08380582593381404,2.608277541556954
1746277994644849400,12.560849365234375,0.013253960783407091,-0.1356739603370428,2.7631320031821724
1746277994654829300,12.570829345703125,-0.008570917533710599,-0.2599713711351156,2.8394331525743004
