time,seconds_elapsed,z,y,x
1744475454044078600,0.22807861328125,0.713967184767127,-0.6408376511484384,-1.510825272580236
1744475454054075400,0.238075439453125,-0.9651771572977303,-1.0778580723211169,-2.1263268224202094
1744475454064071400,0.248071533203125,-0.8761001129627227,-0.7398398771703243,-1.462964035730809
1744475454074067700,0.258067626953125,-0.3365741338223219,-0.4292506639540195,-0.851885270769149
1744475454084064500,0.268064453125,-0.22965397428274154,-0.464931049144268,-1.051032463107258
1744475454094060500,0.278060546875,-0.04712181665897369,-0.5485498280733824,-1.1013242150392382
1744475454104057600,0.2880576171875,0.050804304563999175,-0.5720005540266633,-0.9285380831431597
1744475454114053400,0.298053466796875,0.15739946993291376,-0.5287529484525323,-0.8451835081081837
1744475454124049400,0.30804931640625,0.2083838072389364,-0.5380655511990189,-0.8622869839265942
1744475454134046500,0.31804638671875,0.13617255750894547,-0.6475652058377862,-0.9444263379529118
1744475454144042500,0.32804248046875,0.10422668267190456,-0.6787994252741336,-0.9830608237084001
1744475454154038500,0.33803857421875,0.33120646930932995,-0.641696313804388,-0.9558617780722677
1744475454164035600,0.34803564453125,0.6801683755397796,-0.5870397177264094,-0.92747213441208
1744475454174031600,0.358031494140625,0.9525006310760974,-0.6227893687605858,-0.8846816249556839
1744475454184028400,0.3680283203125,1.106262036767602,-0.7174032966956496,-0.9077261081956326
1744475454194024400,0.3780244140625,1.0380898332953452,-0.8940271070584654,-0.9889900676269083
1744475454204020500,0.3880205078125,0.8395786007732152,-1.0870330201625824,-1.0372336548574268
1744475454214017300,0.398017333984375,0.7990572052925825,-1.1673775997266174,-1.0577987423717976
1744475454224013600,0.408013671875,1.0947849494636057,-1.1934829318419098,-0.9298002850987016
1744475454234010400,0.41801025390625,1.4553484461605548,-1.3381313490122555,-0.49694735886901614
1744475454244006400,0.42800634765625,1.230477029979229,-1.6029682803571224,0.2677110254764557
1744475454254002700,0.438002685546875,0.47327334555387496,-1.6212877809017896,0.9719986738808453
1744475454263999500,0.44799951171875,-0.3089858696728945,-1.4102891149893402,1.4395005964264274
1744475454273995500,0.45799560546875,-0.9564812251448631,-1.2388760250121353,1.6670128825053572
1744475454283992300,0.467992431640625,-1.5375696332514286,-1.1237246282219886,1.8192497089780866
1744475454293988400,0.47798828125,-2.082103795942664,-1.0850073595538734,1.8852761325933038
1744475454303984400,0.487984375,-2.742097398459911,-1.1282207705974578,1.8526900601565837
1744475454313981200,0.497981201171875,-3.4925866799384355,-1.1544707718804479,1.7406015580683944
1744475454323977500,0.5079775390625,-4.2264463136553765,-1.0373135882258415,1.4829375870928168
1744475454333973500,0.517973388671875,-4.800667758601904,-0.8148965794593095,1.1903439031638203
1744475454343970300,0.52797021484375,-5.0854760493516915,-0.5015101367399096,0.9315166605625301
1744475454353966300,0.53796630859375,-5.046104992949962,-0.15763210964500904,0.8256332236595452
1744475454363963400,0.54796337890625,-4.862676763269305,0.11795680959969758,0.877643835273385
1744475454373959400,0.55795947265625,-4.574251451066136,0.34230332512408496,0.966713719215244
1744475454383955200,0.567955078125,-4.091942566141486,0.5494990916222333,1.0361783736508339
1744475454393952300,0.5779521484375,-3.4279327137202023,0.6938628466323018,1.0730971415296195
1744475454403948300,0.5879482421875,-2.5142531039476395,0.8348638472110033,1.0557726433716714
1744475454413945300,0.5979453125,-1.4234335509836673,0.9331979647129773,1.0737122777532786
1744475454423941400,0.60794140625,-0.2984481090456247,0.9232911954656243,1.1506175305183977
1744475454433937400,0.6179375,0.642067485204339,0.845442524370551,1.1820159275405109
1744475454443934500,0.6279345703125,1.3231132281005382,0.7051593166723847,1.1683136384677142
1744475454453930500,0.637930419921875,1.666212964299321,0.5201549237161874,1.1445711630262434
1744475454463927300,0.64792724609375,1.85564364926517,0.36057869426608086,1.0652559995751827
1744475454473923300,0.65792333984375,1.975734840545058,0.2254182364091277,0.8863726467825472
1744475454483919400,0.66791943359375,1.9465034853637218,0.08655395559817552,0.7356665370084345
1744475454493916200,0.677916259765625,1.8115245215535163,0.027718028008937835,0.7163771685183048
1744475454503912400,0.687912353515625,1.6210533876240252,0.1045794416323304,0.7393051857717334
1744475454513908500,0.697908447265625,1.4472972416520118,0.23959406127780675,0.7285145463619381
1744475454523905300,0.7079052734375,1.2492857753455637,0.4256427025899291,0.6753372290562838
1744475454533901600,0.717901611328125,1.0022364296257495,0.5557487996667623,0.6003965543624014
1744475454543898400,0.7278984375,0.8464215985357761,0.6110442781701684,0.5054758255004882
1744475454553894400,0.737894287109375,0.7875257574528455,0.6275774798199534,0.4659758820220828
1744475454563890400,0.747890380859375,0.7115215451806783,0.581208527354896,0.4656945808626711
1744475454573887200,0.75788720703125,0.6254243934392929,0.5317267035663128,0.4737843638159334
1744475454583883300,0.76788330078125,0.6059662442535162,0.5821189201980829,0.419722189967148
1744475454593880300,0.77788037109375,0.7570914562225342,0.6895663184821605,0.3697225528495386
1744475454603876400,0.78787646484375,0.9934013812631368,0.7459145209088921,0.38755836153049017
1744475454613872400,0.797872314453125,1.1871522675156592,0.7243208209991455,0.4779366977224126
1744475454623869400,0.807869384765625,1.300153208273649,0.6723553637012839,0.5469091481942683
1744475454633865500,0.817865478515625,1.322992232069373,0.5873939379915595,0.5135226095622405
1744475454643862300,0.8278623046875,1.2988468018501995,0.5168851082652807,0.47266434681005776
1744475454653858300,0.8378583984375,1.3016203582167625,0.45246582758575676,0.4309174281224608
1744475454663854300,0.847854248046875,1.260963938179612,0.36901948261409995,0.41553909559622404
1744475454673851100,0.85785107421875,1.1727145768404006,0.35884938625544305,0.40072577654160557
1744475454683847400,0.867847412109375,1.001418683502078,0.3829913093432784,0.45765912191253155
1744475454693844200,0.87784423828125,0.826835439056158,0.41818215745091436,0.475307043338567
1744475454703840300,0.88784033203125,0.7363532040983438,0.49923400850147004,0.5190014428321272
1744475454713836500,0.89783642578125,0.7343295893162488,0.5582523069202899,0.5740302697559818
1744475454723833300,0.907833251953125,0.5729752442777156,0.6437485701590776,0.563722956883721
1744475454733829400,0.917829345703125,0.3243079419672489,0.7060235322862863,0.5318207385253161
1744475454743826400,0.927826416015625,0.17483341981470585,0.6855836785867809,0.4578041198737919
1744475454753822200,0.937822265625,0.232631528788805,0.6551452857032418,0.4091922107875347
1744475454763818200,0.947818359375,0.3685591716259718,0.5850383147761226,0.49273039876110847
1744475454773815300,0.957815185546875,0.5169026439219713,0.47829935702234505,0.5899661996323615
1744475454783811300,0.967811279296875,0.673231854274869,0.43342707285583015,0.6274842485785483
1744475454793807400,0.977807373046875,0.8484978202879428,0.39896278545707464,0.6144124394290149
1744475454803804400,0.987804443359375,0.8800660939842462,0.4038599098488688,0.5674020472552627
1744475454813800400,0.997800537109375,0.6667465839087963,0.37895986187011,0.4359142865616828
1744475454823797500,1.007797607421875,0.41224049244225025,0.2655240368261933,0.27221184402704235
1744475454833793300,1.017793212890625,0.25033611230552194,0.1464037364050746,0.046738516429811715
1744475454843789300,1.027789306640625,0.0333791225105524,0.15179478179365397,-0.24541122312396763
1744475454853786400,1.037786376953125,-0.49776948890686035,0.3498465801104903,-0.543153595053032
1744475454863782400,1.047782470703125,-1.1522796915769575,0.5934986846074461,-0.7802231062892824
1744475454873779200,1.057779296875,-1.7827619529277086,0.6781617118924855,-0.8840933036737143
1744475454883775500,1.067775390625,-2.308677924388647,0.5472124419897795,-0.9273870864771306
1744475454893771500,1.077771484375,-2.420932430693507,0.3068900664374232,-1.0319889591369777
1744475454903768300,1.087768310546875,-1.908055973547697,0.13262772450894117,-1.1613362006705255
1744475454913764400,1.097764404296875,-1.1149643986612559,-0.01754851617217064,-1.28635030837059
1744475454923760400,1.107760498046875,-0.5965227086037397,-0.24212884045243263,-1.2901374256938696
1744475454933757200,1.117757080078125,-0.732671300715208,-0.33976328525245186,-1.253791562332213
1744475454943753200,1.127753173828125,-1.3570757034569978,-0.1317936117723584,-1.3344985454678535
1744475454953750300,1.137750244140625,-2.1994430581659077,0.36589375180900097,-1.5277797683820127
1744475454963746300,1.147746337890625,-2.8088492137402294,0.948732218453288,-1.6076124529011546
1744475454973742300,1.157742431640625,-2.9200235235929486,1.4265826626643539,-1.4848407903656362
1744475454983739400,1.167739501953125,-2.5641116520941254,1.7726348189279435,-1.2113881524972616
1744475454993735400,1.1777353515625,-1.8608862260937689,1.9883485306635498,-0.9396534975279122
1744475455003732500,1.187732421875,-0.9825649299502373,2.0091312064513565,-0.8078383315108716
1744475455013728300,1.197728271484375,-0.10880933428704738,1.8670485481157897,-0.8452014090910553
1744475455023724300,1.207724365234375,0.5966401975035667,1.6420634424269198,-1.0673585978776217
1744475455033721300,1.217721435546875,0.9654588968485593,1.3677072798475622,-1.2941143665008246
1744475455043717400,1.22771728515625,1.0519289735555648,1.1304445841267705,-1.4390724341422318
1744475455053714200,1.237714111328125,1.1063152282595634,0.9876432561278342,-1.5355463107302785
1744475455063710500,1.24771044921875,1.2136112353742121,0.9247785114139317,-1.6182525048591196
1744475455073706500,1.25770654296875,1.4047604146957398,0.7968161483675241,-1.6353467013925314
1744475455083703300,1.267703369140625,1.7014982126921414,0.5917945110380649,-1.588937563047558
1744475455093699300,1.27769921875,1.9496283393859861,0.34608664305508136,-1.4805821100078522
1744475455103695400,1.2876953125,1.9886580350041387,0.1585156144812703,-1.3613061806336044
1744475455113692200,1.297692138671875,1.8542086480259894,0.03987900592386722,-1.263969695866853
1744475455123688400,1.3076884765625,1.6216139441162347,-0.02936258034557104,-1.1580718651123345
1744475455133685200,1.317685302734375,1.3410335001945495,-0.07298603349477052,-1.0169938537746668
1744475455143681300,1.327681396484375,1.0880787298232317,-0.14139350702762604,-0.8314002627536654
1744475455153677600,1.337677490234375,0.8648726165056229,-0.18553163170069456,-0.7031750109873711
1744475455163674400,1.34767431640625,0.7736112138688563,-0.21344313645511864,-0.6271504135143011
1744475455173670400,1.35767041015625,0.7593494642823934,-0.2859711970493197,-0.4824116511793807
1744475455183667500,1.36766748046875,0.7648878091871738,-0.381537311142683,-0.2696865268005058
1744475455193663200,1.377663330078125,0.854146639829874,-0.45377486435770986,-0.02250705189500004
1744475455203659300,1.3876591796875,0.984533015152812,-0.46600803072601554,0.15197437614426015
1744475455213656300,1.39765625,1.1150585066854952,-0.4314569418266415,0.2659844208795577
1744475455223652400,1.40765234375,1.1808511215448378,-0.39179274769723416,0.30409670939184724
1744475455233648400,1.4176484375,1.0480857421308756,-0.3908550284557044,0.29705621629580853
1744475455243645400,1.4276455078125,0.7253367200434208,-0.43268896783962846,0.2688332344394177
1744475455253641500,1.437641357421875,0.3460322825193405,-0.40318449480533597,0.2358065786283463
1744475455263638300,1.44763818359375,-0.004664484679698944,-0.31983269624933597,0.2833091382332146
1744475455273634300,1.45763427734375,-0.3624327977001667,-0.21435089894980192,0.43208603351041674
1744475455283630000,1.467630126953125,-0.7121031444609165,-0.13901318776234983,0.5846233042344451
1744475455293627100,1.477627197265625,-0.8029699948221445,-0.059997518714517355,0.6545911589518189
1744475455303623200,1.487623046875,-0.5946171672433614,0.011049801802635192,0.6558193855725228
1744475455313620200,1.4976201171875,-0.11452186671495437,0.0004934826053678989,0.6849170313715934
1744475455323616300,1.5076162109375,0.41876083412170406,-0.13500570568665862,0.8407428222469985
1744475455333612300,1.5176123046875,0.7626379844337702,-0.3473204226337373,1.039988214262575
1744475455343609300,1.527609375,0.9447375958591699,-0.43175227151140566,1.2032621291868388
1744475455353605400,1.53760546875,1.1428501844525336,-0.32733971087858077,1.3108581421613692
1744475455363601200,1.54760107421875,1.5185463683515785,-0.11326222204267979,1.4495242700517177
1744475455373598500,1.557598388671875,2.0434072778016326,0.041258331453055144,1.5498263266257941
1744475455383594200,1.56759423828125,2.6488725867956875,0.1256751288920641,1.6362224613137542
1744475455393591000,1.577591064453125,3.2302403963655233,0.1513157661050558,1.72745726820454
1744475455403587300,1.58758740234375,3.6214322555601597,0.09221095844656228,1.771910596306622
1744475455413583400,1.597583251953125,3.8106057508945463,0.023699878408759832,1.7568818078704178
1744475455423580200,1.607580078125,3.8567426481693983,-0.053406157625466584,1.6711562659204005
1744475455433576400,1.617576416015625,3.6813960181355476,-0.10521905471011996,1.6401855197258293
1744475455443572200,1.627572265625,3.3134885884165763,-0.030834990985691545,1.6609586970329284
1744475455453569300,1.6375693359375,2.8924481189250946,-0.06875146466493606,1.7150120665207504
1744475455463565000,1.64756494140625,2.4637656102478505,-0.2037856657937169,1.6841016722112894
1744475455473562400,1.657562255859375,2.0878022998452184,-0.23256489329338073,1.464153099384904
1744475455483558100,1.66755810546875,1.8838491685301064,-0.08184329368919134,1.108917154386267
1744475455493554200,1.67755419921875,1.802095598950982,0.04800049918964505,0.6893698460619896
1744475455503551200,1.68755126953125,1.595732483884692,0.10551730700433254,0.30477314734868705
1744475455513547300,1.69754736328125,1.1472440354973077,0.10794687223881483,-0.054911520687118166
1744475455523543000,1.70754296875,0.29103461791872975,0.24927082116156815,-0.36823023193255067
1744475455533540400,1.717540283203125,-0.5353466476291417,0.5298389901235699,-0.40367848886735735
1744475455543536000,1.7275361328125,-0.8320710016220808,0.603788315692544,-0.2006249367404729
1744475455553533400,1.737533447265625,-0.5141577291280031,0.5675080649130047,0.1117583202857524
1744475455563529200,1.747529296875,0.21720482707619665,0.42959918513074513,0.3583571457590908
1744475455573525200,1.757525146484375,1.0131249033868313,0.17177008672133087,0.48103440800942476
1744475455583522300,1.767522216796875,1.558428881406784,-0.13010975033864378,0.6452184235159307
1744475455593518300,1.777518310546875,1.6981436415672302,-0.4542679085716605,0.638985082084313
1744475455603515100,1.78751513671875,1.4056202463954686,-0.6953830419369041,0.3819470244547352
1744475455613511400,1.797511474609375,0.9599790041327476,-0.7239622168198228,0.14297350622806698
1744475455623507200,1.807507080078125,0.25230945820510386,-0.610376315780729,0.11350552927926182
1744475455633504300,1.817504150390625,-0.6689823801368474,-0.41358430826663967,0.28325620246957983
1744475455643500300,1.827500244140625,-1.6273188777595757,-0.39826398953795433,0.6179460203826427
1744475455653496300,1.837496337890625,-2.707548647648096,-0.3698123865574598,0.9221093652699142
1744475455663493000,1.8474931640625,-3.596696458232403,-0.4771662613391876,1.1319196251153945
1744475455673489400,1.857489501953125,-3.9406618713498114,-0.9724743285685777,1.2333297890618442
1744475455683486200,1.867486328125,-3.307304931345582,-1.9219252166852354,1.1881472699023783
1744475455693482200,1.877482177734375,-1.8894085562229155,-3.065175214110315,0.8716296895503998
1744475455703478300,1.887478271484375,-0.90853757070899,-4.006598863115906,0.03644252866916358
1744475455713475300,1.897475341796875,-1.587129490712285,-4.390939833502471,-0.8382914835721254
1744475455723471000,1.90747119140625,-4.231917438542842,-4.2273657665878535,-1.0353398039348423
1744475455733467400,1.91746728515625,-8.136707786044479,-3.083956779208779,-0.9784029148999601
1744475455743464200,1.927464111328125,-12.07791034014225,-1.3728629090450704,-0.5980852817453444
1744475455753460200,1.937460205078125,-14.591181447315215,0.0028539281263947483,0.13702164861895144
1744475455763457300,1.947457275390625,-14.800003061449527,0.8591669522099197,0.8611368640433996
1744475455773453300,1.957453369140625,-12.79866090143919,1.1300360033258796,1.339874393287301
1744475455783449000,1.967448974609375,-9.74737948038578,0.8780721436880529,1.5396375255666672
1744475455793446400,1.9774462890625,-6.946288625687361,0.4353858057081699,1.317559393365681
1744475455803442200,1.987442138671875,-4.812300913250446,0.16152560995221138,0.6648827627982944
1744475455813438200,1.997438232421875,-3.2577614404976365,0.0188572606831789,0.012489844543114303
1744475455823435300,2.007435302734375,-2.123151261124015,-0.016747428922355173,-0.4381468679193407
1744475455833431300,2.017431396484375,-1.295795013064146,0.027169015824049708,-0.6975387586660683
1744475455843428000,2.027427978515625,-0.5627811825215816,0.13513970732986927,-0.7373667650550604
1744475455853424400,2.03742431640625,0.056574120137095445,0.23230755753144622,-0.47914530632719393
1744475455863420200,2.047420166015625,0.5912976674318313,0.4027916960954666,-0.12738149441853164
1744475455873417200,2.057417236328125,1.1655547682136296,0.6370050872482359,0.11548209004923701
1744475455883413200,2.067413330078125,1.7597580939590929,0.9076634182229637,0.2917984418980777
1744475455893409300,2.0774091796875,2.383654547178745,1.1821166114360093,0.4158227348431945
1744475455903406000,2.087406005859375,3.052371554377675,1.402851950725913,0.4696437568798661
1744475455913402400,2.09740234375,3.696059918782115,1.51107413277477,0.42087008136063814
1744475455923399200,2.107399169921875,4.252954381352663,1.6856684831365942,0.2234551196426153
1744475455933395200,2.117395263671875,4.925833768928051,2.0803908545449374,0.18954327849484978
1744475455943391200,2.12739111328125,5.57737518492043,1.9009581242412328,0.0269711551643908
1744475455953388300,2.13738818359375,5.784429789382219,1.855820759397745,0.047211248508095736
1744475455963384000,2.147384033203125,5.771238883897662,1.9034946569815276,-0.021140841575711965
1744475455973380400,2.15738037109375,5.737276993063092,1.9449881123647093,-0.1630737892422825
1744475455983377200,2.167377197265625,5.7516427875459195,2.0798814437180755,-0.2349794070892036
1744475455993373200,2.177373291015625,5.799483566129207,2.234203990423679,-0.21581724517531692
1744475456003370200,2.187370361328125,5.7956894345432515,2.374706686091423,-0.15618746379464865
1744475456013366300,2.1973662109375,5.6008998528927565,2.508739308962226,-0.07574928766302765
1744475456023362000,2.207362060546875,5.25040182313621,2.6463056589171288,-0.09051471245530993
1744475456033359400,2.217359375,4.900351537147164,2.8420874664753675,-0.2515294868085533
1744475456043355100,2.227355224609375,4.667816454470158,3.0214652517214415,-0.44931196666471657
1744475456053351200,2.23735107421875,4.511846140557528,3.109472036476433,-0.6117507459390908
1744475456063348200,2.24734814453125,4.4150966618984935,3.064672817546129,-0.7522229734033345
1744475456073344300,2.25734423828125,4.438885533764958,2.8658497425958513,-0.8615931564435362
1744475456083340300,2.26734033203125,4.441356307792663,2.5813389734879135,-0.7765092733979224
1744475456093337300,2.27733740234375,4.30413511801362,2.3833351059660313,-0.49606648438125844
1744475456103333000,2.2873330078125,4.032492598307132,2.388846855124831,-0.31221940823402256
1744475456113330200,2.297330078125,3.780917299595475,2.4772432237192987,-0.2841655723994598
1744475456123326200,2.307326171875,3.5781624381542203,2.647741536939144,-0.34264048465657976
1744475456133322200,2.317322265625,3.38901407726109,2.800697763727605,-0.5285635998928919
1744475456143319000,2.327319091796875,2.929049710613489,2.9730776529103515,-0.7828681409053504
1744475456153315300,2.3373154296875,2.000689249059558,3.187110571952164,-0.905009104321897
1744475456163312000,2.34731201171875,0.7533399947345256,3.20680340667665,-0.9393011769589036
1744475456173308200,2.35730810546875,-0.28253157798945905,3.053924629038572,-0.9326110316704959
1744475456183304200,2.36730419921875,-0.7312193483412265,2.8362986539408563,-0.8566033122669905
1744475456193301200,2.37730126953125,-0.5522048434495925,2.5143182781383393,-0.8552537973541766
1744475456203297000,2.387297119140625,-0.07190203765034675,2.069902778278291,-0.9920118266008794
1744475456213293300,2.397293212890625,0.21545184592902658,1.652372947256267,-1.3202517011895776
1744475456223290000,2.4072900390625,-0.12759703686535356,1.0494944398850201,-1.6395960294000804
1744475456233286100,2.4172861328125,-1.1508107880681753,0.20534750828295945,-2.0552149122342467
1744475456243282400,2.427282470703125,-2.5355086579442023,-0.5104737799182534,-2.621327869527042
1744475456253279200,2.437279296875,-3.9986020191431044,-0.7067652905642986,-3.336117184332013
1744475456263275500,2.447275634765625,-5.815624553591013,-0.6485495407000184,-3.487270453351736
1744475456273272800,2.45727294921875,-8.204730936434865,-0.4411363320589065,-3.034226241356134
1744475456283268600,2.4672685546875,-10.872758305555582,-0.19168489363342522,-1.9882078070186078
1744475456293264600,2.4772646484375,-13.080206391000747,0.09471665765717625,-0.7482175371542572
1744475456303261700,2.48726171875,-13.942081579256056,0.3715218208238482,0.33252617360576986
1744475456313257700,2.4972578125,-13.026309965640305,0.40190906804203985,1.216062427918613
1744475456323253500,2.50725341796875,-10.294767863464354,0.07280059392526746,1.800284750136733
1744475456333250800,2.517250732421875,-6.466679062849283,-0.790111682292819,2.0501826171554622
1744475456343246600,2.52724658203125,-2.832777786338329,-1.8026207918688655,2.0243561019815504
1744475456353243600,2.53724365234375,-0.13159165945947168,-2.627113174930215,1.575453519835323
1744475456363239700,2.54723974609375,1.2415016973406077,-3.1868548436254263,1.0797792496420442
1744475456373235700,2.557235595703125,1.3753817599982023,-3.4995080036342143,0.8416204818643629
1744475456383232500,2.567232421875,0.7383709736615419,-3.4241350750029085,0.6974169589173048
1744475456393228800,2.577228759765625,-0.027348610174655914,-3.1446412572741504,0.6639050768725574
1744475456403224800,2.587224853515625,-0.4564619114845991,-2.9262942744255063,0.8551455877393483
1744475456413221600,2.5972216796875,-0.5285480735301971,-2.742196182659268,1.1701138197574763
1744475456423217700,2.6072177734375,-0.3749491649240255,-2.5298966632813213,1.4417526131369172
1744475456433214700,2.617214599609375,-0.14917524694502352,-2.153014776729047,1.664943090493977
1744475456443210500,2.62721044921875,0.11833587204515933,-1.6475731457591056,1.8170644738934933
1744475456453206800,2.637206787109375,0.5040361480861902,-1.2164694012843071,1.9521245401158929
1744475456463203600,2.64720361328125,0.9945949749618768,-1.019820601633191,2.0985203854754566
1744475456473199600,2.65719970703125,1.55216982101202,-1.065385690369457,2.2276178900316355
1744475456483196000,2.66719580078125,2.098898863399029,-1.2060330552048981,2.32743406278491
1744475456493192700,2.677192626953125,2.525387076902389,-1.299587537214905,2.375060906356573
1744475456503188700,2.687188720703125,2.720995573720336,-1.3191282501175998,2.298016391251236
1744475456513184800,2.697184814453125,2.8167554568201303,-1.2479311458662152,2.114784707055986
1744475456523181600,2.707181640625,2.9478607940673824,-1.0722272268272937,1.9252480774976313
1744475456533177600,2.717177490234375,3.1908009509027004,-0.8481896311216056,1.787649432708323
1744475456543174700,2.727174560546875,3.503540620151162,-0.6757869455851614,1.6746028992429374
1744475456553170700,2.737170654296875,3.7781881668925283,-0.5478536625027656,1.54185651679039
1744475456563166700,2.747166748046875,3.866472599545121,-0.4746260753370821,1.400492528118193
1744475456573163800,2.757163818359375,3.7128473874539134,-0.3987805607579648,1.4381383681625126
1744475456583159800,2.767159912109375,3.399053825238347,-0.33041385762691494,1.594287545773387
1744475456593155600,2.777155517578125,3.056625120168924,-0.19443404621109364,1.7899660390876233
1744475456603152600,2.787152587890625,2.8933956289082765,0.0457183796018362,1.8982792604207992
1744475456613148700,2.797148681640625,2.9457980163186788,0.2838473367631435,1.948000738184154
1744475456623145500,2.8071455078125,3.1911125010699033,0.4901221890240907,1.9508076122984288
1744475456633141800,2.817141845703125,3.4654391452938316,0.5801178095087409,1.7511971863627434
1744475456643137800,2.8271376953125,3.5053152286082505,0.5293208114683627,1.4081068025141954
1744475456653134600,2.837134521484375,3.1310604756891727,0.28907150115221736,1.0092176668152213
1744475456663131000,2.847130859375,2.0799083317250013,0.022547055111825465,0.7075624322913586
1744475456673126700,2.857126708984375,0.7357903095185756,-0.25237024848163125,0.5764242156878113
1744475456683123700,2.867123779296875,-0.6408499261081219,-0.5730313583791256,0.700436014477536
1744475456693119700,2.87711962890625,-1.832590105935931,-0.9214066968932747,0.9625563072748482
1744475456703116500,2.887116455078125,-2.666665433117747,-1.2590835312604904,0.9991880749057978
1744475456713112600,2.897112548828125,-3.044616702467203,-1.417372643509507,0.8007264536790549
1744475456723108900,2.90710888671875,-2.89931975826025,-1.338539053030312,0.5302079695664346
1744475456733105700,2.917105712890625,-2.633006324622035,-1.1989528876855968,0.2089920022651553
1744475456743101700,2.927101806640625,-2.6812223662585017,-1.2347034155026078,0.0205908795427531
1744475456753097700,2.93709765625,-3.1305045953720807,-1.3976064512878656,-0.07432363877408206
1744475456763094800,2.9470947265625,-3.8602491949856277,-1.5441118945017456,-0.10415058522839099
1744475456773090600,2.957090576171875,-4.700491812625527,-1.6767252982243894,-0.2297455250237137
1744475456783087600,2.967087646484375,-5.66279253770411,-1.8251538184553384,-0.4802885580781847
1744475456793083600,2.977083740234375,-6.846467484498024,-1.878316668844223,-0.6280200359556823
1744475456803079700,2.98707958984375,-8.137240870007872,-1.6186708764016626,-0.732872668506205
1744475456813076700,2.99707666015625,-9.313049905732273,-1.0395675046324728,-0.8495796241752803
1744475456823072800,3.00707275390625,-10.049895277261733,-0.3538689674943685,-1.0960318077195434
1744475456833068500,3.017068603515625,-10.203446839594841,0.32378362583220005,-1.1697709976691752
1744475456843065900,3.02706591796875,-9.71785820234716,0.8202189435258507,-0.9756380532965063
1744475456853061600,3.0370615234375,-8.708653687274456,1.1579232504218817,-0.8021829360976814
1744475456863058700,3.04705859375,-7.269267364877462,1.382030696493387,-0.6543616610448807
1744475456873054700,3.0570546875,-5.567984840762615,1.548898836517334,-0.47618305898811664
1744475456883050800,3.06705078125,-3.8484015208035705,1.666537373948097,-0.37979061360582705
1744475456893047600,3.077047607421875,-2.3861212295532224,1.711799534215033,-0.39367293542064724
1744475456903043800,3.0870439453125,-1.2770873899847268,1.7850041788965463,-0.5794266854394227
1744475456913039600,3.09703955078125,-0.5044248551428318,1.8545500088095663,-0.9485276357918977
1744475456923036700,3.10703662109375,0.05237082322835922,1.8721242439448833,-1.2688983844406903
1744475456933032700,3.11703271484375,0.5721984146863222,1.866822338144481,-1.350012340942025
1744475456943029800,3.12702978515625,1.1301204667389393,1.9372443663701413,-1.1454857936531304
1744475456953025500,3.137025634765625,1.7840040619432924,2.052974439831078,-0.8170407518811523
1744475456963021800,3.147021728515625,2.5115970364809033,2.2531179497301577,-0.49665981063190845
1744475456973018600,3.1570185546875,3.2911417320519685,2.5068039569854736,-0.2383305806806311
1744475456983014700,3.1670146484375,4.049358392912149,2.754181219485402,-0.053984980426728724
1744475456993010700,3.1770107421875,4.786232406014204,2.9550618114873766,0.011199348074849694
1744475457003007700,3.1870078125,5.386299070835113,3.02400441481024,-0.014025401813630014
1744475457013003500,3.19700341796875,5.7656111071437595,2.9955528118297456,-0.08766379826990887
1744475457023000800,3.207000732421875,5.943749413722753,2.8640716270074247,-0.2198529304321855
1744475457032996600,3.21699658203125,5.8345198081970215,2.642336463025212,-0.28545396824218333
1744475457042992600,3.22699267578125,5.512219114398956,2.4338617626324295,-0.28421120163947344
1744475457052989700,3.23698974609375,5.136217225551605,2.3362805093243715,-0.33963746691569685
1744475457062985700,3.24698583984375,4.905493576210737,2.3768331767261026,-0.3771295046377927
1744475457072981500,3.2569814453125,4.873244919034838,2.4536048662394285,-0.37608693678230043
1744475457082978800,3.266978759765625,5.005041161155701,2.4841145707935093,-0.37801425158306956
1744475457092974600,3.276974609375,5.219780474901199,2.4715327371180056,-0.43631764319818467
1744475457102972000,3.286971923828125,5.3586435866683715,2.4246394685178996,-0.4731106292728334
1744475457112967700,3.2969677734375,5.208526090437173,2.346210659447312,-0.39437326570972797
1744475457122963700,3.306963623046875,4.740594690433144,2.2524694226935504,-0.2783908797218464
1744475457132960800,3.316960693359375,4.16858682988286,2.1923606986895203,-0.32985538349393756
1744475457142956800,3.326956787109375,3.561336975559592,2.1478245146095754,-0.5963838115897029
1744475457152952600,3.33695263671875,3.0989380752414464,2.043821411560476,-0.9448911059204489
1744475457162950000,3.346949951171875,2.7076521080225704,1.8782386351719498,-1.1494683604832738
1744475457172945700,3.356945556640625,2.1850182269722223,1.6835899232968687,-1.159633780666813
1744475457182942700,3.366942626953125,1.518433555626869,1.5927712959915399,-0.9786393540043383
1744475457192938800,3.376938720703125,0.6896370456308126,1.6394126356571912,-0.7616456854607909
1744475457202934800,3.386934814453125,-0.15176701700389383,1.7414257339328527,-0.5463134473234414
1744475457212931600,3.396931640625,-0.8794768959194421,2.0645292685464023,-0.44061859179511664
1744475457222927600,3.406927734375,-1.1525555859088896,2.4577096712097526,-0.4779122574009001
1744475457232924700,3.416924560546875,-0.9956061978310347,2.5465692734017966,-0.5402740210287272
1744475457242920700,3.426920654296875,-0.6522521946102381,2.3473902246206997,-0.5771722575761378
1744475457252916500,3.43691650390625,-0.37551089046001435,2.0038824921429157,-0.6611110622398555
1744475457262913800,3.446913818359375,-0.0944914705991745,1.6015946539163588,-0.8281307395637035
1744475457272909300,3.456909423828125,0.17988778059482574,1.2860571706429123,-1.1156762732576577
1744475457282905300,3.4669052734375,0.2415022329866886,1.0205392712965606,-1.4730875164687633
1744475457292902100,3.476902099609375,0.15879413916170595,0.6537459402993321,-1.7523824506245553
1744475457302898400,3.4868984375,0.07970423583388328,0.3083946257814765,-2.026807294525951
1744475457312895200,3.496895263671875,-0.2940601032197475,0.06448328582644462,-2.5998881911352276
1744475457322891300,3.506891357421875,-1.302309509524703,-0.0976280150592327,-3.4703017828941345
1744475457332887300,3.51688720703125,-3.1172254270821806,-0.20794190869033335,-4.214799130481481
1744475457342884400,3.52688427734375,-5.6223494681566955,-0.2258238946005702,-4.657125841368734
1744475457352880000,3.536880126953125,-8.14837776557207,-0.04103577474355698,-4.5439793546602125
1744475457362876400,3.54687646484375,-10.006640657424926,0.05437397974431515,-3.792075237947702
1744475457372873200,3.556873291015625,-10.669114386320114,-0.05262888964265584,-2.6206571306586266
1744475457382869200,3.566869140625,-10.002347928667067,-0.06641717649847269,-1.4610527952820063
1744475457392866300,3.5768662109375,-8.240153547471762,-0.22159078707545996,-0.48931335685923694
1744475457402862300,3.5868623046875,-5.829131100896,-0.6876815276488661,0.32296821779608725
1744475457412858400,3.5968583984375,-3.5260710163891313,-1.3155309562779962,0.8432727791160345
1744475457422855400,3.60685546875,-1.8074083184063434,-1.9355746795922517,1.1095083252124487
1744475457432851200,3.616851318359375,-0.8666045548647642,-2.4381315489061177,1.2813380331665276
1744475457442847200,3.62684716796875,-0.37818858523666854,-2.751933440558612,1.3955128400094807
1744475457452844300,3.63684423828125,-0.01747077476084232,-2.860259082981944,1.4783891300082206
1744475457462840300,3.64684033203125,0.3658984279841184,-2.8458842284098265,1.5371613447114825
1744475457472837000,3.656837158203125,0.8470417762607335,-2.7771587749689814,1.6361737998664379
1744475457482833400,3.66683349609375,1.3565174850523471,-2.7147566793307663,1.746371081380546
1744475457492829400,3.676829345703125,1.7590666045635939,-2.622622293251753,1.7905384321480988
1744475457502826200,3.686826171875,1.9069979889273643,-2.5781103668302294,1.7884300616919993
1744475457512822300,3.696822265625,1.906569534382224,-2.5099308568343517,1.7921917523130773
1744475457522818300,3.706818359375,1.9260902274101972,-2.394287000352144,1.785989098280668
1744475457532815000,3.716815185546875,1.940243840447068,-2.3683149392277003,1.7490655811615288
1744475457542811400,3.726811279296875,1.9169968203723429,-2.3590346313156187,1.7972798692323266
1744475457552808200,3.73680810546875,1.9132821837633847,-2.3656689547635614,1.8510566137358546
1744475457562804200,3.74680419921875,1.9186948564618824,-2.328798044614494,1.8212449744485317
1744475457572800500,3.756800537109375,2.112245251706242,-2.252204926538467,1.7831689262934027
1744475457582797300,3.76679736328125,2.454200494045019,-2.1614482585534454,1.7572141085647046
1744475457592793300,3.77679345703125,2.8374644828498363,-2.117330299885571,1.7699620925873516
1744475457602789400,3.786789306640625,3.102144177806377,-2.11644138822183,1.7681616190366445
1744475457612786200,3.7967861328125,3.234794990929961,-2.14332559575513,1.8003244976252317
1744475457622782200,3.8067822265625,3.2511002290427684,-2.1819639539681375,1.779697743051499
1744475457632779300,3.816779296875,3.250907336819172,-2.2282554572828115,1.7960384908691047
1744475457642775300,3.826775390625,3.151738522058725,-2.2644803246133027,1.8717312991045414
1744475457652771300,3.836771240234375,2.8740362639218566,-2.2786789458356798,2.010016172592342
1744475457662768400,3.846768310546875,2.4041665893316266,-2.167161375503242,2.135485549779236
1744475457672764400,3.856764404296875,1.8503344369411467,-1.9635335306197403,2.0616811856389043
1744475457682760200,3.86676025390625,1.2323171048879622,-1.7837043483443558,1.8722896636396646
1744475457692757200,3.87675732421875,0.573975945752859,-1.5521123917363584,1.613413102003932
1744475457702753300,3.886753173828125,-0.19147709610164165,-1.3249080025628208,1.3534906845770776
1744475457712750000,3.89675,-0.9813350958943367,-1.170511221577227,1.1498957190498709
1744475457722746400,3.906746337890625,-1.7632073576301335,-1.0455825271382928,0.9549426174007356
1744475457732742400,3.916742431640625,-2.703502002605796,-0.9990206824496388,0.6317137028418481
1744475457742739200,3.9267392578125,-3.8158740466862913,-1.208378303156793,0.12575842326134443
1744475457752735500,3.936735595703125,-4.826763738366961,-1.4933216184630989,-0.4652538513578474
1744475457762732300,3.946732177734375,-5.726866073685884,-1.629636507052183,-1.0149294685907662
1744475457772728300,3.956728271484375,-6.378828345438838,-1.5359978538900614,-1.4657856690227984
1744475457782724400,3.966724365234375,-6.793641903239489,-1.2157497087076305,-1.8285344008043407
1744475457792721200,3.97672119140625,-7.020346380066871,-0.7366410811290145,-2.0960748920194803
1744475457802717200,3.98671728515625,-6.891276348039508,-0.20202216325253247,-2.0660972485154865
1744475457812713500,3.99671337890625,-6.289907952970266,0.2237994030356407,-1.8409782873138785
1744475457822710300,4.006710205078125,-5.336365119364857,0.4883174776896834,-1.6453114844374357
1744475457832706300,4.016706298828125,-4.141254001799226,0.6007371114283799,-1.5301536579065025
1744475457842703400,4.026703369140625,-3.037693625205755,0.5699769392445683,-1.411982036512345
1744475457852699400,4.036699462890625,-2.5418898834139108,0.4760369650483131,-1.2936693992123007
1744475457862695200,4.046695068359375,-3.0083558870404956,0.5098781521126627,-1.2601545214928687
1744475457872692200,4.056692138671875,-4.1446956666857,0.6653118749305605,-1.2865956614337861
1744475457882688300,4.066688232421875,-5.078419116577506,1.0182228110477327,-1.3755460106492041
1744475457892684300,4.076684326171875,-5.419551936617493,1.4367162264049052,-1.4620906138971448
1744475457902681300,4.086681396484375,-5.035454419597983,1.828578532207012,-1.5359361868306993
1744475457912677400,4.096677490234375,-4.05553035954535,2.1627701548069713,-1.5272196502812205
1744475457922674400,4.10667431640625,-2.7502187455952165,2.348400570707023,-1.4173270508021116
1744475457932670500,4.11667041015625,-1.4104852220833302,2.411621873773634,-1.2227071266300975
1744475457942666200,4.126666259765625,-0.22129706482589243,2.4555925329253077,-1.0147022357061504
1744475457952663300,4.136663330078125,0.7370534613221883,2.4929224388882516,-0.8599203278604894
1744475457962659300,4.146659423828125,1.403480311757326,2.524049983079731,-0.7630196772277354
1744475457972656000,4.15665625,1.8208552444785833,2.5452494229748845,-0.8060268981747328
1744475457982652400,4.16665234375,2.0969091508865354,2.5677970626085993,-0.9184111683391034
1744475457992648400,4.1766484375,2.2958459153443576,2.6008321939870713,-1.0282309948429464
1744475458002645200,4.186645263671875,2.547556823134422,2.576015440377593,-1.0498636385235935
1744475458012641500,4.1966416015625,2.8000100737243887,2.539276778306067,-1.0079949931524694
1744475458022637300,4.20663720703125,3.105718529161811,2.5196011869773267,-0.9651965926505625
1744475458032634400,4.21663427734375,3.472905827912688,2.528769705078006,-0.9230095289800315
1744475458042630100,4.226630126953125,3.913956235253811,2.544737089538574,-0.7960125768996774
1744475458052627200,4.236627197265625,4.3988744258940216,2.5612732137978074,-0.6343225701659917
1744475458062623200,4.246623291015625,4.825711598965525,2.575752405527234,-0.5225282287187873
1744475458072619300,4.256619384765625,5.091476166549325,2.5347844353228806,-0.4716764682838693
1744475458082616300,4.2666162109375,5.152717693975568,2.4376778137892483,-0.35562151025012134
1744475458092612400,4.2766123046875,4.967725283718109,2.2924703014314174,-0.24478764786552637
1744475458102608100,4.286608154296875,4.587773780462146,2.202568496710062,-0.09933449018355459
1744475458112605400,4.29660546875,4.135951219215989,2.1598925535440445,0.007643135164305567
1744475458122601200,4.306601318359375,3.776672501632571,2.197709366241097,0.09398410559892655
1744475458132598500,4.3165986328125,3.5114310811400413,2.2631407465726134,0.15886709480006247
1744475458142594300,4.32659423828125,3.270369577658176,2.303119705739617,0.1533781419949606
1744475458152590300,4.33659033203125,3.015996757182479,2.327791790181398,0.044988421359471974
1744475458162587400,4.34658740234375,2.7681694128274916,2.3537100752919913,-0.17759247273188083
1744475458172583400,4.35658349609375,2.6146575979828834,2.3172183737188576,-0.4417692231349647
1744475458182580200,4.366580322265625,2.5829858639121053,2.2066484595000744,-0.637275428622216
1744475458192576500,4.376576416015625,2.368939793127775,2.0517706169992684,-0.7302216425407677
1744475458202572300,4.386572265625,1.8957845209956168,1.986689949801564,-0.8017580617491156
1744475458212569300,4.3965693359375,1.46912095092535,2.0411662208765744,-0.8777294677302241
1744475458222565400,4.4065654296875,1.1394237171351909,1.9646827006548642,-0.9932353039812296
1744475458232561400,4.4165615234375,0.8916934034138917,1.7898603867560623,-1.0848933777853846
1744475458242558200,4.42655810546875,0.7799111907958984,1.633251190418005,-1.0581790469262748
1744475458252554500,4.436554443359375,0.7815770781815051,1.5818220319539307,-1.054711590011418
1744475458262551300,4.44655126953125,0.8652028713732958,1.5984879200726747,-1.0965470637653023
1744475458272547300,4.45654736328125,0.9378899219214916,1.7525263891398906,-1.0800440380580723
1744475458282543000,4.466543212890625,0.9396540089845656,1.919331400799751,-1.116217321331799
1744475458292540200,4.4765400390625,0.7298094815433025,1.8902122738212346,-1.1829235439047217
1744475458302536200,4.4865361328125,0.4150988044828176,1.7027087575256823,-1.2602186727702618
1744475458312532200,4.4965322265625,0.21001988400816915,1.387614634105563,-1.3419509073004126
1744475458322529000,4.506529052734375,0.2965232784628868,0.9553232872813939,-1.4682903453201055
1744475458332525300,4.516525390625,0.5456827482044696,0.5738759925097227,-1.758730212216079
1744475458342522000,4.526522216796875,0.43931788446009157,0.27248160087913276,-2.2259018798939882
1744475458352518100,4.53651806640625,-0.4408101688444614,0.052285190771520135,-2.89107683057189
1744475458362514200,4.54651416015625,-1.8785574918627739,0.07015957789719104,-3.575430967363715
1744475458372511200,4.55651123046875,-3.631598844787478,0.31322540693879125,-3.85929350169599
1744475458382507000,4.566507080078125,-5.478308076968789,0.6226628197714686,-3.4806130412891507
1744475458392503300,4.57650341796875,-6.951423065966368,0.8177101755753159,-2.5130419745922086
1744475458402500000,4.5865,-7.632777436420321,0.9994885922223329,-1.4623516029208898
1744475458412496100,4.59649609375,-7.258373045897484,1.1655723038703203,-0.6254277544401585
1744475458422493200,4.6064931640625,-6.0218497214913365,1.0716443123728037,-0.07742401594221592
1744475458432489200,4.6164892578125,-4.414714384582639,0.5278662287458777,0.21117036921754478
1744475458442485000,4.626485107421875,-3.028372254630923,-0.2549398067086935,0.036495208704471586
1744475458452482300,4.636482421875,-2.168176397764683,-1.0231510612301529,-0.562608017911762
1744475458462478000,4.64647802734375,-1.7061001535296438,-1.722117660742253,-0.9866635974407195
1744475458472475400,4.656475341796875,-1.6862801852941511,-2.3530219468973574,-1.010292602570355
1744475458482471200,4.66647119140625,-2.0014000276774166,-2.71169992210865,-0.9306111630901693
1744475458492467200,4.67646728515625,-2.4514117401093243,-2.6531100782349704,-0.8802040411502122
1744475458502464300,4.68646435546875,-2.6680378905147313,-2.3178991955898702,-0.7788735183112323
1744475458512460300,4.696460205078125,-2.6114813060343263,-2.0393211775317788,-0.5887630343876779
1744475458522456000,4.7064560546875,-2.3661247357070443,-1.8504855358496308,-0.26540552501305936
1744475458532453400,4.716453369140625,-1.9193185413181781,-1.7149955537773667,0.11157821447849273
1744475458542449200,4.72644921875,-1.2961685225516557,-1.7068905732549726,0.4718034191317856
1744475458552446200,4.7364462890625,-0.4872293901920318,-1.7980178281180559,0.7594887266226112
1744475458562442200,4.746442138671875,0.4557505483448505,-1.9492973538659513,0.9815043149814009
1744475458572438300,4.756438232421875,1.465441385629773,-2.114714418298751,1.2017965866789222
1744475458582435000,4.76643505859375,2.3671914881557226,-2.281691133263707,1.3713158257335423
1744475458592431400,4.776431396484375,3.089666389027238,-2.3893293779447675,1.4446245153114199
1744475458602427100,4.78642724609375,3.5828894666761157,-2.470456047797203,1.4891238745123148
1744475458612424200,4.796424072265625,3.8010342049509283,-2.5077497134029865,1.4886181169472634
1744475458622420000,4.806419921875,3.876287306594848,-2.5415137435778976,1.4587103238090873
1744475458632417300,4.816417236328125,3.841536895731091,-2.590338564762473,1.4401356794595717
1744475458642413000,4.8264130859375,3.7508284508019685,-2.6879689179092643,1.4072558847732841
1744475458652409000,4.8364091796875,3.5980934655487533,-2.7972078757852312,1.3248781919464467
1744475458662406100,4.84640625,3.3748183786481616,-2.8720076807036996,1.2726229579217732
1744475458672402200,4.856402099609375,3.1069033550322054,-2.8852362878501414,1.2935893197134136
1744475458682398200,4.866398193359375,2.845338577225804,-2.899450398902595,1.3797855479151009
1744475458692395300,4.876395263671875,2.4171879834681747,-2.925964896340668,1.5599861938513815
1744475458702391000,4.88639111328125,1.7914923718720674,-2.8331536339133976,1.74460085683763
1744475458712388400,4.896388427734375,1.1974129647672176,-2.7212793590977786,1.7955859247960149
1744475458722384100,4.906384033203125,0.6134674136638641,-2.738261473558843,1.6263443336389958
1744475458732380200,4.916380126953125,-0.09366261855959891,-2.8406027808755634,1.365972565009445
1744475458742377200,4.926377197265625,-1.0663888760626314,-2.8749595162466166,1.1348096474684775
1744475458752373200,4.936373291015625,-2.2060586769133805,-2.7095281310275197,0.9684620241872965
1744475458762370000,4.9463701171875,-3.2621313261449334,-2.5641005461782216,0.8918338347978889
1744475458772366300,4.956366455078125,-4.079897323560714,-2.4770775117635724,0.7476981894552708
1744475458782362000,4.966362060546875,-4.613535413706303,-2.314493624930084,0.4927674428358674
1744475458792359200,4.976359130859375,-4.782269932124018,-2.0764780650153756,0.17922566342428325
1744475458802355200,4.986355224609375,-4.487479761064052,-1.9463358737118541,-0.08062799961529672
1744475458812351200,4.996351318359375,-3.970047540310025,-1.918063572821021,-0.45906047661043703
1744475458822348000,5.00634814453125,-3.5959675594359632,-1.9859622200489042,-0.9130813516184687
1744475458832344300,5.01634423828125,-3.652161155822873,-2.024107826308906,-1.396343007223308
1744475458842341000,5.026341064453125,-4.2155496565878385,-1.86401750985682,-1.830509208008647
1744475458852337200,5.036337158203125,-5.016186240026355,-1.530782165068388,-2.0860840977504846
1744475458862333200,5.046333251953125,-5.638590408861637,-1.2090726420965046,-2.1905006039060653
1744475458872330200,5.056330322265625,-5.76682223649919,-0.8540427410639821,-2.2701320667646825
1744475458882326000,5.066325927734375,-5.57200342875421,-0.4648357720762491,-2.310492572595179
1744475458892322300,5.076322265625,-5.405006109392643,-0.14377996377274394,-2.323715772914141
1744475458902319000,5.086319091796875,-5.634711521601677,0.1782247427534312,-2.3517561647452414
1744475458912315100,5.096315185546875,-6.325647959393263,0.4626323437478393,-2.482100892883539
1744475458922312200,5.106312255859375,-7.188707973518968,0.6767910811264067,-2.699866276451945
1744475458932308200,5.11630810546875,-7.789446838513016,0.9098922732535749,-2.694691796423495
1744475458942304300,5.12630419921875,-7.829642070779204,1.1653092690199613,-2.3813602987617255
1744475458952301300,5.13630126953125,-7.106690784567594,1.3865730160981415,-1.9654851030789315
1744475458962297000,5.146297119140625,-5.843769282579422,1.549144920232892,-1.635082205237448
1744475458972294100,5.156294189453125,-4.465850697579979,1.5698118606865405,-1.4728436247102916
1744475458982290200,5.166290283203125,-3.2853286618590354,1.5644757603555917,-1.509138488537073
1744475458992286200,5.1762861328125,-2.4619220282077787,1.511867767370492,-1.6466335268214345
1744475459002283000,5.186282958984375,-1.9744927315294742,1.3583024687729774,-1.7461806733749805
1744475459012279300,5.196279296875,-1.675120493376255,1.2231699218362568,-1.8009161799080668
1744475459022275300,5.206275390625,-1.4225696276307105,1.158935788465291,-1.8407728278696536
1744475459032272100,5.216272216796875,-1.084402087137103,1.1261834195509552,-1.8694599931716918
1744475459042268200,5.22626806640625,-0.5538426737844944,1.1615613146632908,-1.7987391281299292
1744475459052265200,5.23626513671875,0.11138941390812396,1.21513537620157,-1.6530191362053155
1744475459062261000,5.246260986328125,0.775185915839672,1.2553642184764147,-1.5491523728869854
1744475459072257300,5.25625732421875,1.3938111506581305,1.3065382331356405,-1.5032739804178477
1744475459082254000,5.266254150390625,1.8981494965612886,1.3588342375621199,-1.5037651249356567
1744475459092250000,5.27625,2.2363328191459177,1.4172270975589751,-1.5649518534347413
1744475459102246400,5.286246337890625,2.407732172858715,1.445338508799672,-1.6761755553871391
1744475459112243200,5.2962431640625,2.4804180543631316,1.4720876917764543,-1.7678300489947198
1744475459122239200,5.3062392578125,2.5649381660461423,1.5207871330156921,-1.821037469177693
1744475459132236300,5.316236328125,2.635052151235938,1.5809703835606574,-1.8646416331045328
1744475459142232000,5.326232177734375,2.631799286919832,1.665550993259251,-1.8860799963220953
1744475459152228000,5.33622802734375,2.698238382989168,1.8448197651728986,-1.8800889392137525
1744475459162225200,5.34622509765625,2.8840830261617896,2.0547569393336773,-1.7691048912361262
1744475459172221200,5.35622119140625,3.1426310864955185,2.266164770568907,-1.6462186624102293
1744475459182217200,5.36621728515625,3.433034420773387,2.4417095535233617,-1.5226003199175
1744475459192214300,5.37621435546875,3.6939825279861687,2.5981726193889974,-1.5382771969988942
1744475459202210300,5.386210205078125,3.915484759995341,2.6925772884875534,-1.638497274377942
1744475459212207000,5.39620703125,3.995907957753539,2.6591934898018836,-1.8704352679446339
1744475459222203100,5.406203125,3.9248873791128394,2.4849156580433247,-2.083023541136086
1744475459232199200,5.41619921875,3.601912147054076,2.2228309480160475,-2.03372861822173
1744475459242196000,5.426196044921875,3.1266607794255017,2.014435450339317,-1.8713829240582882
1744475459252192300,5.436192138671875,2.6075094797939062,1.9042171260371803,-1.663948380368203
1744475459262188300,5.446188232421875,2.0920085193634033,1.9032301608264446,-1.415811970064044
1744475459272186000,5.45618603515625,1.735264873215556,2.0492346687808634,-1.2545005873844026
1744475459282182000,5.466181884765625,1.6401912188142538,2.301423130954802,-1.2415377915672958
1744475459292179000,5.476178955078125,1.712539831188321,2.4046625561550257,-1.3941598179653285
1744475459302175000,5.486175048828125,1.7989029403895138,2.2784788932189346,-1.7160133525177836
1744475459312171000,5.4961708984375,1.694633587619662,2.0356682079821824,-2.122855493047833
1744475459322167800,5.506167724609375,1.2979746951907873,1.7721631097629664,-2.3201962204858657
1744475459332164000,5.5161640625,0.7183283025860786,1.5722852650627492,-2.384481645652652
1744475459342160000,5.526159912109375,0.19000000928640365,1.4694187648281454,-2.4183180104114115
1744475459352157000,5.536156982421875,-0.09796528418958186,1.451690800435841,-2.524635966274142
1744475459362153000,5.546153076171875,-0.03885317000746727,1.4920418077856301,-2.6378561027407645
1744475459372150000,5.55614990234375,0.28817221422493455,1.6278548843324183,-2.728058059452474
1744475459382145800,5.566145751953125,0.5144020592778921,1.7718185341089963,-2.683131414750218
1744475459392141800,5.576141845703125,0.5055383693426847,1.9789371437177061,-2.600167300337553
1744475459402139000,5.586138916015625,0.2566021869629621,2.244046170002222,-2.6537644504904745
1744475459412135000,5.596135009765625,-0.23323826251029967,2.521194009126723,-2.9952336628779768
1744475459422132000,5.606132080078125,-0.9571434884458779,2.7208716550797223,-3.223629453793168
1744475459432128000,5.6161279296875,-1.774719516247511,2.8034236815601585,-3.3085756819337604
1744475459442123800,5.626123779296875,-2.5277929690003393,2.8021476702749726,-3.4660976092025635
1744475459452121000,5.63612109375,-3.0767513778746127,2.724277664130926,-3.6582211865141985
1744475459462116900,5.646116943359375,-3.408583285605907,2.527030752456188,-3.5638191477641463
1744475459472113000,5.65611279296875,-3.4711499241560695,2.265717319062352,-3.219212806394696
1744475459482110000,5.66610986328125,-3.2639550344407557,2.0824790589958426,-2.8179166095539925
1744475459492106000,5.67610595703125,-2.964680995965004,1.9517688585460184,-2.556969963645935
1744475459502102000,5.68610205078125,-2.719647081720829,1.850199704645574,-2.5662080398514866
1744475459512099000,5.69609912109375,-2.343078206640482,1.7668807854458688,-2.6561890472888945
1744475459522094800,5.7060947265625,-1.9085697682887315,1.6841829207539558,-2.7136142312973734
1744475459532092000,5.716091796875,-1.4856851322352886,1.5148983672380447,-2.562445764708519
1744475459542088000,5.726087890625,-1.1180962669461965,1.2692848995402455,-2.1565013036705554
1744475459552084000,5.736083984375,-0.81842066193223,1.0857385964378714,-1.7447008100807666
1744475459562080800,5.746080810546875,-0.5143418535232543,1.0325425744317471,-1.4157941421464084
1744475459572077000,5.7560771484375,-0.34006197593808174,1.0744042786054313,-1.1834798626132308
1744475459582073900,5.766073974609375,-0.14284370583593844,1.2998112629681824,-1.298937110482156
1744475459592070000,5.77606982421875,0.07999649677872657,1.2361606285735964,-1.284668054372072
1744475459602066000,5.78606591796875,0.24790508576631545,0.6860587487526237,-0.8422270694553852
1744475459612063000,5.79606298828125,0.2988356470584869,0.34966464767232536,-0.5357368159905076
1744475459622058800,5.806058837890625,0.25411329275667666,0.3840836346246302,-0.5484428605675697
1744475459632055000,5.816054931640625,0.21558862405121326,0.5959019463568925,-0.4459928321793675
1744475459642051800,5.8260517578125,0.40061435205638407,0.7420520002618431,-0.07295534609556198
1744475459652048000,5.8360478515625,0.7372270643234252,0.8818678827092051,0.40410248643308877
1744475459662045000,5.846044921875,1.2246832490086554,1.0407301186710596,0.8865279834747314
1744475459672041000,5.856041015625,1.6366835029542446,1.0610054294586182,1.3178370412632823
1744475459682037000,5.866037109375,1.4931301875442267,0.836930716612935,1.5542802372947335
1744475459692034000,5.876033935546875,0.9066367055237293,0.5574158560961484,1.4245952882394193
1744475459702029800,5.88602978515625,0.2965244475066662,0.27738895440399647,1.1497656629294157
1744475459712025900,5.89602587890625,-0.11021803204119204,-0.08398001345694064,0.9352212872341275
1744475459722023000,5.90602294921875,-0.29011048881113527,-0.5067880771428346,0.8285673774152994
1744475459732019000,5.91601904296875,-0.20313538519144056,-0.8133619172379374,0.8287351351976394
1744475459742015700,5.926015625,-0.042671266990900035,-0.9589084522917866,0.86796444504112
1744475459752012000,5.936011962890625,0.12368249377012253,-1.0448618116483093,0.9675769119158386
1744475459762008000,5.946008056640625,0.1967255181491375,-1.083757067231834,1.031632035458088
1744475459772004900,5.9560048828125,0.0009726444244384765,-1.0769773439638315,1.0667974568635226
1744475459782001000,5.9660009765625,-0.382113649725914,-1.0432236890524624,1.1363029547661543
1744475459791997000,5.975996826171875,-0.6787555861324072,-1.0085713317357003,1.1969821721345186
1744475459801993700,5.98599365234375,-0.7908686381399631,-1.0516839127533137,1.3564678006917237
1744475459811990000,5.995989990234375,-0.881148044002056,-1.3200751755788922,1.6345461986646055
1744475459821986800,6.00598681640625,-0.9732628485977649,-1.746570695605874,1.8506141306653618
1744475459831982800,6.01598291015625,-0.9628133507758379,-2.1432653900004923,1.8880372678697108
1744475459841979100,6.025979248046875,-0.8330722876191139,-2.3949106852084396,1.7265806315004824
1744475459851976000,6.035975830078125,-0.6547732375204562,-2.5589023930132386,1.4794688880689442
1744475459861972000,6.045971923828125,-0.563515342015028,-2.710779007871449,1.287061379249394
1744475459871968000,6.055968017578125,-0.6006073475688696,-2.8952210907697675,1.3526035264790057
1744475459881964800,6.06596484375,-0.6754010150074958,-3.057207011710107,1.4688902109093964
1744475459891960800,6.0759609375,-0.7889619277358054,-3.2007991978257895,1.517001476997137
1744475459901958000,6.0859580078125,-1.0067892706245183,-3.2923262656614183,1.2604990971468388
1744475459911954000,6.095953857421875,-1.416445591792464,-3.357577320989966,0.8170642788872122
1744475459921950000,6.105949951171875,-2.104308613488078,-3.4228666625022885,0.3750273447267711
1744475459931947000,6.115947021484375,-2.9872581539541483,-3.4760230831503867,0.07572115754708647
1744475459941943000,6.125943115234375,-3.7820337364047765,-3.347840063090622,-0.07595730439051986
1744475459951938800,6.135938720703125,-4.454376532885432,-3.2810052457019685,-0.26235958144590255
1744475459961936000,6.145935791015625,-4.967155374875665,-3.309782719635963,-0.6786509567141532
1744475459971932000,6.155931884765625,-5.176242946469784,-3.269519390569627,-1.358989866515249
1744475459981928700,6.1659287109375,-5.301188592043519,-3.0869694050282237,-1.965855105435103
1744475459991925000,6.175925048828125,-5.676103854697942,-2.761361194117367,-2.288063883166015
1744475460001921000,6.185921142578125,-6.269829041537642,-2.2109474718682467,-2.195553357250988
1744475460011917800,6.195917724609375,-6.828792127075791,-1.4883978983253239,-1.7051402224563061
1744475460021914000,6.2059140625,-6.863971577006578,-0.5031435831606388,-1.0894979489713907
1744475460031910000,6.215909912109375,-6.116285077989101,0.6018868659853935,-0.6531590803220868
1744475460041907000,6.225906982421875,-4.77654278664887,1.5025485887527466,-0.4480259454421699
1744475460051903000,6.235903076171875,-3.1084990997910498,2.0426392160385847,-0.39449060847908257
1744475460061899000,6.24589892578125,-1.2959621863245963,2.220394076257944,-0.46732985391430554
1744475460071895800,6.255895751953125,0.326081381380558,2.1592229837194084,-0.6500683477651328
1744475460081892000,6.26589208984375,1.3807505935549735,1.8934525709167123,-0.8799313616886735
1744475460091889000,6.275888916015625,1.8706676153957842,1.5231681829333303,-1.0378196380518376
1744475460101885000,6.285885009765625,2.0784329984754324,1.2538570287838577,-1.04991441886276
1744475460111881000,6.295880859375,2.1531629530280827,1.1476584615170955,-0.9713703128494322
1744475460121878000,6.3058779296875,2.1451620174020527,1.1319473899051546,-0.7940209646910429
1744475460131873800,6.315873779296875,2.014193458276987,1.196612169778347,-0.5904042987886816
1744475460141870800,6.325870849609375,1.769860970300436,1.3372513513073325,-0.5189254184538499
1744475460151867000,6.335866943359375,1.3849024525374174,1.5726543906360864,-0.6307127091057598
1744475460161863000,6.34586279296875,0.8991162468910217,1.8213506267800925,-0.840944701494649
1744475460171860000,6.35585986328125,0.4678980822563171,2.085634308156371,-1.0320121938820928
1744475460181856000,6.36585595703125,0.136393506783247,2.297702064605057,-1.1235114238627255
1744475460191851800,6.375851806640625,-0.06275660816431045,2.47669961836189,-1.1651670110050587
1744475460201849000,6.38584912109375,-0.08190437622666358,2.671749896775186,-1.14608799732998
1744475460211844900,6.395844970703125,0.10536533131301402,2.784161054946482,-1.0783281740508972
1744475460221842200,6.40584228515625,0.4425707487761974,2.8304446672156454,-0.9706430214881896
1744475460231838000,6.415837890625,0.8589163384497165,2.8142820524439216,-0.9481263615146279
1744475460241834000,6.425833984375,1.3332283794015645,2.754795844252407,-0.9960797336269169
1744475460251831000,6.4358310546875,1.7404256169795989,2.7100115306302905,-1.0592410501345992
1744475460261827000,6.4458271484375,2.0301456451684237,2.776113649830222,-1.2533243832118808
1744475460271822300,6.455822265625,2.19166131824851,2.948774401780963,-1.4833959983848035
1744475460281819600,6.465819580078125,2.4097522805094718,2.8160534460306166,-1.2710891724832356
1744475460291815400,6.4758154296875,2.5792992843538523,2.6214164245933294,-1.0759295154113322
1744475460301812700,6.485812744140625,2.6844588639616966,2.561894852827489,-1.115073996515572
1744475460311808500,6.49580859375,2.8517841001033783,2.5855571757048366,-1.2447625988326967
1744475460321804500,6.505804443359375,3.034497459512949,2.6160481755584475,-1.24368386368528
1744475460331801600,6.515801513671875,3.1504490667700766,2.597908123233914,-1.0864995708730072
1744475460341797600,6.525797607421875,3.1300118434190747,2.5380086580663916,-0.8157567034199833
1744475460351793400,6.53579345703125,3.016415859377384,2.460173723235726,-0.5803857031973079
1744475460361790700,6.545790771484375,2.831744936159253,2.4342642059534785,-0.405677736393176
1744475460371786500,6.555786376953125,2.56803788562715,2.440364568655193,-0.399837997389026
1744475460381783600,6.565783447265625,2.3418331750154495,2.4347066890239715,-0.5569141171190888
1744475460391779600,6.575779541015625,2.1219798792570828,2.4371722023546694,-0.8291520454354584
1744475460401775600,6.585775634765625,1.9826240155369041,2.4162635620996356,-1.0756796323034912
1744475460411772400,6.5957724609375,1.948293291389942,2.318937744857371,-1.1938231235817074
1744475460421768700,6.605768798828125,1.8715806385874747,2.143594621954858,-1.1641622909419238
1744475460431764500,6.615764404296875,1.7735037107169627,1.9934458538025617,-0.9163510940041393
1744475460441761500,6.625761474609375,1.5457944407612085,1.9169696401044725,-0.6888182035285979
1744475460451757600,6.635757568359375,1.2918407224804163,1.797729512695968,-0.6292972162846475
1744475460461754600,6.645754638671875,1.0841004738420248,1.7049197115734218,-0.7077364736840128
1744475460471750400,6.65575048828125,0.9859119022905826,1.5944462434664368,-0.8529409903671592
1744475460481746700,6.66574658203125,0.9477087206244468,1.3802028965443371,-1.1500746558133512
1744475460491743500,6.675743408203125,0.8360042494177817,1.0940201025709508,-1.533938437142223
1744475460501739500,6.685739501953125,0.598577303045988,0.797385180427134,-1.9714555557906626
1744475460511736600,6.695736572265625,0.13885551298260687,0.5747469301253557,-2.294936399284005
1744475460521732600,6.705732666015625,-0.4032826944828033,0.45696956874579187,-2.343771157340705
1744475460531728400,6.715728271484375,-0.9144915106773376,0.43558308184593914,-2.3043491014041004
1744475460541725700,6.7257255859375,-1.3534101666867733,0.5843313355505466,-2.3023406841911376
1744475460551721500,6.735721435546875,-1.5717682554513215,0.7700085132017731,-2.29227916277349
1744475460561717500,6.745717529296875,-1.4428046064078808,0.942756651175022,-2.275794914831966
1744475460571714600,6.755714599609375,-0.9602443770706653,1.1507082044765353,-2.3460241969645024
1744475460581710600,6.765710693359375,-0.3657031976729631,1.3107237021267413,-2.5742782413214442
1744475460591707400,6.775707275390625,-0.1921849521100521,1.3176482406929135,-2.784194664955139
1744475460601703700,6.78570361328125,-0.6393354298919439,1.245771629744768,-2.96087371263653
1744475460611699500,6.795699462890625,-1.5175561882704496,1.1459309070721269,-3.069225950805843
1744475460621696500,6.805696533203125,-2.573257081580162,1.1090732947960495,-3.0114860017597676
1744475460631692500,6.815692626953125,-3.6319992422819136,1.0684659745976328,-2.7904344361275433
1744475460641688600,6.8256884765625,-4.590382501655816,0.9917118207409977,-2.3683747065909206
1744475460651685400,6.835685302734375,-5.188908366775513,0.9417729008346796,-1.7701468015044926
1744475460661681700,6.845681640625,-5.378316255387664,0.9698486562401055,-1.15942751750499
1744475460671678500,6.855678466796875,-5.211352253773808,1.0822028235271572,-0.6628247342899442
1744475460681674500,6.865674560546875,-4.682535300174355,1.1990069559603929,-0.34172830171510576
1744475460691670800,6.8756708984375,-3.6804280498862263,1.1391285335808992,-0.12433891185224055
1744475460701667600,6.88566748046875,-2.4112135852336882,0.927821824632585,-0.03819645966440439
1744475460711663400,6.895663330078125,-1.2973118473678826,0.5759146587304771,-0.0949174409262836
1744475460721659600,6.90565966796875,-0.5992588555693626,0.18280512934625148,-0.24140067230835555
1744475460731656400,6.915656494140625,-0.23481530256867408,-0.11632803935408592,-0.3542982988223433
1744475460741652500,6.925652587890625,0.021681670454144476,-0.21040669136866927,-0.40477307917103167
1744475460751649500,6.9356494140625,0.28633564644753934,-0.20394509413912892,-0.33995486230179667
1744475460761645600,6.9456455078125,0.46045010433793065,-0.1802142360702157,-0.16161723375841974
1744475460771641600,6.9556416015625,0.5480979926526546,-0.24808847950920462,0.061902913944423196
1744475460781638700,6.965638671875,0.6286421864420175,-0.294981455848366,0.348086584700644
1744475460791634400,6.975634521484375,0.579226121366024,-0.3526237897388637,0.7142902792416512
1744475460801631500,6.985631591796875,0.367607569989562,-0.45598114223033187,1.0138811285816132
1744475460811627500,6.99562744140625,0.0453524688988924,-0.5310090568162501,1.2463039830558
1744475460821623600,7.00562353515625,-0.37601124119758605,-0.5722824397079647,1.5073410837262868
1744475460831620400,7.015620361328125,-0.786609227129817,-0.6812073631986976,1.7492803929559886
1744475460841616600,7.02561669921875,-0.8924544509142637,-0.8089540376678108,2.0011255946502087
1744475460851612700,7.03561279296875,-0.6019535014808177,-0.9932160878241062,2.2647494969435034
1744475460861609500,7.045609375,-0.15374562360048294,-1.1842311193719506,2.4590450114667415
1744475460871605800,7.055605712890625,0.27589550097584725,-1.3004732340082525,2.447282969741523
1744475460881602600,7.0656025390625,0.6510276212513446,-1.4497216923199594,2.335738365271687
1744475460891598300,7.075598388671875,0.927825624024868,-1.5902767026968299,2.206956794796884
1744475460901594600,7.0855947265625,1.105472932216525,-1.6324156163766979,2.079398044115305
1744475460911591400,7.09559130859375,1.1728232979118822,-1.6733612286187707,1.9732738572590052
1744475460921587500,7.10558740234375,1.1661831292450426,-1.6543404479369521,1.8894164472684263
1744475460931583700,7.115583740234375,1.0543611691385506,-1.6183203093983232,1.8644469873152671
1744475460941580500,7.12558056640625,0.9001520196795463,-1.5689643039464949,1.8325816303685307
1744475460951576600,7.13557666015625,0.8412643619030713,-1.4616031226411461,1.901942459103465
1744475460961573600,7.14557373046875,0.8998720336943864,-1.296611882404983,2.0401443304829296
1744475460971569700,7.155569580078125,0.9770639944463968,-1.0593195221982896,2.1161619867585597
1744475460981565400,7.1655654296875,1.0749638121843337,-0.8698279008254408,2.1576076574772594
1744475460991562500,7.1755625,1.2316302916675805,-0.7248395841762423,2.1782566238828003
1744475461001558500,7.18555859375,1.3864999508619307,-0.6298176599621772,2.0969971214309333
1744475461011555600,7.1955556640625,1.5308143137723207,-0.6094491179332137,1.9064280800849198
1744475461021551600,7.205551513671875,1.7281570870369671,-0.6134506086595356,1.6620274953082204
1744475461031547600,7.215547607421875,1.9401386265069245,-0.6279315539546311,1.4319640634417532
1744475461041544700,7.225544677734375,2.2087696894377467,-0.6590938771985471,1.291863518834114
1744475461051540700,7.235540771484375,2.5558383292675018,-0.6522733835287392,1.2945010277308522
1744475461061536500,7.24553662109375,2.929697360867262,-0.5879233686931431,1.417978792709112
1744475461071533600,7.255533447265625,3.269869811442494,-0.4586760804027319,1.598656116246432
1744475461081529600,7.265529541015625,3.619282384049892,-0.361148164717108,1.728911850927025
1744475461091526400,7.2755263671875,3.932132527935505,-0.17588672825992108,1.8479928422510623
1744475461101522400,7.2855224609375,4.26972548341155,-0.011497983961552381,1.8385002067625522
1744475461111518700,7.295518798828125,4.65995931122899,0.012474281647801398,1.7337002542473374
1744475461121515500,7.305515625,4.970574243408441,-0.08045286224409938,1.5742843299254774
1744475461131511600,7.315511474609375,4.936071085304022,-0.3039573739863932,1.3636612193271518
1744475461141507600,7.325507568359375,4.505917919552326,-0.4815829087376594,1.2096567255947739
1744475461151504600,7.335504638671875,3.843883166596293,-0.6222538005791605,1.2543847059197724
1744475461161500400,7.34550048828125,2.9466975955069064,-0.7268988547936082,1.3199939270362258
1744475461171497500,7.35549755859375,1.923598995116353,-0.6890113149479031,1.324995388585329
1744475461181493500,7.365493408203125,0.875120454275608,-0.6169290984250605,1.1410784986048936
1744475461191489500,7.375489501953125,-0.18215221839547155,-0.6485746751412749,0.5743023281630129
1744475461201486600,7.385486572265625,-1.1162643753439188,-0.9156624541528522,-0.10469926861971617
1744475461211482600,7.395482666015625,-2.0603022985011337,-1.3354194597050546,-0.516914334359765
1744475461221478400,7.405478515625,-3.163128515601158,-1.8031262571729718,-0.4732094134721905
1744475461231475700,7.415475830078125,-4.498968538805842,-2.194610231181979,-0.18507197829969227
1744475461241471500,7.425471435546875,-5.762022142741084,-2.247752769435197,0.04040858275592327
1744475461251468500,7.435468505859375,-6.489566601961851,-1.9567443088710308,0.14625081086568534
1744475461261464600,7.445464599609375,-6.2989545982569455,-1.3997687438882886,0.15843255757400765
1744475461271461000,7.455461181640625,-5.316345829164981,-0.8542886786490679,0.04386332631967962
1744475461281458200,7.465458251953125,-4.190606353989243,-0.6894669497609138,-0.14953423471683636
1744475461291454000,7.475453857421875,-3.2350200318574904,-0.7316872581139207,-0.4847597121428698
1744475461301450000,7.485449951171875,-2.490892686626315,-1.0260551121085881,-0.8428095455184579
1744475461311447000,7.495447021484375,-1.9679080924421548,-1.5707400814473629,-1.1823558270193635
1744475461321443000,7.505443115234375,-1.4695879839152097,-2.1490224922224876,-1.4638783740967511
1744475461331439900,7.51543994140625,-1.1320113950520754,-2.6441528647974133,-1.4635715001046656
1744475461341436200,7.525436279296875,-1.4732622885137796,-2.886729449017346,-1.5693291917361318
1744475461351432200,7.53543212890625,-3.0784616889238356,-2.6518346514716744,-2.145965735000372
1744475461361429000,7.545428955078125,-6.161015031075477,-2.1466528404816985,-2.1568502632386983
1744475461371425000,7.555425048828125,-9.957271938621997,-1.5255407572835682,-1.1604997498463838
1744475461381421000,7.565421142578125,-13.194455870515107,-0.5978431435525416,-0.15494140925630925
1744475461391417900,7.57541796875,-14.664118088710307,0.5429942397728562,0.2822534917004406
1744475461401414100,7.5854140625,-14.035808495223522,1.8701801241397857,0.12043408643342554
1744475461411411000,7.595410888671875,-11.851658283257484,3.071908906279504,-0.4258208356358111
1744475461421407000,7.605406982421875,-8.85267929637134,3.4147660658940673,-0.9031824003513902
1744475461431403300,7.6154033203125,-5.835776530259848,3.2181288105502723,-1.3504200449600814
1744475461441400000,7.625400146484375,-3.4761762278854844,2.877209633260965,-1.9293238025039434
1744475461451396000,7.63539599609375,-1.9094599951267242,2.4995447796374557,-2.3648935864768923
1744475461461392100,7.64539208984375,-1.0399667330831288,2.250232165160775,-2.4452492719568313
1744475461471389000,7.655388916015625,-0.6018629005879164,2.2201666972428558,-2.187905326715857
1744475461481385000,7.665385009765625,-0.22090485063791274,2.45457224996686,-1.7285476937897502
1744475461491382000,7.675382080078125,0.31803602209091186,2.8950363818526266,-1.1885514667890966
1744475461501378000,7.6853779296875,1.0807271980166435,3.437535823845863,-0.6975114322677254
1744475461511374000,7.6953740234375,2.009275291097164,3.9287458081066604,-0.32558146903440355
1744475461521371100,7.70537109375,2.975079640382528,4.290325788369775,-0.10176869506053626
1744475461531367200,7.7153671875,3.9113679723262784,4.510229937532544,0.004284910777583718
1744475461541363000,7.725363037109375,4.703467029044032,4.542758580693603,-0.003976831209100783
1744475461551360300,7.7353603515625,5.224671754074096,4.407733439654112,-0.08861461445502937
1744475461561356000,7.74535595703125,5.350539775189757,4.165404108193517,-0.1677460553696379
1744475461571352800,7.755352783203125,5.195643227988481,3.9337504845261573,-0.1946937200605869
1744475461581349000,7.76534912109375,5.040863585165143,3.8215041615277525,-0.20650603066831827
1744475461591345200,7.77534521484375,4.925488316491246,3.7221763568133115,-0.23948276465674861
1744475461601342000,7.785342041015625,4.792994155234098,3.5997184364020822,-0.3760981888286769
1744475461611338200,7.795338134765625,4.731545707058906,3.552672607588768,-0.5660367502514273
1744475461621334000,7.805333984375,4.785638531774282,3.5942233461171385,-0.6722310797344893
1744475461631331000,7.8153310546875,4.878814243599773,3.6121056242883203,-0.652694385419786
1744475461641327000,7.8253271484375,5.024964589765667,3.61924906630218,-0.625618162445724
1744475461651324200,7.83532421875,5.279281880661845,3.5984348263323307,-0.5745849444966763
1744475461661320000,7.84531982421875,5.553941117841005,3.5527591168284416,-0.4839612552415579
1744475461671316200,7.855316162109375,5.795819782924652,3.4950001708209513,-0.371172057538107
1744475461681313000,7.86531298828125,5.7764007967054845,3.3977082558482885,-0.20947445201985537
1744475461691309000,7.87530908203125,5.559879275718331,3.2700054205209015,-0.12971717082448303
1744475461701305000,7.88530517578125,5.2407484441280365,3.21465470469892,-0.19651538252979517
1744475461711302100,7.89530224609375,4.976142398929595,3.2372131579875942,-0.3468208025485277
1744475461721298000,7.9052978515625,4.579641911932826,3.2429198451966044,-0.4495401859300211
1744475461731295200,7.915295166015625,3.833756324857473,3.182701231077313,-0.5574195458905771
1744475461741291000,7.925291015625,2.7686323541641236,3.0726661543875933,-0.6022176323097199
1744475461751287000,7.935287109375,1.6859253805071115,3.0604256814956665,-0.46972938933670516
1744475461761284000,7.9452841796875,0.9658639705181121,3.1474843717455863,-0.2397568323577754
1744475461771280100,7.955280029296875,0.6633914282619953,3.4158372022569177,-0.046455936628766355
1744475461781276000,7.96527587890625,0.6510393116891384,3.5272815612226722,0.2940408870626241
1744475461791273200,7.975273193359375,0.906118819129467,3.3880583839714524,0.649748906552419
1744475461801269000,7.98526904296875,1.2598200288414954,3.1258781046152113,0.8487390086326748
1744475461811266000,7.99526611328125,1.3085282379090786,2.8783810151278972,0.667013710412383
1744475461821262000,8.005261962890625,1.2277274390101431,2.5819518446892498,0.37892157568633555
1744475461831258000,8.015258056640626,1.2001362522512673,2.2922943603426216,0.22445333689972757
1744475461841255000,8.0252548828125,1.1342080283135174,2.0734733302414416,0.1362714878387749
1744475461851251200,8.035251220703126,0.9410855030924081,2.006836081251502,0.05247764460369944
1744475461861247000,8.0452470703125,0.5910784717231988,1.8837185278877615,-0.1521183146595955
1744475461871244000,8.055244140625,-0.02702712313532829,1.7242361142009495,-0.48628772542774673
1744475461881240000,8.065239990234375,-0.9589145897716284,1.5490914364799857,-0.8462732761062681
1744475461891237000,8.075237060546876,-1.968594321140647,1.3382672503516078,-1.346426006887853
1744475461901233000,8.08523291015625,-3.070548431581259,1.2816241566315292,-2.0026384834311903
1744475461911229200,8.095229248046875,-4.084333844703436,1.1262488860026,-2.7986031295359135
1744475461921226000,8.10522607421875,-4.896743283522129,0.6177893685162067,-3.737410166302323
1744475461931222000,8.115221923828125,-5.607678553247451,-0.13746873479932545,-4.614358420526981
1744475461941218000,8.125218017578124,-6.107150169897079,-1.0097083729416132,-5.098214534893632
1744475461951215000,8.135215087890625,-6.298681626534462,-1.7941110299378633,-5.006694189059734
1744475461961211000,8.1452109375,-6.244588801819086,-2.408670038230717,-4.425438607692718
1744475461971208200,8.155208251953125,-6.142451784902811,-2.827294971013069,-3.5847213582783937
1744475461981204000,8.165203857421876,-6.303655323293805,-2.988556961593032,-2.796481315076351
1744475461991200000,8.175199951171875,-6.7686103378355496,-2.916249850273132,-2.26548730969876
1744475462001197000,8.185197021484376,-7.080331769952178,-2.770195365697145,-1.8574882542185485
1744475462011193000,8.195193115234375,-6.877097016039491,-2.6882319527596232,-1.393766580864042
1744475462021188900,8.20518896484375,-6.216144797623157,-2.721521351160109,-0.815177149966359
1744475462031186200,8.215186279296875,-5.1469455403149125,-2.9364748921781776,-0.1981326084680855
1744475462041182000,8.225181884765625,-3.972302625760436,-3.247605664925277,0.2724821854010224
1744475462051179300,8.23517919921875,-3.0151041922569273,-3.56070686096251,0.5086684840619564
1744475462061175000,8.245175048828125,-2.3644342984020708,-3.76736808219254,0.5737640565678477
1744475462071171000,8.255171142578124,-2.00406018679738,-3.9240179028019306,0.6967712814249097
1744475462081168100,8.265168212890625,-1.9055320080280302,-4.0150355598106975,0.8802607397735118
1744475462091164200,8.2751640625,-1.922817489349842,-3.9435149226933714,0.919975787307322
1744475462101160000,8.285159912109375,-1.8494547314971683,-3.7448859090104696,0.9192898508697748
1744475462111157200,8.2951572265625,-1.5960802744090556,-3.4118314737468958,0.952756943924725
1744475462121153000,8.305153076171875,-1.1088310104727745,-3.0365351028203964,1.0791332068234682
1744475462131149000,8.315149169921876,-0.4705255081504583,-2.696764803305268,1.3888541127726435
1744475462141145900,8.325145751953125,0.15310089595615864,-2.4215748202502727,1.7087071211576461
1744475462151142100,8.33514208984375,0.8019944277882576,-2.166663362853229,1.9902911891639232
1744475462161139000,8.345138916015625,1.4857096821546554,-1.9399265911914407,2.246834339416027
1744475462171135000,8.355135009765625,2.0939467939496037,-1.7714336264446378,2.491845749567449
1744475462181131000,8.365131103515624,2.5327783561974764,-1.635027114049345,2.6930320465177298
1744475462191128000,8.375128173828125,2.827998150846362,-1.5173856540091335,2.8308585087135434
1744475462201123800,8.385123779296874,2.9308985533505676,-1.401425425054133,2.9105946009904144
1744475462211120000,8.3951201171875,2.9113614937096832,-1.2583484949842094,2.8918846398234366
1744475462221117000,8.405116943359374,2.8675872339129445,-1.0591637471146882,2.8471523486495016
1744475462231113000,8.415113037109375,2.8998452434390782,-0.8332192948743701,2.8130206542059777
1744475462241110000,8.425110107421874,2.8887165311813354,-0.5762775006935,2.822017030610144
1744475462251106000,8.43510595703125,2.641555541780591,-0.35398587187230585,2.807557128103077
1744475462261102000,8.44510205078125,2.257258118274808,-0.11758300785124301,2.8441107889965176
1744475462271098000,8.45509814453125,1.8832073634952307,0.07659750199019909,2.91003433675915
1744475462281094100,8.46509423828125,1.560482306805253,0.194387722851336,2.971820346325636
1744475462291090200,8.475090087890624,1.3473118498116732,0.29371845017522574,3.0610619335725904
1744475462301087200,8.485087158203125,1.2951152141064404,0.3661418813511729,3.143767397049069
1744475462311083000,8.4950830078125,1.3568956707149744,0.45105479174405333,3.1973151551023125
1744475462321079300,8.505079345703125,1.2214262930393218,0.41897447687238454,3.1983705093741417
1744475462331076000,8.515076171875,0.6625479631751775,0.24782208365797995,3.0278400474503635
1744475462341072100,8.525072021484375,-0.19539280824065208,0.08523761230260134,2.6460233348444104
1744475462351069200,8.535069091796874,-0.9497574698477983,0.10214958413690328,2.270706213390827
1744475462361065200,8.545065185546875,-1.5067881260186433,0.24073504800647497,2.1201398043483493
1744475462371061000,8.55506103515625,-1.9111305586874483,0.2260968663230538,2.1538193711102007
1744475462381058300,8.565058349609375,-2.1150258223354816,0.09361673359125852,2.1892127560526133
1744475462391054000,8.57505419921875,-2.230021151781082,-0.06649199530035257,2.080071413332224
1744475462401050000,8.585050048828125,-2.3889228429704903,-0.22619915765374898,1.7751695981025695
1744475462411047200,8.595047119140625,-2.5440052681326866,-0.4060363771051168,1.42093910381943
1744475462421043200,8.605043212890624,-2.656976982796192,-0.6319757147789001,0.9558372281529008
1744475462431040300,8.615040283203125,-2.7020330990970134,-0.79813862914294,0.5986718494616449
1744475462441036300,8.625036376953124,-2.9185364999055863,-1.04833825558722,0.32890710632577536
1744475462451032000,8.635031982421875,-3.3434459197849034,-1.1935197567209601,-0.15733488026410342
1744475462461029400,8.645029296875,-3.6816719124674795,-1.0931386435613035,-0.7594646150946617
1744475462471025200,8.655025146484375,-3.7377848448336124,-0.9563818564236164,-1.1474407271131872
1744475462481021200,8.665021240234376,-3.3339784187376496,-1.1009738672316074,-1.3513156786255538
1744475462491018200,8.675018310546875,-2.5956360866487023,-1.5498934005126357,-1.4222289974994957
1744475462501014300,8.68501416015625,-2.1352350821495056,-2.2221365360111,-1.3251171152688561
1744475462511010000,8.695010009765625,-2.8118162468522785,-2.715329510782659,-1.36165470181033
1744475462521007400,8.70500732421875,-4.8332805729150765,-2.5928195679232475,-1.641256363827735
1744475462531003100,8.715003173828125,-7.260512396013736,-2.0771151938751338,-1.8325294617898762
1744475462541000200,8.725000244140626,-9.255591988497972,-1.1189496689051388,-1.7090195481076835
1744475462550996200,8.734996337890625,-10.33821186839342,0.28322248286306856,-1.3899414696179329
1744475462560992300,8.7449921875,-10.00917046816349,1.5948843426227568,-1.0062966648019849
1744475462570989000,8.754989013671874,-8.360593698319793,2.5970482915341853,-0.7304112468287348
1744475462580985000,8.764985107421875,-5.953825402057171,2.939121315033734,-0.5099357275187969
1744475462590981000,8.774981201171874,-3.3307916053950786,2.6147394310474392,-0.31799978173375126
1744475462600978200,8.784978271484375,-1.216063889223337,2.0928116524398326,-0.3724857704851776
1744475462610974000,8.794973876953126,-0.00852934341430664,1.6495061596482992,-0.7360480106066912
1744475462620971300,8.80497119140625,0.4826023149132728,1.376454357665777,-1.2038657941684126
1744475462630967000,8.814967041015626,0.575214547637105,1.2870745309919118,-1.5995432743445037
1744475462640963000,8.824963134765625,0.5702490341842175,1.4016224089309572,-1.744979919283092
1744475462650960100,8.834960205078126,0.6658171941041946,1.6585735554620622,-1.588414562086761
1744475462660956200,8.8449560546875,0.9452443763375282,2.0039473740726708,-1.2788139215163885
1744475462670952200,8.8549521484375,1.4751514632612466,2.3707483038544654,-0.8963459053948521
1744475462680949200,8.86494921875,2.1234557970285413,2.7171225316792724,-0.5264475210543722
1744475462690945000,8.874945068359375,2.8216040658950803,2.9649644890815017,-0.3241613365707919
1744475462700941000,8.884941162109374,3.514409220167994,3.127008569949865,-0.29526067464854566
1744475462710938000,8.894938232421875,4.132617690879107,3.232040723785758,-0.4030386565938592
1744475462720934100,8.90493408203125,4.623640043613315,3.201139389565587,-0.5670130479376763
1744475462730931200,8.91493115234375,4.978687407237291,3.055935384339094,-0.731670745370537
1744475462740927200,8.92492724609375,5.149394687032699,2.855693382501602,-0.9411403020195662
1744475462750923300,8.93492333984375,5.159879840689897,2.6359131519794463,-1.1427633829519153
1744475462760920300,8.94492041015625,5.041701205033063,2.3801047457426785,-1.1517088328864424
1744475462770916000,8.954916015625,4.823573417893051,2.1686060213536025,-1.002988270906359
1744475462780912000,8.964912109375,4.597282782563567,2.093784881386161,-0.8724208399280905
1744475462790909200,8.9749091796875,4.4691140832900995,2.1497405773639677,-0.8058340059511363
1744475462800905200,8.9849052734375,4.493799611735343,2.2325527160853147,-0.6616854280617087
1744475462810902000,8.994902099609375,4.542544061160087,2.224269456386566,-0.47134055086039006
1744475462820898300,9.004898193359375,4.4655064141869545,2.141618061184883,-0.2373564018862322
1744475462830894300,9.014894287109374,4.245139323687553,2.1077742437720297,-0.05221626285430975
1744475462840891100,9.02489111328125,3.92249960719347,2.086304170241952,0.013277958146925084
1744475462850887400,9.034887451171874,3.6056858203738926,2.003434748375416,0.012926665057800709
1744475462860883200,9.04488330078125,3.2988778792619704,1.9219675945222376,0.039911771115730514
1744475462870880000,9.0548798828125,3.0285189696252344,1.9271873749971389,0.04754508813892025
1744475462880876300,9.064876220703125,2.6357062312304973,2.0021558144807816,-0.0763305992488982
1744475462890872300,9.074872314453126,2.0820283926188945,2.0125982980400323,-0.30769572026450187
1744475462900869000,9.084869140625,1.5155612150609492,1.9239742581695316,-0.5514081766465678
1744475462910865400,9.094865478515626,0.8703519246995448,1.8265841435194015,-0.8281425030667334
1744475462920862200,9.1048623046875,0.29111294385194775,1.6616104389399289,-1.1508921096760778
1744475462930858200,9.114858154296876,-0.003946691799163818,1.4476023620784282,-1.338135586795956
1744475462940854000,9.12485400390625,0.10075403812527656,1.3213298518151044,-1.332502841605991
1744475462950851300,9.134851318359376,0.4615186103522777,1.2488427077531814,-1.4349571077778935
1744475462960847000,9.14484716796875,0.7572714889645576,1.2435019312471152,-1.5417833054237067
1744475462970843100,9.154843017578125,0.779206841918826,1.3615835362702606,-1.3112782672695815
1744475462980840200,9.164840087890624,0.7412199333518743,1.5562380933642386,-1.069798903701827
1744475462990836200,9.174836181640625,0.7539525736749172,1.7845599422603844,-0.953129138237983
1744475463000832000,9.18483203125,0.7648293569982051,1.8487813622802496,-1.1194329223774373
1744475463010829300,9.194829345703125,0.7102619005084038,1.6287901193559169,-1.589816830100119
1744475463020825000,9.2048251953125,0.3093114483654499,1.2100479899346828,-2.3574581757791337
1744475463030822400,9.214822509765625,-0.5297580338418484,0.6406105643942952,-3.232850286602974
1744475463040818200,9.224818115234376,-1.5682009183585643,0.22903905725479123,-4.071224187761545
1744475463050814200,9.234814208984375,-2.5004718313544987,0.11929799507558345,-4.855741411048173
1744475463060811300,9.244811279296876,-3.3847014747589825,0.30798136880546806,-5.285214193320274
1744475463070807300,9.254807373046875,-4.287665629249811,0.5173290526404977,-5.128670463433862
1744475463080803000,9.264802978515625,-5.2741556236892935,0.6334717985555529,-4.564884780044854
1744475463090800400,9.27480029296875,-6.334764747306704,0.77472355902493,-3.8677918654501435
1744475463100796200,9.284796142578125,-7.254898647785186,0.8515928636938332,-2.9581764363765717
1744475463110792200,9.294792236328124,-7.6693562317550175,0.9124906922489404,-1.8983819901429115
1744475463120789200,9.304789306640625,-7.252253686234354,0.9711769822344183,-0.8570074360884725
1744475463130785300,9.314785400390624,-6.090185591092705,0.8837310462325811,-0.15750797180868684
1744475463140782000,9.324781982421875,-4.428085322809219,0.3737158237367868,0.16808321490213274
1744475463150778400,9.3347783203125,-2.6480390585809945,-0.3440571830540895,0.23231522938124835
1744475463160774100,9.344774169921875,-1.3604635923296213,-1.1115772404409945,0.11716786944540217
1744475463170771200,9.354771240234374,-0.9203098415672779,-1.778004090876132,0.10312982734590768
1744475463180767200,9.364767333984375,-1.3562573728114367,-2.306942186637223,0.30317941188383846
1744475463190763300,9.37476318359375,-2.11534555580914,-2.4573797086030242,0.655477001875639
1744475463200760000,9.384760009765625,-2.832581971505284,-2.2736047113113105,1.0221212797909975
1744475463210756400,9.39475634765625,-3.3531542438507076,-2.0653554902374744,1.2750351336300372
1744475463220752100,9.404752197265625,-3.3326158982127905,-1.911064215452969,1.3770955781787633
1744475463230749200,9.414749267578125,-2.693390942957997,-1.8200450971394777,1.3603617393903433
1744475463240745200,9.4247451171875,-1.6085785214543342,-1.878477850755304,1.282282912801206
1744475463250742300,9.4347421875,-0.43105625207126136,-2.0027952814280985,1.1559059192501009
1744475463260738000,9.444738037109374,0.6404793392300605,-2.134239202979952,0.9959669939674436
1744475463270734300,9.454734375,1.4380477672696113,-2.2439770502887666,0.8983269962094723
1744475463280731100,9.464731201171874,2.0065011502087113,-2.241391856101155,0.7741545269653201
1744475463290727200,9.47472705078125,2.3870740002334117,-2.135876010401547,0.6894616890639066
1744475463300723200,9.48472314453125,2.7070231624692678,-1.9446343304909766,0.6986304994255303
1744475463310720300,9.49472021484375,3.1232705524653195,-1.7278921524904667,0.8438102469936013
1744475463320716000,9.504716064453126,3.579968610793352,-1.5533393031828104,1.0959944713838399
1744475463330712300,9.51471240234375,3.9656419988274574,-1.4459256610378621,1.3397434603840113
1744475463340709000,9.524709228515626,4.212129619011282,-1.3103886249534784,1.5447028461322188
1744475463350705200,9.534705078125,4.224208179339766,-1.1885017824284732,1.7762609004706142
1744475463360702200,9.5447021484375,4.10428123871088,-1.082621048939228,2.0117389047317205
1744475463370698200,9.5546982421875,3.921721608558297,-1.0127379498958586,2.22777264220193
1744475463380694300,9.5646943359375,3.7708746290087696,-0.9691954530283808,2.4263702378332614
1744475463390691300,9.57469140625,3.776855456984043,-0.9629892918646336,2.485674367456138
1744475463400687000,9.58468701171875,3.738969670704007,-0.9593670097142457,2.4074486797422168
1744475463410683100,9.59468310546875,3.282791252335906,-0.9605927521169185,2.2436779212117193
1744475463420680200,9.60468017578125,2.369423192730546,-1.0092626750007272,2.1434733336627483
1744475463430676200,9.61467626953125,1.3983674987882375,-1.1527259740397333,2.247995053758472
1744475463440672300,9.62467236328125,0.6328694487482309,-1.2684326666250825,2.3587527456343174
1744475463450669300,9.63466943359375,-0.023130115696787832,-1.3659391011312603,2.3508812816068527
1744475463460665300,9.644665283203125,-0.6490490146547555,-1.4915109157793223,2.271888408912718
1744475463470661000,9.6546611328125,-1.2119926942616701,-1.5697916946813464,2.1335136651843785
1744475463480658200,9.664658203125,-1.7292787845432758,-1.6075262359224258,1.9926314686797557
1744475463490654200,9.674654296875,-2.270712058609724,-1.6321799079246817,1.7463792646870016
1744475463500651000,9.684651123046875,-2.7951024279385805,-1.775533024587482,1.268265493364632
1744475463510647300,9.694647216796875,-3.2689778310388324,-1.919654349143803,0.5726964273363352
1744475463520643300,9.704643310546874,-3.586044715836644,-1.9967156692534684,-0.10906506261378526
1744475463530640100,9.71464013671875,-3.5347032356560226,-2.056911194758117,-0.4845519146110862
1744475463540636400,9.724636474609374,-3.229589823502302,-2.0023408156588673,-0.5631014274518936
1744475463550632200,9.734632080078125,-3.127737468746304,-1.7942524842351675,-0.39883345998898145
1744475463560629200,9.744629150390624,-3.474243213996291,-1.4612605928137898,-0.14855828409045935
1744475463570625300,9.754625244140625,-4.065689934509992,-0.9626398939050733,-0.09618545156810432
1744475463580621300,9.764621337890626,-4.627399688407778,-0.4316173930853605,-0.24136118054818362
1744475463590618000,9.7746181640625,-5.008484579607844,0.009217471808940171,-0.39300077178012577
1744475463600614400,9.784614501953126,-5.233036262315512,0.26556086170524357,-0.5014852945595979
1744475463610610200,9.794610107421875,-5.160127677971125,0.36434652236700055,-0.6020141821594909
1744475463620607200,9.804607177734376,-4.786279167765379,0.4147904691860079,-0.8054229409322142
1744475463630603300,9.814603271484375,-4.410111859223246,0.34458997475653885,-0.9866056567084044
1744475463640600300,9.824600341796875,-4.2861113855451345,0.1740636044859886,-0.999440807557851
1744475463650596000,9.83459619140625,-4.362707718491554,0.11321370672583579,-0.9235814105838537
1744475463660592400,9.84459228515625,-4.293846363711357,0.25608985352665187,-0.817822476843372
1744475463670589200,9.854589111328124,-3.8277211363464594,0.45006052000969643,-0.670732073348388
1744475463680585200,9.864585205078125,-3.004354834705591,0.5771899393633008,-0.5121136926123873
1744475463690581200,9.874581298828126,-2.0422253745406866,0.628244127035141,-0.37859577779807146
1744475463700578300,9.884578369140625,-1.2071142745703458,0.587454436007142,-0.33779169291853905
1744475463710574000,9.894573974609376,-0.5402578005462885,0.5117825244292616,-0.5013297752043232
1744475463720570400,9.9045703125,-0.2858499087572098,0.337189343111217,-0.7651781704358757
1744475463730567200,9.914567138671876,-0.5710948373585939,0.06762216837406158,-0.9221543003901839
1744475463740563200,9.924563232421875,-0.9809481424033641,0.0040402153015136714,-1.0689672751832753
1744475463750559200,9.934559326171875,-1.2843126650631427,0.15314415057599542,-1.289525139014423
1744475463760556300,9.944556396484375,-1.4364642974704502,0.296573255084455,-1.3883040776744484
1744475463770552000,9.954552001953125,-1.4283008647590876,0.48179596696645016,-1.3251869656346738
1744475463780549400,9.96454931640625,-1.194176467064023,0.7261123805910349,-1.154740820993483
1744475463790545200,9.974545166015625,-0.7989718650966883,1.023041317245364,-0.8935831626832484
1744475463800541200,9.984541259765624,-0.1748912874817848,1.3686714487046003,-0.5823383716350421
1744475463810538200,9.994538330078125,0.5970300736039876,1.7067334829971192,-0.2827162503739819
1744475463820534300,10.0045341796875,1.3616045790582894,1.993454621630907,-0.12132098880317062
1744475463830530000,10.014530029296875,2.1085896518081424,2.206132326671481,-0.0316812690841034
1744475463840527400,10.02452734375,2.8727888942092656,2.34870452208966,0.022319237705320117
1744475463850523100,10.034523193359375,3.5646862859874964,2.4090721892908213,-0.019092238482832907
1744475463860519200,10.044519287109376,4.078492717459798,2.369236730247736,-0.12051478698682039
1744475463870516200,10.05451611328125,4.3119034139275545,2.2876807290673256,-0.2415879019761458
1744475463880512300,10.06451220703125,4.376902248060703,2.22566120300591,-0.2972301115579903
1744475463890508300,10.07450830078125,4.4048096611619,2.2196990797311065,-0.3390647450616583
1744475463900505300,10.08450537109375,4.451409499773383,2.208004258023202,-0.36382213316671547
1744475463910501000,10.094501220703124,4.462009804242849,2.181327848021686,-0.343801564325206
1744475463920498200,10.104498291015625,4.410449712875486,2.1765487970516086,-0.2758666767401621
1744475463930494200,10.114494140625,4.345884593984485,2.219061074088514,-0.18325787808243185
1744475463940490200,10.124490234375,4.234862844344973,2.3084771411195395,-0.02279200631622225
1744475463950487000,10.134487060546874,3.9937586707651613,2.327807864533365,0.26152568790502845
1744475463960483300,10.1444833984375,3.7649388092190024,2.4126009479388593,0.4048967055507004
1744475463970479400,10.154479248046876,3.8329981999665494,2.556122991427779,0.3239303773591295
1744475463980476200,10.16447607421875,4.032904686239362,2.540563018724322,0.12679646107219159
1744475463990472200,10.17447216796875,4.121637447181344,2.331967906822264,-0.16318269297685473
1744475464000468200,10.18446826171875,3.985161522811651,2.0577093593984843,-0.46950222951732573
1744475464010465000,10.194465087890626,3.693435415497422,1.8541016805201769,-0.6716834557890892
1744475464020461300,10.20446142578125,3.3412837733149527,1.7075690570384263,-0.8111639688022434
1744475464030457300,10.214457275390625,2.7940222314864394,1.6015136976346374,-0.8563210612595081
1744475464040454100,10.2244541015625,2.127326500982046,1.6260048725515603,-0.9615059945043176
1744475464050450400,10.234450439453125,1.4163386242866516,1.783199467562139,-1.0555579046424477
1744475464060446200,10.2444462890625,0.7486077055156231,1.9776845133081078,-1.050881656459719
1744475464070443300,10.254443359375,0.2018313168555498,2.1732766435131428,-0.9869844268929213
1744475464080439300,10.264439208984374,-0.0531949990928173,2.2907453773349524,-0.7956135676447301
1744475464090436000,10.27443603515625,0.06499298891425133,2.3161069053456185,-0.6017137744408101
1744475464100432100,10.28443212890625,0.46655894260704517,2.2002473602861166,-0.6068616587232798
1744475464110428400,10.294428466796875,0.9651099372804164,1.9985271025896072,-0.801146871048212
1744475464120425200,10.30442529296875,1.4734662866532802,1.6633865087017417,-1.2364032051578164
1744475464130421200,10.314421142578125,1.8175176244884728,1.1096662922531366,-1.9907446320198474
1744475464140417300,10.324417236328125,1.8526701864123343,0.4903688572615385,-2.8154712622284888
1744475464150414300,10.334414306640625,1.3978981277108191,-0.02736234643906355,-3.532821367432177
1744475464160410000,10.34441015625,0.3875117093771696,-0.3105725543424487,-4.050867336170375
1744475464170406400,10.354406494140624,-1.0467097776025533,-0.33139205500930546,-4.124418602332472
1744475464180403200,10.3644033203125,-2.6084073054164647,-0.043591304445266724,-3.950431570214033
1744475464190399200,10.374399169921874,-3.8959927085399624,0.44703065079450605,-3.5734830481663344
1744475464200395300,10.384395263671875,-5.1059641261070965,0.8293874616265297,-3.01004515530169
1744475464210392300,10.394392333984374,-6.458196481186151,1.0068228806331754,-2.2705562835261226
1744475464220388000,10.40438818359375,-7.636538834780454,0.9458388350993394,-1.6656092993177471
1744475464230384000,10.414384033203126,-8.044161019772291,0.7223986207649111,-1.3727648554980754
1744475464240381200,10.424381103515625,-7.605832146349549,0.5534016520187258,-1.367808109873533
1744475464250377200,10.434377197265626,-6.592212152922153,0.3734253163576126,-1.57315123424232
1744475464260373000,10.444373046875,-5.225787606361508,0.04075169710516929,-1.8875942002773283
1744475464270370300,10.454370361328126,-3.851688871911168,-0.436982134988904,-2.0911171234816313
1744475464280366600,10.46436669921875,-2.778618326127529,-0.9060178429730236,-2.1007748864039777
1744475464290363600,10.47436376953125,-2.234447151529789,-1.226414895106852,-1.951266461981833
1744475464300359400,10.484359375,-2.2088053452730176,-1.3870637222245334,-1.5920710387676953
1744475464310355700,10.494355712890625,-2.4055402157723904,-1.359772833586484,-1.1386568974811584
1744475464320352500,10.5043525390625,-2.4354379259079693,-1.1984751871712505,-0.6347875573292374
1744475464330348500,10.5143486328125,-2.1528291910290718,-1.0233766866795717,-0.1457578397169709
1744475464340344600,10.524344482421874,-1.6129180119633673,-0.9329477893441915,0.297059138905257
1744475464350341600,10.534341552734375,-0.9028653702914714,-0.8813182860024273,0.6527839633993804
1744475464360337400,10.54433740234375,-0.1327986971616745,-0.9006116000153124,0.9774378692600876
1744475464370333700,10.554333740234375,0.6089204178839922,-1.0403419961363076,1.2469735528804362
1744475464380330500,10.56433056640625,1.241036417916417,-1.2363994057655334,1.4865505168929696
1744475464390326500,10.574326416015625,1.7279659483790397,-1.4663589388661085,1.6396343155838549
1744475464400322600,10.584322509765625,2.040039262673259,-1.679576742132753,1.729761015102267
1744475464410319600,10.594319580078125,2.2106179476529357,-1.849266369318217,1.8216981250435114
1744475464420315400,10.6043154296875,2.340962821921706,-1.9656570986449717,1.9522218630105257
1744475464430311700,10.614311767578124,2.4605460636794567,-2.0209986082471905,2.090164352801442
1744475464440308500,10.62430859375,2.5829408557265996,-2.0341658405952154,2.185191391582042
1744475464450304500,10.634304443359374,2.739010538360476,-2.0555865220256146,2.172146908830851
1744475464460300800,10.64430078125,2.9492601394712925,-2.089672916022688,2.136225116100162
1744475464470297600,10.654297607421874,3.1359675369530913,-2.1987064144544304,2.1707032858937976
1744475464480293600,10.664293701171875,3.1659903347730634,-2.3211536673411723,2.275432365129888
1744475464490290700,10.674290771484374,2.939476996603608,-2.4093723412811756,2.3414544048309325
1744475464500286500,10.684286376953125,2.458400868344307,-2.4980232691586015,2.2819585520282386
1744475464510282500,10.694282470703126,1.8690952515125274,-2.6030168445497748,2.0839633062042293
1744475464520279600,10.704279541015625,1.540845293921232,-2.631021872806549,2.008641377107799
1744475464530275600,10.714275634765626,1.4620283623158932,-2.548499364681542,2.01295178765282
1744475464540271600,10.724271728515625,1.4319973811894655,-2.4546838936477897,1.9922280024453995
1744475464550268700,10.7342685546875,1.3123778990745543,-2.5410733063340185,1.8407897790044545
1744475464560264700,10.7442646484375,1.1026508605331182,-2.777145330965519,1.488436769030988
1744475464570260500,10.754260498046875,0.7529910351663828,-3.126099053889513,0.8600983878411352
1744475464580257500,10.764257568359374,-0.08760872534811497,-3.568799274264276,0.17455474900379775
1744475464590253600,10.774253662109375,-1.4810469510406254,-4.0091242899402975,-0.15039002956226466
1744475464600249600,10.78424951171875,-3.0102549986600873,-4.20350821339935,-0.14207703231237828
1744475464610246700,10.79424658203125,-4.15183969322145,-4.041975881445407,0.00896422770023346
1744475464620242700,10.80424267578125,-4.825304187208414,-3.646367082591355,0.010592559554427861
1744475464630238500,10.814238525390625,-5.047014509010315,-3.1738100686132906,-0.22009806429967282
1744475464640235800,10.82423583984375,-4.855903323611617,-2.6818890134736892,-0.4479450256930664
1744475464650231600,10.8342314453125,-4.521294936904311,-2.222052364858985,-0.5337678174724803
1744475464660228600,10.844228515625,-4.376123080381751,-1.8397985760100184,-0.5821283456135541
1744475464670224600,10.854224609375,-4.546952525252103,-1.500591317205131,-0.5923170005422085
1744475464680220700,10.864220703125,-4.649269574910402,-1.151470859412104,-0.6314990371778607
1744475464690217500,10.874217529296875,-4.474035757601261,-0.7995631089881062,-0.8512134359221905
1744475464700213800,10.8842138671875,-4.045812098607421,-0.5525194623567163,-1.2060709029972552
1744475464710209500,10.89420947265625,-3.5366210519760846,-0.37492519952654835,-1.5745751295655965
1744475464720206600,10.90420654296875,-3.2750720562607047,-0.25039631806015966,-1.9155081892497836
1744475464730202600,10.91420263671875,-3.3624294371962544,-0.149499802724272,-2.2378642664968966
1744475464740198700,10.92419873046875,-3.6957770101875065,-0.07905629331916571,-2.5357316530451177
1744475464750195500,10.934195556640624,-3.8523926362663503,0.12923252911269664,-2.747444604706764
1744475464760191700,10.944191650390625,-3.588375789132714,0.5067022985555232,-2.737721959854662
1744475464770187500,10.9541875,-3.2400463355869054,0.8542810798645019,-2.652880068871379
1744475464780184600,10.9641845703125,-3.1789871789902446,1.0641823059290647,-2.693974880325794
1744475464790180600,10.9741806640625,-3.5008722777247425,1.111589953792095,-2.7653125620916486
1744475464800176600,10.9841767578125,-4.130836068159342,1.0937898009464144,-2.820987687562406
1744475464810173400,10.99417333984375,-4.790573650088906,1.100662901586294,-2.914593607498705
1744475464820169700,11.004169677734374,-5.205686483097076,1.221925766994059,-3.039583092214167
1744475464830165500,11.01416552734375,-5.09840391998589,1.4789607924163342,-3.138092566283047
1744475464840162600,11.02416259765625,-4.472257642012834,1.7185516388237476,-3.116777098792791
1744475464850158600,11.03415869140625,-3.6547652008414264,1.788438244998455,-2.9718121630191803
1744475464860154600,11.044154541015626,-2.930774634709954,1.735878328938782,-2.8326018452495334
1744475464870151400,11.0541513671875,-2.4011416885524985,1.6593746427118776,-2.720947350664437
1744475464880147700,11.064147705078126,-2.020032831954956,1.6554226902157068,-2.5515017613679167
1744475464890144500,11.07414453125,-1.7731237714886665,1.668956417788565,-2.2980837573990223
1744475464900140500,11.084140625,-1.5024047963678835,1.7740917397379874,-2.0545172853589055
1744475464910136600,11.094136474609375,-1.138869590383768,1.9291992993414402,-1.8387670410051942
1744475464920133600,11.104133544921876,-0.6608101795971393,2.071559605574608,-1.6974707107417284
1744475464930129400,11.11412939453125,-0.11009294435679912,2.2334704154521225,-1.6102756807610392
1744475464940125700,11.124125732421875,0.4989958158314228,2.3733614089623094,-1.6090696659721433
1744475464950122500,11.13412255859375,1.1515484546929597,2.4585016983702777,-1.7492793700426816
1744475464960118500,11.144118408203125,1.8514929593265055,2.5417785319939252,-1.9085647998526691
1744475464970114800,11.15411474609375,2.4577450347840784,2.495917236790061,-1.93409496242851
1744475464980111600,11.164111572265625,2.8580034130096434,2.407551555594802,-1.9113187747359275
1744475464990107600,11.174107666015624,2.957879499256611,2.3129437651395794,-1.8513902296043931
1744475465000103700,11.184103759765625,2.7643033850491046,2.233903838433325,-1.7442304160900413
1744475465010100500,11.1941005859375,2.5541771180570123,2.270715565741062,-1.6726232697330414
1744475465020096500,11.204096435546875,2.54336463214159,2.3653899916917083,-1.6497554582342504
1744475465030092800,11.2140927734375,2.7351047630935907,2.352064061650634,-1.7205635631680487
1744475465040089600,11.224089599609375,2.8525848950922486,2.235243854865432,-1.7925886426761746
1744475465050085600,11.234085693359376,2.834814845123887,2.110461583159864,-1.8927962989650666
1744475465060081700,11.24408154296875,2.6333874328941107,1.8901418389335274,-2.131674174797535
1744475465070078700,11.25407861328125,2.3890344866514206,1.703271067583561,-2.4178838567778467
1744475465080074500,11.264074462890624,2.1551462357997893,1.5773288121879099,-2.5777640376105904
1744475465090071600,11.274071533203125,2.112467954546213,1.487536313059926,-2.56912948025614
1744475465100067600,11.284067626953124,2.2322996181070804,1.5601590662002562,-2.32543368274793
1744475465110063600,11.294063720703125,2.3962223523288966,1.7319167318314312,-2.003739430410415
1744475465120060700,11.304060791015624,2.41195651255548,1.8558213439196347,-1.7006062322884796
1744475465130056700,11.314056640625,2.33543558293283,1.923524176314473,-1.5116864194542168
1744475465140052500,11.324052490234376,2.2840905956208704,2.0153543187499046,-1.3117768644414842
1744475465150049800,11.3340498046875,2.1185101573199034,2.0756892527252435,-1.118928187725693
1744475465160045600,11.344045654296876,2.0314947216898203,2.07450208876729,-0.9163278592590242
1744475465170041600,11.35404150390625,2.1488158637344834,1.9612331447228788,-0.7760927284862845
1744475465180038700,11.36403857421875,2.2463871801704167,1.7304592264994978,-0.8078469532087444
1744475465190034700,11.37403466796875,1.930301707625389,1.3037953641682862,-0.9918420960571617
1744475465200030500,11.384030517578125,1.1941051553934812,0.9627242111876606,-1.2922294295370578
1744475465210027800,11.39402783203125,0.20291502043902873,0.8147787982985377,-1.6940730311274528
1744475465220023600,11.4040234375,-0.8312158460974692,0.5135290758356452,-2.0049007292747496
1744475465230019600,11.41401953125,-1.6309937668800354,0.4937783734440803,-2.1573026831813156
1744475465240016600,11.4240166015625,-2.081490632480383,0.6490697651818395,-1.9667935553289948
1744475465250012700,11.4340126953125,-2.0684920346975324,0.8653533857598901,-1.3936509916603563
1744475465260008400,11.444008544921875,-1.5501549740582703,0.9975620080739259,-0.8004942523583769
1744475465270005800,11.454005859375,-0.7177887888818979,0.9694970663234591,-0.6174039493951946
1744475465280001300,11.464001220703125,0.23162205948531625,0.8241364092305302,-0.757096278528124
1744475465289997300,11.473997314453126,0.6066086338102817,0.5470628043860197,-1.1760493472862987
1744475465299994400,11.483994384765625,0.015610826107859611,0.16454232742488384,-1.9134144318409263
1744475465309990400,11.493990478515625,-1.2127104871422052,-0.06520224775075913,-2.872654161913693
1744475465319987500,11.503987548828125,-2.523106857010722,-0.09629150575846433,-3.7654014582946895
1744475465329983500,11.5139833984375,-3.7490614411294456,0.05216770187169313,-4.368533648166061
1744475465339979500,11.5239794921875,-4.710832004854082,0.36890608536750075,-4.460794290973245
1744475465349976600,11.5339765625,-5.1553106330782175,0.886495250248909,-4.020483011561632
1744475465359972400,11.543972412109374,-5.0621799294382335,1.4620216403141617,-3.1947406284391877
1744475465369968400,11.553968505859375,-4.527000455069541,1.9483540816664695,-2.2196436962820587
1744475465379965400,11.56396533203125,-3.8777059412211177,2.314705514115095,-1.4135695979647338
1744475465389961500,11.57396142578125,-3.3180496127218007,2.6200726087689397,-0.86788056614995
1744475465399957500,11.58395751953125,-2.3419331282585856,2.851092610707879,-0.5130727103702724
1744475465409954600,11.59395458984375,-1.1962737316042185,2.6503178171679376,-0.25301309469612315
1744475465419950600,11.60395068359375,-0.35283903992474075,2.3653327085465192,-0.11253074769666417
1744475465429946400,11.6139462890625,0.24702187319099903,2.1021131492704153,-0.1425275890914723
1744475465439943700,11.623943603515626,0.5121504809588193,1.9345611186355351,-0.3770797472119331
1744475465449939500,11.633939453125,0.5154676426827908,1.816840163618326,-0.6532583759780973
1744475465459935500,11.643935546875,0.4318693220198154,1.7323156680211425,-0.8872182307612151
1744475465469932500,11.6539326171875,0.34672669452428817,1.6061168075159191,-1.0402326905429362
1744475465479928600,11.663928466796875,0.22405717718899248,1.457490718886256,-1.07099359337911
1744475465489924400,11.67392431640625,0.07804244010150432,1.3419529531270264,-0.9655267744529992
1744475465499921400,11.68392138671875,-0.048103813433647155,1.2292518720984458,-0.6769380883816629
1744475465509917400,11.69391748046875,-0.190176534897089,1.0824164662778377,-0.1711019782014191
1744475465519913500,11.70391357421875,-0.36072657830417154,1.01378921251446,0.316665391324833
1744475465529910300,11.71391015625,-0.4038759842008352,1.1035162451907992,0.670623571472615
1744475465539906600,11.723906494140625,-0.20034137055873869,1.2532362665370107,0.9343911930855363
1744475465549902300,11.73390234375,0.2608119136124849,1.2919383376359939,1.0741549800194798
1744475465559899400,11.7438994140625,0.8323457269102335,1.1149532927453518,1.0671391829732806
1744475465569895400,11.7538955078125,1.316701607492566,0.7183642506822944,0.9363096669927239
1744475465579891500,11.763891357421874,1.643348221540451,0.26717151177227494,0.7802231793545186
1744475465589888300,11.77388818359375,1.8194915549099444,-0.11734919909536838,0.5619810451198369
1744475465599884500,11.783884521484374,1.829749914073944,-0.45491862756535406,0.3225235427685082
1744475465609880300,11.79388037109375,1.6437532952100038,-0.7999998929701745,0.12533143002092836
1744475465619877400,11.80387744140625,1.4395844753175973,-0.9892784561142325,0.016416443402320145
1744475465629873400,11.813873291015625,1.2346435020089148,-0.9697202075548469,0.07145027529485523
1744475465639869400,11.823869384765626,0.9792845931053161,-0.808605078099668,0.3050967532798648
1744475465649866200,11.8338662109375,0.7605939113855361,-0.5910989299893379,0.6242209359336645
1744475465659862500,11.843862548828126,0.6024427463024854,-0.4098891070105135,0.8522714936077594
1744475465669858600,11.853858642578125,0.48663259334266185,-0.2466490943558514,0.9824499252684413
1744475465679855400,11.86385546875,0.42412148437201974,-0.21302125778123734,1.0271790746372194
1744475465689851600,11.8738515625,0.5029121124923229,-0.3395649862013757,1.0120976792309433
1744475465699848400,11.883848388671876,0.6143295834511519,-0.5961924537360668,0.8762462434351443
1744475465709844200,11.89384423828125,0.7001163540691137,-0.9110583213582635,0.7273437490168958
1744475465719840500,11.903840576171875,0.849580939349532,-1.1427641136042772,0.690011139640212
1744475465729837300,11.91383740234375,1.0572411084890365,-1.2967960068002342,0.6588242664769292
1744475465739833300,11.923833251953125,1.206479483798146,-1.4476742582708597,0.6536116463951767
1744475465749829600,11.93382958984375,1.2002987493366002,-1.5742175482995808,0.6643982672169804
1744475465759826400,11.943826416015625,1.0432149212241173,-1.649747713319212,0.6637300856318324
1744475465769822500,11.953822509765626,0.7478811448067426,-1.7598070476673542,0.6537481322564185
1744475465779818500,11.963818603515625,0.4627648110210895,-1.8689659260444342,0.6497613276425749
1744475465789815600,11.973815673828126,0.15740005445480346,-1.8802960060931742,0.7075611901823431
1744475465799811300,11.983811279296875,-0.2746107218623161,-1.9010696217916905,0.7997153038751333
1744475465809807600,11.9938076171875,-0.7029945398539305,-1.9805381491735576,0.8337666996240616
1744475465819804400,12.003804443359375,-0.9699655606180428,-2.128040202209353,0.6763854229349643
1744475465829800400,12.013800537109375,-1.1029892987072467,-2.3431008568637073,0.39172932707220315
1744475465839796500,12.02379638671875,-1.2808341752976178,-2.632521171453595,0.05248889665007591
1744475465849793500,12.03379345703125,-1.6517746891021727,-2.8918700267761945,-0.25413645443655547
1744475465859789300,12.043789306640624,-2.1512761163681744,-3.064855772897601,-0.4960737909048795
1744475465869785600,12.05378564453125,-2.788912925648689,-3.067193860456347,-0.552996578349173
1744475465879782400,12.063782470703124,-3.2170395540088412,-2.9681916344344614,-0.4053989559844136
1744475465889778400,12.0737783203125,-3.308572174802422,-2.6987097998932,-0.17599617998376488
1744475465899774500,12.0837744140625,-3.179990218552947,-2.377791500364244,-0.0008416019232943653
1744475465909771500,12.093771484375,-3.190128166207671,-2.1870193376615643,0.060457537441700696
1744475465919767300,12.103767333984376,-3.770025903224945,-2.0978369332559406,-0.0031584274983033536
1744475465929763600,12.113763671875,-4.915743167546391,-1.9201818801492452,-0.1513246435312554
1744475465939760400,12.123760498046876,-6.231109727042913,-1.6510731167040764,-0.3552727698776871
1744475465949756400,12.13375634765625,-7.122658753550052,-1.356774236292392,-0.5921109200434759
1744475465959752400,12.14375244140625,-7.293038701087236,-1.0526197322987019,-0.6495727462679147
1744475465969749500,12.15374951171875,-6.631005117174983,-0.7320726041696966,-0.4826647856902331
1744475465979745300,12.163745361328125,-5.158109908407926,-0.28777240125238895,-0.28709950695950537
1744475465989741300,12.1737412109375,-3.3858091437399387,0.09815715349987149,-0.20239519781600682
1744475465999738400,12.18373828125,-1.7022335412293672,0.3509996956683695,-0.26170182992322366
1744475466009734400,12.193734375,-0.18667057260274886,0.6036655660957098,-0.4406786514192819
1744475466019730400,12.20373046875,1.02968850017488,0.7871352968305348,-0.6434664652820676
1744475466029727500,12.2137275390625,1.8798545459359883,0.8300082238733768,-0.6680565705288202
1744475466039723500,12.2237236328125,2.25244224242568,0.8394073358595371,-0.5934066224098206
1744475466049719300,12.23371923828125,2.1922598686635495,0.840472334742546,-0.4841432607449591
1744475466059716400,12.24371630859375,1.934274118387699,0.896277224072814,-0.43970249986350535
1744475466069712400,12.25371240234375,1.7194424501836298,1.0543231752157212,-0.509990526445955
1744475466079708400,12.26370849609375,1.658833375442028,1.2655170714393258,-0.582488411097601
1744475466089705500,12.27370556640625,1.6075433331876992,1.4167232396900653,-0.6166590493120253
1744475466099701500,12.283701416015624,1.4737719916015863,1.559540057519078,-0.5992507453281432
1744475466109697300,12.293697265625,1.2269810045570135,1.7421303750708699,-0.6713896604742855
1744475466119694600,12.303694580078124,0.8440396718353033,1.8103046243697405,-0.761856770928204
1744475466129690400,12.3136904296875,0.43733693977594373,1.7939333352833986,-0.8571135268114507
1744475466139686400,12.323686279296876,0.19683190113306046,1.8072513742789624,-0.9429881218433379
1744475466149683500,12.333683349609375,0.0747714556068182,1.8125015498921273,-0.9219902689348906
1744475466159679500,12.343679443359376,0.09737842421233653,1.8135323542445898,-0.7961324038870632
1744475466169675300,12.35367529296875,0.23957915596961973,1.8651336544051764,-0.5844971571041271
1744475466179672600,12.363672607421876,0.42023908998072146,1.9119126489758491,-0.38057650328651066
1744475466189668400,12.37366845703125,0.584547024127841,1.9653245056897402,-0.2331094850314781
1744475466199664400,12.383664306640625,0.74633800701797,1.9872949299573897,-0.1897250282699242
1744475466209661400,12.393661376953125,0.9168190768420695,1.9368530289649961,-0.2390105988340452
1744475466219657500,12.403657470703125,1.0549380922436713,1.8192445944115518,-0.3213595404904336
1744475466229653200,12.4136533203125,1.1560393363714216,1.7179285384893417,-0.34774142452478407
1744475466239650600,12.423650634765625,1.2147311793148516,1.5556085632890462,-0.412002665098384
1744475466249646300,12.433646240234374,1.292836747780442,1.4198667984127997,-0.5167352514658123
1744475466259642400,12.443642333984375,1.3688187482208012,1.2787015471830963,-0.581177328499034
1744475466269639400,12.453639404296876,1.438637549856305,1.1818614676311612,-0.5629398071493953
1744475466279635500,12.463635498046875,1.434299812912941,1.1324220216795802,-0.5222483888641
1744475466289631500,12.473631591796876,1.3799977293610572,1.1621458365529775,-0.49383050549011676
1744475466299628500,12.483628662109375,1.4215385310173034,1.2539587355926631,-0.4502309812057763
1744475466309624300,12.493624267578125,1.6121213086277246,1.3486553733751176,-0.354716487701796
1744475466319620400,12.503620361328124,1.7813012327253817,1.360182729561627,-0.2366981206405908
1744475466329617400,12.513617431640625,1.9182120413810013,1.3192489538878203,-0.172060557567887
1744475466339613400,12.523613525390624,2.112778920191526,1.3404682675272226,-0.1653597082223743
1744475466349609500,12.533609375,2.337138295197487,1.3201608080357312,-0.15798905159020796
1744475466359606500,12.5436064453125,2.365075518915057,1.2885890272080898,-0.1824239114763215
1744475466369602600,12.5536025390625,2.193923417961597,1.222509412100911,-0.2722326128204353
1744475466379598300,12.563598388671876,2.0311825870007274,1.13908995513618,-0.30721579126045107
1744475466389595400,12.573595458984375,1.9231839845746754,1.0427771143287419,-0.28526430915528905
1744475466399591400,12.58359130859375,1.8186966051399707,0.8786690866678952,-0.22260949913132935
1744475466409587500,12.59358740234375,1.6302432407736778,0.7380477330565453,-0.2652527456041425
1744475466419584500,12.60358447265625,1.447764859163761,0.6725815736725926,-0.39235315805897114
1744475466429580500,12.61358056640625,1.5201193167567253,0.6470552104890346,-0.4872837872603908
1744475466439576300,12.623576416015625,1.8298773398458956,0.5509650725215673,-0.5990479527650401
1744475466449573600,12.63357373046875,2.092726896765828,0.397628614243865,-0.7197843466132878
1744475466459569400,12.6435693359375,2.0313737256586553,0.25998978357464075,-0.8253812947250903
1744475466469566500,12.65356640625,1.5753887840360403,0.17891455164849757,-1.0148924245160071
1744475466479562500,12.6635625,0.8275146534919738,0.0904848653063178,-1.2355400124572218
1744475466489558500,12.67355859375,-0.07675883003175259,0.05637246008515358,-1.365511961760372
1744475466499555300,12.683555419921875,-0.9926175374090671,0.11468962449729442,-1.396309689475596
1744475466509551600,12.693551513671874,-1.9496593190461395,0.3035962855890393,-1.3825604194559156
1744475466519547400,12.70354736328125,-2.841829107800126,0.5494561292633414,-1.289734543981403
1744475466529544400,12.71354443359375,-3.1457536024302244,0.7081859710171818,-1.148112342764437
1744475466539540500,12.72354052734375,-2.5505121658086773,0.7797662293672561,-1.089724012812227
1744475466549536500,12.73353662109375,-1.4830319873780011,0.7908090169072151,-1.3091126136682927
1744475466559533300,12.743533203125,-0.5747627122163772,0.7219263270780444,-1.711439468730986
1744475466569529600,12.753529541015626,-0.1342325293570757,0.6341977747425437,-2.3536377407081424
1744475466579525400,12.763525390625,-0.5052466929197311,0.4518894890025258,-2.993993015167117
1744475466589522400,12.7735224609375,-1.5985574781775473,0.25622370903939007,-3.2706676838219164
1744475466599518500,12.7835185546875,-2.9830507653921843,0.2717266908586025,-3.1621824669227
1744475466609514500,12.793514404296875,-4.314360743951797,0.35943303136229515,-2.636452957944572
1744475466619511300,12.80351123046875,-5.355543867087364,0.41615123614519833,-1.7539575909867882
1744475466629507600,12.813507568359375,-5.805270917358994,0.5241830101884901,-0.8249533516366034
