time,seconds_elapsed,z,y,x
1746552695662588700,0.954588623046875,3.532129001253843,0.22283844904899597,-0.4957198629006743
1746552695672586500,0.96458642578125,2.7257003904104233,0.38998219114392996,-0.6425213664516807
1746552695682584600,0.97458447265625,1.7308441341638563,0.3793511992752552,-0.7552896674975752
1746552695692583700,0.984583740234375,0.629144875267148,0.10419365718513726,-1.033086618180573
1746552695702581500,0.99458154296875,-0.49873278098106383,-0.24183979437798261,-1.463281577247381
1746552695712579600,1.00457958984375,-1.474341315922141,-0.5453264821127056,-1.9639511715099214
1746552695722578400,1.014578369140625,-2.3358763124376534,-0.6735135938256979,-2.1603578329682347
1746552695732576500,1.024576416015625,-3.154933518707752,-0.6590040069580078,-2.1183099585726857
1746552695742574300,1.03457421875,-3.8232168106645346,-0.59261488751024,-2.132620807997882
1746552695752573400,1.044573486328125,-4.317741618561745,-0.5037494400992989,-1.9301719437658786
1746552695762571500,1.054571533203125,-4.4041234324634075,-0.4240732613161206,-1.5095669430822134
1746552695772569300,1.0645693359375,-4.174977407702803,-0.4885808048009872,-1.131605736860633
1746552695782568400,1.074568359375,-3.886715177106857,-0.641845366886258,-1.031023840431869
1746552695792566500,1.08456640625,-3.566085046869516,-0.6896162951037287,-0.8847194727480411
1746552695802565600,1.094565673828125,-3.112443453502655,-0.6818275409236549,-0.6383887966915964
1746552695812563500,1.1045634765625,-2.445434419265389,-0.6774398273587227,-0.39650896256417034
1746552695822561500,1.1145615234375,-1.5396020158618688,-0.6500839106604457,-0.30079817930310965
1746552695832560600,1.124560546875,-0.44823301232159135,-0.6804051069051027,-0.3810957048550248
1746552695842558500,1.134558349609375,0.6349918477296829,-0.818453979679942,-0.3730022686399519
1746552695852556500,1.144556640625,1.3728268148183822,-0.8540119075343012,-0.28053981965035196
1746552695862555400,1.154555419921875,1.7167255924403666,-0.705427319958806,-0.1990985308907926
1746552695872553500,1.164553466796875,2.165486428028345,-0.4443202227920294,-0.1444974643923342
1746552695882551600,1.174551513671875,2.8508336675107477,-0.17436492552012203,-0.16759060907959938
1746552695892550400,1.18455029296875,3.7012621636003256,0.16762246552258728,-0.30884120050519703
1746552695902548500,1.194548583984375,4.545277285516262,0.45038113026618953,-0.03063391545563936
1746552695912547600,1.204547607421875,5.207653983777761,0.8001058375626802,0.5090890475615859
1746552695922545400,1.21454541015625,5.739395884913206,1.4746008436411617,1.0184092735305428
1746552695932543500,1.22454345703125,6.080617552280426,2.3327090805783866,1.4727984703943133
1746552695942542600,1.23454248046875,6.357366455215216,3.1061981293722987,1.837185617032647
1746552695952540400,1.24454052734375,6.486535855963826,3.647136897920072,2.1918904508292676
1746552695962538500,1.25453857421875,6.636252370178699,4.144330632765591,2.328666819450259
1746552695972537600,1.26453759765625,6.828605080071092,4.756016131448745,2.3683102630525825
1746552695982535700,1.27453564453125,6.970916286465525,5.416893531063199,2.527353408539295
1746552695992533500,1.284533447265625,7.046171726197004,6.025699967178702,2.7437749762833117
1746552696002532600,1.29453271484375,7.018532024121284,6.45825493337512,2.750328051188588
1746552696012530700,1.30453076171875,6.7769274998039,6.701005705118179,2.5372113702088592
1746552696022528500,1.314528564453125,6.36366175596714,6.984834921702742,2.1874001536726952
1746552696032527400,1.32452734375,5.683989639511704,7.201035540172457,1.8328578169614076
1746552696042525400,1.334525390625,4.89649953789413,7.148789220106601,1.3904916508466005
1746552696052523500,1.3445234375,4.233683571432531,6.687979050284624,0.7046072357475757
1746552696062522400,1.3545224609375,3.7014798980042336,6.0220431982368225,-0.5181786552071571
1746552696072520400,1.3645205078125,3.0280574895933268,5.262815899029373,-2.0580963128894565
1746552696082519600,1.37451953125,2.197207554198801,4.5159366247415536,-3.371358593583107
1746552696092517400,1.384517333984375,1.0266232673853635,3.7352752001002427,-4.186940232697129
1746552696102515500,1.394515380859375,-0.1330558867931366,3.0194869373857975,-4.5355689614504575
1746552696112514600,1.4045146484375,-0.9580890987329185,2.572115510329604,-4.408568136912584
1746552696122512600,1.4145126953125,-1.3218709729544817,2.3982499126337466,-3.7626094894886015
1746552696132510500,1.424510498046875,-1.1676312822267412,2.261677980543673,-2.5750071401178833
1746552696142509600,1.434509521484375,-0.6594573036834597,1.8718796215340494,-1.5204378811866044
1746552696152507600,1.444507568359375,-0.10149112022817135,1.3682362721577286,-1.1313865411520003
1746552696162505500,1.45450537109375,0.08741670990735292,0.9174952956032008,-1.3228817574322222
1746552696172504300,1.46450439453125,-0.2972508620850742,0.4628273913959041,-1.8138345520615577
1746552696182502400,1.47450244140625,-0.8385241232842207,0.09640656523918732,-2.1648417003840206
1746552696192500500,1.48450048828125,-1.128211418247223,0.12775493084080516,-2.0726041461914777
1746552696202499300,1.494499267578125,-1.1908503913812338,0.47275268268063664,-1.825947014659643
1746552696212497400,1.504497314453125,-1.1213000314235686,0.698944022354111,-1.881551997503638
1746552696222495500,1.51449560546875,-1.0808153146915138,0.5802567065227776,-2.328383326333761
1746552696232494600,1.52449462890625,-1.2546814969092608,0.2508919926226139,-2.706149302244186
1746552696242492400,1.534492431640625,-1.7672335444062948,-0.285902661857754,-3.291748465773463
1746552696252490500,1.544490478515625,-2.6451409990519283,-1.0788815701499581,-4.064077238616347
1746552696262489600,1.554489501953125,-3.4372084915876386,-1.9741887801468372,-4.667799503335356
1746552696272487400,1.5644873046875,-3.7694928192615507,-2.9478239691883323,-4.944736037796735
1746552696282485500,1.574485595703125,-3.832538181239366,-3.8144247246608134,-4.820551439723372
1746552696292484600,1.584484619140625,-3.806517604798078,-4.357143654623627,-4.40311220959425
1746552696302482700,1.594482666015625,-3.96117975872159,-4.422157101804018,-3.544000056311488
1746552696312480500,1.60448046875,-4.156150542157889,-4.366902247571945,-3.0667069537222384
1746552696322479400,1.614479248046875,-4.21519192919135,-4.426642430524527,-2.961636805963516
1746552696332477700,1.624477783203125,-4.122210863155126,-4.644566511785984,-3.2336791386425494
1746552696342475500,1.6344755859375,-4.042111490523815,-4.933721307307481,-3.7276796304047104
1746552696352474400,1.644474365234375,-4.107567420774698,-5.212514283290505,-4.023281702369451
1746552696362472400,1.654472412109375,-4.097775510078669,-5.482378102886677,-4.00306776638031
1746552696372470300,1.66447021484375,-3.888617211335897,-5.7125651611328125,-3.7947581934213637
1746552696382469400,1.674469482421875,-3.6710710234761237,-5.9798278583198785,-3.6359517792999743
1746552696392467500,1.684467529296875,-3.3943618680298324,-6.12277853166163,-3.666696461653709
1746552696402465500,1.694465576171875,-3.059827131080627,-6.1366872300267215,-3.602560966351628
1746552696412464400,1.70446435546875,-2.631424023866653,-6.133736563527584,-3.370758289602399
1746552696422462500,1.71446240234375,-2.1879414209425447,-6.090668990695476,-3.1921880213469267
1746552696432460500,1.72446044921875,-1.7716390858888624,-5.924667112112045,-3.1324598210930823
1746552696442459600,1.734459716796875,-1.501685834443569,-5.679674114400148,-3.125819067904353
1746552696452457500,1.74445751953125,-1.2318002414070068,-5.500317079681158,-2.936715130674839
1746552696462455600,1.75445556640625,-0.9312367476426064,-5.302913516139983,-2.6792589572310446
1746552696472454700,1.76445458984375,-0.6530828002154827,-5.00494880669713,-2.3816771096259353
1746552696482452500,1.774452392578125,-0.20697452496290206,-4.569196213503182,-2.0763871718615294
1746552696492450600,1.784450439453125,-0.26581936651095744,-3.9241728011026975,-2.5047090305328368
1746552696502449400,1.794449462890625,-0.8430791562400758,-3.3292683413505553,-3.354913070216775
1746552696512447500,1.804447509765625,-1.2498106760025023,-3.138997113907337,-3.9337019692093134
1746552696522445600,1.814445556640625,-1.4372095628798007,-3.0102699039682745,-4.2691251794308425
1746552696532444400,1.8244443359375,-1.518370427262783,-2.7045059189513325,-4.63869908105731
1746552696542442500,1.8344423828125,-1.52714176273942,-2.1680685534760356,-5.43375114236176
1746552696552440300,1.8444404296875,-1.4101331937752664,-1.3473577347800134,-6.0178854940354825
1746552696562439400,1.854439453125,-1.2948375662088394,-0.20036212108582258,-6.608059125873446
1746552696572437500,1.8644375,-1.3891127637088299,0.8536246617823838,-7.188189502602815
1746552696582435600,1.874435546875,-1.7010976690672337,1.2335723656460642,-7.577923564204573
1746552696592433400,1.884433349609375,-1.96715712794438,0.9909260771907865,-7.8019579450398675
1746552696602432500,1.8944326171875,-2.0598750129997727,0.5362222614198923,-7.909424048024415
1746552696612430600,1.9044306640625,-1.8347136739611625,0.10613587729409336,-7.887303986153006
1746552696622428400,1.914428466796875,-1.3164333119451999,-0.025762656157463787,-7.778204144486785
1746552696632427500,1.924427490234375,-0.6807714559994638,0.22337693983986973,-7.532206353646516
1746552696642425600,1.934425537109375,0.3828687058769166,0.9557939735330641,-7.027421433019637
1746552696652423400,1.94442333984375,0.8932124296747147,1.7769060665063559,-6.062285776776075
1746552696662422500,1.954422607421875,0.2516715986929834,2.3525803406096992,-4.843897828519344
1746552696672421000,1.964421142578125,-0.11322788138166069,2.751888724634051,-3.616074527919292
1746552696682419200,1.974419189453125,-0.3797672327302396,2.9929756548181174,-2.469392802479863
1746552696692418000,1.98441796875,-0.556822712508589,3.115589350312948,-1.3491232831478117
1746552696702416100,1.994416015625,-0.6426071450389921,3.0776731688946484,-0.33731706114411353
1746552696712414200,2.004414306640625,-0.6195334357045591,3.038607232919335,0.7091635838776826
1746552696722413300,2.014413330078125,-0.703068920264393,3.1484850732207295,1.8513889144301414
1746552696732411100,2.0244111328125,-0.8280128122724593,3.1634725067332385,2.8216946667879816
1746552696742409200,2.0344091796875,-0.9903777225930244,3.0866134311974047,3.5797032378554343
1746552696752407300,2.0444072265625,-1.038420672684908,3.0000889939546584,4.191117810642719
1746552696762406100,2.05440625,-1.0441465029858052,2.969282644541561,4.637284538084268
1746552696772404200,2.064404296875,-0.9482207617998123,2.945036968818307,4.887127898436784
1746552696782402300,2.07440234375,-0.7353261991381644,2.8808441903710365,4.7857665420681235
1746552696792401400,2.0844013671875,-0.5269137503266335,2.8397897109270094,4.225509325066208
1746552696802399200,2.094399169921875,-0.4173941488783806,2.7971909246504305,3.405271969100833
1746552696812397300,2.104397216796875,-0.261693957144022,2.7749188870877024,2.467408935186267
1746552696822396200,2.114396240234375,0.0038169279396533962,2.795249142932892,1.6197908203423022
1746552696832394200,2.124394287109375,0.33338089073896404,2.9218755812004207,0.9698001409232616
1746552696842392300,2.134392333984375,0.5190753117859364,3.13936477817595,0.6969143431574106
1746552696852391200,2.14439111328125,0.512679546334222,3.2719302511036394,0.8908084372729063
1746552696862389000,2.154388916015625,0.417431704409793,3.322370690791309,1.290496322134137
1746552696872387000,2.164386962890625,0.5552093590278178,3.3540205052912233,1.8727187027066945
1746552696882385200,2.17438525390625,0.6937971609849483,3.3665231362506747,2.3548732738524674
1746552696892384300,2.18438427734375,0.6766974845588207,3.3362153840094804,2.7859540758430956
1746552696902382000,2.194382080078125,0.5190694665670395,3.261035347601771,2.9021219561994074
1746552696912380200,2.204380126953125,0.2630873842637986,3.260904999220371,2.8690929623007775
1746552696922379300,2.214379150390625,0.056551323783397674,3.198606656217575,3.043124418082833
1746552696932377000,2.224377197265625,0.07661562216877937,3.147315444919467,3.1722254297703505
1746552696942375200,2.234375244140625,0.19178287411518394,3.0932661670848725,3.357750923991203
1746552696952374300,2.244374267578125,0.22978965642638502,2.9505972332939505,3.6116672328710555
1746552696962372400,2.254372314453125,0.3324912484228611,2.8989778129547834,3.66456880197525
1746552696972370200,2.2643701171875,0.43758134299106893,2.974169539800286,3.5795085920661687
1746552696982369300,2.274369384765625,0.4354455000061542,3.0835499519735574,3.3008827893435955
1746552696992367400,2.284367431640625,0.40821847038455306,3.1420623466968536,3.0301059465557336
1746552697002365200,2.294365234375,0.3567501489538699,3.145632606399059,2.9397645813733337
1746552697012363300,2.30436328125,0.369191039788723,3.212793879263103,2.8376287335008383
1746552697022362000,2.314362060546875,0.3876934226196259,3.4241613784879443,2.639876794913411
1746552697032360200,2.324360107421875,0.12988076388835906,3.724738900777697,2.3224966063827277
1746552697042358300,2.334358154296875,-1.0440553906362504,4.248813043764233,1.291412267935276
1746552697052357000,2.344357177734375,0.17961309183929114,4.4733495289027685,1.307682434734702
1746552697062355200,2.354355224609375,0.28971009131669995,4.59312829323262,1.551990957313776
1746552697072353000,2.36435302734375,-0.052345067732594903,4.39745082283169,1.6495424000054597
1746552697082352000,2.37435205078125,0.11907299068067222,4.067355821895599,2.012716371461749
1746552697092350200,2.38435009765625,0.4586883918950334,3.5690813060760496,2.308787814503908
1746552697102348000,2.39434814453125,0.9856792625784874,3.0130130651965734,2.340547226858139
1746552697112346000,2.40434619140625,1.6625006657779215,2.818704837322235,1.9102876781225204
1746552697122345200,2.41434521484375,2.276297749787569,3.2632302272975444,1.1383861907809971
1746552697132343300,2.42434326171875,2.6082173358023164,4.060239852410555,-0.0771802703142166
1746552697142341000,2.434341064453125,2.496455581450462,4.641214278748631,-1.4629969150871038
1746552697152340200,2.44434033203125,1.847345338127762,4.790470774236321,-2.3706939433187246
1746552697162338300,2.45433837890625,1.2561388561107218,4.802337153118849,-2.92039411047101
1746552697172336000,2.464336181640625,0.7879027740716934,4.8178287367612125,-3.2214708144545554
1746552697182334200,2.474334228515625,0.3014461218178272,4.719490819866955,-3.273233150395751
1746552697192333300,2.484333251953125,-0.07246902388334274,4.561639514513313,-3.298594970667362
1746552697202331400,2.494331298828125,-0.4088637094855308,4.3630715833678835,-3.2969828592956065
1746552697212329200,2.5043291015625,-0.6920083048067986,4.021424676325917,-3.153618928977847
1746552697222328000,2.514328125,-0.8038051304720342,3.5749414302811022,-3.045520957830548
1746552697232326100,2.524326171875,-0.9603731180168688,3.0634198948755857,-3.2925340631932016
1746552697242324200,2.53432421875,-1.1529987265665083,2.4742089705899355,-4.3093221652626985
1746552697252323000,2.544322998046875,-1.4816191979706286,1.7236149135626853,-5.371381487688422
1746552697262321200,2.554321044921875,-1.7786907579660414,1.0156862783074379,-5.843370054128766
1746552697272319200,2.5643193359375,-1.8348586353898046,0.35646804407685995,-5.850885836586356
1746552697282317000,2.574317138671875,-1.6917980719327925,-0.28634003036171196,-5.986856149521469
1746552697292316200,2.584316162109375,-1.4506442139923572,-0.7748702740192412,-6.592860972219706
1746552697302314200,2.594314208984375,-1.3306113287709653,-1.1849512503400443,-6.653639558309316
1746552697312312000,2.60431201171875,-1.2142119777463376,-1.762721619939804,-6.234065654239058
1746552697322311200,2.614311279296875,-1.1148564082421362,-2.395635200090706,-5.644438550367951
1746552697332309200,2.624309326171875,-1.050176430799812,-3.106620446437597,-5.259450806510448
1746552697342307000,2.63430712890625,-0.9833082956634461,-3.879169584032893,-5.011989372858404
1746552697352306200,2.64430615234375,-0.8524445851523429,-4.518146117484569,-4.545661900919676
1746552697362304300,2.65430419921875,-0.7177636544406414,-4.925696990805864,-3.6891713283121583
1746552697372302300,2.66430224609375,-0.6045872109852731,-5.214495227974653,-2.738160643532872
1746552697382300200,2.674300048828125,-0.5607658971764147,-5.397552286255359,-2.0936995411902664
1746552697392299300,2.68429931640625,-0.6649149115022271,-5.4414288373827935,-1.6113748741745948
1746552697402297300,2.69429736328125,-0.8526001410402357,-5.396756167441606,-1.0910989544272423
1746552697412295200,2.704295166015625,-1.0823835138563067,-5.348393995332717,-0.632492432129383
1746552697422294000,2.7142939453125,-1.3791525107085705,-5.363590979942679,-0.32572599207162856
1746552697432292000,2.7242919921875,-1.7113878846742212,-5.399021774286031,-0.18769114782214164
1746552697442290400,2.73429052734375,-1.971484781885147,-5.409446722188592,-0.08803016563057899
1746552697452288300,2.744288330078125,-2.185186861537397,-5.424731385082006,-0.1562619903355837
1746552697462287000,2.754287109375,-2.386319674734771,-5.457015698093175,-0.23700258347988126
1746552697472285200,2.76428515625,-2.4796824335649608,-5.4479971098572015,-0.2732955476105213
1746552697482283000,2.774282958984375,-2.4868974795103074,-5.374986234182119,-0.270616099268198
1746552697492282000,2.7842822265625,-2.449449353995174,-5.297336008268594,-0.1554383989930153
1746552697502280200,2.7942802734375,-2.3271184209644793,-5.217489733615517,0.021487024664878843
1746552697512278300,2.8042783203125,-2.142809609057009,-5.1842123179137705,0.22612872276604173
1746552697522277000,2.814277099609375,-2.0222073995150622,-5.254364881548285,0.38688627095520495
1746552697532275200,2.824275146484375,-1.9089714809574185,-5.394689298039674,0.6089589963287114
1746552697542273300,2.834273193359375,-1.7636580240070818,-5.532677965059876,0.9283148688465356
1746552697552271000,2.84427099609375,-1.6052537609457969,-5.583280609571934,1.2139783151209353
1746552697562270200,2.854270263671875,-1.4355483516693115,-5.428624300867319,1.363811733713746
1746552697572268300,2.864268310546875,-1.3701578878700733,-5.051981776028871,1.4325573531597853
1746552697582266000,2.87426611328125,-1.294914723098278,-4.508878522923588,1.4808505516856907
1746552697592265200,2.88426513671875,-1.2629765931762753,-3.889643047252297,1.496262640351057
1746552697602263300,2.89426318359375,-1.4128059201158583,-3.2720658601820465,1.1476087771564722
1746552697612261400,2.904261474609375,-1.7455064273752272,-2.7487065874665975,0.7006190428942441
1746552697622259200,2.91425927734375,-2.064945302001387,-2.435692192929983,0.14702303734719752
1746552697632258300,2.92425830078125,-2.3298656738460064,-2.30576291372478,-0.2942091563016176
1746552697642256400,2.93425634765625,-2.4039935708522795,-2.278916407853365,-0.622089696058631
1746552697652254200,2.944254150390625,-2.4134850372970105,-2.3053321210920807,-0.8529261581242084
1746552697662253000,2.954253173828125,-2.367481118752062,-2.3512623898789284,-1.0390706610262392
1746552697672251400,2.96425146484375,-2.2580349478662014,-2.34043382961154,-1.1787941890150309
1746552697682249500,2.97424951171875,-2.123072350668907,-2.210272495216131,-1.3269751642256975
1746552697692247300,2.984247314453125,-1.9132570493221281,-1.925238286755979,-1.67484985974133
1746552697702246400,2.994246337890625,-1.6372317844867705,-1.3992700005859136,-2.260230412083864
1746552697712244500,3.004244384765625,-1.4136137293674051,-0.541916673669219,-3.156718064036965
1746552697722242300,3.0142421875,-1.3092927925407887,0.5901739240989089,-4.490826148882508
1746552697732241400,3.024241455078125,-1.2827274416983128,1.661545995401591,-5.917642328041792
1746552697742239500,3.034239501953125,-1.3080221880830825,2.475215809544921,-6.913737770694494
1746552697752237600,3.044237548828125,-1.2122341018021106,2.911044975106418,-7.540776613593101
1746552697762236400,3.054236328125,-0.9678652273379266,3.0343291172087192,-8.013509860920905
1746552697772234500,3.064234375,-0.5946130755901337,2.989576952290535,-8.2260560485363
1746552697782232600,3.074232666015625,-0.11002572433948517,3.035660658073425,-8.391020400765537
1746552697792230400,3.08423046875,0.21633973467946052,3.6095629540681835,-8.486738782811164
1746552697802229500,3.0942294921875,0.31468780764155085,4.253835548101366,-8.127096492612361
1746552697812227600,3.1042275390625,0.29465054339356717,4.6364726371794935,-7.534985170710087
1746552697822225700,3.1142255859375,0.19668693970441817,4.941722242933511,-6.598444909831881
1746552697832224300,3.124224365234375,0.004442366361618042,4.895661041243374,-5.391277443769574
1746552697842222300,3.134222412109375,-0.1728571513056755,4.574757062500715,-4.142729335048794
1746552697852220400,3.144220458984375,-0.21133977096769957,4.374773711599409,-3.0226632293343543
1746552697862218500,3.154218505859375,-0.03655599898099899,4.411104961913824,-2.1173791074633597
1746552697872217300,3.16421728515625,0.24858897637724875,4.614971291728318,-1.505114055326581
1746552697882215400,3.17421533203125,0.4985995099902153,4.886270697085559,-1.018425932404399
1746552697892213200,3.184213134765625,0.6424374875605106,5.031548644331098,-0.4116150540202856
1746552697902212400,3.19421240234375,0.692230569255352,4.953075996118784,0.2528232529461384
1746552697912210400,3.20421044921875,0.7192407412558793,4.727499062016606,0.9274392550557852
1746552697922208500,3.21420849609375,0.7848848875552416,4.469957548376917,1.3997025467842816
1746552697932206300,3.224206298828125,0.9522282438755035,4.257478580778837,1.677650888636708
1746552697942205400,3.234205322265625,1.2209990075379609,4.056766623342037,1.915970984455943
1746552697952203500,3.24420361328125,1.4845043980181216,3.7565298773139713,2.202719887879491
1746552697962201300,3.254201416015625,1.7641385010004043,3.417052131004631,2.438993572562933
1746552697972200400,3.264200439453125,1.996338068112731,3.196591809263825,2.7736212484925984
1746552697982198500,3.274198486328125,2.1308938380748033,3.1096468085214495,3.191836723691225
1746552697992196600,3.284196533203125,2.1515321369558573,3.0641604841098187,3.569608544820547
1746552698002195500,3.294195556640625,2.110541370397806,3.0671918146297332,3.876944893720746
1746552698012193500,3.304193603515625,1.9604723894834517,3.104801998838782,4.130841328856349
1746552698022191600,3.314191650390625,1.695913106036186,3.10487068016082,4.310448538944125
1746552698032189400,3.324189453125,1.44537942533195,3.0298510950118303,4.418413823622465
1746552698042188300,3.334188232421875,1.2831424522399901,3.018825258606672,4.5712312264621255
1746552698052186400,3.344186279296875,1.2713590754657984,3.1130557401821015,4.687821131622791
1746552698062184400,3.354184326171875,1.2747796975642443,3.289848185110092,4.835702831625938
1746552698072183300,3.364183349609375,1.2556851209938524,3.409058794163167,4.964583478561043
1746552698082181400,3.374181396484375,1.268722297221422,3.4303532188653945,5.005763045689464
1746552698092179500,3.384179443359375,1.325954004484415,3.375599299892783,4.958542444831132
1746552698102177300,3.39417724609375,1.3354127377033234,3.280385360237956,4.730176172271371
1746552698112176400,3.40417626953125,1.320413321492076,3.186246940860152,4.4615410176873205
1746552698122174500,3.414174560546875,1.2796101864606142,3.0662907741367813,4.223597938486933
1746552698132172300,3.42417236328125,1.205289981752634,2.8461981166645884,3.998219741827249
1746552698142171400,3.43417138671875,1.130135664308071,2.5614152526170013,3.7982483736246824
1746552698152169500,3.44416943359375,1.0297948831588029,2.267990816952288,3.6540608519643545
1746552698162167600,3.45416748046875,0.925106428194046,1.9120001811288296,3.4925270587056874
1746552698172165400,3.464165283203125,0.8754103771328926,1.6215359104439615,3.2405046007484195
1746552698182164500,3.47416455078125,0.7995359287202358,1.4931643820747733,3.0474077944904563
1746552698192162600,3.48416259765625,1.0592892731904984,1.6765614859648048,2.7908587990194555
1746552698202160400,3.494160400390625,1.1504466309309005,1.6163474018901585,2.751801046350598
1746552698212159500,3.504159423828125,0.3494879759311676,1.3800804392084478,2.962981790831685
1746552698222157600,3.514157470703125,-0.09180035008536651,1.3935503077648579,2.8540339248567816
1746552698232155600,3.52415576171875,-0.15925183806763962,1.5076760147690773,2.5313942083626984
1746552698242153500,3.534153564453125,-0.1761714086865075,1.6502108007863163,2.1250164704740047
1746552698252152300,3.54415234375,-0.31028993800878524,1.8146413383997975,1.8428022878706454
1746552698262150400,3.554150390625,-0.4137269316077232,2.0476703420735896,1.6479355493307113
1746552698272148500,3.5641484375,-0.5186252299308777,2.3079371890239417,1.487114872777462
1746552698282147300,3.574147216796875,-0.5313058478057384,2.5225857557460665,1.3818044865220784
1746552698292145400,3.5841455078125,-0.5488824210286141,2.6402450437039136,1.317585989111662
1746552698302143200,3.594143310546875,-0.5968108778953551,2.6770550174459813,1.1159165848195551
1746552698312141300,3.604141357421875,-0.6359715064167976,2.655289175839722,0.765832981082797
1746552698322140400,3.614140380859375,-0.5914426288604736,2.6707512411266565,0.2481125910371542
1746552698332138500,3.624138427734375,-0.6065057579576969,2.7544243805915114,-0.3683043200820684
1746552698342136300,3.63413623046875,-0.6803893248140811,2.867635749229789,-1.1398463264614342
1746552698352135400,3.644135498046875,-0.6991396179914474,3.10187822034657,-2.051118290570378
1746552698362133500,3.654133544921875,-0.7240648004114627,3.5005616043403744,-3.0158833599358794
1746552698372131300,3.66413134765625,-0.8205015598595142,3.875777603507042,-3.8308354689747093
1746552698382129400,3.67412939453125,-0.9021791415929794,4.20729533072263,-4.57510134589374
1746552698392128500,3.68412841796875,-0.9713852912228554,4.537144540204108,-5.293381133162975
1746552698402126600,3.694126708984375,-1.162521684128046,4.869794486320019,-6.229757727912068
1746552698412124400,3.70412451171875,-1.492704071086645,5.192426604029536,-7.052242570543289
1746552698422123500,3.71412353515625,-1.8879367301046848,5.201210214465856,-7.624221204999089
1746552698432121600,3.72412158203125,-2.401799275678396,4.75951449495852,-7.796659838631749
1746552698442119400,3.734119384765625,-2.9770798742890356,3.79641560523957,-7.476015679869056
1746552698452118300,3.7441181640625,-3.437077558684349,2.47430337087512,-6.855954859289526
1746552698462116400,3.754116455078125,-3.7288510122716425,1.096924007318914,-6.099872872370481
1746552698472114700,3.76411474609375,-3.807076407724619,-0.08771890772432088,-5.494750093203782
1746552698482112500,3.774112548828125,-3.705805652248859,-1.0086518496260046,-5.1036032421946524
1746552698492111400,3.784111328125,-3.5357974606335163,-1.7759511038690805,-5.049767022588849
1746552698502109400,3.794109375,-3.377680782341957,-2.4188833892092108,-5.215851903280615
1746552698512107300,3.804107177734375,-3.203867353224754,-2.9946818742141126,-5.249280125629902
1746552698522106400,3.8141064453125,-2.9451825147688386,-3.499103514486551,-4.941376790496706
1746552698532104400,3.8241044921875,-2.6045745953857895,-4.019448407816887,-4.330584149000049
1746552698542102300,3.834102294921875,-2.2366648275792596,-4.551360989344119,-3.6050305713355537
1746552698552100400,3.844100341796875,-1.896414635592699,-4.940019530668854,-3.1063182486206293
1746552698562099500,3.854099365234375,-1.5620597852550446,-4.9868911719590425,-2.9556828659951684
1746552698572097500,3.86409765625,-1.346621383329481,-4.827212066656351,-2.900875171008706
1746552698582095400,3.874095458984375,-1.1878783167678861,-4.699915474042296,-2.696346870154142
1746552698592093400,3.884093505859375,-1.1345173865236342,-4.751335280156136,-2.361231702968478
1746552698602092500,3.894092529296875,-1.2363352544881403,-4.926204355806112,-2.10307410325706
1746552698612090400,3.90409033203125,-1.3672352784216404,-5.157331325250864,-1.7936030804157257
1746552698622088400,3.91408837890625,-1.4253531208693981,-5.3779257947653525,-1.4336223520427942
1746552698632087600,3.924087646484375,-1.36425187869668,-5.5055152328461405,-1.0704811138123274
1746552698642085600,3.934085693359375,-1.2432535094439983,-5.53108455838859,-0.7826800709873437
1746552698652083500,3.94408349609375,-1.2480863364279269,-5.536633424687385,-0.568612372893095
1746552698662082600,3.95408251953125,-1.2985912196539342,-5.5889487183362245,-0.23698621686697005
1746552698672080600,3.96408056640625,-1.2959692005872725,-5.640535113188624,0.2822024921655655
1746552698682078200,3.974078125,-1.2595593320786953,-5.636735136383772,0.7939239340573548
1746552698692076000,3.984075927734375,-1.202125453307107,-5.511583739104867,1.221215280637145
1746552698702075000,3.994074951171875,-1.212458485142514,-5.335964721870422,1.5045342096120118
1746552698712073000,4.004072998046875,-1.2585329116404056,-5.118056130439043,1.6822814710468053
1746552698722071300,4.0140712890625,-1.2923849123597144,-4.891566757667064,1.8123165487140416
1746552698732069000,4.024069091796875,-1.3339642924606798,-4.659108247357606,1.8656243605315683
1746552698742068000,4.03406787109375,-1.4087468539834023,-4.385571876728535,1.8564871143519877
1746552698752066000,4.044066162109375,-1.5147580819845199,-4.098524867141246,1.6700111875385044
1746552698762064000,4.05406396484375,-1.6814917819738386,-3.7541523345276713,1.3880670540481805
1746552698772063000,4.06406298828125,-1.9139689969837665,-3.434037460336089,1.2667337537527084
1746552698782061000,4.07406103515625,-2.064274124741554,-3.216391903755069,1.1685685630768536
1746552698792059100,4.08405908203125,-2.1542074936449525,-2.9711022611841558,0.9946563497602939
1746552698802058000,4.09405810546875,-2.1647148591339587,-2.6962776043102146,0.7123299389541149
1746552698812056000,4.10405615234375,-2.1265923414885997,-2.3868857841849325,0.43250002113878727
1746552698822054100,4.11405419921875,-2.0334394260168076,-2.0634470262676476,0.23686989701092243
1746552698832052000,4.124052001953125,-1.9592098222017287,-1.8011255848750471,0.1200058510839939
1746552698842051000,4.134051025390625,-1.9305694186508655,-1.6161100860029458,0.033846740022301675
1746552698852049200,4.144049072265625,-1.9230115506172178,-1.49047528912127,-0.027191958308219907
1746552698862047200,4.154047119140625,-1.9439140533924102,-1.3874085901394486,-0.18670564391613007
1746552698872046000,4.164046142578125,-1.971193689984083,-1.3209922904238105,-0.43990766704678536
1746552698882044200,4.174044189453125,-1.9857833563506602,-1.2610326195016504,-0.7693067946732044
1746552698892042200,4.184042236328125,-1.9485458048462867,-1.2393369205221534,-1.0897224053770302
1746552698902040000,4.1940400390625,-1.7708125719368457,-1.2179825823262334,-1.5534621989101172
1746552698912039200,4.2040390625,-1.4789385805845259,-1.0245967299938201,-2.075458951100707
1746552698922037200,4.214037353515625,-1.0426455969035624,-0.5212719450473785,-2.6046996830701827
1746552698932035000,4.22403515625,-0.6541442919671535,0.16404548381865022,-3.0983652437895532
1746552698942034000,4.234033935546875,-0.3711912736952305,0.8576283444657922,-3.5229175207942722
1746552698952032000,4.244031982421875,-0.2338952651143074,1.4661734992966056,-3.7786803343236444
1746552698962030000,4.254030029296875,-0.19625908794747665,1.9370856686770914,-4.013098746529221
1746552698972028000,4.26402783203125,-0.2421382293352857,2.4393244119524953,-4.335372552320361
1746552698982027000,4.274027099609375,-0.187494766733516,3.1330691851630803,-4.878479897078871
1746552698992025000,4.284025146484375,-0.11094926892518997,4.11316801726073,-5.598665810230374
1746552699002023000,4.29402294921875,0.10692894563423469,5.31912698431611,-6.472955658900737
1746552699012022000,4.30402197265625,0.23124856826411558,6.505545092338323,-7.169832592657208
1746552699022020000,4.31402001953125,0.1552197878062725,7.305726917746663,-7.2567568428725
1746552699032018200,4.32401806640625,-0.03412088078856468,7.426428934401273,-6.694113607516885
1746552699042016000,4.33401611328125,-0.16693360647559166,6.903811419963836,-5.696372735744714
1746552699052015000,4.34401513671875,-0.06418343066361266,6.093439624452591,-4.628013436391949
1746552699062013200,4.35401318359375,0.20161036758124828,5.409638445368409,-3.7611633823335167
1746552699072011000,4.364010986328125,0.5278589222222566,5.095714534771442,-3.241764829942584
1746552699082010000,4.374010009765625,0.8264274427771567,5.160976403754949,-2.896203672066331
1746552699092008200,4.38400830078125,0.9476958611428737,5.395773001623153,-2.4517700520277024
1746552699102006000,4.394006103515625,0.932089126688242,5.534713854801654,-1.6864292383760213
1746552699112004000,4.404004150390625,0.8854740905076265,5.561294403213262,-0.6598083090782165
1746552699122003200,4.414003173828125,0.808170486074686,5.510569009104371,0.4902198041796684
1746552699132001300,4.424001220703125,0.7095633968502283,5.346077535083889,1.5975871718406676
1746552699141999000,4.4339990234375,0.6305740312874317,5.030020704111457,2.6242180380105973
1746552699151997200,4.4439970703125,0.5452005176454782,4.5712695126459,3.5190000550895926
1746552699161996000,4.45399609375,0.4821551556676626,4.050879903391003,4.22808063685894
1746552699171993900,4.463993896484375,0.4367208537042141,3.558046117320657,4.684765251183509
1746552699181992000,4.473991943359375,0.41278523031082004,3.140182816560566,4.872525372588634
1746552699191991000,4.483990966796875,0.4244721975058317,2.7653137311354277,4.87604010271132
1746552699201989000,4.493989013671875,0.5371359056660905,2.5043960190609096,4.844039282816648
1746552699211987000,4.503987060546875,0.6489005460947752,2.3373795566074547,4.818104631093144
1746552699221985000,4.513985107421875,0.6936708311915397,2.1696603527121243,4.828422611489891
1746552699231984000,4.523984130859375,0.7353250300943851,1.9892127462774514,4.834536710456013
1746552699241982000,4.53398193359375,0.767677074579522,1.8352901586748658,4.787631751418114
1746552699251980000,4.54397998046875,0.8110773134320974,1.6788301615491508,4.757147181305289
1746552699261979100,4.553979248046875,0.8827169738192111,1.5310384779170154,4.659439086747169
1746552699271977200,4.563977294921875,1.0137988571256398,1.4155965737476943,4.4306706631273025
1746552699281975000,4.57397509765625,1.1178356432486325,1.297655107847601,4.11381069907844
1746552699291973000,4.58397314453125,1.220989655187726,1.1531919841162859,3.7843016813367605
1746552699301972200,4.59397216796875,1.3665613246828316,1.0164777209460736,3.530414014029503
1746552699311970000,4.603969970703125,1.518074074664712,0.9479500550996511,3.4017835424631833
1746552699321968000,4.613968017578125,1.674376397010684,0.9326371890250593,3.2563837224036454
1746552699331967200,4.62396728515625,1.742523466041684,1.0250143708840012,3.048144876593351
1746552699341965000,4.633965087890625,1.6915683548301457,1.1268797312520444,3.017070523893833
1746552699351963100,4.643963134765625,1.6786574353307484,1.1225818879276512,2.9964129357904192
1746552699361961200,4.653961181640625,1.6455103680104017,1.1058492181830109,2.9691239468485113
1746552699371960000,4.6639599609375,1.5797937409967182,1.138869590383768,2.884962731605768
1746552699381958000,4.6739580078125,1.4539502698004245,1.1501723440341651,2.751933732819557
1746552699391956000,4.6839560546875,1.3155483458042143,1.1125292804688214,2.643039642858505
1746552699401955000,4.693955078125,1.1743956617951392,1.041626921380311,2.5306466048657894
1746552699411953000,4.703952880859375,1.0365092861056326,0.9795303845599294,2.370264319729805
1746552699421951000,4.713950927734375,0.8182417982339859,0.9865011003553866,2.087827434286475
1746552699431949000,4.723948974609375,0.544352376383543,0.9940357336439192,1.7362731734752654
1746552699441948200,4.7339482421875,0.2700140417218208,0.9780353236965834,1.460247324118018
1746552699451946000,4.743946044921875,0.058145899498462675,1.093068793195486,1.4008885416984558
1746552699461944000,4.753944091796875,-0.17103932476136832,1.3544776497878133,1.3394599672675132
1746552699471943200,4.763943115234375,-0.4847942719995975,1.7635459419347346,1.3918553404152392
1746552699481941000,4.77394091796875,-0.922036519229412,1.966129246201366,1.5270137524455785
1746552699491939000,4.78393896484375,-1.3346528592467308,2.0682553033322093,1.4907108514428138
1746552699501937200,4.793937255859375,-1.5721663148581981,2.215341469043493,1.3573013289064169
1746552699511936300,4.803936279296875,-1.6402175222992896,2.5445932971537113,0.9247007700026034
1746552699521934000,4.81393408203125,-1.5779519125223158,3.0795901084318755,0.1814361790806055
1746552699531932200,4.82393212890625,-1.4090169030964375,3.7509880252778527,-0.6822428437262773
1746552699541931300,4.83393115234375,-1.2112404145896434,4.455305045907199,-1.5840531520068644
1746552699551929000,4.84392919921875,-1.0721347262382506,5.115281405028701,-2.5258307290166613
1746552699561927200,4.85392724609375,-1.07698508887887,5.472165920951962,-3.3542379474341866
1746552699571925200,4.86392529296875,-1.2609633536577225,5.431541649618745,-3.82445599707067
1746552699581923800,4.873923828125,-1.5979788015067578,4.911028998506069,-3.941535147053003
1746552699591922000,4.883921875,-2.054716022801399,4.133032993681729,-3.975860610502958
1746552699601920000,4.893919921875,-2.5211808573842047,3.4254207308992743,-4.299631376853585
1746552699611919000,4.903919189453125,-2.850088986623287,2.8759502808496356,-4.810256840202212
1746552699621917000,4.9139169921875,-3.1208091307878494,2.336421671360731,-5.3045618678689
1746552699631915000,4.9239150390625,-3.408268812829256,1.7085498847693203,-5.611567961901426
1746552699641913000,4.9339130859375,-3.6933038980722426,0.9042325669914484,-5.674556625255942
1746552699651912000,4.943911865234375,-3.9333307978093623,-0.010239654463529587,-5.5700143007636065
1746552699661910000,4.953909912109375,-4.05795554086566,-0.9458499410152434,-5.298462381950021
1746552699671908000,4.963908203125,-3.94027257977128,-1.831353842139244,-4.973105807712674
1746552699681907500,4.973907470703125,-3.5855426115334033,-2.501380178371072,-4.707819379034638
1746552699691905500,4.983905517578125,-3.0130349847674367,-2.921582443472743,-4.619831883502006
1746552699701903600,4.993903564453125,-2.424205168753862,-3.150077310848236,-4.771291441991925
1746552699711901400,5.0039013671875,-1.8391560403227805,-3.3779654445022342,-5.046935014033317
1746552699721900500,5.013900634765625,-1.2325672802567482,-3.613051965227723,-5.198838224637508
1746552699731898600,5.023898681640625,-0.6592412497799843,-3.8969554160922764,-5.118645328503847
1746552699741896400,5.033896484375,-0.25631876691170036,-4.178689706224203,-4.8557004945158955
1746552699751895600,5.0438955078125,-0.01168342353105545,-4.551395476135611,-4.443670429953933
1746552699761893600,5.0538935546875,0.07295768418312072,-4.949570033824443,-3.980899189192056
1746552699771891700,5.0638916015625,0.09845573458764702,-5.31702095194757,-3.5118507678568363
1746552699781889500,5.0738896484375,0.1617126569569111,-5.583302236881852,-3.0367110439091918
1746552699791888400,5.083888427734375,0.2718576237618923,-5.6831274697244165,-2.6391934888243673
1746552699801886500,5.093886474609375,0.36844515332486477,-5.704864669758081,-2.2718822714328764
1746552699811884300,5.10388427734375,0.4147393600532785,-5.6106198673963545,-1.916668319070339
1746552699821882400,5.11388232421875,0.4090437787601724,-5.4795794120788575,-1.5499135665178299
1746552699831881500,5.123881591796875,0.3769663134327158,-5.328091212016344,-1.1878846734434365
1746552699841879600,5.133879638671875,0.3065746803453192,-5.187373996815085,-0.853022019714117
1746552699851877400,5.14387744140625,0.18319500544667242,-5.036043617662787,-0.47761225154101844
1746552699861876500,5.15387646484375,0.06666826518271118,-4.923287591576576,-0.07811316725015639
1746552699871874600,5.16387451171875,-0.013938508981466292,-4.856066989740729,0.35389527097940443
1746552699881872400,5.173872314453125,-0.0942518531570211,-4.814187749910355,0.7255272741794586
1746552699891870500,5.183870361328125,-0.17378772842036558,-4.778397474604845,0.9462813181698322
1746552699901869600,5.19386962890625,-0.2330044720207341,-4.706788282421231,1.056962291547656
1746552699911867400,5.203867431640625,-0.2991875657686964,-4.607973103404045,1.0776719020992518
1746552699921865500,5.213865478515625,-0.3520353223264217,-4.556151730751991,1.0864245328754185
1746552699931863600,5.223863525390625,-0.36205753464698787,-4.516508287149668,0.9990735816806554
1746552699941862700,5.233862548828125,-0.2427133623421192,-4.336505355742574,0.7328343823224306
1746552699951860500,5.243860595703125,-0.08884148201346397,-3.951597106862068,0.3026964141398668
1746552699961858600,5.253858642578125,0.09025368689894675,-3.4668045884281393,-0.19475217224955557
1746552699971857700,5.263857666015625,0.29837621285319327,-2.9788503910928963,-0.6364841321140527
1746552699981855500,5.27385546875,0.5391431173026562,-2.552299633747339,-0.9316770387560128
1746552699991853600,5.283853515625,0.7496154212534427,-2.1942612716138363,-1.101869939288497
1746552700001851600,5.2938515625,0.8619529296666383,-1.820809067249298,-1.2274217340618372
1746552700011850500,5.3038505859375,0.8424743222147226,-1.3999807792037724,-1.369251878941059
1746552700021848300,5.313848388671875,0.7069120055586099,-1.0042489384919404,-1.4761866515278816
1746552700031846400,5.323846435546875,0.6142459968209266,-0.8135439958065748,-1.5346218893617392
1746552700041845500,5.333845458984375,0.5970020165532827,-0.6674190763428807,-1.6419693344026802
1746552700051843300,5.34384326171875,0.6995248179167509,-0.5142448228895664,-1.7644342690765857
1746552700061841400,5.35384130859375,0.8225017207007854,-0.4490779387131333,-1.8651900607675314
1746552700071839500,5.363839599609375,0.9819505243789404,-0.4303638858929276,-1.9180512978613375
1746552700081838600,5.373838623046875,1.3172563187658786,-0.24759616594761608,-1.9649100796699523
1746552700091836400,5.38383642578125,1.632357456448674,0.18691431823074817,-2.1213895121484994
1746552700101834500,5.39383447265625,1.9007547106236218,0.7668968109220266,-2.389976735937595
1746552700111833600,5.40383349609375,2.1075807670265436,1.4266209488481283,-2.6948025633215904
1746552700121831400,5.41383154296875,2.2932938927739857,2.1849670813068744,-2.885028198057413
1746552700131829500,5.42382958984375,2.4329934553653,2.921565492337942,-3.035765287491679
1746552700141827600,5.43382763671875,2.618373403635621,3.765935419040918,-3.549764611187577
1746552700151826400,5.443826416015625,2.7435814995378256,4.880372286696732,-4.318944564610719
1746552700161824500,5.453824462890625,2.636413502717018,5.992606091350317,-5.0210611525863404
1746552700171822600,5.463822509765625,2.240875723272562,6.750166334128379,-5.428945787906646
1746552700181821700,5.47382177734375,1.485163738709688,6.934152782213688,-5.3473430249750615
1746552700191819500,5.483819580078125,0.5371516512244939,6.274129369080066,-4.8233618209689855
1746552700201817600,5.493817626953125,-0.2516851888269186,5.112622999474406,-4.248934039795398
1746552700211815700,5.503815673828125,-0.6726362264692783,4.011397203308344,-3.9476925006389614
1746552700221814300,5.513814208984375,-0.9028197775840758,3.311040318481624,-4.022774921891093
1746552700231812400,5.523812255859375,-0.9494149400204419,2.9994936584100125,-4.210819705456495
1746552700241810700,5.533810791015625,-0.895182414573431,2.9079680518791076,-4.193721271139383
1746552700251808500,5.54380859375,-0.8483347386807203,2.907816660709679,-3.8640883347570893
1746552700261807400,5.553807373046875,-0.8176257121622562,2.94783770545274,-3.3149019623458384
1746552700271805400,5.563805419921875,-0.754456431543827,3.0352608451008796,-2.6203917577207085
1746552700281803500,5.573803466796875,-0.6310480785399675,3.066313862751424,-1.7876672606259583
1746552700291802400,5.58380224609375,-0.3555242969533428,3.023978695847094,-0.8663526259303093
1746552700301800400,5.593800537109375,0.0011947627425193785,2.8872762692451475,0.07500000366568566
1746552700311798500,5.603798583984375,0.3256424785066396,2.6382284431844947,0.942833223542571
1746552700321796400,5.61379638671875,0.613014409199357,2.3309901478312907,1.6579542545199393
1746552700331795500,5.62379541015625,0.8498561760943383,2.090384717553854,2.1707541392982006
1746552700341793500,5.63379345703125,1.0447474645536392,1.9617697358176112,2.466142276251316
1746552700351791400,5.643791259765625,1.286665950191021,1.9598200630545615,2.659562323114276
1746552700361790500,5.65379052734375,1.5875199513345957,2.0860877510122955,2.833477459040284
1746552700371788500,5.66378857421875,1.8839931070454417,2.2324999629847704,3.0148592775851486
1746552700381786600,5.67378662109375,2.1961177131354805,2.437664223655313,3.1404952435106037
1746552700391784400,5.683784423828125,2.4939520741969345,2.7189874487683174,3.171217129510641
1746552700401783600,5.693783447265625,2.7265298269718885,3.0407156033754346,3.2195810551851984
1746552700411781600,5.70378173828125,2.892577298262715,3.2516689688414333,3.3979712906986475
1746552700421779500,5.713779541015625,3.0358389372497796,3.3540523617342113,3.6243174556076525
1746552700431777500,5.723777587890625,3.1342683318197726,3.417888289567828,3.818067757338285
1746552700441776600,5.733776611328125,3.1416438290238378,3.5274563332676885,3.8951796385914084
1746552700451774700,5.743774658203125,3.0413761131107804,3.651073945108056,3.9106197843074795
1746552700461772500,5.7537724609375,2.9094997914910317,3.687652740442753,3.898511413362622
1746552700471771400,5.763771484375,2.7438386891692876,3.650243631763756,3.8220986202895637
1746552700481769500,5.77376953125,2.534932903882861,3.5928473815888164,3.7006688738822935
1746552700491767300,5.783767333984375,2.3234569758474826,3.5683898166805506,3.5947681205183266
1746552700501765400,5.793765380859375,2.1229408332437276,3.6128351076066494,3.544937629422545
1746552700511764500,5.803764404296875,1.9215537530243396,3.6815523777410384,3.520782846853137
1746552700521762600,5.813762451171875,1.7491209646105765,3.7612142357379197,3.5066724884361027
1746552700531760400,5.823760498046875,1.5332921020627022,3.9364208727791903,3.4624808800101277
1746552700541759500,5.833759521484375,1.3385311619848013,4.093976702317595,3.4344559780091046
1746552700551757600,5.843757568359375,1.1443985829383134,4.179069645452499,3.42622064910531
1746552700561755400,5.85375537109375,0.9574550386130809,4.232445554070175,3.3415643438220024
1746552700571753500,5.86375341796875,0.7528443201720714,4.345598762780428,3.197562115600705
1746552700581752600,5.873752685546875,0.49391632061004637,4.441477303823828,2.992469166600704
1746552700591750400,5.88375048828125,0.24129998841285705,4.468072465282678,2.7755653682976957
1746552700601748500,5.89374853515625,0.05548866298794746,4.497449366414546,2.5295716691106556
1746552700611746600,5.90374658203125,-0.0543278025150299,4.615391270706057,2.009913004478812
1746552700621745700,5.91374560546875,-0.046215807729959486,5.07283400992155,1.0330611914783716
1746552700631743500,5.923743408203125,0.057553194302320476,5.921233630532026,-0.2735398777604103
1746552700641741600,5.933741455078125,0.1471113001525402,6.965242332482338,-1.7035013692080974
1746552700651740700,5.94374072265625,0.19539865345954893,8.090869579455257,-3.1919033591866492
1746552700661738500,5.953738525390625,-0.013961816791817546,9.109922119325399,-4.498507351034879
1746552700671736600,5.963736572265625,-0.618206717145443,9.466894313532114,-5.211304322978854
1746552700681734000,5.97373388671875,-1.348356390428543,8.948837238878012,-5.231540470799803
1746552700691733000,5.98373291015625,-2.1278163303256035,7.633860555481911,-4.798163082304597
1746552700701731000,5.99373095703125,-2.7984850561141967,5.934160916644334,-4.2710073399156325
1746552700711729200,6.003729248046875,-3.4418788214862346,4.257829586173593,-3.9163901844024656
1746552700721727000,6.01372705078125,-4.067663280409574,2.6589655262649057,-3.9860979268789287
1746552700731725800,6.023725830078125,-4.626899922192097,1.287698800370097,-4.082296201395988
1746552700741724000,6.033723876953125,-5.0974423814773555,0.21508418166041374,-3.9616292560547586
1746552700751722000,6.043721923828125,-5.428519086927175,-0.5137994172096252,-3.657677873417735
1746552700761720800,6.053720947265625,-5.627522486880421,-0.9542612110078335,-3.297338248604536
1746552700771719000,6.063718994140625,-5.713235023218393,-1.1592331639766693,-3.0255314782470464
1746552700781717000,6.073717041015625,-5.619181944036484,-1.232643852624297,-2.86254164096117
1746552700791714800,6.08371484375,-5.221404276710748,-1.2178151168048381,-2.8248715432584284
1746552700801714000,6.0937138671875,-4.6893619313240045,-1.2333107921004294,-2.8298037389636037
1746552700811712000,6.1037119140625,-4.2354704548493025,-1.3285387602806091,-2.932540475338697
1746552700821709800,6.113709716796875,-3.8422073423385616,-1.3729402120649814,-3.130059774214029
1746552700831708000,6.1237080078125,-3.49261532151103,-1.3981570709079503,-3.265610400432348
1746552700841707000,6.13370703125,-3.1369106630221006,-1.4054747004449366,-3.3543501756370064
1746552700851704800,6.143704833984375,-2.8231612322092055,-1.4190052131474018,-3.2970418960064647
1746552700861703000,6.153702880859375,-2.563417240089178,-1.4829647673606872,-3.0619004302233455
1746552700871702000,6.163701904296875,-2.3817422838166356,-1.5785376034557819,-2.660277777907252
1746552700881700000,6.1737001953125,-2.265728424978256,-1.789157791444659,-2.0288415768325327
1746552700891698000,6.183697998046875,-2.1229987009108067,-2.1004098524838684,-1.2666565968632697
1746552700901696000,6.193696044921875,-2.030192991441488,-2.4122978733390568,-0.559104539835453
1746552700911695000,6.203695068359375,-1.9110308977052568,-2.6410177816420792,0.01504793152809143
1746552700921693000,6.21369287109375,-1.7875228837192056,-2.7712837454557415,0.36825580476522446
1746552700931691000,6.22369091796875,-1.5853427534259854,-2.8050393000632523,0.601324555927515
1746552700941689000,6.233689208984375,-1.3561914679683744,-2.745304085546732,0.7735258736729621
1746552700951688000,6.24368798828125,-1.142360647369921,-2.6598347103148696,0.8466220895439386
1746552700961686000,6.25368603515625,-0.9327018517591059,-2.545819039556384,0.7988906165540218
1746552700971684000,6.26368408203125,-0.7788448767386377,-2.4127929633796215,0.7063081944465637
1746552700981682200,6.27368212890625,-0.6780768100880086,-2.307722815620899,0.7186854454606771
1746552700991680800,6.2836806640625,-0.6140659640789031,-2.2684131340175866,0.7785533464461565
1746552701001678800,6.293678955078125,-0.6180594176292419,-2.1958032403588295,0.8793757736325264
1746552701011677000,6.303677001953125,-0.6822878519117832,-2.1377917808949944,0.9279279153555631
1746552701021676000,6.313676025390625,-0.7789256868898868,-2.108382146537304,0.9664344638824462
1746552701031673900,6.323673828125,-0.8710238326117395,-2.1055074678838253,0.9779571438938379
1746552701041672000,6.333671875,-0.9625168520472943,-2.151514016777277,0.9264730403721332
1746552701051669800,6.343669677734375,-1.0234816083587706,-2.2299650376796722,0.8205763786613941
1746552701061668900,6.3536689453125,-1.0756221299625932,-2.339189382508397,0.6587316197574138
1746552701071667000,6.3636669921875,-1.0636696802318095,-2.4821277808904645,0.38612346988916396
1746552701081665000,6.3736650390625,-1.0494799729682505,-2.5941098999947307,0.11179624114334583
1746552701091662800,6.383662841796875,-1.0361807848036289,-2.6220857021570203,-0.12221417478322982
1746552701101662000,6.393661865234375,-0.9955389778137207,-2.566785255217552,-0.36183775441646576
1746552701111660000,6.403659912109375,-0.9527753563642501,-2.464249009850621,-0.6263666427254676
1746552701121657900,6.413657958984375,-0.9195045165337622,-2.4294249492287636,-0.8354770106732845
1746552701131657000,6.423656982421875,-0.8941745527051389,-2.4563176323294638,-0.9641063131958245
1746552701141655000,6.433655029296875,-0.7981868521988391,-2.4806360810279844,-1.061414010259509
1746552701151653000,6.443653076171875,-0.7094996839642524,-2.5364520762741565,-1.2241577638298273
1746552701161651000,6.45365087890625,-0.6383633699893951,-2.6478543496638536,-1.3893068249762057
1746552701171650000,6.463650146484375,-0.5833154365062714,-2.785593425837159,-1.540349619358778
1746552701181648100,6.473648193359375,-0.4633974098362028,-2.8693051437467334,-1.6870640291482208
1746552701191646000,6.48364599609375,-0.34158180591650306,-2.8879864633411167,-1.9111206218153238
1746552701201644800,6.493644775390625,-0.24480237051062284,-2.923072974291444,-2.186466087692976
1746552701211643000,6.503642822265625,-0.17787366429343818,-2.972451629966497,-2.454592708232999
1746552701221641000,6.513640869140625,-0.04604162020683288,-2.9331308424472806,-2.753632937952876
1746552701231638800,6.523638671875,0.2498794545792043,-2.6037130101203916,-3.3816970322459934
1746552701241638000,6.533637939453125,0.5976291354756802,-1.79372524549067,-4.291165161803365
1746552701251636000,6.543635986328125,0.8512987761180847,-0.8040589591026306,-5.189624990612268
1746552701261633800,6.5536337890625,0.8531411891143769,0.10980828219652175,-6.0075885564267635
1746552701271633000,6.5636328125,0.6153436558645218,0.764600224417448,-6.567977290853857
1746552701281631000,6.573630859375,0.14658530351705848,0.9331021031230687,-6.75844667121768
1746552701291628800,6.58362890625,-0.4477496127188205,0.37059038519263265,-6.428260192605853
1746552701301627000,6.593626953125,-0.9635515288572758,-0.9235773189306259,-5.618343739646673
1746552701311626000,6.6036259765625,-1.1779811190664768,-2.4888772551506757,-4.607331882891058
1746552701321624000,6.6136240234375,-1.1425474021136761,-3.9389942303985355,-3.6591146282225844
1746552701331622000,6.623621826171875,-0.8567034847058356,-4.912251233777403,-3.0504905629366634
1746552701341620000,6.633619873046875,-0.39016839789841323,-5.182878438961506,-2.898700165057182
1746552701351619000,6.643619140625,0.2467524085998535,-4.588645887121558,-3.0915994029164313
1746552701361617000,6.653616943359375,0.9187164348959922,-3.343720645073056,-3.398243677899241
1746552701371615000,6.663614990234375,1.4290987371385098,-2.0098738415122033,-3.5759932774215937
1746552701381614000,6.673614013671875,1.6899965754687785,-0.9398650213867425,-3.3873458517879245
1746552701391612200,6.683612060546875,1.7327333089113235,-0.22417583513259887,-2.849812507769465
1746552701401610000,6.69360986328125,1.6189607992589472,0.22399229525923728,-2.2328788792997596
1746552701411608000,6.703608154296875,1.4505050977826117,0.6245905729636549,-1.7716116133600472
1746552701421607000,6.71360693359375,1.3475661168336868,1.0234776628360152,-1.5676462070852517
1746552701431604700,6.723604736328125,1.2667711631536482,1.4136065689742565,-1.4420546648234127
1746552701441603000,6.73360302734375,1.191317570501566,1.7530033590018748,-1.3466723828643559
1746552701451602000,6.743601806640625,1.1566659438371658,1.9976213859215377,-1.2498638674944638
1746552701461600000,6.75360009765625,1.151516305989027,2.180050083170831,-1.1516104140132666
1746552701471597800,6.763597900390625,1.1623533418238163,2.349478429071605,-1.0538789385795593
1746552701481596000,6.773595947265625,1.2054220836997032,2.5288632285803554,-0.8992173691779375
1746552701491595000,6.783594970703125,1.2206044552624224,2.698262932908535,-0.680327950015664
1746552701501592800,6.7935927734375,1.2575824790477752,2.890314029505849,-0.3111006698697805
1746552701511591000,6.8035908203125,1.2007143444001673,2.917535506169498,-0.051425066810846326
1746552701521590000,6.813590087890625,1.1501648913800715,2.8403827083840967,0.23529928669333455
1746552701531587800,6.823587890625,1.1841080775141715,2.81403275385797,0.6074439155906438
1746552701541586000,6.8335859375,1.2297276729166506,2.8741610593453046,0.8939455662548541
1746552701551584000,6.843583984375,1.2247883898835628,2.9932509646281598,1.1152759488284587
1746552701561583000,6.8535830078125,1.1706933001458644,3.1158950552612543,1.3296785779654978
1746552701571581000,6.863580810546875,1.0845733520507812,3.163432466983795,1.5521920328438281
1746552701581579000,6.8735791015625,0.9525812950968742,3.159983787834644,1.7861188621401787
1746552701591578000,6.883578125,0.8103495836794375,3.136969407472014,2.0458914958328007
1746552701601576000,6.893575927734375,0.6886077025830746,3.134472914481163,2.2811995503544806
1746552701611574000,6.903573974609375,0.6006407018491998,3.1118472411751745,2.4848615897685287
1746552701621572000,6.913572021484375,0.5291829008350148,3.1300796479582784,2.6446400637924667
1746552701631571000,6.923571044921875,0.4428782072901726,3.176901604887843,2.8164024055987595
1746552701641569000,6.933569091796875,0.39231121861338614,3.2463571261689066,3.026477234664559
1746552701651567000,6.943567138671875,0.3725356740415096,3.362031377789378,3.205536747741699
1746552701661566000,6.95356591796875,0.3155097184836864,3.5370997754037377,3.334464156427979
1746552701671563800,6.963563720703125,0.22072481789588927,3.6687937261939045,3.4647207678914067
1746552701681562000,6.97356201171875,0.12928919120337815,3.662817574393749,3.6461306434869765
1746552701691560200,6.983560302734375,0.065534219651483,3.525476849888265,3.855435072702169
1746552701701559300,6.993559326171875,0.025936368756555018,3.344341699580848,4.0026749676704405
1746552701711557000,7.00355712890625,0.01787000321149826,3.2053345031678675,4.041148198449611
1746552701721555200,7.01355517578125,-0.0003648147244006395,3.1109356792882084,3.958026263126731
1746552701731553300,7.02355322265625,-0.021263773835636674,3.016085604509711,3.7569454723775384
1746552701741552400,7.033552490234375,-0.03335870077703148,2.9557986013293265,3.47920638936162
1746552701751550200,7.04355029296875,0.011239077297039329,2.93166866094023,3.238864432325959
1746552701761548300,7.05354833984375,0.053457997410558164,2.9582047856882214,3.059553574836254
1746552701771547400,7.06354736328125,0.11257767384462058,3.0707892545998097,2.9411282709419724
1746552701781545200,7.073545166015625,0.17591303174495695,3.1745804684638976,2.8451702349215746
1746552701791543300,7.083543212890625,0.20137597430348395,3.2611914149463175,2.7667542853325604
1746552701801541400,7.093541259765625,0.15775774531867354,3.3035736358627674,2.7063334266394374
1746552701811540200,7.103540283203125,0.11001286485791206,3.28136618796885,2.5714035626679657
1746552701821538300,7.113538330078125,0.006549056317284703,3.21895357093662,2.377290857365727
1746552701831536400,7.123536376953125,-0.16652327210903167,3.0010926180392503,2.175608009070158
1746552701841535200,7.13353515625,-0.34323592979907985,2.682507145372033,1.9635498972326515
1746552701851533000,7.143532958984375,-0.499728879346326,2.3525287565529345,1.7192776150107383
1746552701861531100,7.15353125,-0.5607539875429123,2.0467976508922874,1.3866829062134027
1746552701871529200,7.163529296875,-0.60211022641249,1.8705746764153242,0.9788181446373462
1746552701881528000,7.173528076171875,-0.5234919591844082,1.8204484172433613,0.5479752430558205
1746552701891526100,7.183526123046875,-0.3642097442448139,2.0046850406974555,-0.024003975921869276
1746552701901524200,7.193524169921875,-0.0811970316749066,2.603130241796374,-0.6840776579380035
1746552701911523300,7.2035234375,0.18063947574496267,3.374010569396615,-1.3810767567694187
1746552701921521200,7.213521240234375,0.32096330771446224,3.988175902196765,-2.0577508604526518
1746552701931519200,7.223519287109375,0.3283094326935708,4.416711695879697,-2.74952199550271
1746552701941517300,7.233517333984375,0.21505955867581067,4.669048334352672,-3.499221003386378
1746552701951516200,7.24351611328125,-0.023918781856447458,4.7254640490576625,-4.124799126082658
1746552701961514200,7.25351416015625,-0.4411059369206428,4.35595444483906,-4.40909829826653
1746552701971512300,7.26351220703125,-0.9851134453892707,3.3963466121062633,-4.3239281982421875
1746552701981511400,7.273511474609375,-1.621165615826845,2.0586095231086015,-3.8641947177410123
1746552701991509200,7.28350927734375,-2.2503379636228082,0.6023997839435935,-3.364341992819309
1746552702001507300,7.29350732421875,-2.738572731465101,-0.7025283836469054,-2.841079750737548
1746552702011505200,7.303505126953125,-3.045249155151844,-1.7081150004833936,-2.35677121642828
1746552702021504300,7.313504150390625,-3.2137107018470763,-2.365152091282606,-2.041312351348996
1746552702031502300,7.32350244140625,-3.193898916918039,-2.572097390151024,-1.9192817164391278
1746552702041500400,7.33350048828125,-3.1083541383624076,-2.3907979891926048,-1.8803508050203321
1746552702051498200,7.343498291015625,-2.8828900169849394,-1.9494845470011233,-1.915495183637738
1746552702061497000,7.3534970703125,-2.4914357074618336,-1.345146780732274,-1.9389853648185729
1746552702071495200,7.3634951171875,-2.0654373233020302,-0.819722392180562,-1.9000889401912688
1746552702081493200,7.3734931640625,-1.7220669534683226,-0.46498248707056045,-1.7838403958141802
1746552702091492000,7.3834921875,-1.364292795228958,-0.34116847587525845,-1.7290537436157465
1746552702101490200,7.393490234375,-1.0113314440988004,-0.40353754602670666,-1.7167717696696518
1746552702111488300,7.40348828125,-0.6742132665276527,-0.644338937267661,-1.6522195102602242
1746552702121486000,7.413486083984375,-0.3698724461816251,-1.0569225440591572,-1.4935036970317364
1746552702131485200,7.423485107421875,-0.13661343314424157,-1.5607254679113625,-1.1562538559049367
1746552702141483300,7.433483154296875,0.04708440725803375,-2.057724556967616,-0.7729577183961868
1746552702151481000,7.443481201171875,0.22544293245896696,-2.399075988194346,-0.4929781629770994
1746552702161480200,7.453480224609375,0.33043709237203,-2.528017425405979,-0.3785620947241783
1746552702171478300,7.463478271484375,0.35905776830911634,-2.44989022963047,-0.3646785308003425
1746552702181476400,7.473476318359375,0.300834711921215,-2.309720711439848,-0.39048224962055683
1746552702191474200,7.48347412109375,0.18503500729016958,-2.1672101830810306,-0.36899464043378827
1746552702201473300,7.493473388671875,0.06653466539829969,-2.093410787376761,-0.27556816871762274
1746552702211471400,7.503471435546875,0.01848587008751929,-2.0474714585006235,-0.18832126241922378
1746552702221469200,7.51346923828125,-0.015603081192821264,-1.9903502258747814,-0.1244803661495447
1746552702231468300,7.52346826171875,-0.04610007239580154,-1.9867910720884798,-0.07044774718880653
1746552702241466400,7.53346630859375,-0.08279540678225457,-2.022199654600024,-0.031880408385396
1746552702251464200,7.543464111328125,-0.14643793093562124,-2.1037258451640604,-0.013448679637908936
1746552702261462300,7.553462158203125,-0.24711247408390044,-2.223070601990819,-0.027070962277054786
1746552702271461400,7.56346142578125,-0.41018005278110503,-2.3614064750134944,-0.08531447693109512
1746552702281459500,7.57345947265625,-0.5931482637345791,-2.495298228108883,-0.11472703389823435
1746552702291457300,7.583457275390625,-0.9675078652676194,-1.9696411998450756,-0.20246026240885256
1746552702301455400,7.593455322265625,-1.5639444299578666,-1.38381582634449,0.40430385422408577
1746552702311454200,7.6034541015625,-1.7435608462654053,-2.6250767006665465,0.0814893656849861
1746552702321452000,7.6134521484375,-1.5001263300418852,-3.471100824317336,0.13300854052007197
1746552702331450000,7.6234501953125,-0.7749578061722219,-3.9109541308283804,0.3642763797402382
1746552702341449200,7.63344921875,-0.10065598457828163,-4.283073625284433,-0.4305073860168457
1746552702351447300,7.643447265625,0.49291437702588736,-4.479448430299759,-1.704693793863058
1746552702361445000,7.653445068359375,1.0453273833334444,-4.438627175089716,-2.2857482997000216
1746552702371443200,7.663443115234375,0.9932780471444129,-4.424016465935111,-1.7238199346154928
1746552702381442300,7.6734423828125,0.6973463048338889,-4.640654891300201,-0.8701637086510657
1746552702391440100,7.683440185546875,0.687995123642683,-5.024395265445113,-0.3216127115339041
1746552702401438200,7.693438232421875,0.780718926982209,-5.3707168862998484,-0.13503507791161537
1746552702411436300,7.703436279296875,0.8300666760623454,-5.526050655874609,-0.23412264412939546
1746552702421435400,7.713435302734375,0.8544903387010097,-5.511452221679687,-0.3275181361854076
1746552702431433200,7.72343310546875,0.8289549154281616,-5.464131083056331,-0.42276247097849845
1746552702441431300,7.733431396484375,0.7065057628452778,-5.395092033621668,-0.4245283116072416
1746552702451430400,7.743430419921875,0.5927005199670792,-5.296359856712818,-0.18441724071800708
1746552702461428200,7.75342822265625,0.5681938552200794,-5.211563850697875,0.1923632312864065
1746552702471426300,7.76342626953125,0.6203671100497246,-5.133059053781628,0.5548427907377481
1746552702481424400,7.77342431640625,0.6919395504195243,-4.9291918471843,0.7924737352490424
1746552702491423200,7.78342333984375,0.7838298986095935,-4.570001976928115,0.8341577447682619
1746552702501421300,7.79342138671875,0.7947966983038932,-4.143537728822231,0.7422691501438617
1746552702511419400,7.80341943359375,0.7560206121206283,-3.7212078040421006,0.5896019694298505
1746552702521418200,7.813418212890625,0.6343652402639388,-3.3621295774668454,0.4346025463759899
1746552702531416000,7.823416015625,0.4547919324457645,-3.061131199416518,0.2454676294863224
1746552702541414100,7.8334140625,0.25321247145943343,-2.767038362970948,0.0038531682968139646
1746552702551412200,7.843412109375,0.04928330554179847,-2.419694413331151,-0.28237024994790555
1746552702561411000,7.8534111328125,-0.14783625342622397,-2.0597475872278213,-0.62425476513803
1746552702571409200,7.8634091796875,-0.31345687760710716,-1.6550912663042545,-0.9445400274604558
1746552702581407200,7.8734072265625,-0.48059513980932533,-1.1795832935661077,-1.1772498821824788
1746552702591405000,7.883405029296875,-0.6853530847012996,-0.6978478246152401,-1.2908037806481123
1746552702601404200,7.893404052734375,-0.9867490837670863,-0.29271336478590965,-1.3590642469257115
1746552702611402200,7.90340234375,-1.356730251020193,-0.006231587865948677,-1.372008484172821
1746552702621400300,7.913400390625,-1.6565116544961929,0.12338555665016174,-1.3014865027040243
1746552702631398100,7.923398193359375,-1.8341678766466676,0.10736059678345918,-1.16305476809144
1746552702641397200,7.933397216796875,-1.883968995517492,0.020139409448206424,-0.9659083941817284
1746552702651395300,7.943395263671875,-1.7761749757528305,-0.09657675244063138,-0.8383978665560483
1746552702661393200,7.95339306640625,-1.5840040521681307,0.07636953845322132,-0.9145049546808004
1746552702671392300,7.963392333984375,-1.2761363728702066,0.4903258949026465,-1.2052186700820922
1746552702681389800,7.973389892578125,-0.9662509240090846,1.1628060540273786,-1.57193893584311
1746552702691387600,7.9833876953125,-0.5919862707505003,2.010171070893109,-2.0015759687662125
1746552702701385700,7.9933857421875,-0.28305476161334664,2.9288004120275377,-2.52939572802186
1746552702711384800,8.003384765625,-0.1416740775346756,3.7296409936055537,-3.0321313149034976
1746552702721382700,8.013382568359376,-0.14839724830985068,4.18389954982698,-3.388551720446348
1746552702731380700,8.023380615234375,-0.15031210548784582,4.2740316561728715,-3.56768196067214
1746552702741378800,8.03337890625,-0.10021039623524992,4.18600558219552,-3.7052211303591727
1746552702751378000,8.0433779296875,0.0226046670505777,4.040184906375408,-4.056784743520617
1746552702761375700,8.053375732421875,0.13519761152956633,3.9411113686829804,-4.559149159002303
1746552702771373800,8.063373779296874,0.20773674150705337,3.868966169926524,-5.004949975740909
1746552702781372700,8.07337255859375,0.21173607680890708,3.7151249769970773,-5.276267501276731
1746552702791370800,8.083370849609375,0.2173766765117645,3.500071482735872,-5.2830023624897
1746552702801368800,8.093368896484375,0.18946809436678885,3.230850929479301,-5.138900765547156
1746552702811367000,8.103366943359376,0.1250514440357685,2.9774250344648956,-4.853803720983863
1746552702821365500,8.113365478515625,0.15941661844160407,2.874792635247111,-4.50715944404602
1746552702831363600,8.123363525390625,0.25608605413436886,2.9896146539524198,-4.101986405771971
1746552702841361700,8.133361572265626,0.3751788820266723,3.2333222880288957,-3.61669412112236
1746552702851359500,8.143359375,0.4294213078131899,3.4569790677234526,-3.0330285560041665
1746552702861358600,8.153358642578125,0.40248770818021146,3.5792218840792773,-2.3984482116848227
1746552702871356700,8.163356689453124,0.3028373204478994,3.5355744655326005,-1.6351304282933472
1746552702881354800,8.173354736328125,0.13515435690972954,3.3706595054030415,-0.8037772195518016
1746552702891353600,8.183353515625,0.005729483562707901,3.111849579262733,0.004660977548360824
1746552702901351700,8.1933515625,-0.06849310598969459,2.7746351017102597,0.7992331463813781
1746552702911349800,8.203349853515626,-0.0813222106908448,2.371613980773091,1.562985229536891
1746552702921347600,8.21334765625,-0.06802667578803374,1.9779187604553996,2.225233332982659
1746552702931346700,8.2233466796875,-0.017794033632148057,1.619898518500477,2.7837124343961475
1746552702941344800,8.2333447265625,0.06034253275990486,1.306598000498861,3.2379975863635537
1746552702951342800,8.2433427734375,0.16387889508008957,1.0436214561983943,3.599289981856942
1746552702961340700,8.253340576171874,0.2805979795783758,0.8933242194861173,3.8891812749594448
1746552702971339800,8.26333984375,0.3880167362898588,0.8073347659029066,4.074098281893134
1746552702981337900,8.273337890625,0.47884442368447777,0.7708401417203247,4.180490618166327
1746552702991335700,8.283335693359374,0.5768272800633684,0.7600218105860054,4.314380617696046
1746552703001333800,8.293333740234376,0.6630845542699099,0.7644285211123526,4.418871504262089
1746552703011332900,8.303332763671875,0.7630980031609534,0.800674138969928,4.543963280308247
1746552703021330700,8.31333056640625,0.822737940609455,0.8665821969024836,4.601128936597704
1746552703031328800,8.323328857421876,0.8702560631096362,0.9923068640246987,4.634992627754807
1746552703041327600,8.33332763671875,0.884376358398795,1.1462471334144473,4.584732513070106
1746552703051325700,8.34332568359375,0.8461486268132925,1.314518856626004,4.486565568828582
1746552703061323500,8.353323486328126,0.7442220377773046,1.498153860925138,4.396593036958575
1746552703071321600,8.363321533203125,0.5824024133145809,1.5740337161652742,4.325981623640656
1746552703081320700,8.37332080078125,0.4331541011333465,1.6072868742085993,4.271867171615362
1746552703091318500,8.383318603515624,0.32838322858214375,1.6221764003045855,4.261455667716264
1746552703101316600,8.393316650390625,0.26677812854051586,1.59916348124668,4.246560296401381
1746552703111314700,8.403314697265625,0.2814168947458267,1.5408980470217764,4.201076310077309
1746552703121313800,8.413313720703124,0.3438414944767952,1.5223353853709995,4.093248972564935
1746552703131311600,8.4233115234375,0.4204126929819584,1.589194022026658,3.891810454419255
1746552703141309700,8.433309814453125,0.4933060797572136,1.6683594748087227,3.640534430915117
1746552703151307800,8.443307861328124,0.5745137058913707,1.6662876369707285,3.3332419211566444
1746552703161306600,8.453306640625,0.6048936465859412,1.6933467626795171,3.0121681388050314
1746552703171304700,8.4633046875,0.5630489300796762,1.7938510638274252,2.7297949662476775
1746552703181302800,8.473302734375,0.48431496405005453,1.9163259353734552,2.518015671351552
1746552703191300600,8.483300537109375,0.35486557731628415,1.9979626005746423,2.408441197910905
1746552703201299700,8.4932998046875,0.26278350594639777,2.084419817800075,2.311872921037674
1746552703211297800,8.5032978515625,0.18019757719635962,2.1348756011873484,2.205897348871827
1746552703221295600,8.513295654296876,0.09465044228686019,2.157133317963779,2.080018806362152
1746552703231294700,8.523294677734375,0.04300906584421173,2.1367117305733263,1.9562351903051136
1746552703241292800,8.533292724609375,-0.008389094693399966,2.1743723297953603,1.7685902197122574
1746552703251291000,8.543290771484376,-0.05793660412933677,2.232795146539062,1.5198971984386442
1746552703261288700,8.553288818359375,-0.15183778068516401,2.255551898878813,1.2471540240138768
1746552703271287600,8.56328759765625,-0.2329892927179113,2.3127181396901606,0.9676140290558337
1746552703281286000,8.573285888671874,-0.26042320655584333,2.476649349479377,0.6031015024721622
1746552703291283700,8.58328369140625,-0.24593411448691038,2.7748420224592087,0.13671791643202305
1746552703301281800,8.59328173828125,-0.27057401369214057,3.131644997578859,-0.36161622062027454
1746552703311280600,8.60328076171875,-0.32236970391366626,3.494897879490256,-0.9689590139240026
1746552703321278700,8.61327880859375,-0.3477005445251241,3.894859612856805,-1.6411130098342894
1746552703331276500,8.623276611328125,-0.33472532761786133,4.406389039307832,-2.268898871707916
1746552703341274600,8.633274658203124,-0.3782756789982319,4.906310737812519,-2.7947873706400395
1746552703351273700,8.643273681640625,-0.48373869853205975,5.303262475708126,-3.236506471022963
1746552703361271600,8.653271484375,-0.6798200735587626,5.471538728964329,-3.487884201335907
1746552703371269600,8.66326953125,-0.9303893370330333,5.39038955501914,-3.604620236968994
1746552703381267700,8.673267822265625,-1.1682909882444887,5.16683097500205,-3.706900461748242
1746552703391266600,8.6832666015625,-1.4532874219775198,4.7215138501271605,-3.711381991076469
1746552703401264600,8.6932646484375,-1.7142613942839204,3.9295875196278094,-3.55292979722023
1746552703411262700,8.7032626953125,-1.8984440955936908,3.046905105665326,-3.37304961540997
1746552703421260500,8.713260498046875,-1.9826701927661894,2.2034254058003424,-3.412565633240342
1746552703431259600,8.723259765625,-1.981071963789314,1.546091962403059,-3.770468970817327
1746552703441257700,8.7332578125,-1.9088941779375075,1.0690993040651082,-4.334384125804901
1746552703451255800,8.743255859375,-1.7560557323098183,0.689960870757699,-4.971114341634512
1746552703461254700,8.753254638671875,-1.5513117428779601,0.3013280483961105,-5.3939580611556766
1746552703471252700,8.763252685546876,-1.3826970514476298,-0.1914654056638479,-5.509540250578523
1746552703481250800,8.773250732421875,-1.20473337078318,-0.7186433598846197,-5.402818243959546
1746552703491248600,8.78324853515625,-1.0463819338876754,-1.21089262406528,-5.088852832308412
1746552703501247700,8.793247802734374,-0.8773336002804338,-1.6824743632704018,-4.660669505324959
1746552703511245800,8.803245849609375,-0.7262615798033774,-2.127735081782937,-4.1804514551997185
1746552703521244000,8.813243896484375,-0.5778968455236405,-2.624263046196103,-3.6478888853311537
1746552703531241700,8.82324169921875,-0.4850012658137828,-3.18119667173326,-3.1009424008011814
1746552703541240600,8.833240478515625,-0.4066740174215287,-3.742121412733197,-2.601120655539632
1746552703551238700,8.84323876953125,-0.3520399985015392,-4.262439418056607,-2.1843857742875814
1746552703561236700,8.85323681640625,-0.24287359440512954,-4.710559033131599,-1.9307523740023373
1746552703571234800,8.86323486328125,-0.14048874020762742,-5.051426480233669,-1.8035954821199178
1746552703581233700,8.873233642578125,-0.053516413066908713,-5.32438651227951,-1.7567390383988617
1746552703591231500,8.8832314453125,0.04582768519520759,-5.490497696456313,-1.7001625801742075
1746552703601229600,8.8932294921875,0.11976860826201736,-5.585781194216013,-1.6213696139663456
1746552703611227600,8.9032275390625,0.1943196260511875,-5.5988739000231025,-1.5321084452360867
1746552703621226800,8.913226806640624,0.22282909669876097,-5.551076376059651,-1.4184002329915761
1746552703631224600,8.923224609375,0.1989466282647103,-5.395844897815585,-1.2947966496765613
1746552703641222700,8.93322265625,0.1134567947667092,-5.179919004634022,-1.1491314566791058
1746552703651220700,8.943220703125,-0.03785254159756005,-4.984840084648132,-1.0366168381333352
1746552703661219600,8.953219482421876,-0.24697576902694998,-4.814281273412704,-1.013671431353688
1746552703671217700,8.9632177734375,-0.5156920990884304,-4.629544299221038,-1.105415064549446
1746552703681215500,8.973215576171874,-0.7916460522532462,-4.502991218450665,-1.1667232274711132
1746552703691213600,8.983213623046876,-1.0250024612504989,-4.4604432855784895,-1.189418458881974
1746552703701212700,8.993212646484375,-1.1669956877369434,-4.460112446188926,-1.1693337022304535
1746552703711210800,9.003210693359375,-1.244136137497425,-4.498438377451897,-1.0598264488071203
1746552703721208600,9.01320849609375,-1.2860603855133055,-4.541296106925606,-0.8810469217151403
1746552703731207700,9.023207763671875,-1.3037047632753849,-4.618289914757013,-0.717732674780488
1746552703741205800,9.033205810546875,-1.3231179042756556,-4.67051577655673,-0.5253811339318752
1746552703751203600,9.04320361328125,-1.3075908109284937,-4.648552951073646,-0.3594955752044916
1746552703761201700,9.05320166015625,-1.3175767828918992,-4.5794741541504855,-0.2039969704568386
1746552703771199700,9.06319970703125,-1.3382266260802744,-4.506055866718292,-0.07512742943763732
1746552703781198600,9.073198486328126,-1.273460577789694,-4.416804050338268,0.04082651590704918
1746552703791196700,9.08319677734375,-1.1565711782258004,-4.27828580648601,0.1024427218645811
1746552703801194800,9.09319482421875,-0.9190203862786293,-4.064135106283426,0.15531272678673266
1746552703811193600,9.103193603515624,-0.6363572908639907,-3.6949668628484007,0.11636194162368774
1746552703821191400,9.11319140625,-0.3825753854861483,-3.1335423556327817,-0.029641689547896383
1746552703831189800,9.123189697265625,-0.17226682072971014,-2.45059925468266,-0.22573650857806205
1746552703841187800,9.133187744140624,-0.03172554661724716,-1.8010452131152153,-0.43876901840567584
1746552703851186400,9.1431865234375,0.028931458919309077,-1.2271446706861258,-0.6191366914719343
1746552703861184500,9.1531845703125,0.002249167166277766,-0.7547995458930731,-0.7938216427266598
1746552703871182600,9.1631826171875,-0.06263857127521187,-0.4310129974514246,-0.9010878392249345
1746552703881180400,9.173180419921875,-0.12175126997921615,-0.2982750905662775,-0.9164280316978692
1746552703891179500,9.183179443359375,-0.13375384246204047,-0.37392683613896366,-0.9901011706739663
1746552703901177600,9.193177490234374,-0.1124947813341394,-0.5233043276578188,-1.2060177115052937
1746552703911175700,9.20317578125,-0.03537767591662705,-0.4729062658071518,-1.5725655433088541
1746552703921173500,9.213173583984375,0.05755903952121734,-0.1547229442000389,-2.023704798465967
1746552703931172600,9.223172607421875,0.14682371538281438,0.33298458489775656,-2.4407646738886832
1746552703941170700,9.233170654296876,0.11388470132257789,0.8363318739369511,-2.737672567754984
1746552703951168500,9.24316845703125,0.009306720994971693,1.2946496424213052,-2.8872967275112864
1746552703961166600,9.25316650390625,-0.1134136132121086,1.6500450888305902,-2.793926369896531
1746552703971165700,9.263165771484376,-0.20239885107781738,1.8384116516962645,-2.5281337452620267
1746552703981163500,9.27316357421875,-0.10285831692814826,1.9556781409442423,-2.43327344135046
1746552703991161600,9.28316162109375,0.20694650444481522,2.5286212365180254,-2.877664975813031
1746552704001159700,9.29315966796875,0.5358043282687663,3.714323889747262,-3.73817998163104
1746552704011158800,9.30315869140625,0.648093321365118,4.971533443829417,-4.479548968064785
1746552704021156600,9.313156494140625,0.495662908549048,5.905845507264137,-4.8377439820647234
1746552704031154700,9.32315478515625,0.04187752279732376,6.141517718923091,-4.452231337550282
1746552704041152800,9.33315283203125,-0.45435938624739647,5.570987529709935,-3.480094862633943
1746552704051151600,9.343151611328125,-0.7309399468779564,4.625799559734761,-2.5271792210161683
1746552704061149700,9.353149658203124,-0.7380477330565453,3.8441605222329494,-2.0877502773970362
1746552704071147800,9.363147705078125,-0.5033213508803397,3.528022150456905,-2.2378438082307577
1746552704081145600,9.3731455078125,-0.08100074191782623,3.6455274168968197,-2.680278363406658
1746552704091144400,9.38314453125,0.3360544938623905,3.909421222172677,-3.035650136679411
1746552704101142500,9.393142578125,0.5447767027428373,3.984020243822038,-2.9814070898383855
1746552704111140600,9.403140625,0.5047533564448357,3.8036712754562494,-2.449918286681175
1746552704121138700,9.413138671875,0.21919921576380727,3.5610011677339672,-1.6067834547311066
1746552704131137500,9.423137451171876,-0.1432815127313137,3.249064047040045,-0.6808528506726026
1746552704141135600,9.433135498046875,-0.4338601670434698,2.850790120629966,0.15694471190273762
1746552704151133400,9.443133544921874,-0.5857961474061012,2.3706766999229787,0.9259118993580341
1746552704161132500,9.453132568359376,-0.6001940540602431,1.8481845654308795,1.6131003827929495
1746552704171130600,9.463130615234375,-0.5998293489336967,1.336845400854945,2.199597371944785
1746552704181128400,9.47312841796875,-0.5929015954971313,0.8445482058793305,2.6884558246433734
1746552704191126500,9.48312646484375,-0.5710018983781338,0.375091788265109,3.1022745261877773
1746552704201125600,9.493125732421875,-0.5493091220080852,-0.005833820720016956,3.488745202079415
1746552704211123700,9.503123779296875,-0.46941199395060534,-0.3029579876855016,3.8411516958057876
1746552704221121500,9.51312158203125,-0.3520060962319374,-0.5128600905328988,4.162251197120547
1746552704231119600,9.52311962890625,-0.22686522034704684,-0.6439736110866069,4.397213214683532
1746552704241118700,9.53311865234375,-0.06790273431453388,-0.7045443996444344,4.585830829700828
1746552704251116500,9.543116455078126,0.05995557926893234,-0.717219756822288,4.68938881933093
1746552704261114600,9.553114501953125,0.19210896426439283,-0.6532543573901057,4.758542435055971
1746552704271112700,9.56311279296875,0.309333660197258,-0.494179939982295,4.821676059839129
1746552704281110500,9.573110595703126,0.4106067537605762,-0.285643426399678,4.771531680488586
1746552704291109600,9.583109619140625,0.5290788194060325,-0.09367226317077874,4.704880987495184
1746552704301107700,9.593107666015625,0.6499895103752613,0.1052484269350767,4.658846966072916
1746552704311105800,9.603105712890626,0.7513000133395195,0.34028964721411464,4.589576445969939
1746552704321103600,9.613103515625,0.857365601876378,0.5866033721357584,4.520206557145714
1746552704331102700,9.623102783203125,0.9899158772349357,0.8301970244437455,4.375990393912792
1746552704341100800,9.633100830078124,1.0913859546750784,1.1186292047791182,4.163921760681271
1746552704351098600,9.6430986328125,1.1689613617867232,1.3952728937737644,3.8705297659814355
1746552704361096700,9.6530966796875,1.2258429404377937,1.6286727765865623,3.5288521715402603
1746552704371095600,9.663095458984374,1.2497417024195194,1.8875486075699328,3.2608974004358053
1746552704381093400,9.67309326171875,1.235706162804365,2.1951574898011983,2.998401479259133
1746552704391091700,9.683091796875,1.126066222912073,2.5281977504089475,2.7737925134062764
1746552704401089800,9.69308984375,0.9509119005799292,2.818775564470887,2.5556746631383893
1746552704411088600,9.703088623046876,0.7268903792262077,3.040998219709098,2.4641285983413455
1746552704421086500,9.71308642578125,0.5123743528425693,3.130541127990186,2.443952071753144
1746552704431084500,9.72308447265625,0.3100397626399994,3.1144431028872726,2.4073066409230233
1746552704441082600,9.73308251953125,0.07350479667186736,3.0680595373749733,2.331316457176208
1746552704451081500,9.74308154296875,-0.13434888574574141,2.97920724170655,2.2502438555985687
1746552704461079600,9.75307958984375,-0.24546412235498427,2.9256626985237,2.044105781459808
1746552704471077600,9.76307763671875,-0.14971479718182235,3.0597984895080326,1.7040847220540045
1746552704481075500,9.773075439453125,0.057250411963462824,3.4516663482680916,1.013263435074687
1746552704491074600,9.783074462890625,0.1345195661375299,3.9322316043958065,0.16322656865119933
1746552704501072600,9.79307275390625,0.21694416684601456,4.406652366419136,-0.7645762590199708
1746552704511070700,9.80307080078125,0.45703536399099975,4.833182665498555,-1.9488707990169525
1746552704521068500,9.813068603515624,0.7282464700102805,4.976280346095562,-3.571372047361731
1746552704531067600,9.823067626953126,0.9452700953006744,4.670014549036324,-4.5317461882919075
1746552704541065700,9.833065673828125,0.8169512469667941,4.331911305950582,-4.510265008845925
1746552704551063600,9.8430634765625,0.5723452027458698,4.431405114881694,-4.226204906114936
1746552704561061600,9.8530615234375,0.3916613033372909,4.811746494238078,-4.0255724436551334
1746552704571060700,9.863060791015625,0.2105460267741233,4.9951621566981075,-3.7905946440011262
1746552704581058600,9.87305859375,-0.09999985875710844,4.641941131718457,-3.4939030232340094
1746552704591056600,9.883056640625,-0.4721966562330723,3.84841233445853,-3.2642256680756807
1746552704601054700,9.8930546875,-0.8752746219240128,2.7912936833053825,-3.17601196257174
1746552704611053800,9.9030537109375,-1.133785418987274,1.7044789820685982,-3.360718541625142
1746552704621051600,9.9130517578125,-1.2686791887320576,0.8577519708454608,-3.6336312273979186
1746552704631049700,9.9230498046875,-1.2991117363967,0.2679147313550114,-3.9613738199889656
1746552704641047800,9.9330478515625,-1.2993465680658816,-0.1886184918001294,-4.182766161882877
1746552704651046400,9.94304638671875,-1.2983926283419132,-0.5654141613736748,-4.241864832061529
1746552704661044500,9.95304443359375,-1.3231601359821856,-0.9522174302205443,-4.049312800204754
1746552704671042600,9.96304248046875,-1.3225241761662065,-1.3359165955722332,-3.609953999212384
1746552704681040600,9.97304052734375,-1.2983892673410475,-1.7200301869437098,-2.977082796898484
1746552704691039700,9.983039794921876,-1.2401944141343235,-2.091385419028997,-2.3262585892647505
1746552704701037600,9.99303759765625,-1.1422095484614372,-2.4687819771051407,-1.833023236656189
1746552704711035600,10.00303564453125,-1.0240389499805866,-2.8641058215379713,-1.4715046311914919
1746552704721033700,10.01303369140625,-0.9549733047999441,-3.2571500306010246,-1.2433394341617823
1746552704731032600,10.023032470703125,-0.8746716875948012,-3.614592180407047,-1.1414157677352428
1746552704741030700,10.03303076171875,-0.7704546495340764,-3.9954742425113916,-1.141441486698389
1746552704751028700,10.04302880859375,-0.7313982120394706,-4.334949358472228,-1.199724748840928
1746552704761026600,10.053026611328125,-0.7496563377857208,-4.57592259914875,-1.232703473857045
1746552704771025700,10.063025634765625,-0.7669162462748587,-4.717873155537247,-1.1949229015171527
1746552704781023700,10.073023681640626,-0.7899439245104789,-4.746622864681482,-1.0988538063377142
1746552704791021600,10.083021484375,-0.8708161812104285,-4.684770511880517,-1.0131769258350134
1746552704801019600,10.09301953125,-1.0159469750702381,-4.553692647162079,-0.852033593198657
1746552704811017700,10.103017822265626,-1.1757318788349629,-4.524816096767783,-0.4882973116844892
1746552704821016800,10.113016845703125,-1.2839948312856255,-4.5864831561297175,-0.07493862886726856
1746552704831014700,10.1230146484375,-1.3511761240243911,-4.713239650517702,0.3255506355047226
1746552704841012700,10.1330126953125,-1.2395580159269273,-4.895383685606718,0.7240279755324125
1746552704851010800,10.1430107421875,-1.033849784572795,-5.1618637079834935,1.0155635287106037
1746552704861009700,10.153009765625,-0.8257786234796046,-5.410971155276894,1.3340934717983006
1746552704871007700,10.1630078125,-0.5545535254675895,-5.5638253829956055,1.4913316136896608
1746552704881005800,10.173005859375,-0.20197554763182995,-5.6042146765291685,1.482981718495488
1746552704891003600,10.183003662109375,0.06695237935371696,-5.4738323928594586,1.341036422803998
1746552704901002800,10.193002685546874,0.19844868867993354,-5.206230088454484,1.1379402005791663
1746552704911000800,10.203000732421875,0.25377711960487065,-4.836718146148324,0.8973971680134535
1746552704920999000,10.2129990234375,0.17610943109989166,-4.448257173222303,0.5658920080184936
1746552704930996700,10.222996826171874,-0.02459565820470452,-3.996045320397615,0.12094926941394805
1746552704940995600,10.23299560546875,-0.3728419635117054,-3.508022149479389,-0.309548179730773
1746552704950993700,10.24299365234375,-0.7824363253593445,-3.0977386363238093,-0.7149860064208508
1746552704960991700,10.25299169921875,-1.125761175550893,-2.807218397668004,-0.949806569686532
1746552704970989800,10.26298974609375,-1.3735820170998572,-2.6511867089569567,-1.0326976188629866
1746552704980988700,10.27298876953125,-1.526729090285301,-2.6323323708832262,-1.0299451052844524
1746552704990986500,10.282986572265624,-1.5558710136175156,-2.651157482862472,-1.0014660297751425
1746552705000984600,10.292984619140626,-1.4141104268431663,-2.5341467219412324,-1.124626545497775
1746552705010982700,10.302982666015625,-1.146165592610836,-2.1057973907411096,-1.5601421150654553
1746552705020981800,10.312981689453125,-0.9194717102427035,-1.346564246314764,-2.213051896801591
1746552705030979600,10.3229794921875,-0.7930559190511703,-0.4287766167014837,-2.7885113591104744
1746552705040977700,10.332977783203125,-0.8193382151685654,0.36329730557501316,-3.261128871104121
1746552705050975700,10.342975830078124,-1.0244519146956503,0.8789093251645564,-3.5955396894127127
1746552705060974600,10.352974609375,-1.3338333595573901,1.1340051992177962,-3.7287311852842566
1746552705070972700,10.36297265625,-1.614981374233961,1.0493576617628335,-3.5333214259088037
1746552705080970800,10.372970703125,-1.7930887011528014,0.7096019752949476,-3.3490479775756596
1746552705090968600,10.382968505859376,-1.760127511793375,0.4849076692461967,-3.43299116615355
1746552705100967700,10.3929677734375,-1.475150878739357,0.6899275530099869,-4.057809410393237
1746552705110965800,10.4029658203125,-0.9846668706655501,1.397711665228009,-5.03116987414658
1746552705120963800,10.4129638671875,-0.5815888319093734,2.2915742293745276,-5.841231288534402
1746552705130961700,10.422961669921875,-0.482856070478633,2.988865589150786,-6.228353706333041
1746552705140960800,10.432960693359375,-0.5966308451533318,3.278658098053932,-6.150917415431142
1746552705150958800,10.442958740234374,-0.8738051338933408,3.051668374544382,-5.656527632090449
1746552705160956700,10.452956787109375,-1.0275159053761511,2.41384948669523,-4.944508658781648
1746552705170954800,10.462954833984375,-1.056601495411247,1.7187050758197902,-4.396654411756992
1746552705180953900,10.472953857421874,-0.9086124625761062,1.2856979819416998,-4.178637099254131
1746552705190951700,10.48295166015625,-0.5852735848367214,1.1600044406101107,-4.158548250949383
1746552705200949800,10.49294970703125,-0.2284311544895172,1.1958712882831692,-4.1643490461826325
1746552705210947800,10.50294775390625,0.06393376218490303,1.2597791123092175,-4.015710390332341
1746552705220946700,10.51294677734375,0.265003373952955,1.3895494015604257,-3.5900592121750114
1746552705230944500,10.522944580078125,0.37084750175885856,1.6493620750024913,-2.961529253935814
1746552705240942600,10.532942626953124,0.44724224771857257,1.9515575538828969,-2.274147293755412
1746552705250940700,10.542940673828125,0.4528467166621238,2.248336852933466,-1.5025146864831447
1746552705260939500,10.552939453125,0.47328262483887373,2.4748352857947347,-0.7321791332840919
1746552705270937600,10.5629375,0.5029810130100697,2.68572990681082,-0.07377016960978508
1746552705280935700,10.572935791015626,0.5545125358700752,2.847129552295804,0.4538830009073019
1746552705290933500,10.58293359375,0.6732125650525093,2.912093022854626,0.9986445426136255
1746552705300932600,10.5929326171875,0.8104957141518593,2.8354005360573526,1.562833838367462
1746552705310930700,10.6029306640625,0.9462848253011703,2.644509130889177,2.159010510012507
1746552705320928800,10.6129287109375,1.0867045188605784,2.4347629492558536,2.6776176197648045
1746552705330926600,10.622926513671874,1.2303823374330998,2.2429535524599253,3.0282424907714125
1746552705340925700,10.63292578125,1.3697148202776908,2.0798848047189415,3.2577035728305574
1746552705350923800,10.642923828125,1.5035171415239572,1.9983179898835717,3.4029040709257123
1746552705360921600,10.652921630859375,1.6151695902824401,1.9889502959489822,3.481546230486035
1746552705370919700,10.662919677734376,1.7157605468004942,2.076932969176024,3.4575153665572405
1746552705380918800,10.672918701171875,1.8050854284167288,2.2693381399080157,3.3664731596291064
1746552705390916600,10.68291650390625,1.8448253181308507,2.5465511532232163,3.2512603880405426
1746552705400914700,10.692914794921874,1.831152182087302,2.8357465730160474,3.192361039826274
1746552705410912800,10.702912841796875,1.7633827141970395,3.03828106970489,3.146020728933811
1746552705420911900,10.712911865234375,1.6518927625238895,3.1525305492192506,3.1512294034928083
1746552705430909700,10.72290966796875,1.5265087255328893,3.1711808891534803,3.2057933528512716
1746552705440907800,10.73290771484375,1.38898183080554,3.0681466311365364,3.2618688758164645
1746552705450905900,10.74290576171875,1.2689601976305245,2.9218776270270346,3.2735248268187043
1746552705460904700,10.75290478515625,1.1515373487770557,2.8454297626405953,3.2967256696641445
1746552705470902800,10.76290283203125,1.038317796832323,2.786319109763205,3.242279793727398
1746552705480900900,10.77290087890625,0.9468792840629815,2.7379101759031412,3.173706608238816
1746552705490898700,10.782898681640624,0.871019448697567,2.7138512549236413,3.2104426399618387
1746552705500897500,10.7928974609375,0.7726280480504035,2.7244910146206616,3.2980648093134164
1746552705510895600,10.8028955078125,0.6297814196050167,2.781175317133963,3.443786116412282
1746552705520893700,10.812893798828124,0.5067290404319763,2.876713958698511,3.621899288550019
1746552705530891800,10.822891845703126,0.35281390548348424,3.0077421390563246,3.8464714295238256
1746552705540890600,10.832890625,0.19895957907782866,3.1479318232521414,4.120083787998557
1746552705550888700,10.842888671875,0.02832125459909439,3.1130019641682503,4.445369050565362
1746552705560886500,10.852886474609376,-0.12850361204994842,2.987601560564339,4.800061609402299
1746552705570884600,10.862884521484375,-0.2173334218919277,2.872278314338624,5.098804317480325
1746552705580883700,10.8728837890625,-0.2318248885810375,2.8392352919146417,5.246953143987059
1746552705590881500,10.882881591796876,-0.15321253963708878,2.903802748893201,5.182567473316192
1746552705600879600,10.892879638671875,0.0007645363654009997,3.1697371200859545,4.853852820822596
1746552705610877700,10.902877685546875,0.2104816380347125,3.6892531613767146,4.233964434200525
1746552705620876800,10.912876708984374,0.43821255356669425,4.444129279637337,3.4300440067857503
1746552705630874600,10.92287451171875,0.5954571251988411,5.25204316060245,2.5729601444602013
1746552705640872700,10.932872802734375,0.6149193660378456,6.0069964357525105,1.8356430637657641
1746552705650870800,10.942870849609376,0.3764695063591003,6.5306479694128035,1.3917577252596616
1746552705660869600,10.95286962890625,0.07842413289546966,6.709625064903498,1.0450853912711142
1746552705670867700,10.96286767578125,-0.1995055042564869,6.708533762535453,0.543210805132985
1746552705680866600,10.972866455078124,-0.32115853802561756,6.832687965470552,-0.32280688975453375
1746552705690864600,10.98286474609375,-0.30183650937490164,7.101826393401622,-1.4814023403495549
1746552705700863500,10.992863525390625,-0.2961339138191193,7.207306875526904,-2.566321144837141
1746552705710861600,11.002861572265624,-0.43511466061659154,6.7434513466596595,-3.337127822679281
1746552705720859600,11.012859619140626,-0.7645500286001712,5.761258172631264,-3.7462732717156406
1746552705730857700,11.022857666015625,-1.2527999209463596,4.513532778470218,-3.924483474487066
1746552705740856300,11.032856201171874,-1.8233564136445521,3.205879277569055,-4.1070869437813755
1746552705750854400,11.0428544921875,-2.2977577403150495,2.0058394714295864,-4.400339237749576
1746552705760852500,11.0528525390625,-2.5152780630812046,1.0522034065827726,-4.781211362981796
1746552705770850300,11.062850341796874,-2.5734008739650247,0.40580139930546283,-5.208972080639004
1746552705780849400,11.072849365234376,-2.4972528693079945,0.0345402752444148,-5.559384770199657
1746552705790847500,11.082847412109375,-2.2777380117237565,-0.11718787105381488,-5.681751505196094
1746552705800845300,11.09284521484375,-1.94805480645895,-0.1542524040788412,-5.54747747478485
1746552705810843400,11.102843505859376,-1.5238602568507194,-0.14003800076544284,-5.250312391287088
1746552705820842500,11.112842529296875,-1.1338169831693172,-0.1622434028327465,-4.84686953780651
1746552705830840600,11.122840576171875,-0.8221569989163428,-0.3067272770911455,-4.498971461415291
1746552705840838400,11.13283837890625,-0.5929333058096468,-0.6069061554521322,-4.128424330842495
1746552705850836500,11.14283642578125,-0.3690823187172413,-1.021510454416275,-3.7516935431987046
1746552705860835600,11.152835693359375,-0.2012871269762516,-1.527563203021884,-3.4355747529059646
1746552705870833400,11.16283349609375,-0.09562785421796142,-2.1106097594588995,-3.190100109156966
1746552705880831500,11.17283154296875,-0.019326631760597228,-2.5418583192318676,-2.9987065996855495
1746552705890829600,11.18282958984375,0.005210428124666214,-2.8634973342508077,-2.895408722296357
1746552705900828700,11.19282861328125,-0.04203070406503975,-3.1406057181477545,-2.7828976108819243
1746552705910826500,11.202826416015625,-0.11447861209511756,-3.3827649537384508,-2.5757868923187255
1746552705920824600,11.212824462890625,-0.13572715182900427,-3.5879023264020677,-2.2813731533557173
1746552705930822700,11.22282275390625,-0.21559052374735474,-3.772057116791606,-1.8850258110940454
1746552705940821500,11.232821533203126,-0.33949615874886513,-3.9151691181749104,-1.44233991150558
1746552705950819600,11.242819580078125,-0.4538146849114448,-4.079223954343796,-1.0330682057410479
1746552705960817700,11.252817626953124,-0.5833702354334295,-4.19048126630485,-0.5938409221738576
1746552705970815500,11.2628154296875,-0.736793422146514,-4.259313979512453,-0.2303355268061161
1746552705980814300,11.272814453125,-0.8939515576042234,-4.3676475129812955,-0.0009469254612922668
1746552705990812400,11.2828125,-1.0606582234561444,-4.454754134026169,0.10235913523435593
1746552706000810500,11.292810546875,-1.1880253970883785,-4.486387289652228,0.08526654613614082
1746552706010808600,11.30280859375,-1.2954782021999358,-4.472065918833017,-0.10662146885395049
1746552706020806700,11.312806640625,-1.4179532198764382,-4.404318662774562,-0.4727700722068548
1746552706030805500,11.322805419921876,-1.5377311074234545,-4.284080756500363,-0.8586632404714822
1746552706040803300,11.33280322265625,-1.6528196681104599,-4.121653813794255,-1.2566659487247467
1746552706050801400,11.342801513671875,-1.8123511816360056,-3.9508705461531877,-1.5792062964975833
1746552706060799500,11.352799560546876,-1.981808461370319,-3.8634126274526115,-1.7729069138675928
1746552706070798300,11.36279833984375,-2.1415056868515907,-3.846849030664563,-1.8946704222738742
1746552706080796400,11.37279638671875,-2.2566296111129223,-3.9031279672473667,-1.996127055710554
1746552706090794500,11.38279443359375,-2.3431017336465416,-3.9791362711727616,-2.1274200244843957
1746552706100792300,11.392792236328125,-2.4432583904005587,-4.04648488330245,-2.2758622809797524
1746552706110791400,11.40279150390625,-2.5213018534153697,-4.099143875822425,-2.387815758511424
1746552706120789500,11.41278955078125,-2.555055069935322,-4.135358514019846,-2.4927438674509523
1746552706130787600,11.42278759765625,-2.591848384803533,-4.081849042150378,-2.640218155696988
1746552706140785400,11.432785400390625,-2.607041277760267,-3.929205826833844,-2.835918422451615
1746552706150784500,11.442784423828124,-2.5989316210627553,-3.7009435991704462,-3.0951269925206897
1746552706160782600,11.452782470703125,-2.5093863746941087,-3.336640915945172,-3.4884733994007107
1746552706170780400,11.462780517578125,-2.388714168655872,-2.683702492636442,-4.157037261864542
1746552706180778500,11.472778564453124,-2.256998006033897,-1.810148557025194,-4.938614924567937
1746552706190777600,11.482777587890626,-2.1826585121035573,-0.967052303519845,-5.674606309616565
1746552706200775400,11.492775390625,-2.1905575947903095,-0.34671968026161193,-6.2199704933911555
1746552706210773500,11.5027734375,-2.1803506735526024,0.0037970541954040525,-6.528961039239168
1746552706220771600,11.512771484375,-2.139635362935066,0.22121815437078474,-6.675594785007834
1746552706230770700,11.522770751953125,-2.0187690956294535,0.4417477419555187,-6.724367291483283
1746552706240768500,11.5327685546875,-1.7605846079111098,0.7800240035206079,-6.914644948667288
1746552706250766600,11.5427666015625,-1.5256816270589828,1.2089888362705707,-7.05996176661849
1746552706260764700,11.5527646484375,-1.2634955024838448,1.6181138270407913,-6.999203638795017
1746552706270763500,11.562763427734374,-1.0396164583407341,1.9808628510832786,-6.812144943657517
1746552706280761600,11.57276171875,-0.9139994163114576,2.2623943121194836,-6.504698704642057
1746552706290759700,11.582759765625,-0.7877811935186385,2.4820249050378798,-6.164886319550871
1746552706300757500,11.592757568359374,-0.6442296316742897,2.686515211969614,-5.895702298912406
1746552706310756400,11.60275634765625,-0.5660732098042964,2.8059616756051775,-5.648966841447353
1746552706320754400,11.61275439453125,-0.5819885718166827,2.750049818769097,-5.206562681409716
1746552706330752500,11.62275244140625,-0.638050066256523,2.5727321809232233,-4.612241282242536
1746552706340750300,11.632750244140626,-0.7203391309518367,2.322010284170508,-3.998992479765415
1746552706350749400,11.64274951171875,-0.7930887984074652,2.168408452954888,-3.4577556050539013
1746552706360747500,11.65274755859375,-0.8182218514245003,2.021754833441973,-2.9842396829158067
1746552706370745300,11.662745361328126,-0.7579132939994335,1.8940481987223028,-2.5300790341109036
1746552706380743400,11.672743408203125,-0.6202817698538303,1.807496288950741,-2.1342320425868033
1746552706390741500,11.682741455078125,-0.3822913078477606,1.7635452112823724,-1.7619851223587988
1746552706400740400,11.692740234375,-0.07939093210101127,1.7671482042104005,-1.329236094895005
1746552706410738400,11.702738525390625,0.33559973583221436,1.849429304794967,-0.8375660919070244
1746552706420736500,11.712736572265625,0.8319313008904456,2.017956610202789,-0.32038930721879005
1746552706430734300,11.722734375,1.3838579119205474,2.27696702735126,0.23377310003936289
1746552706440733400,11.7327333984375,1.932899907425046,2.610221369101107,0.8764104940861464
1746552706450731500,11.7427314453125,2.4200328515052796,2.926932572329044,1.6167746873915194
1746552706460729600,11.7527294921875,2.8246973557353017,3.1515847928017378,2.3891747719049454
1746552706470727400,11.7627275390625,3.176501207393408,3.364411550924182,3.1621529485672712
1746552706480726500,11.7727265625,3.410187213671207,3.5374756229788065,3.8384921212077137
1746552706490724600,11.782724609375,3.58019657433033,3.707123456849158,4.414918967244029
1746552706500722400,11.792722412109375,3.7569396271586415,3.931439577235281,4.912777303478121
1746552706510720500,11.802720458984375,3.9405888061136003,4.283752839720249,5.169334482255578
1746552706520719600,11.8127197265625,3.955225818753242,4.696213696914911,5.228943440043926
1746552706530717700,11.8227177734375,3.797892984315753,4.893362116651237,5.208437827631831
1746552706540715500,11.832715576171875,3.593142565143108,4.885879944202304,5.146333545896411
1746552706550713600,11.842713623046874,3.3669816936731336,4.8210064900144936,4.91854361191988
1746552706560712400,11.85271240234375,3.1378865223169323,4.785928162370622,4.463119811311364
1746552706570710500,11.86271044921875,2.9732921724438666,4.744723753061891,3.843842834585905
1746552706580708600,11.87270849609375,2.855277787438035,4.619054177127778,3.234576964265108
1746552706590706700,11.882706787109376,2.7662954356491563,4.467545518799126,2.623007493177056
1746552706600705300,11.892705322265625,2.6949440176188943,4.3818502258569,2.1273481282919646
1746552706610703400,11.902703369140625,2.6224960365235805,4.393763074229657,1.6423878520756958
1746552706620701400,11.912701416015626,2.5231845984220502,4.475719180643559,1.3152999240010976
1746552706630699500,11.922699462890625,2.380430324435234,4.573601462724804,1.2050585110843182
1746552706640697600,11.932697509765624,2.217054118180275,4.545812123045325,1.3920114077597856
1746552706650696400,11.942696533203126,2.064423762345314,4.427930132247507,1.7987392742604016
1746552706660694500,11.952694580078125,1.9564485407948493,4.182386222654581,2.3113474358588455
1746552706670692400,11.9626923828125,1.9075509466350078,3.863222073316574,2.7509271861255167
1746552706680690400,11.9726904296875,1.9702993714928625,3.5523370920240875,2.951113073861599
1746552706690689000,11.98268896484375,2.1328408804893493,3.2725451681315896,2.8994904386520384
1746552706700687000,11.99268701171875,2.3235165970802307,3.062147975243628,2.633017430537939
1746552706710685200,12.002685302734376,2.4850316856384276,2.9091192677408455,2.2152514526724816
1746552706720683000,12.01268310546875,2.58577520236969,2.8265573043882846,1.6899796243339775
1746552706730682000,12.02268212890625,2.7148306213498112,2.8920810391783713,0.9724176299452781
1746552706740680200,12.03268017578125,2.834792048770189,3.384518227146566,-0.1752273875683546
1746552706750678300,12.04267822265625,2.8526901090323924,4.408553523865342,-1.5993904218703507
1746552706760676000,12.052676025390625,2.7451965335190294,5.654561300453543,-3.1144699908941984
1746552706770674200,12.062674072265626,2.2695395076990126,6.83410835366249,-4.366044169437885
1746552706780673300,12.07267333984375,1.473938288079202,7.450211961048841,-4.757832240960002
1746552706790671000,12.082671142578125,0.4703856612883508,7.10888040356636,-4.403756352716684
1746552706800669200,12.092669189453124,-0.6137001995064317,6.168258426332473,-3.6759991275280712
1746552706810667300,12.102667236328125,-1.7496283296108244,4.925278473132848,-2.9980653791725635
1746552706820666400,12.112666259765625,-2.6646877033039926,3.663867667968571,-2.5111124678343533
1746552706830664200,12.122664306640624,-3.286006707251072,2.466468439465761,-2.151627414023876
1746552706840662300,12.132662353515625,-3.7119384559154507,1.3073980648353696,-1.860244421058893
1746552706850660000,12.14266015625,-4.009591030669212,0.35246406913250683,-1.6042524749487637
1746552706860659200,12.1526591796875,-4.243936085377634,-0.36845395768582817,-1.4726532167047262
1746552706870657300,12.1626572265625,-4.435669202066958,-0.808310186806321,-1.5863976693063973
1746552706880655400,12.1726552734375,-4.581575218082964,-1.0027321041882038,-1.85150348072052
1746552706890653200,12.182653076171874,-4.666593634676933,-1.0779928046166896,-2.0374492461800573
1746552706900652300,12.19265234375,-4.590546167784929,-1.096428040495515,-2.2938187934309244
1746552706910650400,12.202650390625,-4.346901077550649,-0.9652402856618165,-2.6239263615876434
1746552706920648200,12.212648193359374,-3.9461633913755416,-0.7844622782289982,-2.9305262129068375
1746552706930646300,12.222646240234376,-3.560430674369633,-0.6642600277900695,-3.1554455598831175
1746552706940644400,12.232644287109375,-3.1487574604213235,-0.6334615694224834,-3.2474323541849848
1746552706950643200,12.242643310546875,-2.7454186518371104,-0.701350279778242,-3.149541888797283
1746552706960641000,12.25264111328125,-2.360118188768625,-0.7705319525539874,-2.7595518066078424
1746552706970639000,12.26263916015625,-2.0018892724990844,-0.9129144706189631,-2.1679805829316376
1746552706980637200,12.27263720703125,-1.66589308469519,-1.0626426752716303,-1.505639540505409
1746552706990636000,12.282635986328126,-1.314200438326597,-1.1339783112108708,-0.7992308082938194
1746552707000634000,12.292634033203125,-0.9993394660752266,-1.0703671320438384,-0.10554127240180969
1746552707010632200,12.302632080078125,-0.7116810465913266,-0.9916285263717174,0.5700929668396711
1746552707020630000,12.312630126953126,-0.4616378528177738,-0.8734580740213393,1.2303653862982988
1746552707030629000,12.322629150390625,-0.2455143181722611,-0.6904390096634626,1.8857856895506382
1746552707040627200,12.332627197265625,-0.08410919279456137,-0.49352819807529447,2.5727801117181777
1746552707050625000,12.342625,0.035232604890130456,-0.3104065501257777,3.1513281876921653
1746552707060623000,12.352623046875,0.17312486233115196,-0.16536007354855536,3.5764293307512998
1746552707070621200,12.36262109375,0.27295652491450306,-0.035414427730441095,3.860295956736803
1746552707080620300,12.372620361328124,0.3321685923397541,0.04313976128548384,3.985855350294709
1746552707090618000,12.3826181640625,0.3140541859131306,0.08820844480693339,3.8897541064113375
1746552707100616200,12.3926162109375,0.26498832251429555,0.13222674249261618,3.681834994074702
1746552707110614300,12.4026142578125,0.15522439091615378,0.05581073454916477,3.452974215996265
1746552707120613000,12.412613037109375,0.011258951041288674,-0.1586655443459749,3.0984733803391453
1746552707130611200,12.422611083984375,-0.12014379824995994,-0.4207563918530941,2.681808057191968
1746552707140609300,12.432609375,-0.21543964403457938,-0.7459381940454244,2.2962433902293444
1746552707150607000,12.442607177734375,-0.26557291746921835,-1.0800532442778348,1.9062965626597403
1746552707160605200,12.452605224609375,-0.26831308302283285,-1.3995616770088672,1.520412162223458
1746552707170604300,12.462604248046874,-0.2767816361606121,-1.6719038694173096,1.1242337467879056
1746552707180602400,12.472602294921876,-0.2528044751804322,-1.9360282685786485,0.7121364622086286
1746552707190600200,12.48260009765625,-0.1996446204662323,-2.145197088715434,0.3001718640983104
1746552707200598300,12.492598388671874,-0.17773082175664603,-2.3072627968937156,-0.10416238526403904
1746552707210597400,12.502597412109376,-0.18183774561882018,-2.534688573732972,-0.4569447265654802
1746552707220595200,12.51259521484375,-0.1862812444915995,-2.7383850999385118,-0.7997101162433624
1746552707230593300,12.52259326171875,-0.16394556710813193,-2.914599744978547,-1.15218207642138
1746552707240591400,12.53259130859375,-0.06355038889050484,-2.9547400321871042,-1.5952958460330962
1746552707250589200,12.542589111328125,0.07670099889729172,-2.8603607897907493,-2.0833862369686362
1746552707260588300,12.55258837890625,0.21474282087683677,-2.6702584891736505,-2.5362480781346557
1746552707270586400,12.56258642578125,0.4001812213361263,-2.506016021478176,-2.8850270290136337
1746552707280584200,12.572584228515625,0.5667196910142899,-2.4189088159114123,-3.125634358987212
1746552707290582300,12.582582275390624,0.69393152795434,-2.2939766143411395,-3.266979350697994
1746552707300581000,12.5925810546875,0.7367033327102661,-2.179652900546789,-3.337650385248661
1746552707310579200,12.6025791015625,0.7215572015047073,-2.1625334234416482,-3.4006215129464863
1746552707320577000,12.612576904296875,0.6442144341051578,-2.175406349018216,-3.4757360829025505
1746552707330575000,12.6225751953125,0.5291571453392505,-2.17843884858191,-3.5425124481022356
1746552707340574200,12.63257421875,0.40476621103882787,-2.1659815180689095,-3.596007306924462
1746552707350572000,12.642572021484375,0.2549976743757725,-2.1543828502118587,-3.6562837887108324
1746552707360570000,12.652570068359376,0.11463526396155356,-2.1438626252412796,-3.6684763308078048
1746552707370568200,12.662568115234375,0.028873061529267576,-2.147576677328348,-3.728787883907556
1746552707380566000,12.67256591796875,-0.05812600748790428,-2.107604732424021,-3.790836636063456
1746552707390565000,12.682565185546874,-0.11958148819208145,-2.095377119013667,-3.828249544134736
1746552707400563200,12.692563232421875,-0.054299754597479474,-2.02685127979815,-3.978913568332791
1746552707410561000,12.70256103515625,0.18603342547668142,-1.6609604505985975,-4.49802102882266
1746552707420559000,12.71255908203125,0.38442835640907286,-0.9337199427604674,-5.047036720842122
1746552707430558200,12.72255810546875,0.41124505166411396,-0.2734007615506649,-5.385342208501696
1746552707440556300,12.732556396484375,0.29145430463552474,0.1475514451354742,-5.37317538536787
1746552707450554000,12.74255419921875,0.06925882053202949,0.17794716792106627,-4.923199328771234
1746552707460552200,12.75255224609375,-0.18814707489609717,-0.2494675127774477,-4.17039534060955
1746552707470550300,12.76255029296875,-0.4009329164862632,-0.9925450566947459,-3.2722266037017107
1746552707480549000,12.772549072265624,-0.46805707221031184,-1.812418255522847,-2.606621591043472
1746552707490547200,12.782547119140625,-0.31259412329792974,-2.4150796130120753,-2.199651732480526
1746552707500545300,12.792545166015625,0.010037994411587715,-2.7409365379869937,-1.990328598564863
1746552707510543000,12.802543212890624,0.4106079228043556,-2.6850124061912295,-1.9176731121987103
1746552707520542200,12.812542236328126,0.8362316284328699,-2.343333058184385,-1.859158963909745
1746552707530540300,12.822540283203125,1.195802606961131,-1.85922443036139,-1.8232155438691378
1746552707540538400,12.832538330078124,1.4872972436070442,-1.2493231847465038,-1.7934768236875533
1746552707550536200,12.8425361328125,1.7011211960732935,-0.5975520516514777,-1.6232295626193285
1746552707560534300,12.8525341796875,1.773381545642018,-0.03757423611283302,-1.2324591437071561
1746552707570533400,12.862533447265625,1.7127713018566368,0.3735509885638952,-0.7283417470782995
1746552707580531200,12.87253125,1.5667121411055325,0.6828045692622661,-0.16747721183300018
1746552707590529300,12.882529296875,1.435166658875346,0.8521563427954911,0.41228842323720455
1746552707600527400,12.89252734375,1.3385247322440146,0.8656669817537069,0.8810065897047519
1746552707610526200,12.902526123046876,1.2447153986901045,0.8068675867825746,1.1668722805529832
1746552707620524300,12.912524169921875,1.108734564360976,0.6814163297742605,1.2225631881147623
1746552707630522400,12.9225224609375,0.8569260414153337,0.5559487061530352,1.0891408060967922
1746552707640520200,12.932520263671876,0.6256003345280885,0.5561328305482864,0.7828764703422785
1746552707650518300,12.942518310546875,0.41754564964566376,0.716089583748579,0.43835400786399836
1746552707660517000,12.95251708984375,0.19883213503956793,0.9533978721767663,0.15608546472489834
1746552707670515200,12.96251513671875,0.03535246841013431,1.197043254671991,-0.041140404161810876
1746552707680513000,12.972512939453125,-0.11908172197639942,1.389492702937126,-0.17913374735713003
1746552707690511400,12.982511474609375,-0.2701636793255806,1.6254668201521039,-0.2958259438484907
1746552707700510500,12.992510498046874,-0.41755847259461876,1.8648489922448992,-0.3101823859810829
1746552707710508300,13.00250830078125,-0.5726718774169683,1.9085235910594462,-0.27090952925682066
1746552707720506400,13.01250634765625,-0.6756307321101427,1.805902005496621,-0.16228899554014206
1746552707730504400,13.02250439453125,-0.7136363453775644,1.5875465470805763,0.01814180589020252
1746552707740502300,13.032502197265625,-0.6362193436980247,1.2846955269008875,0.23586101222932337
1746552707750501400,13.04250146484375,-0.4714829550057649,0.9879410700306296,0.4110743712723255
1746552707760499500,13.05249951171875,-0.18983457132531328,0.7762646509870886,0.5620043529301881
1746552707770497500,13.06249755859375,0.12214814207600429,0.6744020670980214,0.6941331880062818
1746552707780495400,13.072495361328125,0.4131038312733173,0.622829993031919,0.9605658641099929
1746552707790493400,13.082493408203124,0.6457692623317242,0.5906438796982169,1.3209721244186161
1746552707800492500,13.092492431640625,0.8168757705777883,0.5682961465507745,1.6778016952842474
1746552707810490400,13.102490478515625,0.94363694114089,0.6036673196613789,1.9708961683422326
1746552707820488400,13.112488525390624,1.0205986002683638,0.676610975319147,2.1952327469944954
1746552707830486500,13.122486572265625,1.0910065999686718,0.7092880870401859,2.4234885449171064
1746552707840485400,13.1324853515625,1.1436562401384114,0.6221817582562565,2.5886235775381325
1746552707850483500,13.1424833984375,1.2093997551590203,0.5000473707109689,2.659017548713088
1746552707860481500,13.1524814453125,1.3101502861529588,0.4086892297014594,2.559174195691943
1746552707870479400,13.162479248046875,1.4211603453546762,0.4144143293499946,2.3110282869070766
1746552707880477400,13.1724775390625,1.5292548093706368,0.5668190597355366,1.933266987171769
1746552707890476500,13.1824765625,1.6169225714296103,0.8384656710952519,1.5166536864727735
1746552707900474600,13.192474609375,1.5963427247375248,1.1336021713748574,1.1900327913880349
1746552707910472400,13.202472412109374,1.494886091300845,1.4938257685929537,0.9991986693650483
1746552707920470500,13.212470458984376,1.307479021117091,1.8786568605840206,0.9647633157998323
1746552707930469600,13.2224697265625,1.0437158564835787,2.249383731637895,1.0016565839111804
1746552707940467500,13.232467529296875,0.7256359952509402,2.53828250657171,1.1227677658885717
1746552707950465500,13.242465576171876,0.42383389960229395,2.650246505497396,1.3171043430745601
1746552707960463600,13.252463623046875,0.18899346259236335,2.556687931834161,1.6108125641167164
1746552707970461400,13.26246142578125,0.1062900449424982,2.4637366764143107,1.6438959185510873
1746552707980460300,13.272460205078126,0.34935528946220873,2.9934920799076554,0.8216238418877124
1746552707990458400,13.282458251953125,0.7704407671391964,4.193917962755263,-0.5157341846644878
1746552708000456400,13.29245654296875,1.043546929657459,5.454553691893816,-1.6848299864858387
1746552708010454500,13.30245458984375,1.0735726500868796,6.430460917520523,-2.3507237529575824
1746552708020452600,13.31245263671875,0.885762259799242,6.684552582967281,-2.2401614375233647
1746552708030451500,13.322451416015625,0.40716863253805785,6.145868315348029,-1.351651924842596
1746552708040449300,13.33244921875,-0.24675007051229475,5.0178316691458225,-0.12242752527296542
1746552708050447400,13.342447265625,-0.845578717970848,3.5932258595123887,0.8357558276146649
1746552708060445400,13.352445556640625,-1.3433236569583415,2.2108532177135345,1.4453613051533698
1746552708070444300,13.3624443359375,-1.680249088436365,0.9256167158037424,1.723437072777748
1746552708080442400,13.3724423828125,-1.9163842414319514,-0.19250731593221426,1.540166664007306
1746552708090440400,13.3824404296875,-2.0004934342265126,-1.0525284007534383,1.0823042380750179
1746552708100438300,13.392438232421876,-1.9213409870564937,-1.6821967153728008,0.44792438476383684
1746552708110436400,13.402436279296875,-1.6083540650486945,-2.0879981146782636,-0.23099486749768255
1746552708120435500,13.412435546875,-1.109525422477722,-2.2387644302070138,-0.8481190501034259
1746552708130433500,13.42243359375,-0.5311176317572593,-2.067045927542448,-1.4263742806106805
1746552708140431400,13.432431396484375,0.13705869269371032,-1.6749615034222602,-1.8692980806082486
1746552708150429400,13.442429443359375,0.7931079414993524,-1.1511755297273396,-2.1156915927678344
1746552708160428500,13.452428466796874,1.3827560881584882,-0.5220569579452276,-2.160018810272217
1746552708170426400,13.46242626953125,1.7748744145482778,0.025410920110344886,-1.9516461089491843
1746552708180424400,13.472424560546875,2.000810245090723,0.3542009759277105,-1.4561802208095789
1746552708190422500,13.482422607421874,2.0118150387078524,0.43191199211776254,-0.7772890255987643
1746552708200420400,13.49242041015625,1.8243565305978058,0.2861667196214199,0.0037216508716344833
1746552708210419500,13.50241943359375,1.5221978765964508,-0.006983283016085624,0.7459574832677841
1746552708220417500,13.51241748046875,1.235178339537978,-0.370628963637352,1.2702911539733408
1746552708230415400,13.522415283203125,1.0056044447541237,-0.7069505840033292,1.4999977352261542
1746552708240413400,13.532413330078125,0.7685071687281131,-0.9143927264779805,1.3819172992467879
1746552708250411500,13.54241162109375,0.5704278978824615,-0.955707318162918,1.0721306345850228
1746552708260410600,13.55241064453125,0.4184989683151245,-0.9294774828851222,0.6774941878944635
1746552708270408400,13.562408447265625,0.28695816226005555,-0.9214835615217685,0.34409634602069855
