time,seconds_elapsed,z,y,x
1745781929310650600,0.024650634765625,0.341655967131257,-0.36696781078130003,-0.3736366210207343
1745781929320623600,0.03462353515625,-0.041920156362652776,-0.4604617947757244,-0.7482686828196048
1745781929330596400,0.044596435546875,-0.6686614776194095,-0.6204378371983766,-0.6945831237308681
1745781929340569600,0.054569580078125,-1.294644089463353,-0.6260907483935356,-0.422694410710968
1745781929350543600,0.064543701171875,-1.7589292419195175,-0.5749529740914702,-0.15900544382482767
1745781929360516600,0.0745166015625,-1.9838976887345312,-0.5245286087557673,0.023173406849242746
1745781929370489600,0.084489501953125,-1.9425170460760592,-0.4139953732855618,0.017349011544696986
1745781929380462300,0.09446240234375,-1.6601614091753958,-0.20368556642010807,-0.02146817383393645
1745781929390435600,0.104435546875,-1.163292083978653,0.08042071354016661,-0.09091251613385974
1745781929400409300,0.114409423828125,-0.6560907498598099,0.3518219718366861,-0.2874072942670435
1745781929410382600,0.124382568359375,-0.2886240496456623,0.5763162252686918,-0.30184969765003766
1745781929420355600,0.13435546875,-0.001692190870642662,0.7265539868786931,-0.23589929841309784
1745781929430328600,0.14432861328125,0.3433399746954441,0.8975259089596569,-0.1524214623246342
1745781929440302600,0.154302490234375,0.7737970918297767,1.0490377821587025,0.010934650990366935
1745781929450275300,0.164275390625,1.2468226001024245,1.2151996736094355,0.12122377550639211
1745781929460248600,0.17424853515625,1.7437866178452968,1.4196103394336999,0.12827661662735043
1745781929470221600,0.1842216796875,2.2921809630960226,1.5846400119841098,0.11935520515553652
1745781929480195600,0.194195556640625,2.8047797723442316,1.8235611424364149,0.02868007797412574
1745781929490168600,0.20416845703125,3.2864696485877034,2.066111130910367,-0.15254669613949953
1745781929500141600,0.2141416015625,3.756269765073061,2.2683251634731887,-0.31110081600025297
1745781929510114300,0.2241142578125,4.327598995709419,2.4302137615188957,-0.41449280141368505
1745781929520088300,0.23408837890625,5.038409177750348,2.58447844055742,-0.4903254565112293
1745781929530061600,0.2440615234375,5.835592990386486,2.7831059929355977,-0.5630418792843819
1745781929540034600,0.25403466796875,6.895264540892839,2.799582203701138,-0.4068086766518652
1745781929550007600,0.264007568359375,7.679923802998662,3.0930370345041154,-1.136139288637042
1745781929559981600,0.273981689453125,7.9595684273749585,3.3896903690874574,-1.6449290609911082
1745781929569954600,0.28395458984375,8.285153549671172,3.7014725914806124,-1.448626736690104
1745781929579927600,0.293927490234375,8.354700548627973,3.9613168291047214,-1.4600436182394623
1745781929589900500,0.303900634765625,8.266783780243992,4.056514402146637,-2.5261717975392934
1745781929599873500,0.31387353515625,8.466162443250417,3.881090030701458,-3.2549642109945416
1745781929609847600,0.32384765625,8.677626096326112,3.939929465422034,-3.0471126109361646
1745781929619820500,0.333820556640625,9.026100511300564,4.308028033798933,-2.2520389223217965
1745781929629793300,0.343793212890625,9.300098654222488,4.416131557904183,-1.6448896057635545
1745781929639766500,0.3537666015625,9.148724435928463,4.305875239679217,-1.0160574497073889
1745781929649740500,0.363740478515625,8.40757698329091,4.396493083715439,-0.3742828099697828
1745781929659713500,0.373713623046875,7.015650915727019,4.41536437292397,-0.08934533988237381
1745781929669686500,0.3836865234375,5.1497559215605255,4.213675094887614,-0.2531394792884588
1745781929679659500,0.393659423828125,3.3641830028653144,3.7252363289058206,-0.44822015284001826
1745781929689633500,0.403633544921875,2.2884803550124166,3.4654148876354096,-0.5501479109197854
1745781929699606500,0.4136064453125,1.8786025000482796,3.356592693866789,-0.3484025187820196
1745781929709580000,0.423580078125,1.8495605299592017,3.3493092588603495,0.4044026384234428
1745781929719553000,0.433552978515625,1.783313157069683,3.40818639524281,1.7794114734560251
1745781929729527000,0.443527099609375,0.9289338775277137,3.7543370434448122,3.4350451760739085
1745781929739499800,0.453499755859375,-0.5253881481945515,3.7854780316397547,4.7764831654161215
1745781929749472800,0.46347265625,-2.343885431370139,2.929678948427737,5.429688715228438
1745781929759446000,0.473446044921875,-4.112358454443514,2.2412463101506233,6.140134740132093
1745781929769420000,0.483419921875,-5.421428836405277,2.340364271506667,6.892634776911139
1745781929779393000,0.49339306640625,-6.3000955849856135,2.188428035415709,7.567364760789275
1745781929789366000,0.503365966796875,-6.9720222018808125,1.5197539905756712,7.782635989454388
1745781929799338800,0.5133388671875,-7.563853537797927,0.862884365297854,7.83981392070353
1745781929809311700,0.523311767578125,-8.07562349500656,0.5002832252934575,8.080812880343199
1745781929819285800,0.53328564453125,-8.817494585743546,0.35202480093240734,8.465463355070352
1745781929829259000,0.543259033203125,-9.974080450081825,0.22512042250633238,8.693193083292245
1745781929839232000,0.55323193359375,-11.140976696032284,-0.21129589529335496,8.530292093333601
1745781929849205000,0.563205078125,-12.051749478447437,-0.9107651836305856,7.717343140810728
1745781929859178800,0.5731787109375,-12.44455286449194,-1.45476041713953,6.595100275579094
1745781929869151700,0.58315185546875,-12.26496903527975,-1.542591260805726,5.379239215451479
1745781929879125000,0.593125,-11.678282076513767,-1.5822884804219006,4.124378270322084
1745781929889098000,0.603097900390625,-10.651408049237727,-1.8185194950073957,3.097981797429919
1745781929899072000,0.613072021484375,-9.271918853920697,-2.071995074382424,2.3044570918232203
1745781929909045000,0.623044921875,-7.840767860427499,-2.388798339807987,1.8230045314669607
1745781929919017700,0.633017822265625,-6.506628795921802,-2.762849679109454,1.6197662704229354
1745781929928990700,0.64299072265625,-5.281109096089005,-3.0974025362372397,1.5945920816779136
1745781929938964700,0.65296484375,-4.229290012648701,-3.3544495443582534,1.520153219026327
1745781929948938000,0.66293798828125,-3.332379459108412,-3.400461353948712,1.361999131333828
1745781929958911000,0.672910888671875,-2.6356521629557013,-3.264467075616121,1.1146271295309067
1745781929968884000,0.682884033203125,-2.1639967739924786,-3.049431993794441,0.8371884907662868
1745781929978858000,0.69285791015625,-1.9548419823810457,-2.7689690387725827,0.4673498007237911
1745781929988830700,0.702830810546875,-2.019484258161485,-2.6533728208243845,0.14902677838504313
1745781929998804000,0.712803955078125,-2.2561022262379526,-2.584165136824548,-0.0622013123691082
1745781930008777000,0.72277685546875,-2.466006082651019,-2.448252691556513,-0.2032160492122173
1745781930018751000,0.7327509765625,-2.4502660772055385,-2.345612401293218,-0.06018704993724823
1745781930028724000,0.742723876953125,-2.3269962558895347,-2.147543067319691,0.12650865710675716
1745781930038697000,0.752697021484375,-2.07753254250437,-1.7729516297921537,0.02094517287313938
1745781930048669700,0.762669677734375,-1.7467178489916027,-1.2034253569245337,-0.5641507173091173
1745781930058643000,0.772642822265625,-1.475581671372056,-0.5533604432255029,-1.2556821983844042
1745781930068617000,0.782616943359375,-1.4146988942556082,0.26121114206314083,-2.3043045316100117
1745781930078590000,0.79258984375,-1.327459148350358,0.8219394837081432,-3.665440324112773
1745781930088563000,0.80256298828125,-1.1824972813166676,0.2873164741784334,-3.9103082341402766
1745781930098536000,0.812535888671875,-0.5905300440602004,-0.4639847082048654,-2.7935645508468148
1745781930108510000,0.822510009765625,0.3794973297476768,-0.6782341926068067,-1.131446746906638
1745781930118483000,0.83248291015625,1.165816195628792,-0.6730220109164714,0.41984687579274177
1745781930128456000,0.8424560546875,1.465948750630021,-0.38966158088743685,1.8192910639017819
1745781930138429000,0.852428955078125,1.093214339146018,0.13645312801599502,3.5319378625959157
1745781930148403000,0.86240283203125,0.12104103935062885,0.6218985574007034,4.998709620046616
1745781930158376000,0.8723759765625,-1.1407412294745445,0.8259194932550191,5.913192947417497
1745781930168348700,0.8823486328125,-2.791327001053095,0.9247679900199174,6.544874063163995
1745781930178322000,0.892322021484375,-4.838831192779541,0.8451450027287006,7.364932555431127
1745781930188296000,0.9022958984375,-6.727272949796915,0.5199222840040922,8.333216446572541
1745781930198269000,0.91226904296875,-7.947436675554513,0.08976970277428627,9.448414653989673
1745781930208242000,0.922241943359375,-8.25188723988533,-0.048969490352272986,10.463117181956767
1745781930218215000,0.93221484375,-7.877904289644956,0.20481822371184824,11.495953332507609
1745781930228189000,0.94218896484375,-7.534812736752629,0.768826317679882,12.146687523770332
1745781930238162000,0.952161865234375,-7.513387671408057,1.099531267207861,12.066620884364843
1745781930248135000,0.962135009765625,-7.488867562657594,1.3697621665507553,11.329472145974636
1745781930258108000,0.97210791015625,-7.360946700665354,2.0402730714291333,10.098300703990459
1745781930268082000,0.98208203125,-7.039152787345647,2.8573072474390266,8.721211555552483
1745781930278055000,0.992054931640625,-6.576598404204845,3.7828278093919154,7.420556827497482
1745781930288028000,1.00202783203125,-6.122804835146665,4.77000403252989,6.21354718234539
1745781930298001000,1.0120009765625,-5.7873535678744314,5.61926377710104,5.165903338763117
1745781930307974000,1.021973876953125,-5.444926616370678,5.975892272436618,4.435294815796613
1745781930317948000,1.031947998046875,-4.560245722067356,6.179581784379482,3.856950153440237
1745781930327921000,1.0419208984375,-3.1923318137317893,6.495058769637346,3.462501338276267
1745781930337894000,1.051893798828125,-1.6758096446841955,6.854170313960314,3.0339141066670416
1745781930347867100,1.0618671875,-0.39294367129802704,7.0345485084205865,2.3641011209249494
1745781930357841000,1.0718408203125,0.5696890622138977,7.385756147751212,1.5995698700904846
1745781930367814000,1.08181396484375,0.8505027303695678,7.818207069051265,0.8284662551283836
1745781930377787000,1.091786865234375,1.24149702116549,7.990912829187512,0.1894745241075754
1745781930387759900,1.101759765625,1.9468693960666654,7.9787933523267505,-0.13714461741149425
1745781930397734000,1.11173388671875,3.1098908464103934,7.647187654566764,-0.5367310877248644
1745781930407707000,1.121706787109375,4.6512902670830485,7.223909635281562,-0.8030255244016646
1745781930417680000,1.131679931640625,6.510644461303949,6.907984906256199,-0.7591238388329744
1745781930427652900,1.14165283203125,7.956821174493432,6.317891353917122,-0.6899398279696702
1745781930437627000,1.151626953125,8.280699492871761,5.519897978463769,-0.7111541731730103
1745781930447599900,1.161599853515625,8.00303990483284,5.185903924262523,-0.6681821696698665
1745781930457572900,1.17157275390625,7.20347416549623,5.209369555523991,-0.54779900970608
1745781930467546000,1.181546142578125,6.244806828483939,5.230235817942023,-0.6016435587488115
1745781930477520000,1.191519775390625,5.625972919350862,4.960667181900144,-0.8111454102322458
1745781930487492900,1.201492919921875,5.82696953894794,4.691611756077409,-0.8819567300364375
1745781930497465900,1.2114658203125,6.186599554187059,4.452602801211178,-0.015060937140136956
1745781930507438800,1.22143896484375,6.547144930705428,3.9059181824877856,0.7783690759204328
1745781930517412900,1.231412841796875,6.9254925058960914,3.4368712224572895,0.929470468622446
1745781930527385900,1.2413857421875,6.864606952300667,3.409369175286591,0.8679625453449785
1745781930537359000,1.251359130859375,6.560207241374254,3.420126131622493,0.6240853999204933
1745781930547331800,1.261331787109375,6.128623166036605,3.013258856651187,0.8470002752065658
1745781930557304800,1.271304931640625,5.928019345149398,2.4172739081859587,1.2777047912307082
1745781930567278800,1.28127880859375,5.742040261942148,1.781854774954915,1.5167343504935502
1745781930577251800,1.291251953125,5.465821520361304,1.117767473383248,1.4220089250080286
1745781930587225000,1.30122509765625,4.759863454526663,0.9153063341915607,1.171044597801566
1745781930597198000,1.311197998046875,3.512144197845459,0.9645695467934012,0.8113470702841877
1745781930607172000,1.321172119140625,2.3237954140216113,0.8999600042387843,0.48697293121293184
1745781930617144800,1.331144775390625,1.7396376814723014,0.7831406742364168,0.33718159819617866
1745781930627117800,1.341117919921875,1.8677672177791593,0.6787558783933519,0.42226504285037514
1745781930637090800,1.3510908203125,2.2184645695000884,0.48754824688285586,0.4653453290335834
1745781930647064800,1.36106494140625,2.5418834536731243,0.184219672319293,0.4216207535974681
1745781930657038000,1.3710380859375,2.5450398718774316,0.037465515041351316,0.31964258050471545
1745781930667010800,1.3810107421875,2.194770390179753,-0.07709931403249502,0.25424510244280096
1745781930676983800,1.39098388671875,1.71675657210052,-0.1744841679856181,0.6046954936653375
1745781930686957800,1.400957763671875,0.1231172611027956,0.12148936764001846,2.0799257212512194
1745781930696930800,1.410930908203125,-0.059852118894457816,-1.0046081271931528,1.2041630235493181
1745781930706903800,1.42090380859375,0.5915893438547849,-0.7689820927634835,0.9657758538432418
1745781930716876800,1.430876708984375,-0.09467208786308765,-0.1419625390872359,1.3690202621422707
1745781930726849800,1.440849853515625,0.17815116606056688,-0.8958829640582203,0.45419542785733935
1745781930736823800,1.45082373046875,-0.02363923426270485,-0.557260081012547,1.4513367263011634
1745781930746796500,1.460796630859375,-0.015552373918890952,-0.814518978318572,1.7360628917254506
1745781930756769500,1.47076953125,0.14539105223119259,-0.8994014935731888,1.1304019140288233
1745781930766742800,1.48074267578125,0.2783656904816627,-0.412977574545145,0.33622152099236846
1745781930776716800,1.490716796875,-0.17384382425546646,-0.06809124719053507,-0.18198183026462791
1745781930786689800,1.500689697265625,-0.5878174241006374,-0.3521478427901864,-0.814705440801382
1745781930796662800,1.510662841796875,0.6033236207902432,-0.1774957708917558,-0.8608638192556798
1745781930806635500,1.520635498046875,-0.9759890586912632,-0.3874975347213447,-0.09501666351705788
1745781930816609500,1.530609619140625,-2.57104115909636,-0.6094201840996741,0.442204618877545
1745781930826582800,1.540582763671875,-2.7446336389392614,-0.4012896209694445,0.1029402961231768
1745781930836555800,1.5505556640625,-2.48019710508883,0.15187310772687196,-0.4943007168177515
1745781930846528800,1.56052880859375,-2.3479613025069237,0.6693471217960119,-0.9837605694755911
1745781930856502800,1.570502685546875,-2.414390461704135,0.9113786393538117,-0.8127337754022329
1745781930866475500,1.5804755859375,-2.2749726386636495,0.6382425200887024,-0.4865956953983754
1745781930876448500,1.590448486328125,-1.7393097646921871,0.20531097566485404,-0.08633315245434642
1745781930886421800,1.600421875,-0.8377017009854316,-0.0919828487791121,-0.24645788263268767
1745781930896395800,1.610395751953125,-0.2624766319543123,-0.02882642764225602,-0.5518280460264533
1745781930906368800,1.62036865234375,-0.11516776340305805,-0.014646218859404325,-0.6443464629869907
1745781930916341800,1.630341796875,-0.10505670375525951,-0.0913118176497519,-1.1723465472456067
1745781930926314500,1.640314453125,-0.07356383338272571,0.2022343446984887,-1.34842740983814
1745781930936287700,1.650287841796875,0.16401918033361435,0.37484409711435435,-1.7198073379732668
1745781930946261800,1.66026171875,-0.7365069333553314,0.3692161742299795,-2.006691850475222
1745781930956234800,1.67023486328125,-1.3956523946106434,0.4332119688004255,-0.8874316543161869
1745781930966207700,1.680207763671875,-1.187577799451351,0.3815339501418173,-0.3847528756557032
1745781930976180700,1.6901806640625,-0.30843232744336124,0.6841517460875213,-0.7899669400598853
1745781930986154800,1.70015478515625,0.5310813914000988,0.8387418576881289,-1.0163712648969143
1745781930996127500,1.71012744140625,1.1414672056615351,0.9623217678666114,-0.907628493040055
1745781931006100700,1.720100830078125,1.6116314792841673,1.0444713510259986,-0.7632350735440849
1745781931016073700,1.73007373046875,1.7419401131957768,1.0310624188765882,-0.6725581927970051
1745781931026047700,1.7400478515625,1.7989304129183292,1.0630044943213461,-0.5949725200196728
1745781931036020700,1.750020751953125,1.81886553196609,1.1183829749330878,-0.5101384104840457
1745781931045993700,1.75999365234375,1.8001883040249347,1.1821236256986856,-0.46497138115465636
1745781931055966700,1.769966796875,1.7527268801480531,1.196516892710328,-0.5784986473416909
1745781931065940700,1.779940673828125,1.7725211294203995,1.2203769301168619,-0.6239819395460188
1745781931075913700,1.789913818359375,1.8926690193235873,1.2854901844099162,-0.6399316422194242
1745781931085886700,1.79988671875,2.096984554210305,1.3322590959779916,-0.6820633224409073
1745781931095859700,1.809859619140625,2.33095872977972,1.3241789576359093,-0.5684369432609528
1745781931105833700,1.819833740234375,2.5164795478254556,1.2250912452876568,-0.6140099230427295
1745781931115806500,1.829806396484375,2.6137410676598547,1.1628251971192658,-0.7952128048241138
1745781931125779700,1.83977978515625,2.605100665086508,1.1119117330923676,-0.8805662985913455
1745781931135752700,1.849752685546875,2.533606623715162,0.9889670520775019,-0.7466954421535134
1745781931145726700,1.859726806640625,2.0432342593222854,0.8234834982797503,-0.46281223035939034
1745781931155699700,1.86969970703125,1.2040297525584698,0.4867318159334361,0.41342824092209335
1745781931165672700,1.879672607421875,1.5567998189002275,0.07702595653533935,0.46723355393297966
1745781931175645700,1.889645751953125,1.790235649809241,0.025481647258996962,0.12770035110935568
1745781931185618700,1.89961865234375,1.856794572865963,0.0025914777979254722,-0.11065057823956012
1745781931195592700,1.9095927734375,1.8804098417311905,-0.11425707829892634,0.22704759117662907
1745781931205565700,1.919565673828125,1.4553583830326795,-0.4580208313643932,0.8143265244863926
1745781931215538700,1.92953857421875,1.575122826576233,-0.4867234864965081,0.20084347486197948
1745781931225511700,1.93951171875,1.000993736088276,-0.32090719361305237,-0.10174392594546079
1745781931235485700,1.949485595703125,1.0244827482253311,-0.24863486134558915,-0.25010201128870246
1745781931245458700,1.959458740234375,1.4363596680521964,-0.12751578832268715,-0.0290483998298645
1745781931255431700,1.969431640625,2.2262357880234718,0.05164367799758911,-0.2316715977154672
1745781931265404700,1.97940478515625,2.8076199642062187,0.24464170005619523,-0.7153036940678954
1745781931275378700,1.989378662109375,3.023256519052386,0.30769436855763194,-0.8238497743088752
1745781931285351700,1.9993515625,3.0647675100922585,0.3936503582626581,-0.638354675226286
1745781931295325000,2.009324951171875,2.9913638357073067,0.511035797715187,-0.5702763605825603
1745781931305297700,2.019297607421875,2.5592957762449977,0.5294081974908709,-0.6967991923451423
1745781931315271700,2.029271728515625,1.6282354080826043,0.5128267727851867,-0.6437468165934086
1745781931325244700,2.03924462890625,0.5761088661283255,0.4939633746221661,-0.26810513936057684
1745781931335217700,2.0492177734375,-0.22260756290256975,0.3263914702430367,-0.05584770555868745
1745781931345190700,2.059190673828125,-0.5059533798843622,0.08435966042429208,0.11713643312752246
1745781931355164700,2.06916455078125,-0.5088187061876058,-0.10957622700631618,0.2281618360288441
1745781931365137700,2.0791376953125,-0.14321137010455132,-0.12518179241716862,0.06988178386911749
1745781931375110700,2.089110595703125,0.4262129036933183,0.09461685054451227,-0.3892769654840231
1745781931385083600,2.099083740234375,-0.06854688200354575,0.44181408518999815,-0.6125071903295815
1745781931395057700,2.1090576171875,-1.346274907979369,0.4849140989869833,-0.029516747993975877
1745781931405030700,2.11903076171875,-2.805443789210915,0.9269333513602613,0.8421193712972104
1745781931415004000,2.12900390625,-4.169488747158646,1.4388640520885585,1.00709833657369
1745781931424976600,2.1389765625,-5.243306311917305,1.418797707876563,0.8508655723325907
1745781931434950700,2.14895068359375,-5.892082354849577,1.3836615125656127,0.8196914125204086
1745781931444923600,2.158923583984375,-5.345484829887748,1.5261749635338782,0.30113647134676574
1745781931454896600,2.168896728515625,-4.370333975586295,1.443900877211988,-0.2153660673417151
1745781931464869600,2.17886962890625,-4.081468518400192,0.9379229474082589,-0.04407075852528214
1745781931474843600,2.18884375,-4.150765926510095,0.25386896260678765,1.0782432722464204
1745781931484817000,2.19881689453125,-3.4581437275886535,-0.3483870289519429,2.2968922095268964
1745781931494789600,2.20878955078125,-2.174095850941539,-0.6090946054071188,2.055270734074712
1745781931504762600,2.2187626953125,-1.4133628233462572,-0.475695896525681,1.0050186076901853
1745781931514736600,2.228736572265625,-2.0105022025436163,-0.25971301245987416,0.6578419774413109
1745781931524709600,2.238709716796875,-1.1406617344975472,-0.527391889232397,0.02226078551635146
1745781931534682600,2.2486826171875,0.5677659851968289,-1.1121443728044629,0.0012948621161282061
1745781931544656000,2.25865576171875,1.2139946817338465,-0.8814648548662662,0.07846329586207866
1745781931554630000,2.2686298828125,1.286130528140068,-0.7867772771731019,-0.340425986944884
1745781931564602600,2.2786025390625,1.024915878945589,-0.8947244416728615,0.21951310401856897
1745781931574575600,2.28857568359375,0.48982525190412995,-0.9504889989927411,0.762724932064861
1745781931584548600,2.298548583984375,0.25304595578610894,-0.8278571833193301,0.9763064540773629
1745781931594522600,2.308522705078125,0.3963333137363195,-0.6117725924447178,0.9016790831163525
1745781931604496000,2.318495849609375,0.7852455375611782,-0.34391835910528895,0.6121629069365561
1745781931614468600,2.328468505859375,1.380203481066227,-0.08517039228528737,0.25682722789049145
1745781931624441600,2.338441650390625,1.622926195758581,0.15597352878302334,-0.005396598346531391
1745781931634414600,2.34841455078125,1.7911562717854976,0.20644816300123928,-0.20281652850061654
1745781931644388600,2.358388671875,2.1064789432644844,0.26199206330776215,-0.4769486730657518
1745781931654361600,2.368361572265625,2.3478806384861466,0.3343801309093833,-0.7568351433739066
1745781931664334800,2.3783349609375,2.3108757266938684,0.3637947337031364,-0.7936211517184972
1745781931674308900,2.388308837890625,2.1267717897087333,0.3430605732321739,-0.6229087573565543
1745781931684281600,2.398281494140625,1.9090514143258333,0.44241906534582376,-0.5744954395823181
1745781931694254600,2.408254638671875,1.8355565545260906,0.520881192164123,-0.5835452997393906
1745781931704227000,2.41822705078125,2.089233793953061,0.45589580203443764,-0.6472774749375879
1745781931714200000,2.428199951171875,2.5720804390162226,0.2361833760514855,-0.6519888674989343
1745781931724174000,2.438174072265625,3.126191992869973,0.20057780966311692,-0.7556995634727179
1745781931734147000,2.44814697265625,3.3428058683156965,0.27677491415888067,-0.931811917182058
1745781931744120000,2.4581201171875,3.0747207488298414,0.34087066197246313,-1.2828995833948253
1745781931754093000,2.468093017578125,2.36404442230165,0.3513356496244669,-1.3694210980281234
1745781931764066800,2.47806689453125,1.5504308683902024,0.09480185172259807,-0.7842603259161114
1745781931774040000,2.4880400390625,1.3027449783325196,-0.3259314515158534,-0.32728944199606774
1745781931784013000,2.498012939453125,1.6819968088865278,-0.4639554821103811,-0.2206480993978679
1745781931793986000,2.507986083984375,2.1675053666353223,-0.3080231621205807,-0.11945581598579882
1745781931803960000,2.5179599609375,1.9879291362076996,-0.16283055507093666,-0.22771906069740652
1745781931813933000,2.52793310546875,1.4496306530356406,-0.05785831472873688,-0.2502200847104192
1745781931823906000,2.537906005859375,0.25360300514698025,0.15211130039691925,-0.06846329537332058
1745781931833879000,2.547879150390625,-1.207880582767725,0.5817860349819064,-0.45673926712125534
1745781931843853000,2.55785302734375,-2.1142823104918,1.0681725446090102,-1.4709640945740043
1745781931853826000,2.567825927734375,-2.530960493120551,1.2066615623667836,-1.7060833485253155
1745781931863799000,2.577799072265625,-2.5852052935272454,0.9162932994022965,-1.2484950633592904
1745781931873772000,2.58777197265625,-1.9725632247716187,0.38072657928168774,-0.5302515164472162
1745781931883745800,2.597745849609375,-1.1540490393370388,-0.2791527492061257,-0.15095336253345013
1745781931893719000,2.607718994140625,-0.5364572392195462,-0.4853787938892841,-0.13976882843524216
1745781931903692000,2.617692138671875,-0.6200730955392122,-0.429617159178853,-0.19475991716459393
1745781931913665000,2.6276650390625,-1.416613934096694,-0.44496407365351914,-0.4464660026490688
1745781931923639000,2.63763916015625,-3.027815205270052,-0.2634858089968562,-0.08337839430198073
1745781931933612000,2.647612060546875,-4.133882596248388,-0.2557987616255879,0.8003827548079192
1745781931943585000,2.6575849609375,-4.003261827647686,-0.6504641421496867,2.3991214347712693
1745781931953558000,2.66755810546875,-3.724036305466294,-1.302561438459158,3.507688387480378
1745781931963532000,2.677531982421875,-2.399412672802806,-1.3923691351562737,2.451391866365075
1745781931973505000,2.687505126953125,-1.0897183137238025,-1.0263605247959493,0.6100464993044734
1745781931983478000,2.69747802734375,-0.6351414853334426,-0.8513476567611098,-0.7687368858307599
1745781931993451000,2.707450927734375,-0.3267833921700716,-0.9747852358594536,-1.7192564260922372
1745781932003425000,2.717425048828125,-0.7675240029096603,-1.5328040262848137,-1.6649277467943726
1745781932013398000,2.72739794921875,-3.1729847237050532,-1.0381921246260404,-1.0205772652193903
1745781932023371000,2.73737109375,-5.234322210472822,-0.7316656308040023,-0.876379222165048
1745781932033344000,2.747343994140625,-6.052772683021426,-0.6447311514556407,0.12568769611269234
1745781932043318000,2.757318115234375,-5.088782689681649,-0.7784884645164012,0.4799675824955105
1745781932053291000,2.767291015625,-3.2348890989542007,-0.8188245665580034,0.3511656998850405
1745781932063264300,2.77726416015625,-0.9483885195821523,-0.6345151701286434,0.08066986599564552
1745781932073237000,2.787237060546875,1.2645108170062302,-0.43324528654813765,-0.2666365281127393
1745781932083211000,2.7972109375,2.924821863785386,-0.3216162186652422,-0.2918339516028762
1745781932093184000,2.80718408203125,3.7960903188079596,-0.23827713346034288,-0.3005053338363767
1745781932103157000,2.817156982421875,3.9875393578588962,-0.12152385443150997,-0.279008664560318
1745781932113130000,2.8271298828125,3.781042387279868,0.08911942217200994,-0.3074887629829347
1745781932123104000,2.83710400390625,3.055652475744486,0.33873569577038287,-0.06900193229466677
1745781932133077000,2.847076904296875,2.455343818861246,0.5736170493125915,-0.04165376051142811
1745781932143050000,2.857050048828125,2.2476433177113533,0.9153773536011576,-0.3278567204900086
1745781932153023000,2.86702294921875,2.3945161329329014,1.142927633602917,-0.4580255075395107
1745781932162996000,2.876995849609375,2.7863042044550177,1.1838152320474387,-0.42835503028854727
1745781932172970000,2.886969970703125,3.2727263699173927,1.1521952281638979,-0.4487099821835756
1745781932182943200,2.896943115234375,3.610341537225246,1.1109025560498238,-0.4740099892653525
1745781932192916000,2.906916015625,3.958320277637243,0.9867129895403981,-0.6046316346488892
1745781932202889000,2.916888916015625,4.243379912799597,0.9123065678536891,-0.7389234929777682
1745781932212863000,2.926863037109375,4.26603247411251,0.9007970395848155,-0.9577274258136749
1745781932222836000,2.9368359375,3.974851725721359,0.9777928932428359,-1.1509009505696595
1745781932232809000,2.94680908203125,3.2532465934216974,1.0983154616773128,-1.1908077212832868
1745781932242782200,2.9567822265625,2.434849312365055,1.1144555723562837,-1.0430889567568897
1745781932252756200,2.966756103515625,1.7639572992146013,1.0739967207178474,-0.838803232486546
1745781932262729000,2.97672900390625,1.4288380403757095,0.9601903087958693,-0.5156641881681978
1745781932272702000,2.986701904296875,1.6542244203418492,0.9403741399526595,-0.20419293142035602
1745781932282675000,2.996675048828125,2.266601700681448,0.8368214110195636,-0.04478358296975493
1745781932292649000,3.00664892578125,2.261763613000512,0.683465078997612,0.26261677107736464
1745781932302622000,3.0166220703125,1.9265981769323348,0.5579249746620655,0.26852570286020633
1745781932312595200,3.02659521484375,1.4657628726691008,0.46581426171958445,-0.456379055506736
1745781932322568000,3.03656787109375,0.754329590293765,0.43195027830153704,-1.7079447584830223
1745781932332542000,3.0465419921875,-0.2629962719142437,0.45685266436785454,-2.415167145165056
1745781932342515000,3.056514892578125,-1.7186948466867207,0.4536658510252833,-2.034841109508276
1745781932352488000,3.066488037109375,-3.626102585458755,0.17972586803138255,-0.9323740811094641
1745781932362461200,3.076461181640625,-5.134818464669585,-0.621089871366322,0.4310968763425946
1745781932372435200,3.086435302734375,-5.902678567665815,-0.7415443430006503,0.35155879085585473
1745781932382408200,3.096408203125,-5.4131905848920345,-0.23037089038044212,-0.10191124533638357
1745781932392381000,3.106380859375,-4.441463859820366,0.30780104380249973,-0.533615586052835
1745781932402354000,3.11635400390625,-3.7112393677353857,0.37481735523790116,-0.7860374185912311
1745781932412327200,3.1263271484375,-3.3347885660767553,0.013556231665611266,-0.6085974695399403
1745781932422301000,3.136301025390625,-3.375185458394885,0.0141930682644248,-0.38899683336839075
1745781932432274200,3.146274169921875,-4.184534925121069,0.2605316353663802,-0.15944894980862737
1745781932442247000,3.156246826171875,-4.999865219822525,-0.11233604710847139,0.09082900256887078
1745781932452220000,3.166219970703125,-4.649206446546316,-0.8246084106564522,0.16459098887220025
1745781932462194000,3.17619384765625,-4.039614997532963,-0.9979287955597043,-0.35357203037440776
1745781932472167000,3.1861669921875,-3.5025089390158652,-1.001472751776874,-0.19424962955489752
1745781932482140200,3.19614013671875,-2.766485989785194,-1.133142444908619,0.41386414812132716
1745781932492113200,3.206113037109375,-2.436290743345022,-1.2636071461647749,0.7195880933888256
1745781932502087200,3.216087158203125,-2.0934195552051067,-1.2256360196888445,0.8875961972281337
1745781932512060000,3.226059814453125,-1.866415803170204,-1.1433990505069493,1.517596520280838
1745781932522033000,3.236032958984375,-1.431906780296564,-1.0749717032298445,1.723175060840696
1745781932532006100,3.246006103515625,0.18230653217434883,-0.7201809447154403,0.6660416505098342
1745781932541980000,3.25597998046875,2.407886486637592,-0.3296215382054448,-0.3052320700973272
1745781932551953200,3.265953125,3.9816467926889656,-0.23134119671732187,-0.5721738647669553
1745781932561926100,3.275926025390625,4.417724087792635,-0.04131196133643388,-0.5509444681249559
1745781932571899000,3.28589892578125,3.8496746094793077,0.12464549358338117,-0.05514744833484292
1745781932581871900,3.295871826171875,2.9664602805972096,0.28794337390512226,0.33539866030216214
1745781932591846000,3.305845947265625,3.1349826175689697,0.4181190290868282,0.5092131123326719
1745781932601819100,3.315819091796875,3.2928596418857574,0.17905425238013267,0.9178314687550068
1745781932611792100,3.325792236328125,2.9646155295133587,0.40799247960895296,0.38568756268993015
1745781932621765000,3.33576513671875,2.465432082155347,0.945477892832458,-0.6553263413585722
1745781932631739100,3.3457392578125,2.0644097338199616,1.021913482259214,-1.0045053974710405
1745781932641711900,3.3557119140625,2.1747335643231867,0.8501154846176504,-1.0885235509812832
1745781932651685000,3.36568505859375,2.449101709601283,0.777293409512937,-1.1745017525181174
1745781932661658000,3.375658203125,2.597621122986078,0.7451178175732492,-1.007638288669288
1745781932671632100,3.385632080078125,2.1202590468138456,0.5620201350212097,-0.24808599529117345
1745781932681605000,3.395605224609375,1.439035024741292,0.3495128181114793,0.47508682471662755
1745781932691577900,3.405577880859375,0.9359685984700917,0.2608765032812953,0.8168762089692055
1745781932701550800,3.41555078125,0.5738321533679962,0.15632248835116624,1.076412549687922
1745781932711525000,3.425525146484375,0.2772638667196035,0.23119068233072756,0.9497627305448054
1745781932721498400,3.435498291015625,0.05897650510370731,0.3131555565729737,0.6232752525813877
1745781932731471400,3.445471435546875,-0.2161480114996433,0.19618863479346035,0.7352984343484044
1745781932741444400,3.4554443359375,-0.4622036700069904,-0.054091655671596524,1.0592119701705873
1745781932751418400,3.46541845703125,-0.665581631782651,-0.2704547712266445,1.6316973851047456
1745781932761391000,3.47539111328125,-0.8266466384857892,-0.3901926190242171,1.5883659006394446
1745781932771364000,3.485364013671875,-0.9985855059027671,-0.2890849451556802,1.498712225460261
1745781932781337300,3.49533740234375,-0.12317220616042614,-0.7704466123580932,1.2449870552383362
1745781932791310300,3.505310302734375,0.9223346253931521,-1.3920771664723752,1.66127740759328
1745781932801284400,3.515284423828125,1.5329647698044777,-1.2932123030945657,1.199340352633223
1745781932811257300,3.52525732421875,1.5900526846826075,-0.9919164034023881,-0.2572534174133092
1745781932821230000,3.53522998046875,0.587863016808033,-0.6926739291086793,-1.0080518379062413
1745781932831203300,3.545203369140625,-1.8218658828258514,-0.5694058613583445,-0.9272560805086046
1745781932841177300,3.55517724609375,-4.447347657161951,-0.32404724520444866,-0.6001838614597916
1745781932851150300,3.565150390625,-5.75152880577743,0.12413111432045698,-0.21034867757111786
1745781932861123300,3.575123291015625,-5.457518386918306,0.1578533511802554,0.725040148249641
1745781932871096300,3.585096435546875,-4.368226189652085,-0.3995595823064446,1.2618582566708325
1745781932881070300,3.5950703125,-3.1951398568898437,-0.5782546459853649,0.9709737878125161
1745781932891043000,3.60504296875,-2.0902830107450483,-0.5698018749386072,0.6194143393695354
1745781932901016300,3.615016357421875,-1.2020073068201542,-0.1000029274970293,-0.35988084819503124
1745781932910989300,3.6249892578125,-0.7148240938574075,0.2827881830990314,-1.4437757895275949
1745781932920963300,3.63496337890625,-0.3019026334136724,0.3470449666932225,-1.8664537970930337
1745781932930936300,3.644936279296875,-0.030509120032191275,0.33528730888217684,-2.158280880563706
1745781932940909300,3.654909423828125,0.14207155241966246,0.401239205956459,-2.4280764572292566
1745781932950882300,3.66488232421875,-0.17165946595370768,0.5213476406320929,-2.3428696784563363
1745781932960855300,3.674855224609375,-0.7698504000306129,0.5770788802042603,-2.065346722409129
1745781932970829300,3.684829345703125,-1.1827484795987606,0.45354134786278005,-1.5805612182378768
1745781932980802300,3.69480224609375,-1.615762880000472,-0.0010153145223855973,-0.4907191320039332
1745781932990775300,3.704775390625,-2.357707035973668,-0.5870762503445148,0.49449353597611184
1745781933000748000,3.714748046875,-1.1529986535012722,-0.1438417769625783,1.2524031767137347
1745781933010722000,3.72472216796875,-0.1938712977617979,-0.5334992661967873,1.0578957730054854
1745781933020695300,3.7346953125,0.44957565910220143,-0.5788865141481161,0.7699605824068189
1745781933030668300,3.744668212890625,0.7711544683665037,0.021519173368811605,0.5770648516789079
1745781933040641300,3.754641357421875,1.2092553782522677,-0.00727934335321188,0.1785448415532708
1745781933050615300,3.764615234375,2.0782009432852266,-0.03610270225554704,-0.4476896992251277
1745781933060588300,3.77458837890625,2.9769758293926714,0.04648614910393953,-0.8753039210837333
1745781933070561300,3.784561279296875,3.5238936723500487,0.14383973113596438,-0.8843647410262375
1745781933080534300,3.7945341796875,3.562221357178688,0.1405988495185971,-0.4038659742634743
1745781933090507300,3.80450732421875,3.5325796676307917,0.12950959248840807,-0.11046214299537241
1745781933100481300,3.814481201171875,3.6251229267716405,0.6702595604658127,-0.5839462817557156
1745781933110454300,3.824454345703125,2.9854800383657216,1.0091092380046844,-0.7612699109509586
1745781933120427300,3.83442724609375,1.843220805543661,1.073434118399024,-0.8843638642434031
1745781933130400300,3.844400146484375,1.1056143865138293,1.0577800376713276,-0.14026808319427073
1745781933140374300,3.854374267578125,1.100006483504176,1.2126873985275626,0.5393783873632549
1745781933150347300,3.86434716796875,1.5088655168145895,1.1398264527171849,0.6803263425804674
1745781933160320300,3.8743203125,1.9846178197026252,0.8170023195669055,0.9286480463236569
1745781933170293200,3.884293212890625,2.3359189825356004,0.6399521004855633,0.9823500450905411
1745781933180267300,3.894267333984375,2.6362615270256993,0.6135208974167704,0.6287901435453445
1745781933190240300,3.904240234375,2.7757681973934174,0.6476581448182464,0.16309095957279204
1745781933200213200,3.914213134765625,2.7323522495150563,0.7485474997609853,0.0026677579045295712
1745781933210186200,3.924186279296875,2.6050994960427283,0.7757488104194402,0.09582155015915632
1745781933220160300,3.93416015625,2.415022914388776,0.8079547974973916,0.201056460025534
1745781933230133200,3.94413330078125,2.2771862230598927,0.8575172853067516,0.3194396052785218
1745781933240106200,3.954106201171875,2.3277882830500602,0.8861912988662719,0.472069376591593
1745781933250079500,3.96407958984375,2.310453701889515,0.8475465109124779,0.5719304113999009
1745781933260052200,3.97405224609375,2.110056217229366,0.803263717071712,0.36046339732334015
1745781933270026200,3.984026123046875,1.8712942228615284,0.6592360621482134,-0.07009330772794782
1745781933279999200,3.993999267578125,1.8568717297554016,0.46282180190533395,-0.4298639735467732
1745781933289972200,4.00397216796875,2.1395868476182223,0.34643647940605876,-0.4838456660378724
1745781933299945500,4.013945556640625,2.6185961064755916,0.09206687380075454,-0.28771643328145147
1745781933309919200,4.023919189453125,2.8171564388364554,-0.2865183095380664,0.01620360436923802
1745781933319892200,4.033892333984375,2.099202230259776,-0.7175850830033421,0.37030564996711907
1745781933329865200,4.043865234375,0.4790858312249183,-0.8666638838365673,1.0532178443223237
1745781933339838200,4.053838134765625,-1.3156786941856145,-0.5582973151057958,1.8927733564808964
1745781933349812200,4.063812255859375,-2.637815770730376,-0.023279168778657912,2.4278540466502307
1745781933359785200,4.07378515625,-3.274294057625532,0.4332382722854614,2.5092250466525554
1745781933369758500,4.083758544921875,-3.291870046326518,0.6539265575632452,2.200848541049659
1745781933379731200,4.093731201171875,-2.7649761697441337,0.7167585690513253,1.8891236018016933
1745781933389705200,4.103705322265625,-1.9827970340162515,0.38543987153917547,1.6534190953083336
1745781933399678200,4.11367822265625,-1.0708943707883358,-0.012979308560490607,1.3867052641756832
1745781933409651200,4.123651123046875,0.029872575694322584,-0.23322423398494718,0.9173791949428617
1745781933419624400,4.13362451171875,1.173301436817646,-0.3747004508599639,0.5099545783497392
1745781933429597400,4.143597412109375,2.063888340294361,-0.3635375440716743,0.3230323690734804
1745781933439571500,4.153571533203125,2.294354800003767,-0.19618366635739803,0.568376372180134
1745781933449544200,4.163544189453125,1.667589513349533,0.009648995094001293,1.0375732620753346
1745781933459517200,4.17351708984375,0.8838304149538279,0.11610972042828797,1.0592841586239636
1745781933469490200,4.183490234375,0.46585342468619345,0.4040811513841152,0.9939216057449579
1745781933479464200,4.193464111328125,0.42693478822708125,0.8583750711798668,1.1933569673746824
1745781933489437400,4.2034375,0.4265899203121662,1.1971347323477268,1.4747063498422504
1745781933499410400,4.213410400390625,0.6976619466543197,1.2191587864987552,1.3061658926919102
1745781933509383200,4.223383056640625,1.3576912050068377,1.4965245061576367,0.4142620613977313
1745781933519357200,4.233357177734375,2.1906518489450213,1.7400445087075231,-0.8058321062549948
1745781933529330200,4.243330078125,3.3279011446505784,2.0056055165432394,-2.1708935477688907
1745781933539303400,4.253303466796875,4.517012145018577,2.46397136195302,-3.527632566617429
1745781933549276400,4.2632763671875,5.527436557275056,3.0910709951281548,-4.744840657439828
1745781933559250400,4.27325048828125,6.184412857797741,3.7806931354507802,-5.791189200514554
1745781933569223200,4.28322314453125,6.512380491316318,4.375328715133667,-6.455633352699875
1745781933579196200,4.293196044921875,6.6531731098413465,4.948163674157858,-6.538713202446699
1745781933589169200,4.303169189453125,6.664391253948211,5.5496051344633095,-6.223109375938773
1745781933599142400,4.313142333984375,6.482995406877994,5.879015368005633,-5.665817438483238
1745781933609116400,4.323116455078125,6.311220790112018,5.843365377953648,-4.647841587933898
1745781933619089400,4.33308935546875,6.136421272566914,5.996397300326824,-3.1975890036076304
1745781933629062100,4.343062255859375,5.8071934098541735,6.064259707197547,-1.7138363007396458
1745781933639035100,4.35303515625,5.2735851303249595,5.990447452011704,-0.7158703880399465
1745781933649009200,4.363009033203125,4.714409278818965,5.839603979593515,-0.3725625620484352
1745781933658982400,4.372982421875,4.118088814789057,5.947907702445984,-0.2904115175843239
1745781933668955400,4.382955322265625,3.5521526753678914,6.460970037552714,-0.21782383575737474
1745781933678928400,4.392928466796875,2.7075135763347147,6.8136489184796805,0.16235563103556633
1745781933688902400,4.40290234375,1.8337679175436497,7.018958725100755,0.9167366592556238
1745781933698875100,4.412875244140625,1.1664204451322555,7.1485863910108804,1.6862679103344678
1745781933708849000,4.422848876953125,0.6425558532431721,7.120193824741244,2.4531179595053194
1745781933718822000,4.43282177734375,0.034603111347556115,6.852395120981336,3.1841923464179036
1745781933728796000,4.4427958984375,-0.5641726368799805,6.319746626394987,3.690303547212481
1745781933738769000,4.452768798828125,-1.0988733878210186,5.688067848736047,3.9258915877193212
1745781933748742000,4.462741943359375,-1.5036135876357555,5.00338287255466,4.0015328118979925
1745781933758715000,4.47271484375,-1.7295327593043446,4.132262886092066,4.036664915555716
1745781933768687900,4.48268798828125,-1.8070871236279606,3.650365504577756,4.401252845463157
1745781933778662000,4.492661865234375,-2.128189839813113,3.6361528548300264,5.403005875486135
1745781933788635100,4.50263525390625,-2.643434779655933,4.021951915070415,6.427993066102266
1745781933798608000,4.51260791015625,-3.065723203381896,4.627283368551731,6.9438833181113
1745781933808580900,4.522580810546875,-3.38534883275181,5.080290755668282,7.012601465028524
1745781933818555000,4.532554931640625,-3.6694606656700373,5.083426715606451,6.9628586522161955
1745781933828527900,4.54252783203125,-3.9253357074022293,4.642561601704359,7.282149058282375
1745781933838500900,4.5525009765625,-4.136445140212774,3.9044063166201113,7.97759917410612
1745781933848473900,4.562473876953125,-4.035386566182971,3.0579262658953663,8.449556176364421
1745781933858448000,4.57244775390625,-3.81162515707016,2.3025205708026886,8.783464305847883
1745781933868420900,4.5824208984375,-3.6665859870165582,2.0623113002359865,9.299126594319938
1745781933878393900,4.592393798828125,-3.661972940263152,2.8769278937101364,9.941146148729324
1745781933888366800,4.602366943359375,-3.8870623831093307,4.359371267545223,10.196736528301239
1745781933898340900,4.6123408203125,-4.2839860639542335,5.132910000699758,9.552883328723906
1745781933908314000,4.622314208984375,-4.488651142930984,4.640193119007349,8.414698213472962
1745781933918286800,4.632286865234375,-4.4200820490956305,3.5906413959771393,7.485466229781508
1745781933928259800,4.642259765625,-4.215840748488903,2.4177158067345617,6.907211583796143
1745781933938233900,4.65223388671875,-4.152716476055979,1.3909095839977264,6.472435434418916
1745781933948206800,4.662206787109375,-4.716132449349761,0.40263153709769245,5.817555813914537
1745781933958179800,4.672179931640625,-5.584264359912276,-0.6558458351880312,4.92911644386053
1745781933968153000,4.682153076171875,-6.241394389691949,-1.463061797016859,3.8377451022326943
1745781933978125800,4.692125732421875,-6.731293291354179,-2.3734639925539494,2.657396669512987
1745781933988099800,4.702099853515625,-6.993725499644875,-3.382842695149779,1.6328566381424665
1745781933998072800,4.71207275390625,-6.920452173641324,-4.702132565569877,1.0523685340166091
1745781934008045800,4.7220458984375,-6.655991674393415,-5.929397647765279,1.1474392658084631
1745781934018019000,4.73201904296875,-6.447302746728062,-6.947802537381649,1.7387240737587213
1745781934027993000,4.7419931640625,-6.299498203614354,-7.872999566468596,2.5397996331363917
1745781934037966000,4.751966064453125,-6.363025211629271,-8.50107067502439,3.517023202058673
1745781934047938800,4.761938720703125,-6.688080757093429,-9.139915691050886,4.258682695871592
1745781934057911800,4.771911865234375,-6.9698191388785835,-9.769524676698445,4.639962817382812
1745781934067885800,4.7818857421875,-6.807473444715142,-10.188062223458289,4.64763057553172
1745781934077858800,4.79185888671875,-6.308688056764006,-10.269792412161827,4.451480811443925
1745781934087832000,4.80183203125,-5.700917393437027,-10.070392121845483,4.304657680583
1745781934097804800,4.8118046875,-5.066803497585654,-9.681108142098784,4.162423046556115
1745781934107778800,4.82177880859375,-4.506436974990367,-9.211145528528094,3.9137347014576194
1745781934117751800,4.831751708984375,-4.045470737823844,-8.606280523514748,3.6564568071901795
1745781934127724800,4.841724853515625,-3.542629352480173,-7.781994768941402,3.4579514198869465
1745781934137698000,4.851697998046875,-3.071491849911213,-6.852518455100059,3.359560019239783
1745781934147671000,4.861671142578125,-2.7108295690149067,-5.980784136131406,3.1901720053493974
1745781934157645000,4.87164501953125,-2.4291344418495893,-5.116373291918635,2.9998557697206736
1745781934167617800,4.88161767578125,-2.1484249647207556,-4.138592089113593,2.7504806114017963
1745781934177590800,4.8915908203125,-1.9859435153484344,-3.095398210677504,2.5073376254707576
1745781934187563800,4.901563720703125,-1.7670137641757726,-1.989952166467905,2.201708665010333
1745781934197537800,4.911537841796875,-1.5507383269041777,-0.7225859600305556,1.901854780820012
1745781934207511000,4.921510986328125,-1.3994513485021889,0.5386538724809885,1.5109265409976242
1745781934217484000,4.931484130859375,-1.2117389386963098,1.5648744042843579,0.6272866801798344
1745781934227456800,4.941456787109375,-0.9486422020822763,2.1741022806823254,-0.5402238982766866
1745781934237430800,4.9514306640625,-0.3231312263380736,2.6502842071592805,-1.6387515413999556
1745781934247403800,4.96140380859375,0.18034962595291434,2.9311390841081737,-2.8495751918822525
1745781934257377000,4.971376953125,0.555279428589344,2.7418782027512787,-4.314354314211011
1745781934267350000,4.98135009765625,0.86988788738437,2.3005860956087707,-5.71499326506257
1745781934277324000,4.991323974609375,1.0349836839735507,2.0877406327858568,-6.719272598692775
1745781934287297000,5.001297119140625,1.328590782728791,2.31284059702605,-7.437133283767103
1745781934297269800,5.011269775390625,2.219899570739269,3.333850992965698,-7.292998369076847
1745781934307242800,5.02124267578125,3.329375308856368,5.355990441811085,-6.120326462334394
1745781934317216000,5.031216064453125,3.9123207430064677,7.906020377060771,-4.532857364404201
1745781934327190000,5.04118994140625,3.787162915986776,9.911208106583356,-3.1091900046646592
1745781934337163000,5.0511630859375,3.0976831067442894,10.6119972453475,-2.2459002734363076
1745781934347135700,5.0611357421875,2.0843033518135545,10.33530094938278,-1.2433552162528037
1745781934357108700,5.071108642578125,1.137237605267763,9.832917244678734,-0.1654459982663393
1745781934367082800,5.081082763671875,0.23989603989906608,9.109642717862128,0.5772229648500681
1745781934377056000,5.091055908203125,-0.3784965552072972,8.359600011107325,0.3693254798233509
1745781934387029000,5.101029052734375,-0.3883784822743386,8.167551252597569,-0.5040741420090198
1745781934397002000,5.111001953125,-0.10430215906091034,8.291490935999155,-1.527052330890298
1745781934406976000,5.12097607421875,-0.01584521938562393,8.55707897797227,-2.63879659846127
1745781934416948700,5.13094873046875,-0.19692535157017407,8.128585854387282,-3.7837364486694334
1745781934426921700,5.140921630859375,-0.5419172947237267,7.3351792222023,-4.929148592564463
1745781934436895000,5.15089501953125,-0.8260077560603618,6.294193082943559,-5.929607491123676
1745781934446869000,5.160868896484375,-0.9592331542015076,5.064429754191637,-6.636417205351591
1745781934456842000,5.170842041015625,-0.9576128595232963,3.630120296667516,-7.038733685150742
1745781934466815000,5.18081494140625,-0.7348539054512977,2.4572522828310728,-6.871758577620983
1745781934476787700,5.19078759765625,-0.3208288676798344,2.0032062003165483,-5.937665125373005
1745781934486761000,5.200760986328125,0.10179682517647742,1.9872516753375529,-4.666373854446411
1745781934496735000,5.21073486328125,0.3765536775112152,2.04782363293916,-3.4418577786982056
1745781934506708000,5.2207080078125,0.4464034222742542,1.9535615871816872,-2.431262686049938
1745781934516681000,5.230680908203125,0.3541834402710199,1.4685855288743972,-1.838636400362849
1745781934526654000,5.240654052734375,0.14050331672225147,0.6934019511222839,-1.6712421906381845
1745781934536628000,5.2506279296875,-0.17120879957675933,-0.10594400798380374,-1.7373153760045765
1745781934546600700,5.2606005859375,-0.6304787542194128,-0.7679992192059755,-1.7746096261322497
1745781934556574000,5.270573974609375,-1.1715601461082696,-1.1955290507167577,-1.7061358093649148
1745781934566547000,5.280546875,-1.534002880680561,-1.4991653760552406,-1.50517192299366
1745781934576521000,5.29052099609375,-1.5728700792133807,-1.7713479939877985,-1.0459165813982485
1745781934586494000,5.300493896484375,-1.2297685894489288,-2.11707983225584,-0.33253158043324943
1745781934596467000,5.310467041015625,-0.5920013952543959,-2.6769576945513487,0.2589870362728834
1745781934606440000,5.32043994140625,0.004652136654779314,-3.2841859215646982,0.7074719775289297
1745781934616413000,5.330412841796875,0.5523369453966617,-3.7746447951972484,0.843482622474432
1745781934626387000,5.340386962890625,1.1266728835683315,-3.933082960528135,1.0719792434155941
1745781934636360000,5.35035986328125,1.4829378793537615,-3.2415795365035533,2.0362463001310824
1745781934646333000,5.3603330078125,1.631322852703929,-1.2669704851180315,3.5074522406369444
1745781934656305700,5.3703056640625,1.421250361725688,1.2865011150181294,5.044140414878726
1745781934666279700,5.38027978515625,0.8679108882229775,3.444373560911417,6.876319017404318
1745781934676253000,5.3902529296875,0.18115155345294623,4.726638061273098,8.520658003547787
1745781934686226000,5.400225830078125,-0.5666226603806018,5.002634100013971,9.931364759427309
1745781934696199000,5.410198974609375,-1.246814416795969,4.237378042036295,10.829071139520407
1745781934706173000,5.4201728515625,-1.555653571474552,2.9784044008910655,11.54998069077134
1745781934716146000,5.43014599609375,-1.5761919171124696,1.7105752531170844,12.094099258399009
1745781934726119200,5.440119140625,-1.541067412239313,0.5386982961446046,12.393736869490146
1745781934736092000,5.450091796875,-1.502484291344881,-0.6031868426680564,12.337691741663217
1745781934746066000,5.46006591796875,-1.6660370232105255,-1.7298837646991014,11.86921381369233
1745781934756039000,5.470038818359375,-1.9959575443625448,-2.4142788180232047,11.312840160125493
1745781934766012000,5.480011962890625,-2.4538006810724733,-2.3380618397831916,10.935260062175988
1745781934775985000,5.48998486328125,-2.82826293926239,-1.4674877967655657,10.722015955424308
1745781934785959000,5.499958984375,-3.075840692770481,-0.09392156175673007,10.438896932935714
1745781934795932200,5.50993212890625,-3.157443455702066,1.3296458447396755,9.718984576028586
1745781934805905000,5.51990478515625,-3.1802526688814163,2.360246783584356,8.48174871943891
1745781934815878000,5.5298779296875,-3.0228678119957446,2.721853067332506,6.671094550979137
1745781934825851000,5.539850830078125,-2.6797172223925587,2.549364749339223,4.765266190353036
1745781934835825000,5.549824951171875,-2.3131974476397037,1.9141724106013773,3.0317957993388176
1745781934845798000,5.5597978515625,-2.009331405198574,0.9314560894817113,1.5047534053206444
1745781934855771000,5.56977099609375,-1.8709972857415675,-0.16465923180282116,0.3928501477956772
1745781934865744000,5.579743896484375,-1.9105004440903663,-1.1650023950278758,-0.2388835749208927
1745781934875718000,5.5897177734375,-1.9977567027390002,-2.01748840816915,-0.5847714805334806
1745781934885691000,5.59969091796875,-2.1798902164340017,-2.6374527826368808,-0.922202523446083
1745781934895663900,5.609663818359375,-2.394212181550264,-3.0329367860674856,-1.2008411856502295
1745781934905637000,5.61963720703125,-2.5584195779323577,-3.2765725239515304,-1.4288579141199589
1745781934915611100,5.629611083984375,-2.587166364467144,-3.4524978306561707,-1.6083189937353133
1745781934925584000,5.639583984375,-2.5546324606090782,-3.566359187635779,-1.6619120522350073
1745781934935556900,5.649556884765625,-2.4439158313959837,-3.692286245462298,-1.7202362309098242
1745781934945529900,5.65952978515625,-2.1932184845626352,-3.7913136059254406,-1.911118283727765
1745781934955503900,5.66950390625,-1.8513509205073118,-3.7439375222444533,-2.1354718135148287
1745781934965476900,5.679476806640625,-1.4877642765969037,-3.5947470777302977,-2.319070139065385
1745781934975450000,5.6894501953125,-1.183102115342021,-3.3544021980851886,-2.481788758194446
1745781934985422800,5.6994228515625,-0.9591425533086061,-3.057813453170657,-2.629201087120175
1745781934995395800,5.709395751953125,-0.8042553584575652,-2.7312369817495346,-2.747623468405008
1745781935005369900,5.719369873046875,-0.7673404630362987,-2.4612165102869272,-2.8483108710348604
1745781935015342800,5.7293427734375,-0.8834019604086876,-2.1632699210226534,-2.8992659822463986
1745781935025316000,5.739316162109375,-1.1010159528076648,-1.8331021471112965,-2.8912913501054045
1745781935035289000,5.7492890625,-1.2897884661257266,-1.4645523278355597,-2.8178216247469186
1745781935045263000,5.75926318359375,-1.4399509705424307,-0.9589572598695755,-2.6373727031379937
1745781935055235800,5.76923583984375,-1.567895797932148,-0.4341963036626577,-2.3251070811420678
1745781935065208800,5.779208740234375,-1.7320622777819632,0.1631318761050701,-2.010907860735059
1745781935075182000,5.78918212890625,-1.8273557124137878,0.6766518918514252,-1.9156267010629175
1745781935085155800,5.79915576171875,-1.910890904712677,0.9557178395569323,-2.0255875434726476
1745781935095129000,5.809129150390625,-1.984705497986078,1.149244853925705,-2.213044298017025
1745781935105101800,5.819101806640625,-2.041217074280977,1.2604805385768412,-2.51663970682323
1745781935115074800,5.82907470703125,-2.119976722741127,1.1148211907982826,-2.855646036228537
1745781935125047800,5.8390478515625,-2.245371865648031,0.853786574345827,-3.106441582739353
1745781935135021800,5.849021728515625,-2.500299397397041,0.5837047280848026,-3.208112735709548
1745781935144995000,5.8589951171875,-2.8824492874801155,0.5498737701535225,-2.775960505095124
1745781935154968000,5.868968017578125,-3.39846988787055,0.9278449132472276,-1.9673808536976574
1745781935164940800,5.87894091796875,-3.8651755454719066,1.6123790827810764,-0.8155956676393746
1745781935174914800,5.888914794921875,-4.081488392144442,2.8827947399169207,0.6571791296184063
1745781935184887800,5.8988876953125,-4.009310460162163,4.063515513080358,1.3935241504102944
1745781935194861000,5.908861083984375,-3.558405598282814,4.869579966786503,1.5343307974606752
1745781935204834000,5.918833984375,-3.096542120015621,5.597977827966213,1.5077911655813454
1745781935214808000,5.92880810546875,-2.74724703630805,6.316981837856769,1.5284417394220828
1745781935224781000,5.938781005859375,-2.4532664280653,6.694575379809737,1.307559685137868
1745781935234753800,5.94875390625,-2.4342425786435604,6.890960706219077,1.060718429210782
1745781935244726800,5.958726806640625,-2.9698505075573918,7.45026924419403,1.3832353961080313
1745781935254700800,5.96870068359375,-3.6212849560439584,8.738101315554976,2.6610867562025784
1745781935264674000,5.978674072265625,-3.8544203427016734,10.02039679557681,4.009104708456993
1745781935274647000,5.98864697265625,-4.049567651748657,10.215044922930002,4.544591641339659
1745781935284620000,5.9986201171875,-4.242700698363781,8.977700929790736,4.121334664842486
1745781935294592800,6.0085927734375,-4.1836452828049655,7.105196746617556,3.2365695993870496
1745781935304566800,6.01856689453125,-3.856453309834003,5.544242146125436,2.4393729272693396
1745781935314540000,6.0285400390625,-3.262320711237192,4.221966537892818,1.7078876214683054
1745781935324513000,6.038512939453125,-2.5323393802583216,3.0429391246438025,1.1222218224436045
1745781935334486000,6.048486083984375,-1.7713760510385035,2.096339242044091,0.6359083780527115
1745781935344460000,6.0584599609375,-1.0467781666636466,1.4090771088510752,0.27190321646928783
1745781935354433000,6.06843310546875,-0.38184126252532,0.9195809427708387,-0.09334873030483722
1745781935364405800,6.07840576171875,0.22954525321125982,0.5675327609628439,-0.44616848100721834
1745781935374379000,6.08837890625,0.8067442526638507,0.2557715813577175,-0.7731593784481287
1745781935384353000,6.09835302734375,1.3140128068000076,-0.1849216831088066,-1.1474001028418541
1745781935394326000,6.108325927734375,1.6643711358249187,-0.7144529224574565,-1.5577502514928578
1745781935404299000,6.118299072265625,1.90926242672801,-1.181923134690523,-2.0098802712529897
1745781935414271700,6.128271728515625,1.9751333675205707,-1.637598279711604,-2.3672563700854776
1745781935424245800,6.138245849609375,1.792850800743699,-1.8571645752221344,-2.556888130581379
1745781935434219000,6.148218994140625,1.524784385958314,-1.9492717810332774,-2.714573431718349
1745781935444192000,6.15819189453125,1.2960118706852197,-1.9344015441596507,-2.9345091450631617
1745781935454165000,6.1681650390625,1.0839947484452277,-1.7840186749905347,-3.0684505825191732
1745781935464138000,6.178137939453125,0.8483459176618605,-1.5597820495814083,-3.0871862626492974
1745781935474112000,6.188112060546875,0.5757891326546669,-1.326201841765642,-2.8677590833485125
1745781935484084700,6.198084716796875,0.3329869595179334,-1.0647305874615907,-2.5342080967396496
1745781935494058000,6.20805810546875,0.138829209497571,-0.7810749738782644,-2.295716151484847
1745781935504031000,6.218031005859375,-0.1196007774144411,-0.550683917492628,-2.017087426152825
1745781935514005000,6.2280048828125,-0.46333245484121144,-0.4176461508780718,-1.7676380335539579
1745781935523978000,6.23797802734375,-0.8550153124231845,-0.4561643898427486,-1.371347974437475
1745781935533951000,6.247950927734375,-1.3481032924503087,-0.6196838039606809,-0.896631444337964
1745781935543924000,6.257924072265625,-2.064186446458101,-0.7407721895843744,-0.06998480585217476
1745781935553898000,6.26789794921875,-2.841218866947293,-0.783429428049922,1.1784709484100342
1745781935563871000,6.27787109375,-3.202152366000414,-0.8467302260935307,2.045021727260947
1745781935573844000,6.287843994140625,-3.2660832786411045,-0.7855477353781462,2.507293786329031
1745781935583817000,6.29781689453125,-3.0671488522708414,-0.7616150711268186,2.7123516640156504
1745781935593791000,6.307791015625,-2.5356004278808832,-0.7410977682769299,2.168406699389219
1745781935603764000,6.317763916015625,-1.1995920623719691,-0.5289525626778603,1.1160060166686772
1745781935613737000,6.327737060546875,-1.7491186265230179,-0.810490453454852,0.5974111818760633
1745781935623710000,6.3377099609375,-2.4796926626980302,-1.7798674005299806,0.6609826135545969
1745781935633683000,6.347682861328125,-2.687371536538005,-1.8510715190440414,0.9367021734416484
1745781935643657000,6.357656982421875,-2.8019723137080668,-1.0416647691726684,1.4842553916931152
1745781935653630000,6.3676298828125,-2.8920336929053065,-0.215786776971817,1.6847276951551435
1745781935663603000,6.37760302734375,-2.969823035028577,0.2301169156193733,1.4973153642743826
1745781935673576000,6.387575927734375,-3.01206000225544,0.5897405011177063,1.0776958674967287
1745781935683550000,6.397550048828125,-2.8673464108943936,1.4545651868283749,0.5984042845666409
1745781935693523000,6.40752294921875,-2.517457452946901,2.9835780041366813,0.37744331982731816
1745781935703496000,6.417495849609375,-2.16258603041172,4.554410440042615,0.33662615627050396
1745781935713468200,6.42746826171875,-1.9092605270318685,5.216424734732509,0.023496026399731636
1745781935723442200,6.437442138671875,-1.9398386206470428,4.5476638883918525,-0.6345733300566673
1745781935733415200,6.447415283203125,-2.1484515604667362,3.382529975938797,-1.3231056293159722
1745781935743388200,6.45738818359375,-2.310247219531983,2.5604548831522465,-1.5876918007701635
1745781935753361200,6.467361083984375,-2.336775891625881,2.356291908478737,-1.4642998143792152
1745781935763335200,6.477335205078125,-2.2277713270276784,2.4061773446321486,-1.2823533476889133
1745781935773308200,6.48730810546875,-2.1464748535662888,2.3753975909650324,-1.1527741970956324
1745781935783281200,6.49728125,-2.1611989599674937,2.386229950624704,-1.0939929223030804
1745781935793254100,6.507254150390625,-2.1898018079869446,2.4656220517694947,-1.0397603968560696
1745781935803227100,6.51722705078125,-2.194390450951457,2.5833441758304834,-1.084790209671855
1745781935813201200,6.527201171875,-2.1586263330005107,2.631872352156043,-1.2014876668602228
1745781935823174100,6.537174072265625,-2.145459100652486,2.547527597039938,-1.489371127271652
1745781935833147400,6.5471474609375,-2.126316447156668,2.2069962500244378,-1.8725491913586854
1745781935843120000,6.5571201171875,-2.0615660348266363,1.6783564065575598,-2.204051428744197
1745781935853094100,6.56709423828125,-1.984867995071411,1.0577870519340038,-2.488223759678006
1745781935863067100,6.577067138671875,-1.9636603718698025,0.5808779802262782,-2.5321628546476362
1745781935873040100,6.5870400390625,-2.0162119584925473,0.2763023282110691,-2.3401754709362983
1745781935883013400,6.597013427734375,-2.0597376503556966,-0.030434885752201078,-2.29360310485363
1745781935892987100,6.606987060546875,-1.9521410528592764,-0.27942484414577484,-2.2527409331113097
1745781935902960400,6.61696044921875,-1.6504348188005387,-0.48332127683758735,-2.142279739964008
1745781935912933000,6.62693310546875,-1.210760960509628,-0.5831172835856676,-2.0860019724249836
1745781935922906000,6.636906005859375,-0.6717611972004175,-0.5654261440724134,-2.045689835780859
1745781935932880100,6.646880126953125,-0.06889014248326421,-0.5016553904294967,-1.9992261907696722
1745781935942853000,6.65685302734375,0.46877252700328825,-0.6126631115436554,-1.9366811795294283
1745781935952826400,6.666826416015625,0.9335755658537149,-0.8132242623329162,-1.8769599935382604
1745781935962799000,6.676799072265625,1.3588351143449544,-0.8888608103364706,-1.798628215101361
1745781935972773000,6.686773193359375,1.7168769836097955,-0.8605372176498174,-1.6566092696517705
1745781935982746000,6.69674609375,1.907985977051407,-0.6820505360245704,-1.4086433936089275
1745781935992719000,6.706718994140625,1.9792811348497867,-0.47070203376114367,-1.1187480088531971
1745781936002692000,6.716692138671875,1.9277327339202164,-0.35599078195393086,-0.800620801347494
1745781936012665300,6.726665283203125,1.7331810526788234,-0.26157880633175373,-0.6037666883826256
1745781936022639400,6.736639404296875,1.411121181899309,-0.2421604046344757,-0.47590661666691303
1745781936032612000,6.746612060546875,1.0072153870821,-0.45703357389271254,-0.40459728421270846
1745781936042585000,6.756585205078125,0.47899698389768597,-0.6887666925370692,-0.27499299917817116
1745781936052558000,6.76655810546875,-0.06641107555124909,-0.5715741453081369,-0.014590250888466834
1745781936062532000,6.776531982421875,-0.5820809262752532,-0.31879414698183534,0.2610264331459999
1745781936072505300,6.78650537109375,-1.128149458926916,-0.23585925866365431,0.6005161621540784
1745781936082478300,6.796478271484375,-1.811422814744711,-0.07142214517891407,1.0477525646537542
1745781936092451000,6.806451171875,-2.5286264972150323,0.15656301910877227,1.755021128565073
1745781936102425000,6.816425048828125,-3.248303876322508,-0.02670212896466255,2.451278469118476
1745781936112398000,6.826398193359375,-3.83904040274024,-0.36738252906203267,2.7949714950352904
1745781936122371000,6.83637109375,-4.320736708724499,-0.6623866351336241,2.8948838216394184
1745781936132344300,6.84634423828125,-4.516465032529831,-0.4388157801568508,2.9939123511463404
1745781936142318300,6.856318359375,-4.51488097820878,0.1483136616796255,2.991047609364986
1745781936152291300,6.866291259765625,-4.376484899431467,0.7509247502863406,2.840909654867649
1745781936162264000,6.87626416015625,-4.1673873909652235,1.371822021690011,2.657120775181055
1745781936172237000,6.886237060546875,-4.11754170230031,1.983660957369208,2.37583130620718
1745781936182211000,6.896211181640625,-4.250838412111998,2.2577093691736456,1.9075088610589503
1745781936192184300,6.906184326171875,-4.56264343085885,2.2499632850915194,1.2063093879282474
1745781936202157300,6.9161572265625,-4.968315650826693,2.2329174577444793,0.31979484845697875
1745781936212130300,6.92613037109375,-5.211887091302871,2.3775983158797023,0.003562660917639732
1745781936222103000,6.93610302734375,-5.139260246509314,2.418312019062042,-0.23312603430747986
1745781936232077000,6.9460771484375,-4.880255966840684,2.2690543545305726,-0.4038058415740728
1745781936242050000,6.956050048828125,-4.51778955913186,2.1837194193333387,-0.5393868629306554
1745781936252023300,6.966023193359375,-4.001632180619239,2.0714888784259555,-0.5796089832037687
1745781936261996300,6.975996337890625,-3.305847718274593,2.187308968257904,-0.26990473612844945
1745781936271970300,6.98597021484375,-2.489566406458616,2.5832512368500233,0.1983276926487684
1745781936281943000,6.995943115234375,-1.7553918615736066,2.9812708962380885,0.6285708747714758
1745781936291916000,7.005916015625,-1.2527251021444796,3.438328435528278,0.9876543620437384
1745781936301889300,7.01588916015625,-1.043908018054813,3.741698218885064,1.0027999087274073
1745781936311863300,7.02586328125,-1.0530174994446337,3.4013562569618223,0.42217035030424593
1745781936321836300,7.035836181640625,-1.220576252081245,2.757356926912069,-0.22885551738142965
1745781936331809300,7.045809326171875,-1.373438078584522,2.137423532104492,-0.4463566970556974
1745781936341782000,7.055781982421875,-1.482923850828409,1.7529980983048676,-0.13620003003776074
1745781936351756000,7.065756103515625,-1.4159388113141058,0.489493243470788,-0.1321107148975134
1745781936361729000,7.07572900390625,-1.3785259032428263,-0.4805903905689716,0.9286597367614507
1745781936371702300,7.085702392578125,-1.2802210118353365,-0.5819996777325869,2.3950924715161324
1745781936381675300,7.09567529296875,-0.9650761080760508,-0.5085580094248056,3.131508803978562
1745781936391649300,7.105649169921875,-0.48307709281817074,-0.3763473412841558,2.955076132273674
1745781936401622300,7.115622314453125,0.18068031921200453,-0.14920271947383879,1.912781833025813
1745781936411595000,7.125594970703125,0.8739479033648967,0.5867319669514894,0.6701672060072421
1745781936421568300,7.135568359375,1.2342448580801486,1.5335481226503849,-0.6255787072181701
1745781936431542300,7.145542236328125,1.2626643123567103,1.9740210223644972,-2.0155261681854726
1745781936441515300,7.155515380859375,1.4054361220002174,1.9611688473150133,-2.9186358686268328
1745781936451488300,7.16548828125,1.840141544228792,1.947465608394146,-3.7856963505655523
1745781936461461200,7.175461181640625,2.095761149895191,1.50798814945817,-4.571565572983026
1745781936471434200,7.185434326171875,2.1704992877542972,1.1913169859796762,-4.767447041523456
1745781936481408000,7.195407958984375,2.017552121055126,1.0681325048595667,-4.234658261683583
1745781936491381200,7.20538134765625,1.7231611784458158,0.8234580715775489,-3.401183238482475
1745781936501354200,7.215354248046875,1.3725135110855102,0.8284010809376835,-2.639317407464981
1745781936511327200,7.2253271484375,0.9904501302421093,0.7733274284914136,-2.287927981826663
1745781936521301200,7.23530126953125,0.6578209346532822,0.7178294131532311,-2.288125550225377
1745781936531274000,7.24527392578125,0.39783144333958625,0.7411880769088864,-2.4474182865589857
1745781936541247200,7.255247314453125,0.21965514283776283,0.7761962619259953,-2.5404776785284278
1745781936551220200,7.26522021484375,0.08503739528907463,0.8515688982963562,-2.3846681081354615
1745781936561194200,7.2751943359375,-0.005120393487345427,0.881263779336214,-2.356979890742898
1745781936571167200,7.285167236328125,0.038057051193714136,0.916700711159408,-2.481453827151656
1745781936581140200,7.29514013671875,0.06383212844133376,0.9281675693303346,-2.4630279436230658
1745781936591113200,7.30511328125,0.18502455896139144,0.90925565585047,-2.1608231123924253
1745781936601087000,7.3150869140625,0.21762685188055036,0.9563499999806284,-1.7784446742504834
1745781936611060200,7.325060302734375,0.2528548171281814,0.7800175737798214,-1.6302438252955673
1745781936621033200,7.335033203125,0.3075251494705677,0.5335924974381924,-1.767891716054082
1745781936631006200,7.345006103515625,0.3809036894142627,0.19996113906949758,-2.502178050750494
1745781936640980200,7.354980224609375,0.3961550345599651,-0.29120675961524245,-2.7375936572998762
1745781936650953200,7.364953125,0.5812122902145609,-0.04628828844428062,-2.2277847710311414
1745781936660926200,7.37492626953125,0.6730009681284427,-0.24804946267306804,-1.7586831582039593
1745781936670899200,7.384899169921875,0.8046820594370364,-0.5904653082609176,-1.3143038987010716
1745781936680873200,7.394873291015625,0.9071674513995647,-0.6617740561932325,-0.645327363783121
1745781936690846200,7.40484619140625,1.0118143322449178,-0.6402718339592218,-0.16540099008083342
1745781936700819200,7.414819091796875,1.0705424886107444,-0.86127839140594,-0.09763035314679146
1745781936710792400,7.42479248046875,1.0150526565790177,-0.9878776494055986,-0.1702472610682249
1745781936720765700,7.434765625,0.7734744357466697,-0.8702320977121591,-0.11475041477382182
1745781936730739700,7.44473974609375,0.32960367375519123,-0.9413438617676496,-0.10532616834640503
1745781936740712700,7.454712646484375,-0.1590846465408802,-0.9453098427891731,0.06215221253037452
1745781936750685700,7.464685791015625,-0.5058521845322101,-0.7651017441987991,0.3643704877644777
1745781936760658700,7.47465869140625,-0.5226373881816864,-0.4664402846634388,0.7137456509709358
1745781936770632700,7.4846328125,-0.5438286447703838,-0.31956513135433195,1.2610510319411754
1745781936780605400,7.49460546875,-0.5846797105967998,-0.47203474366962905,1.5373697267651556
1745781936790578700,7.50457861328125,-0.5398854601025581,-0.7202654081284999,1.7238000608712434
1745781936800551700,7.5145517578125,-0.44977213152237233,-0.3277396699815988,2.0273761804550885
1745781936810525700,7.524525634765625,-0.42413266335316,0.4579682243943214,2.2879273973047733
1745781936820498700,7.534498779296875,-0.48664494136758146,0.9196832341015339,2.422336452272534
1745781936830471700,7.5444716796875,-0.535286441874504,1.2314157721340655,2.4220681567251683
1745781936840444700,7.554444580078125,-0.6510919186592101,1.7160691743582486,2.7125369574546814
1745781936850418700,7.564418701171875,-0.661146937270835,2.2802017714887857,3.2400890056848524
1745781936860391700,7.5743916015625,-0.7153040593940764,2.119502675488591,3.561106089413166
1745781936870364700,7.58436474609375,-0.8123299438416958,1.359634155768156,3.559330311912298
1745781936880337700,7.594337646484375,-0.8065163621921092,0.5287415502756834,3.277306098923087
1745781936890311700,7.604311767578125,-0.7551368880886584,0.00419803621172905,2.951043515756726
1745781936900284700,7.61428466796875,-1.2035024407487362,0.8298065638214349,1.827245237776637
1745781936910257700,7.624257568359375,-1.552220089894533,-0.8912064966797828,2.5459224999308585
1745781936920230700,7.634230712890625,-1.7262965538620947,-1.6751093874603509,3.111718061837554
1745781936930204700,7.64420458984375,-1.9575871894359587,-0.7842617872208356,2.640826058462262
1745781936940177700,7.654177734375,-2.0327870995879174,-0.36522330520153046,2.089119227662682
1745781936950150700,7.664150634765625,-1.8321628204345701,-0.21974983538389203,1.141754790431261
1745781936960123600,7.67412353515625,-1.4747019659280776,-0.18544190759062765,0.16552315515577792
1745781936970097700,7.68409765625,-1.0076935990530997,-0.09898235227763652,-0.27854806131124493
1745781936980070700,7.694070556640625,-0.6398153954286128,0.07477788534760475,-0.32837913692891596
1745781936990043600,7.704043701171875,-0.32996735596843063,0.09859422974288463,-0.09782967511117457
1745781937000016600,7.7140166015625,-0.08926818299293518,0.11592004307508467,0.11573708772361278
1745781937009989600,7.72398974609375,-0.307276070080325,0.1272732117384672,0.1077238771378994
1745781937019963600,7.733963623046875,-0.23557751911282537,-0.09547872807085514,-0.12654782007336615
1745781937029936600,7.7439365234375,-0.18203531401753426,-0.24996026473045346,-0.28719664719104765
1745781937039909600,7.75390966796875,-0.23845921202898024,-0.393520009881258,-0.3612725217491388
1745781937049882600,7.763882568359375,-0.3363257485518232,-0.46866439045369623,-0.6309317586839198
1745781937059856600,7.773856689453125,-0.46409284475445745,-0.5743734206378459,-0.9520230766922235
1745781937069829600,7.78382958984375,-0.6534791060566901,-0.6565297257989645,-0.7887754652529955
1745781937079802600,7.793802734375,-0.9112053286135197,-0.7542360667914152,-0.4788666355162859
1745781937089775600,7.803775634765625,-1.134680906522274,-0.8057213393568993,-0.3041471974700689
1745781937099749600,7.81374951171875,-1.2604478053510189,-0.7744505873024463,-0.1414987209677696
1745781937109722600,7.82372265625,-1.2126280695557594,-0.656739569157362,-0.22507307623326778
1745781937119695600,7.833695556640625,-1.0863280867636202,-0.5263865115821361,-0.4844020578116178
1745781937129668600,7.843668701171875,-0.9158066849291324,-0.4063333142250776,-0.704616003575921
1745781937139642600,7.853642578125,-0.7275789460122585,-0.26097207261025906,-0.8809007912427187
1745781937149615900,7.863615966796875,-0.629174685883522,-0.08715747444927692,-1.0094318940877913
1745781937159588600,7.873588623046875,-0.5686018149664626,0.13747194966971873,-1.1448889968037606
1745781937169561600,7.8835615234375,-0.6180711080670357,0.2178659213334322,-1.3671633822292089
1745781937179535600,7.89353564453125,-0.7855284461557864,0.2820323962956667,-1.6221902826994656
1745781937189508600,7.903508544921875,-0.9703881699442863,0.34849428871870036,-1.9093980358064173
1745781937199481600,7.913481689453125,-1.2021896776497363,0.23865444234013555,-2.2819144206255673
1745781937209454600,7.92345458984375,-1.4127426456212997,0.01739595595896244,-2.65440684004724
1745781937219428600,7.9334287109375,-1.6073288136541843,-0.27754677531421185,-3.0481103898018596
1745781937229401600,7.943401611328125,-1.7941314882040023,-0.6336363414674997,-3.5325738224118948
1745781937239374600,7.95337451171875,-2.0887223372995853,-0.9531289921075106,-3.8454140294253825
1745781937249347600,7.96334765625,-2.1771020470201967,-1.1684230171263217,-4.028064844992756
1745781937259321600,7.973321533203125,-1.9155191490352153,-1.1713164004802703,-4.504546046677231
1745781937269294800,7.983294921875,-1.6210826137185095,-1.1217062741369008,-4.419801478588581
1745781937279267600,7.993267578125,-1.308726975351572,-1.0272703331172466,-4.108876165285706
1745781937289240600,8.003240478515625,-0.978820482724905,-0.721203565761447,-3.8464959794431923
1745781937299214600,8.013214599609375,-0.6787701991796493,-0.32334523441493507,-3.7633144228875635
1745781937309187600,8.0231875,-0.47295828825533387,0.06259995629787445,-3.766450967347622
1745781937319160600,8.03316064453125,-0.3239911311030388,0.5918251984372734,-3.7922073398947713
1745781937329133800,8.0431337890625,-0.16003215652406214,1.2515616113230585,-3.905207111608982
1745781937339107800,8.05310791015625,-0.0713058298894437,1.6323276458323002,-4.09615053922534
1745781937349080600,8.06308056640625,-0.007542670464515686,1.7963742986947298,-4.3014205983579155
1745781937359053600,8.073053466796875,-0.027313538861274717,1.8412720095634458,-4.548305693426728
1745781937369026600,8.083026611328124,-0.0006745473938528448,1.867421180820465,-4.721974161115289
1745781937379000600,8.09300048828125,0.030806641674041745,1.7947519581899045,-4.989680510416627
1745781937388973800,8.102973876953126,0.10784315613601356,1.4985799773827195,-5.1716193783223625
1745781937398946800,8.11294677734375,0.14251812714338302,1.327496265490353,-5.052520120689272
1745781937408919600,8.12291943359375,0.011881064995005726,1.1591297036021948,-4.759079610672593
1745781937418893600,8.1328935546875,-0.2561317199070006,0.9097221043184399,-4.543308031269908
1745781937428866600,8.142866455078124,-0.5045511118710041,0.4898989016622305,-4.544278337606787
1745781937438839600,8.152839599609376,-0.6544646099627017,0.34317572404444213,-4.295464904823899
1745781937448812800,8.162812744140625,-0.5243104359604418,0.910137991642952,-3.79155676703155
1745781937458785500,8.17278564453125,0.004365209472179413,1.9785165802180766,-3.000312865838408
1745781937468759600,8.182759521484375,0.6914180838286876,3.4442975730657577,-2.0219921493291855
1745781937478732500,8.192732666015624,1.1797428680419921,5.004215231725573,-1.1697972280889748
1745781937488705500,8.20270556640625,1.4728747505009174,6.079948274716735,-0.9328279623568058
1745781937498678800,8.2126787109375,1.53413498262763,6.566862607610226,-0.9432762911349535
1745781937508652800,8.22265283203125,1.2277251009225845,6.420209572619199,-1.3798960225522516
1745781937518625800,8.232625732421875,0.6861490573845803,5.890998651266098,-2.047970640194416
1745781937528598500,8.2425986328125,0.32596089680604634,6.3543269413888455,-1.578917542684078
1745781937538571500,8.252571533203126,0.3878117152370512,8.533850078076124,0.10116554153561591
1745781937548545500,8.262545654296876,0.6056101242922246,10.920838738113641,1.125316865849495
1745781937558518500,8.2725185546875,0.3259714912652969,12.06358721575737,0.569522473475337
1745781937568491800,8.28249169921875,-0.621542145178467,11.836065577328204,-0.8343278406381607
1745781937578464800,8.29246484375,-1.8398048596203327,10.664987661778927,-2.101625073492527
1745781937588438800,8.302438720703124,-2.854882066118717,8.961965015998482,-2.7837083427429197
1745781937598411500,8.31241162109375,-3.390631449329853,7.077275889512896,-2.9286984129577873
1745781937608384500,8.322384521484375,-3.4153625704824924,5.273168366217613,-2.543642280039191
1745781937618357800,8.332357666015625,-2.8910569568276405,3.7427065191447735,-1.5592507191836833
1745781937628331800,8.342331787109375,-1.9863725544154642,2.4481787495374676,-0.3618517829418182
1745781937638304800,8.3523046875,-1.0739818884748964,1.4743489147067068,0.960929436725378
1745781937648277800,8.36227783203125,-0.22222006142232567,0.6487532465785741,1.9930840347528456
1745781937658250500,8.37225048828125,0.47982115976214407,-0.17979717970192433,2.507445762020349
1745781937668224500,8.382224609375,0.9815291571617126,-0.9501210424631833,2.658842192146182
1745781937678197500,8.392197509765625,1.2701356711506844,-1.5495739592999218,2.4848364553272724
1745781937688170800,8.402170654296874,1.5328665701270103,-1.914915337923169,2.056437439766526
1745781937698143700,8.412143798828126,1.815551877373457,-2.2508324691414834,1.393696584367752
1745781937708117800,8.42211767578125,2.0712556541919707,-2.6076409972190855,0.8511316759228705
1745781937718090800,8.4320908203125,2.204653486290574,-2.935896215507388,0.68128656591475
1745781937728063700,8.442063720703125,2.2757126433759924,-3.2892344371259212,0.701277799063921
1745781937738037000,8.452037109375,2.2031460043370723,-3.6398178070783613,0.8988409370809793
1745781937748010800,8.4620107421875,1.9680378563016652,-3.8538293910712,1.2955910149246455
1745781937757983700,8.471983642578126,1.6598866838872433,-3.954024041748047,1.7531629334777592
1745781937767956700,8.481956787109375,1.2180950297247617,-3.988563440209627,2.3428698245868085
1745781937777929700,8.4919296875,0.752557246858999,-3.917648660030961,2.962048893895745
1745781937787903700,8.50190380859375,0.3553752804040909,-3.7744764528930186,3.402621454592049
1745781937797876700,8.511876708984374,0.040693281448818744,-3.615582360488176,3.5371696257695553
1745781937807850000,8.52185009765625,-0.1171610195795074,-3.4638761337608095,3.3874972429573535
1745781937817822700,8.53182275390625,-0.06171849728822708,-3.468245434886217,3.3574504797399043
1745781937827796700,8.541796630859375,0.06849602859914303,-3.471315343850851,3.540458438181877
1745781937837769700,8.551769775390625,0.19677987868487834,-3.5411902595877645,3.858846050189435
1745781937847742700,8.56174267578125,0.3233709899106994,-3.6488252893984314,4.214411300207674
1745781937857716000,8.571716064453126,0.33462712794039395,-3.7077041793465613,4.816628713321686
1745781937867689700,8.581689697265626,0.26526776051018386,-3.5400977881759403,5.52949933502376
1745781937877662700,8.591662841796875,0.10844525021500885,-3.239569950246811,6.426185724419355
1745781937887635700,8.6016357421875,-0.10216624301075934,-2.5886054573595523,7.475241188365221
1745781937897608700,8.611608642578124,-0.21760292301569134,-1.7535913880228995,8.444185004720092
1745781937907582700,8.621582763671874,-0.297908595341444,-1.2161994983017443,9.006683863168954
1745781937917555700,8.6315556640625,-0.30195060074124486,-0.8694535145550966,9.464106728640198
1745781937927529000,8.641529052734375,-0.12608257718179375,-0.42196869025230405,9.985366398727892
1745781937937501700,8.651501708984375,0.06189093124568462,0.17249708582162857,10.370033240067958
1745781937947475700,8.661475830078125,0.15321021981583907,0.6303016440868378,10.468077434712647
1745781937957448700,8.67144873046875,0.07971709531545638,0.7942500972718,10.294400783717633
1745781937967421700,8.681421630859376,-0.1797106704622507,0.9987141007184982,10.122425091421604
1745781937977395000,8.69139501953125,-0.3430336852252483,1.7944535597652196,10.37446625407934
1745781937987368700,8.70136865234375,-0.34807810913324355,3.0942841119557616,10.753448035520314
1745781937997342000,8.711342041015625,-0.43108021746873854,4.426462105521559,10.872581779944896
1745781938007314700,8.721314697265624,-0.697111327034235,5.476189185118675,10.578437505573033
1745781938017287700,8.73128759765625,-1.0654150625944137,6.0111032865494485,9.754404264456033
1745781938027261700,8.74126171875,-1.4736533336579798,6.012399756100773,8.618221136677265
1745781938037234700,8.751234619140625,-1.734088230651617,5.552500271382928,7.354087336289882
1745781938047208000,8.7612080078125,-1.7826736901223659,4.752324291193485,6.094848322206735
1745781938057181000,8.771180908203124,-1.8187351835846899,4.002386798378825,5.2273471107631915
1745781938067155000,8.781155029296874,-1.9198691609382628,3.3616642980426548,4.609774892129003
1745781938077127700,8.791127685546876,-1.9962322696506976,2.8717133739322422,4.036224770572781
1745781938087100700,8.8011005859375,-2.2316239108026026,2.4899697265625,3.4310224964290854
1745781938097074000,8.811073974609375,-2.5292554427683354,2.179863912948966,2.7431939615249634
1745781938107047700,8.821047607421875,-2.718943317365646,1.8553572335392237,1.836851855033636
1745781938117021000,8.83102099609375,-2.7785470144569873,1.4777876569837332,0.8273457266658544
1745781938126993700,8.84099365234375,-2.6763667429208753,1.1841712058782576,-0.06697860977351665
1745781938136966700,8.850966552734375,-2.348831071078777,0.8948767096251249,-0.8883534453362226
1745781938146940700,8.860940673828125,-1.8937223277688024,0.658091568288207,-1.6053572213202714
1745781938156913700,8.87091357421875,-1.4286743742465973,0.40844694537818427,-2.2779490241259337
1745781938166887000,8.880886962890624,-0.9758329913467169,0.19889000270664692,-2.86502176733911
1745781938176860000,8.89085986328125,-0.628020255151391,0.08825462203621864,-3.362096259719133
1745781938186834000,8.900833984375,-0.3539560247233137,-0.03693243107795715,-3.818478676226735
1745781938196806700,8.910806640625,-0.13009407784547655,-0.11208616400063037,-4.132352317941189
1745781938206779600,8.920779541015625,0.06741700119078159,-0.1481529181599617,-4.371035401853919
1745781938216752600,8.930752685546874,0.23133389019370076,-0.10732698677480221,-4.588844624564051
1745781938226726700,8.9407265625,0.3324632644373923,0.016108254235982895,-4.656739180138707
1745781938236700000,8.950699951171876,0.40724173430688676,0.33089901079535483,-4.629165529036522
1745781938246673000,8.9606728515625,0.47283268911428744,0.49998950304388995,-4.7418829766780135
1745781938256645600,8.970645751953125,0.5660521670162677,0.5778735377132892,-4.905475456032157
1745781938266619600,8.98061962890625,0.7010895830154419,0.7276017423659563,-4.948722477084398
1745781938276592600,8.990592529296874,0.848372075016424,0.9823772984236478,-4.919872814697027
1745781938286566000,9.00056591796875,1.0582440749865025,1.3104139055252075,-4.87585247118473
1745781938296539000,9.010538818359375,1.2654893066495656,1.6906617613792418,-4.855535659343004
1745781938306513000,9.020512939453125,1.3589678008139132,1.9386486802101135,-4.927558693024515
1745781938316486000,9.03048583984375,1.3671020074307918,2.1411501514121887,-4.966562085157633
1745781938326458600,9.040458740234374,1.3029016301989556,2.3912983399301764,-5.056932091912627
1745781938336431600,9.050431640625,1.0783990473300218,2.438963469685614,-5.225621017622947
1745781938346405600,9.060405517578126,0.6829355021655559,2.4317948932304976,-5.388931757426262
1745781938356379000,9.07037890625,0.18833061476945875,2.3558272135764358,-5.59093317015171
1745781938366352000,9.080351806640625,-0.3504033372104168,2.1853516967102884,-5.9341030489772555
1745781938376324900,9.090324951171874,-0.8412672845125198,1.9018936515256761,-6.31256051428318
1745781938386298600,9.100298583984374,-1.3126046935677527,1.4530401692181825,-6.701543465256691
1745781938396271600,9.110271728515626,-1.6624340302824974,1.1483972971856593,-6.911006299903988
1745781938406244900,9.120244873046875,-1.8553999036371707,1.2181617382854222,-6.891288038477301
1745781938416217900,9.1302177734375,-1.8966332467794418,1.770871608647704,-6.390681280317902
1745781938426192000,9.14019189453125,-1.7800690605819225,2.9477155403777955,-5.565757812362909
1745781938436164900,9.150164794921874,-1.435349614226818,4.439324801965058,-4.795049334198236
1745781938446137600,9.1601376953125,-1.0719582006275654,5.875416466730833,-4.323182932832837
1745781938456110600,9.170110595703125,-0.8167899189252406,6.974830245038866,-4.234214025047422
1745781938466084600,9.180084716796875,-0.6499451597768813,8.033122323885559,-3.9618870302081106
1745781938476057900,9.190057861328125,-0.468704868594557,9.03644011900723,-3.642925125443935
1745781938486030800,9.20003076171875,-0.38760939759798346,9.57898749179542,-3.5759868476808068
1745781938496003800,9.21000390625,-0.5246142412126064,10.066282932960986,-3.041497109141946
1745781938505977900,9.219977783203126,-0.667344988193363,10.978517020100355,-1.939520786869526
1745781938515950600,9.22995068359375,-0.6982675843972712,11.587550250709056,-1.3239724752783775
1745781938525923800,9.239923828125,-0.6287012962181121,11.546202341276407,-1.4153461061179637
1745781938535896800,9.249896728515624,-0.6450454781018197,10.948230602908135,-1.6041344015270471
1745781938545870800,9.259870849609374,-0.964956938675791,10.107112955999375,-1.611986284071207
1745781938555843800,9.26984375,-1.3835539605379104,9.196658153492212,-1.4749690924316643
1745781938565816800,9.27981689453125,-1.62958623816967,8.290382097974419,-1.336627374190092
1745781938575789600,9.28978955078125,-1.6465665990650653,7.498155615484714,-1.035738301733136
1745781938585763600,9.299763671875,-1.3345873927950858,6.884093743059038,-0.47390112206339835
1745781938595736800,9.30973681640625,-0.8912204521398991,6.293701500034332,0.15460896243155
1745781938605709800,9.319709716796876,-0.4313466863851994,5.518637749269605,0.6491682571202516
1745781938615682800,9.329682861328125,0.1413385985026136,4.6107980976969,1.1554863786637783
1745781938625656800,9.33965673828125,0.750678082048893,3.476533370760083,1.6338281135231256
1745781938635629800,9.3496298828125,1.287900460422039,2.1524720481544732,2.05076056317389
1745781938645602800,9.359602783203124,1.794723024356365,0.7421943313419819,2.4314281057447196
1745781938655575800,9.369575927734376,2.238611285471916,-0.5401584318250418,2.7546646190881727
1745781938665549800,9.3795498046875,2.480001290255785,-1.6268039139747619,3.0361726992487905
1745781938675522800,9.389522705078125,2.6113953813165423,-2.5787504182994363,3.132468004399538
1745781938685495800,9.399495849609375,2.6212948440402744,-3.3991046786427495,3.081299542698264
1745781938695468500,9.409468505859374,2.566395379117131,-3.9486213059216735,2.9706501335024833
1745781938705442600,9.419442626953124,2.4561931291669605,-4.181019610476493,2.806121250081062
1745781938715414800,9.429414794921875,2.2455308556020257,-4.304967477184534,2.4901664181783794
1745781938725387800,9.4393876953125,1.9657932922452688,-4.35544211140275,2.218351464514434
1745781938735360800,9.44936083984375,1.6123948648720978,-4.275283117538691,2.02663705252558
1745781938745334800,9.459334716796874,1.2182751355320214,-4.009970385375619,1.9631261188626288
1745781938755307800,9.469307861328126,0.8583662302862852,-3.753838738533854,1.8835840878531336
1745781938765280800,9.47928076171875,0.5844358919035643,-3.6206969270229337,1.8490519959151743
1745781938775253800,9.489253662109375,0.28568675408475097,-3.4640035595327614,2.0841206887230275
1745781938785227800,9.499227783203125,-0.028486089771986006,-3.4229771371394393,2.4719310887858272
1745781938795200800,9.50920068359375,-0.17491992905437945,-3.622615327864885,2.829255165170133
1745781938805173800,9.519173828125,-0.037356282513216134,-3.64524743091166,3.190347946438193
1745781938815147800,9.529147705078126,0.2906540941685438,-3.469798509547114,3.471654658807814
1745781938825120800,9.539120849609375,0.5232528897315264,-3.347346434354782,3.5796696278467772
1745781938835093800,9.54909375,0.4435124135404825,-3.4553228249490258,3.6401387095957993
1745781938845066800,9.559066650390625,0.1707967481771484,-3.5657670669615267,3.5444384477287527
1745781938855040800,9.569040771484374,0.012859518105722964,-3.8223587325304744,3.4584511861026286
1745781938865013800,9.579013671875,0.11744392817411571,-3.8239229131072756,4.191420008459687
1745781938874987000,9.588987060546875,0.6959691712617874,-3.2271324934780594,5.5060565001159905
1745781938884959700,9.598959716796875,1.5536527530461548,-1.8896616542011497,7.401917593479156
1745781938894933800,9.608933837890625,2.152090355360508,-0.04006196127533913,9.770268773064016
1745781938904906800,9.61890673828125,2.1181068372160197,1.4858178187042475,11.703270387297868
1745781938914879700,9.628879638671876,1.4275181899487972,2.071029444220662,12.57370297601819
1745781938924852700,9.638852783203125,0.5357195725947618,2.9251608864814043,13.547324721056222
1745781938934826800,9.64882666015625,-0.3081833211183548,3.9621336984455584,14.445787472474574
1745781938944799700,9.6587998046875,-1.1849720008671283,4.423317377755046,14.561343942934274
1745781938954772700,9.668772705078124,-2.0869068123102186,4.321953098776937,14.12443604222536
1745781938964745700,9.678745849609374,-2.9211469746649263,4.138174740484357,13.753158259290457
1745781938974719700,9.6887197265625,-3.731144676166773,4.15763873488903,13.828373367011546
1745781938984692700,9.698692626953125,-4.41786320400238,4.21957701240778,13.758291530525684
1745781938994666000,9.708666015625,-4.918786773025989,4.236848465204239,13.364900115460157
1745781939004638700,9.718638671875,-5.108661694628,4.4112253734230995,12.593555677479506
1745781939014612700,9.72861279296875,-4.977620070266723,4.834239773336052,11.459642832720279
1745781939024585700,9.738585693359376,-4.55732895783782,5.335421116513014,9.9425700440526
1745781939034558700,9.748558837890625,-3.9750539702951904,5.691219006243347,8.123198900651932
1745781939044531700,9.75853173828125,-3.3373581243038175,5.795113680481911,6.207403857284784
1745781939054505700,9.768505615234375,-2.7073627696871756,5.527091104838251,4.306590402211248
1745781939064479000,9.77847900390625,-2.215834951648861,4.808768062949181,2.7163930483609438
1745781939074451700,9.78845166015625,-2.0128607483685017,3.7783214378833767,1.4413991235241292
1745781939084424700,9.7984248046875,-1.9817033935606478,2.571201902616024,0.49746436848044395
1745781939094398700,9.808398681640625,-2.0034335793316362,1.4628244811296462,-0.01590659418404102
1745781939104371700,9.818371826171875,-2.132408334290981,0.5902548803806305,-0.26500030521303414
1745781939114345000,9.828344970703125,-2.2904069391608237,-0.08071721226871013,-0.5996484394088387
1745781939124318700,9.838318603515624,-2.4099486798644065,-0.6111164666235447,-0.9791752875119447
1745781939134292000,9.8482919921875,-2.4435972669661044,-0.9675953243553638,-1.5043798958331345
1745781939144264700,9.8582646484375,-2.353658052843809,-1.1335463495343923,-2.198830479225516
1745781939154237700,9.86823779296875,-2.087250511181354,-1.1672200710773468,-2.817406614205241
1745781939164211700,9.878211669921875,-1.6805670683443545,-1.0418868874907492,-3.452047748801112
1745781939174184700,9.888184814453124,-1.1683622268497944,-0.8639578397482633,-3.9679970375210045
1745781939184158000,9.898157958984376,-0.6666331866621971,-0.8058908507049083,-4.478759278991818
1745781939194130700,9.908130615234375,-0.13123214196469635,-0.7790840923219918,-5.055712194728851
1745781939204104700,9.918104736328125,0.3020283421525731,-0.6532248390346765,-5.634679372897744
1745781939214077700,9.92807763671875,0.5880629598269239,-0.650517918163538,-6.205707574760914
1745781939224050700,9.93805078125,0.6961427742630243,-0.5459194795697927,-6.50894584069252
1745781939234024000,9.94802392578125,0.6244634394526482,-0.27958967931866646,-6.502403871703147
1745781939243997700,9.957997802734376,0.48003158764243126,0.36441666499376296,-6.19760025615096
1745781939253971000,9.967970947265625,0.4630915587574243,1.2115782682418823,-6.103461836773157
1745781939263943700,9.977943603515625,0.6928091728609055,1.8893173708081243,-6.271468625438213
1745781939273916700,9.987916748046874,0.9049579586565494,2.7320161494284867,-6.542376401129364
1745781939283890700,9.997890625,0.8460651132483035,3.0336890657395124,-7.272508538755774
1745781939293863700,10.00786376953125,0.6160475663501769,2.8734494039446115,-7.954075675177574
1745781939303837000,10.0178369140625,0.32842706772387026,2.8266970051199194,-8.26300250813961
1745781939313810000,10.027809814453125,-0.2532960946222767,2.904714895302057,-8.2388138233006
1745781939323784000,10.037783935546875,-0.6854629748165607,3.473495025977492,-7.52492671803236
1745781939333756700,10.047756591796874,-0.9486720126986503,4.290836075979471,-6.841378636926412
1745781939343729700,10.057729736328126,-0.7769774754315614,5.070699335980415,-6.567418487927317
1745781939353702700,10.06770263671875,-0.705738870126009,5.947995380729436,-6.156662681084871
1745781939363676700,10.0776767578125,-0.7770283288359642,7.078351994311809,-5.632350637689233
1745781939373650000,10.08764990234375,-0.8323661851763725,8.106253026548028,-5.564732560968399
1745781939383623000,10.097622802734374,-0.9427952296197414,8.949711683624983,-5.781222517773509
1745781939393595600,10.107595703125,-0.9767056094627827,9.64334802802503,-6.082245445743203
1745781939403569700,10.117569580078126,-0.894395721175149,10.60795001578331,-6.141010353922844
1745781939413542700,10.127542724609375,-0.8285293834924697,11.635428438693284,-6.070900460386276
1745781939423516000,10.137515869140625,-1.0069114356994628,12.213358090507983,-5.967575694990158
1745781939433490000,10.147489990234375,-1.44882985804677,12.007697570753097,-6.104647247165441
1745781939443463000,10.157462890625,-2.07498724193573,11.392997984945774,-6.394996805429458
1745781939453435600,10.167435546875,-2.815571799993515,10.368497116541862,-6.803493435168266
1745781939463408600,10.17740869140625,-3.6081180159568786,9.296202815827726,-6.666653353661299
1745781939473382700,10.187382568359375,-4.137874880754947,8.326464634224772,-5.9207321107506745
1745781939483355600,10.197355712890625,-4.072795382601022,7.648186602476239,-4.8365264229685065
1745781939493329000,10.207328857421874,-3.4061025747060776,7.567832378301024,-3.422670263147354
1745781939503302000,10.217302001953126,-2.3638252265930175,7.538051572543382,-2.1925877854436635
1745781939513276000,10.22727587890625,-1.3678572097122668,7.290970078119635,-1.202613456019759
1745781939523248600,10.23724853515625,-0.5390216828800738,6.7046168813526625,-0.42060207807421685
1745781939533221600,10.2472216796875,0.12860409501604736,5.761877181312442,0.022066285857558248
1745781939543195000,10.25719482421875,0.6515503299511969,4.519862858274578,0.3768716574192047
1745781939553169000,10.2671689453125,1.0717631164468824,3.321789968293905,0.8540309044957161
1745781939563142000,10.277141845703126,1.4496142864227295,2.117779504957795,1.3833219053477048
1745781939573115000,10.287114990234375,1.8406442330539226,1.056509287083149,1.899361210438609
1745781939583087600,10.297087646484375,2.4000597385346887,0.13492401875257493,2.220292953971028
1745781939593061600,10.3070615234375,2.9880653786838054,-0.5622551128208637,2.413023265004158
1745781939603034600,10.31703466796875,3.4515304469287393,-0.9310527693778275,2.5103765547752377
1745781939613008000,10.3270078125,3.8143981289148328,-1.3891168553620576,2.3537819714844224
1745781939622980900,10.33698095703125,4.060633235642314,-1.815801468220353,2.344525482839346
1745781939632955000,10.346954833984375,4.1894788112640375,-2.0518091954439877,2.4272402986660597
1745781939642927900,10.356927978515625,4.162341798013449,-2.1465929269880055,2.5239172966107724
1745781939652900600,10.366900634765624,3.9825528016179796,-2.203289796721935,2.5790339114159346
1745781939662873900,10.376873779296876,3.889196472528577,-2.2007471265017986,2.6360598669737576
1745781939672848000,10.386847900390626,3.835978092560172,-2.1288450888514516,2.7191552065506577
1745781939682820900,10.39682080078125,3.798049051660299,-2.012699420326948,2.6919255465805527
1745781939692793900,10.4067939453125,3.769482882389426,-1.7776906410127877,2.4507845481216908
1745781939702766600,10.4167666015625,3.975063907167315,-1.518721140396595,2.1077949942991134
1745781939712740900,10.426740966796874,4.467633489343524,-1.3618874876528977,2.1559829788848757
1745781939722713900,10.4367138671875,4.707710073441267,-1.3549702556103467,2.6810455483868716
1745781939732687000,10.44668701171875,4.4594794089823955,-1.7139736633837221,3.4820845751464367
1745781939742659800,10.456659912109375,3.7547722199916835,-2.2841969786047933,4.4251969078913325
1745781939752633900,10.4666337890625,2.7794097687661647,-2.9904858838289976,5.296279192692041
1745781939762606800,10.47660693359375,1.6776292613267898,-3.465457265472412,6.148930625528097
1745781939772579800,10.486579833984376,0.6696200935184955,-3.4518706386685367,6.875591872173548
1745781939782552800,10.496552734375,-0.012787037391401827,-2.9274983895182607,7.381345930093526
1745781939792526800,10.50652685546875,-0.2945488000521436,-2.0154829135656356,7.62074972949624
1745781939802500000,10.5165,-0.07902268331050873,-0.6759978118568658,7.943609226220846
1745781939812472800,10.526472900390624,0.48405777441859243,0.976416344192624,8.497295832660793
1745781939822445800,10.53644580078125,1.0435596430085599,2.5095506253451108,8.947769901907444
1745781939832419800,10.546419921875,1.368838037443161,3.562331247293949,9.366477544537187
1745781939842392800,10.556392822265625,1.2572212445199489,3.9662154148012396,9.92444285120964
1745781939852366000,10.566365966796875,0.7935095080375671,3.4808950731009243,10.27239704170227
1745781939862338800,10.5763388671875,0.3445382445693016,2.5626070927500724,10.359829825961588
1745781939872312800,10.586312744140624,-0.0365641822874546,1.659625987124443,10.15053708718419
1745781939882285800,10.596285888671876,-0.511295398499444,0.6601625293433666,9.618042906376719
1745781939892258800,10.6062587890625,-0.9802748462516814,0.05669219355881214,9.205275175189971
1745781939902231800,10.616231689453125,-1.2457236989498137,0.4245744888365268,9.224237065291405
1745781939912205800,10.626205810546875,-1.167042376422882,1.950952865988016,9.569470890909432
1745781939922179000,10.636178955078124,-0.8905180029589682,4.054457177355885,9.7418580866158
1745781939932151800,10.64615185546875,-0.631156068959087,6.042321431633829,9.202156166386604
1745781939942124800,10.656124755859375,-0.43408707113452255,7.2895099424391985,7.82763423808813
1745781939952097800,10.666097900390625,-0.20608385973349214,7.536043155330419,5.925917988955974
1745781939962071800,10.67607177734375,-0.1681668015323579,6.887195216205716,4.004897904416919
1745781939972045000,10.686045166015624,-0.40617242457494135,5.729161491146684,2.604551506771147
1745781939982018000,10.69601806640625,-0.8746412924565374,4.497847425821424,1.768576191186905
1745781939991990800,10.70599072265625,-1.529637817338854,3.229690945789218,1.2597133535966276
1745781940001964800,10.71596484375,-2.1874260187663137,2.0612334418714044,0.917383432726562
1745781940011937800,10.725937744140625,-2.8592320780217646,1.1300807192504405,0.7493652458846569
1745781940021910800,10.735910888671874,-3.4484675522267816,0.3847533505797386,0.4231038317620754
1745781940031884000,10.745884033203126,-3.7830607413649555,-0.27625498193800446,0.17746698318868875
1745781940041858000,10.755858154296876,-3.8505706815361975,-0.7199819150120019,0.1848170536905527
1745781940051831000,10.7658310546875,-3.59787602340579,-1.0420733499735593,0.17843582822084425
1745781940061803800,10.7758037109375,-3.0654104841709136,-1.2231652456611395,0.0781388862133026
1745781940071776800,10.78577685546875,-2.4670494542241097,-1.1836007125139236,-0.2844569930940866
1745781940081750800,10.795750732421874,-2.0080489641726014,-1.1933645661592482,-0.7835656216502189
1745781940091724000,10.80572412109375,-1.7219605704843997,-1.1378279723763465,-1.143241229596734
1745781940101697000,10.815697021484375,-1.5336743793785572,-0.9763345111280679,-1.4124942238181828
1745781940111670000,10.825669921875,-1.4161001393556594,-0.7692699697941541,-1.6218261255621909
1745781940121643800,10.835643798828125,-1.3887643886625767,-0.48614276399910444,-1.7629951761841773
1745781940131616800,10.84561669921875,-1.414683258295059,-0.18794249223470685,-1.9206237786978482
1745781940141589800,10.85558984375,-1.3521394160985947,0.06727087071835994,-2.187269805291295
1745781940151563000,10.86556298828125,-1.2028700611293315,0.2925251487374306,-2.4467583613455295
1745781940161537000,10.875537109375,-1.1030302152395248,0.45345279279649253,-2.726883462715149
1745781940171510000,10.885510009765625,-1.0790753391563892,0.49859132668375966,-3.187826903527975
1745781940181482800,10.895482666015624,-1.1494997054696083,0.3344692704975605,-3.55529827991724
1745781940191455700,10.905455810546876,-1.259035600465536,0.15144786805212496,-3.8146903898596762
1745781940201429800,10.9154296875,-1.3164134382009505,0.08552081315815448,-4.087508967608213
1745781940211403000,10.925403076171875,-1.3131681726694107,-0.04303951578140258,-4.329967478406429
1745781940221376000,10.9353759765625,-1.3316320501208305,-0.19824702862799168,-4.518787922519445
1745781940231349000,10.945348876953124,-1.3406757727980614,-0.28963702608048914,-4.613139107865095
1745781940241321700,10.95532177734375,-1.3043863157987594,-0.23529636408388613,-4.572952643427253
1745781940251295700,10.965295654296876,-1.2999158923864365,-0.020360650983452796,-4.485775879755616
1745781940261268700,10.975268798828125,-1.28485860850811,0.24253157603442668,-4.410357358416915
1745781940271242000,10.985241943359375,-1.2456477111041546,0.4753618422657251,-4.301433457839488
1745781940281215000,10.995215087890625,-1.2456219921410083,0.6573124006092548,-4.189997282180189
1745781940291189000,11.00518896484375,-1.3560323318839071,0.7624585362136364,-4.142379206436872
1745781940301162000,11.015161865234376,-1.4314192890405655,0.7947054398238659,-4.1834670036286115
1745781940311134700,11.025134765625,-1.4964181231737137,0.7823433863788842,-4.253662821882963
1745781940321108000,11.03510791015625,-1.4521511114239691,0.7143027003318071,-4.440844851139188
1745781940331082000,11.04508203125,-1.3432605285942554,0.6102426063984632,-4.744772268378735
1745781940341055000,11.055054931640624,-1.2279027955770492,0.5532283412784338,-5.05183389199078
1745781940351028000,11.065028076171876,-1.1367290712237357,0.4668798451244831,-5.434073798444866
1745781940361001000,11.0750009765625,-1.0632943441133946,0.3468868535220623,-5.8108647918432945
1745781940370975000,11.08497509765625,-1.1014308902841061,0.14998071810901165,-6.1461857107341284
1745781940380947700,11.09494775390625,-1.248168169492483,-0.057252750051021574,-6.343870429304242
1745781940390921000,11.1049208984375,-1.4861176784336565,-0.005133855757117271,-6.272078281769156
1745781940400894000,11.11489404296875,-1.629392176902294,0.346790407410264,-5.874868185198307
1745781940410868000,11.124867919921876,-1.4503355864346026,1.067421141719818,-4.9678866117596625
1745781940420841000,11.134841064453125,-0.9003589404284954,2.1756202840298413,-3.6247739672034975
1745781940430813700,11.144813720703125,-0.1047650273323059,3.5946395257025956,-2.329918280816078
1745781940440787000,11.154786865234374,0.8540203100364655,5.509811468735337,-0.9489689498186111
1745781940450760000,11.164760009765626,1.747716796901077,7.502311566120386,-0.04797229600846767
1745781940460734000,11.17473388671875,2.4004069445371625,8.521693191814423,-0.4691133032649755
1745781940470707000,11.18470703125,2.410878069669008,8.626784966883063,-1.713614182421565
1745781940480680000,11.194679931640625,1.719580397349596,8.253088432368635,-2.7651930273652074
1745781940490652700,11.204652587890624,0.5573568193852901,8.06100343350172,-2.6538117967635393
1745781940500626700,11.214626708984374,-0.6976618005238473,8.097958660933374,-1.5308172363817691
1745781940510600000,11.224599853515626,-1.5856420286335051,7.804051702448725,-0.39273441246151924
1745781940520573000,11.234572998046875,-1.9009573935888706,7.084328730633854,0.6691583212256431
1745781940530546000,11.2445458984375,-1.871436553941667,6.168687465399503,1.6913322079867124
1745781940540520000,11.25452001953125,-1.5774363642156124,5.248474654465913,2.478427172806859
1745781940550493000,11.264492919921874,-1.0768049830716102,4.525695802211761,2.9331559768885374
1745781940560466000,11.2744658203125,-0.4409318224627524,4.113234360495209,3.177212570533156
1745781940570439000,11.28443896484375,0.3087443890672177,4.0484547220706935,3.353119757059216
1745781940580413000,11.294412841796875,1.0031354242920876,3.9587259358286855,3.264112855350971
1745781940590386000,11.304385986328125,1.5208499691188335,3.489676345449686,3.0102883164077996
1745781940600359000,11.31435888671875,1.7871943824172019,2.8600433944046495,2.7278146060854196
1745781940610332000,11.324331787109376,1.7089806774020193,2.180190076163411,2.5304116270661354
1745781940620305000,11.334304931640625,1.3859598526358603,1.4606974059730766,2.334395718491077
1745781940630279000,11.34427880859375,0.9234522312462329,0.8621428992807865,2.2555098133027554
1745781940640252000,11.354251953125,0.4625052833020687,0.38212826277315615,2.3052450273305176
1745781940650225000,11.364224853515625,0.07056929120924324,-0.09194938490092754,2.2619708260104057
1745781940660198000,11.374197998046874,-0.21908702409360556,-0.5885036527991294,2.1779680161997677
1745781940670172000,11.384171875,-0.363107335960865,-1.0858820965617895,2.0579627496376633
1745781940680145000,11.394144775390625,-0.36928222520351406,-1.5572586685836314,1.8924322879582642
1745781940690118000,11.404117919921875,-0.22712061988022178,-1.9880530548483133,1.7255588872373102
1745781940700091000,11.4140908203125,0.016558336091041563,-2.2627035241991282,1.6991572025239468
1745781940710065000,11.42406494140625,0.2903004584252834,-2.371127074038982,1.7681275706365704
1745781940720037600,11.43403759765625,0.508022002851963,-2.3850381104916334,1.7847686165750025
1745781940730010600,11.4440107421875,0.6940858417332172,-2.266704576534033,1.7877210366398095
1745781940739984000,11.45398388671875,0.7875947310358286,-2.055941765204072,1.8501938594266771
1745781940749958000,11.4639580078125,0.785885589030385,-1.938306150382757,1.9003548976510762
1745781940759931000,11.473930908203124,0.7765010900914668,-1.8234674728035927,2.083875774051249
1745781940769903600,11.483903564453126,0.7917512661933899,-1.7294529720664022,2.3297329873770476
1745781940779876600,11.493876708984375,0.9357412194550037,-1.7644658332586287,2.570052440319955
1745781940789850600,11.5038505859375,1.2037842533648013,-1.7941268120288847,2.839844363723695
1745781940799824000,11.513823974609375,1.4677946707576512,-1.812744418737292,3.1885321291878816
1745781940809796900,11.523796875,1.6239263127118349,-1.8298539589703082,3.5988200262576338
1745781940819769900,11.533769775390626,1.7373393414020537,-1.8766005125761032,3.9923452968358992
1745781940829743900,11.543743896484376,1.8026783672749995,-1.9010399573057888,4.290132603885233
1745781940839716600,11.553716552734375,1.8268956936866043,-1.8745535169184206,4.546308089868724
1745781940849689600,11.563689697265625,1.7863801434248685,-1.8449521593809126,4.7705631277173755
1745781940859662800,11.573662841796875,1.7236323030889034,-1.8287503816425799,4.955590609288215
1745781940869635800,11.5836357421875,1.6748954524487256,-1.704320868897438,5.176972429788112
1745781940879609900,11.59360986328125,1.5703887837916612,-1.5350392379909752,5.294399954816699
1745781940889582800,11.603582763671875,1.4139865082025527,-1.3534902461856604,5.251863712382316
1745781940899555600,11.6135556640625,1.1960276478886605,-1.3525877443879841,5.019384159284829
1745781940909528800,11.62352880859375,0.9350953227669,-1.4349322655975818,4.79571335106492
1745781940919502800,11.6335029296875,0.659050184187293,-1.5125211167126893,4.662115320219099
1745781940929475800,11.643475830078126,0.394279340348579,-1.5798574538826942,4.543299847963452
1745781940939448800,11.65344873046875,0.1340799691438675,-1.6407476836532353,4.463521085588634
1745781940949421800,11.663421875,-0.07624558327998966,-1.634008146265149,4.401574040241539
1745781940959395800,11.673395751953125,-0.22227498821364713,-1.4685755920022725,4.407760619921982
1745781940969368600,11.68336865234375,-0.3507809383511543,-1.2334785498827696,4.342007460290193
1745781940979341800,11.693341796875,-0.4959235687792301,-0.9135948540985583,4.24079924865663
1745781940989314800,11.703314697265625,-0.594535918700695,-0.609922288402915,4.1328649436384435
1745781940999288800,11.713288818359375,-0.7053723749011754,-0.3437748589813709,3.946871831905842
1745781941009261800,11.72326171875,-0.7867816610872745,-0.16845044077932833,3.74738474008888
1745781941019234600,11.733234619140624,-0.8620201496839522,-0.06802081230282783,3.5957448565959926
1745781941029207800,11.743207763671874,-0.9086305096894502,-0.0457446830868721,3.4556519107729193
1745781941039180800,11.753180908203126,-0.9224223036766052,-0.16420038211941718,3.3189082753777503
1745781941049154800,11.76315478515625,-0.9216612561762333,-0.34334523539245126,3.20822087225914
1745781941059127800,11.7731279296875,-0.8001017459094524,-0.43196869074106214,3.2233784016415474
1745781941069100800,11.783100830078125,-0.648673167079687,-0.4113385751664638,3.2817832443371415
1745781941079073800,11.79307373046875,-0.5297954432427883,-0.33693595287203787,3.3401948090344664
1745781941089047600,11.803047607421876,-0.4684031091690063,-0.15356559085845947,3.412030211189389
1745781941099020800,11.813020751953125,-0.45277182479500766,0.17940028933882712,3.519266304810345
1745781941108993800,11.822993896484375,-0.4787900631487369,0.6131219612270593,3.5439842742204664
1745781941118966800,11.832966796875,-0.5921241813838481,1.0511737712740898,3.554830662405491
1745781941128940800,11.84294091796875,-0.8459528119802474,1.4799001190930603,3.4833167472898956
1745781941138913800,11.852913818359376,-1.1794774951040745,1.7575287274718283,3.2970866119310256
1745781941148886800,11.86288671875,-1.4949766921937464,1.9281325468927621,3.1095293196216223
1745781941158859800,11.87285986328125,-1.8392156615555286,2.0630904679149387,2.9012229615330694
1745781941168833800,11.882833740234375,-2.1863398309648034,2.1068115362197157,2.6792405447915195
1745781941178806800,11.892806884765625,-2.5848937433600425,2.1102637225002048,2.4526091332003475
1745781941188779800,11.90277978515625,-2.9676620576024053,2.037861918634176,2.1844196765571833
1745781941198752800,11.912752685546875,-3.3545793082177635,1.955098879751563,1.8853087196886538
1745781941208726800,11.922726806640625,-3.7016461944818495,2.1012924805372952,1.6983692670166493
1745781941218699800,11.93269970703125,-4.170051641738414,2.2651047401219606,1.469938112527132
1745781941228672800,11.9426728515625,-4.753554125249385,2.0987264294415713,0.9508569555222988
1745781941238645800,11.952645751953124,-5.243826536399125,1.7862211534708736,0.36428573209047316
1745781941248619800,11.962619873046876,-5.574833099222183,1.5350702176511286,-0.14591478384435175
1745781941258592800,11.9725927734375,-5.7718356807470315,1.3880384124755858,-0.5480740272551775
1745781941268566000,11.98256591796875,-5.882360586780309,1.104143144917488,-1.106800965949893
1745781941278538800,11.992538818359375,-5.952643498796224,0.7328852357268333,-1.7373446020990608
1745781941288512800,12.0025126953125,-6.0823079895853995,0.7984896345376968,-1.9539315895378588
1745781941298485800,12.01248583984375,-6.4582829904258245,1.413448748064041,-1.6495260333925486
1745781941308458800,12.022458740234375,-7.0328510568529365,2.566768304082751,-0.8551403270423412
1745781941318431700,12.032431640625,-7.609052277439832,3.34470205732584,-0.4384463623225689
1745781941328404700,12.04240478515625,-7.762462969997525,2.7268185807853937,-1.0456915404707192
1745781941338378800,12.052378662109374,-7.413564776653051,1.6965613408118485,-1.8250135332018136
1745781941348351700,12.062351806640624,-6.733394063025712,0.9885206234842538,-2.3839017999380827
1745781941358324700,12.07232470703125,-6.128060855978727,0.6235895792275666,-2.7445266714334484
1745781941368297700,12.082297607421875,-5.817957964974641,0.3428688500523567,-2.943544684433937
1745781941378271700,12.092271728515625,-5.797506713098287,0.1858148325562477,-2.96547126955986
1745781941388245000,12.102244873046875,-5.987373451393842,0.19296587335467338,-2.8535002563714977
1745781941398217700,12.1122177734375,-6.13424626661539,0.21577976270914076,-2.7571552668601274
1745781941408190700,12.122190673828126,-6.090543903011083,0.1504886676311493,-2.8300708654671904
1745781941418164700,12.132164794921875,-5.8319373904883856,0.051229836499691005,-2.811279071235657
1745781941428137700,12.1421376953125,-5.408979689198732,-0.03025193040072918,-2.6793004582852125
1745781941438110700,12.15211083984375,-4.877352938875556,-0.10297814391553402,-2.4987404775172473
1745781941448084000,12.162083984375,-4.311248164889216,-0.02789163101017475,-2.33795253418982
1745781941458058000,12.17205810546875,-3.770656310082972,0.25585282990038394,-2.1930653398275375
1745781941468030700,12.18203076171875,-3.363081179103255,0.7317378192573786,-2.027291424781084
1745781941478003700,12.192003662109375,-3.122925976811349,1.2946627941638231,-1.868883070066571
1745781941487976700,12.201976806640625,-3.023125878410041,1.8448492835283279,-1.744203966474533
1745781941497950700,12.21195068359375,-2.9845585396066308,2.276553185853362,-1.7255097873985767
1745781941507924000,12.221924072265624,-2.9074913742780684,2.6073095733076332,-1.7716665584176778
1745781941517897000,12.23189697265625,-2.7547034897938367,2.89355695694983,-1.7653806100159883
1745781941527869700,12.24186962890625,-2.5607217173948884,3.15208397449553,-1.6013398023724554
1745781941537843700,12.25184375,-2.378205634123087,3.4537831942915913,-1.243134851500392
1745781941547816700,12.261816650390625,-2.240318381650746,3.6976901503324506,-0.9719400755614042
1745781941557789700,12.271789794921874,-2.1543241057619453,3.6316187185317275,-0.9044418258279562
1745781941567763000,12.281762939453126,-2.1825731719076633,3.421961238095164,-0.8740461030423641
1745781941577737000,12.291737060546875,-2.2971309867188334,3.1777514997154475,-0.8985743950992822
1745781941587709700,12.301709716796875,-2.304338580010086,2.975315202704072,-0.9290817615658045
1745781941597682700,12.3116826171875,-2.075467718929052,2.9492987179160117,-0.8321826453030109
1745781941607655700,12.32165576171875,-1.6359345842830835,3.1841011610031127,-0.6400204895466566
1745781941617629000,12.33162890625,-1.0575279626064003,3.493879642358422,-0.4042506627321243
1745781941627602700,12.341602783203125,-0.548790212700516,3.7045366552263497,-0.20044366188943386
1745781941637576000,12.351575927734375,-0.11449117931574583,3.8405367787778375,-0.18469898026883602
1745781941647548700,12.361548583984375,0.1848211453437805,3.978146675613522,-0.4036439290106296
1745781941657521700,12.371521728515624,0.264707752007246,3.9712943255007263,-0.784145467364788
1745781941667495700,12.38149560546875,0.12767843153849243,3.6190339622467755,-1.4344050268530846
1745781941677468700,12.39146875,-0.1672119850255549,2.857097988602519,-2.2001877390533684
1745781941687442000,12.40144189453125,-0.4740602581478655,2.0296452944308516,-2.8123125059366223
1745781941697415000,12.411414794921875,-0.5887585043430328,1.351950615528226,-3.159178316670656
1745781941707389000,12.421388916015625,-0.5481295568346977,0.8135042483180761,-3.0884488299310204
1745781941717362200,12.431362060546874,-0.4285283410288393,0.33207448431551456,-2.777332962492108
1745781941727335200,12.441335205078126,-0.22256489280462263,-0.06705576666295528,-2.333717673099041
1745781941737308200,12.45130810546875,0.0007834054626524448,-0.33406887300312516,-1.7996417760580776
1745781941747282200,12.4612822265625,0.2526255384169519,-0.3899164324313402,-1.3001999700248241
1745781941757255200,12.471255126953125,0.5712040698867291,-0.3270353211045265,-0.7934381963670253
1745781941767228200,12.481228271484374,0.9283761705797166,-0.12317980494499206,-0.15444704986810684
1745781941777201200,12.491201171875,1.2861609232783318,0.1368944420427084,0.5354354949563741
1745781941787175200,12.501175048828125,1.5484955164134502,0.3450906177550554,1.1124380950540305
1745781941797148200,12.511148193359375,1.7575252203404903,0.42208734819591043,1.4532804077148436
1745781941807121200,12.52112109375,2.002536922752857,0.5204010074317454,1.7309662992388009
1745781941817094100,12.53109423828125,2.3068530470490454,0.642608167952299,2.0086907692074774
1745781941827068200,12.541068115234374,2.6180197678923607,0.6484633237212896,2.156327554538846
1745781941837041200,12.551041259765626,2.7369138583421706,0.40821781279742714,2.0163895070165396
1745781941847014100,12.56101416015625,2.8120179069042206,0.03553717732727527,1.9392507377564905
1745781941856987100,12.570987060546875,2.8487773195028305,-0.46639410743415355,1.8596224897682665
1745781941866961200,12.580961181640625,2.842526442414522,-0.9302741862207651,1.7193027494519948
1745781941876934400,12.590934326171874,2.8184651833474637,-1.2516232783824204,1.6757628829330204
1745781941886907100,12.6009072265625,2.8043817129373547,-1.2954904771596192,1.6322563341617584
