time,seconds_elapsed,z,y,x
1745781848357506000,0.045506103515625,-0.38115912548005576,-0.22484452817440032,-0.6348699749156832
1745781848367479000,0.05547900390625,-0.1374427235752344,-0.21598639119714497,-0.8662257846802472
1745781848377452000,0.0654521484375,0.4095125287830829,-0.3738587393388152,-0.6075744831677525
1745781848387425300,0.07542529296875,0.8927426202058791,-0.5419786329895258,-0.2216525637326762
1745781848397399300,0.0853994140625,0.7500093890070915,-0.48178486105054613,0.0605264379594475
1745781848407372000,0.0953720703125,0.3073842796951532,-0.26030571765601634,0.06032265901565551
1745781848417345000,0.105344970703125,0.13402034791111944,-0.02702799991816282,-0.14401326107196508
1745781848427318000,0.115318115234375,0.16775252164304255,0.08508008365333079,-0.14952113777324558
1745781848437291300,0.125291259765625,0.23730828842818735,0.10211275925785303,-0.04259790949374437
1745781848447264300,0.13526416015625,0.18992343691885472,0.12039835753291844,0.22149551000744103
1745781848457237000,0.145237060546875,0.26376784080862997,0.14589870949238537,0.5732018926404416
1745781848467210000,0.1552099609375,0.3548760987102985,0.22190730567872524,0.8060494022674858
1745781848477183000,0.165182861328125,0.7704781765401363,0.24470453615933654,0.8862173831555992
1745781848487156200,0.17515625,1.316595224508643,0.1255827744334936,0.7581780824154615
1745781848497130200,0.185130126953125,0.6769365540117025,0.09355565105378627,0.656931584598124
1745781848507103200,0.195103271484375,0.7790753244936466,0.017461130149662493,0.5924569204695522
1745781848517076000,0.205075927734375,0.5621510679244994,-0.028612931022047997,0.5021222772888839
1745781848527049000,0.215049072265625,0.42456162935495373,-0.03922960210442543,0.4564473715025931
1745781848537022200,0.225022216796875,0.22164953152537345,-0.10607347958236932,0.5055615310225635
1745781848546995200,0.2349951171875,-0.16037293278574943,-0.16786182723641394,0.4464493437752127
1745781848556968200,0.24496826171875,-0.4969914902716875,-0.14437018475085497,0.3823853062741458
1745781848566941000,0.25494091796875,-0.8774860143631696,-0.19571108040958643,0.4448018688291311
1745781848576914200,0.2649140625,-0.561238044732809,-0.22595979593992233,0.5257581505507231
1745781848586887200,0.27488720703125,0.040457098072767254,-0.15303893663585186,0.38584012290313835
1745781848596860200,0.284860107421875,0.535663458493352,-0.022523674236238002,0.41135552630126476
1745781848606834200,0.294834228515625,0.5651964269697666,0.016753566402196884,0.4885615886438638
1745781848616807000,0.304806884765625,-0.06504267327487469,0.2527756144121289,0.006790171596780419
1745781848626779600,0.314779541015625,-0.9812591080486774,0.5212517790421843,-0.31073432077541946
1745781848636752600,0.324752685546875,-1.8930045348882674,0.6092933428496122,-0.07609612833932042
1745781848646725600,0.3347255859375,-2.0561235515117646,0.39759266614764927,0.2093863353449851
1745781848656698600,0.34469873046875,-1.484162452712655,-0.0020940496698021887,0.389523341460526
1745781848666671600,0.354671630859375,-0.6647492726117372,-0.4859972180485725,0.6684683662001043
1745781848676644600,0.36464453125,0.15893383989334106,-0.8793781117200851,0.682307871786505
1745781848686617600,0.37461767578125,0.5219049822539091,-1.0126961565807462,0.10277063864469528
1745781848696591600,0.384591552734375,0.515230326795578,-0.7596703667998314,-0.6291793620586394
1745781848706564600,0.394564697265625,0.05043780933916568,-0.48586394705772395,-1.0772248889841138
1745781848716537600,0.40453759765625,-0.748937960383296,-0.299829626531899,-1.1630394243918358
1745781848726510600,0.414510498046875,-1.4677584304004907,0.08176029158085585,-1.0343792883396148
1745781848736483600,0.424483642578125,-1.6669933010220526,0.4684083698660135,-0.8972432195607573
1745781848746456600,0.43445654296875,-1.155069030034542,0.5952309152275324,-0.8565062816333026
1745781848756429600,0.4444296875,-0.4603571653574705,0.5425897506251931,-0.9210853559844195
1745781848766402600,0.454402587890625,0.16573650564551354,0.3931938466668129,-0.9071549572441726
1745781848776375600,0.46437548828125,0.6360112539052963,0.28588848720192905,-0.9087943950142711
1745781848786348500,0.4743486328125,0.784789025965333,0.37876346251517534,-1.3003876015514135
1745781848796322600,0.484322509765625,0.5942302137523889,0.44041883143931626,-1.4256506425112485
1745781848806295600,0.494295654296875,-0.03445522730946541,0.30715076320022344,-1.1395475627105682
1745781848816268800,0.504268798828125,-0.4922808283627033,0.18973989704549313,-0.9974250107560306
1745781848826241500,0.514241455078125,-0.4710135839283466,0.2315966327831149,-1.1264259961351752
1745781848836214500,0.524214599609375,-0.4241197308063507,0.34679625262916086,-1.193581423780322
1745781848846187500,0.5341875,-0.3370043419331312,0.3961564958646893,-1.2340583955973385
1745781848856160800,0.544160888671875,-0.04973112237453461,0.3206391903266311,-1.2034667849134653
1745781848866133800,0.5541337890625,0.3583189326405525,0.13573328930884598,-1.1054941211350262
1745781848876106500,0.5641064453125,0.6949047569006681,0.01030219830572605,-0.9732416596792638
1745781848886080500,0.57408056640625,0.9245476252675056,-0.045804888841509815,-0.7433165403049439
1745781848896053500,0.584053466796875,0.8498913204729557,-0.11718991688042879,-0.4290027901401743
1745781848906026500,0.594026611328125,0.6575362724930047,-0.07835369800776243,-0.28762711103018374
1745781848915999700,0.603999755859375,0.580369446182251,0.07682166613489388,-0.4433924038900062
1745781848925972700,0.61397265625,0.5409060353219509,0.2584706111833453,-0.5217375532651319
1745781848935945500,0.623945556640625,0.7134931375145912,0.2778942735776305,-0.6258747675552964
1745781848945918500,0.63391845703125,0.7612848162591457,0.21365707146674393,-0.5837505765205249
1745781848955891700,0.6438916015625,0.6772253078252076,0.14139175346195698,-0.5122227059448138
1745781848965864700,0.65386474609375,0.7341787826687097,0.03366436919271946,-0.49101131988354024
1745781848975838700,0.663838623046875,0.7764163344174623,-0.07098872219771146,-0.48621929983403533
1745781848985811700,0.673811767578125,0.8543898009359836,-0.20207213987410066,-0.4071622027972713
1745781848995784400,0.683784423828125,0.9667010058641433,-0.3563444176971912,-0.3145897175619379
1745781849005757700,0.6937578125,1.0350012196302414,-0.42864071536213155,-0.40458847985174506
1745781849015730700,0.703730712890625,0.9941916548579931,-0.4866328856036067,-0.5527393521850928
1745781849025703700,0.71370361328125,0.8395148878872394,-0.6153656485006213,-0.6131596628889441
1745781849035676700,0.7236767578125,0.7207084757208824,-0.7646174678131937,-0.5151526584494859
1745781849045649400,0.7336494140625,0.7179401800513268,-0.9270099237278103,-0.3652786886505782
1745781849055622700,0.74362255859375,0.6599848346889019,-0.995432010307908,-0.1848076648076996
1745781849065596700,0.7535966796875,0.5414630846828222,-0.9137743023186922,-0.1905626481378451
1745781849075569700,0.763569580078125,0.4698550615429878,-0.7810629911795258,-0.30706845521163195
1745781849085542700,0.773542724609375,0.3004553572148084,-0.6607517274081707,-0.3599308248165995
1745781849095515400,0.783515380859375,0.06153904906809329,-0.5331619970664382,-0.44572629019767046
1745781849105488600,0.793488525390625,-0.23442834907770155,-0.45052316908538337,-0.5453991454901174
1745781849115461600,0.803461669921875,-0.5421674335598945,-0.451670877815783,-0.6192576875030994
1745781849125434600,0.8134345703125,-0.7522802565485238,-0.4741656182184815,-0.5461515347599983
1745781849135407600,0.82340771484375,-0.7735925091683864,-0.5201455713659524,-0.27186679344903675
1745781849145380600,0.833380615234375,-0.4296913934588432,-0.5255664273709059,-0.0625888503819704
1745781849155354600,0.843354736328125,0.15947043098807334,-0.5358320930585265,0.06344433470014482
1745781849165327600,0.85332763671875,0.8299082706302404,-0.5570230573862791,-0.03836129483729601
1745781849175300600,0.863300537109375,1.3071405829429625,-0.4928013451054692,-0.2251746003789827
1745781849185273600,0.873273681640625,0.9985592024177312,-0.42082974935024975,-0.2280707236792892
1745781849195246600,0.88324658203125,0.2431798108100891,-0.31525282111316916,-0.1735410419166088
1745781849205219600,0.893219482421875,-0.33723288999199863,-0.22411095320284366,-0.024251849735714495
1745781849215192600,0.903192626953125,-0.7540373293489218,-0.18504355592280625,0.098388843363896
1745781849225165600,0.91316552734375,-0.7847738283962011,-0.10705547635704278,0.1334496353510767
1745781849235139600,0.9231396484375,-0.3568348315626383,0.011740998937189578,0.0891212488029152
1745781849245112600,0.933112548828125,0.00486029951274395,0.18643354897648096,-0.023499423933215437
1745781849255085800,0.9430859375,0.26155191832482816,0.31612288194596766,-0.17600487474687396
1745781849265058600,0.95305859375,0.6353741250455379,0.29632658684700725,-0.31832554308939726
1745781849275031600,0.963031494140625,1.6009592786222695,-0.14883096355199812,-0.3249005375655368
1745781849285004500,0.973004638671875,1.6434183641672133,-0.4970066878408193,0.04086933213546872
1745781849294977800,0.982977783203125,0.6830623434156179,-0.4631289681583643,0.5980353051237761
1745781849304950800,0.99295068359375,-0.681667089664936,-0.24223785378485915,0.9156260676652193
1745781849314923500,1.002923583984375,-1.4766115989416837,0.20466829384714363,0.9358617040295153
1745781849324897500,1.0128974609375,-1.9987907219618557,0.7886322573900222,0.7716057192653417
1745781849334870500,1.02287060546875,-2.5879239048361775,1.2461474773198364,0.4088986346684396
1745781849344843500,1.032843505859375,-2.8870307700514792,1.4506731478258967,0.08858663046956061
1745781849354816800,1.042816650390625,-2.5188538757413625,1.3907225369930267,0.19408852070905266
1745781849364789500,1.05278955078125,-1.6514117010086773,1.1280793163001537,0.6778826026901602
1745781849374762500,1.062762451171875,-0.7893079646944999,0.7147825928032397,1.123431198233366
1745781849384735500,1.072735595703125,0.2191249814838171,0.43731765055358407,1.185846299483627
1745781849394708700,1.082708740234375,1.1416472384035588,0.3172951405957341,0.806257053668797
1745781849404681700,1.092681640625,1.7192103949934243,0.18540391366779804,0.3491852666575461
1745781849414655700,1.10265576171875,1.619393929979205,0.08022650614231824,0.12677804863266645
1745781849424628500,1.11262841796875,0.923541663095355,0.03882540521770716,0.12263612652234733
1745781849434601500,1.1226015625,0.4725485384106636,0.11552081462442874,0.3069033643104136
1745781849444574700,1.13257470703125,0.41341655048429965,0.17355886983424423,0.3720158148858696
1745781849454547700,1.142547607421875,0.3684194708943367,0.24835604440420864,0.30774631794057783
1745781849464520700,1.152520751953125,0.10080781413912772,0.32133652494102716,0.2168262760873884
1745781849474493400,1.162493408203125,-0.3866963013410568,0.33841567003577944,-0.11977847206890582
1745781849484466400,1.172466552734375,-0.8990145400822163,0.43489860671311614,-0.49948235723935064
1745781849494440400,1.1824404296875,-1.246571840211749,0.4013330217197537,-0.672430620894581
1745781849504413700,1.19241357421875,-1.443228969299793,0.35925825931727884,-0.6558348754025995
1745781849514386700,1.20238671875,-1.3880296446472407,0.4977303259402513,-0.5893268788155168
1745781849524359700,1.212359619140625,-1.0652473048120736,0.49041941840499637,-0.6366179145615547
1745781849534332400,1.22233251953125,-0.5727046106427908,0.40462767935097216,-0.6983912838421762
1745781849544305700,1.2323056640625,0.004381576085090637,0.1911886345490813,-0.6037375353533774
1745781849554278700,1.242278564453125,0.31807927671074865,-0.044100423011183734,-0.4596557390898466
1745781849564251600,1.252251708984375,0.41932782035470006,-0.0669721800327301,-0.6328450449593365
1745781849574224600,1.262224609375,1.2319050169557333,0.15779548351317643,-1.0092101410958916
1745781849584198700,1.27219873046875,2.3764210887938737,-0.3550745438918471,-0.26403241002894934
1745781849594171600,1.282171630859375,2.670067350515723,-0.5930801669344306,1.0052709019508212
1745781849604144600,1.29214453125,2.266830833262205,-0.6314101898506284,2.7412159394502638
1745781849614117600,1.30211767578125,2.4343396092772482,0.8018599877536297,2.538921681258082
1745781849624090600,1.312090576171875,2.963742253810167,0.38444384623914957,0.7623973075456917
1745781849634064400,1.322064453125,2.564863931766152,-0.12410276500880718,0.34852029994279143
1745781849644037400,1.332037353515625,2.5418729322791096,-0.7664806313365697,1.1234406236488372
1745781849654010600,1.3420107421875,2.8924270761370656,-0.7566559874147176,0.9447139227226375
1745781849663983600,1.351983642578125,2.596541511055827,0.27886253408789635,-1.6182690176025032
1745781849673957600,1.36195751953125,2.8374007699638604,0.8703937180146575,-2.6298350011095404
1745781849683930400,1.371930419921875,3.198117995917797,2.098959945936501,-1.5939730729967354
1745781849693903400,1.3819033203125,3.059500967866182,3.236839063978195,-1.6330376937977968
1745781849703876600,1.391876708984375,1.5398247187018395,1.5548726502299308,-1.7861413662329315
1745781849713849600,1.401849609375,0.824390383991599,-0.0662532181084156,-1.4127527286238968
1745781849723822600,1.411822509765625,-0.5748796165943145,-0.7652858685940503,-2.2477155061647296
1745781849733795300,1.42179541015625,-2.6463591426700352,0.03731646195948124,-1.4241349772512912
1745781849743768600,1.4317685546875,-2.900847113958001,0.6856269332066178,-0.11211970094405115
1745781849753741600,1.441741455078125,-1.759564032691717,1.3327479024082423,0.07320289111584424
1745781849763715600,1.451715576171875,-0.3730184891223907,1.389197811643779,-0.2849474434921518
1745781849773688600,1.4616884765625,0.9788485397756099,0.510580747424066,-0.6759282537519932
1745781849783661300,1.471661376953125,2.2488053472280503,-0.9779325939744711,-1.194989829273522
1745781849793634300,1.48163427734375,2.99400645917058,-1.3781024171337484,-1.6879975106060503
1745781849803607600,1.491607666015625,3.284585150015354,-0.8879489561885595,-1.2065690617777407
1745781849813580500,1.50158056640625,2.9954613341540095,-0.28362025000900026,-0.251547387791425
1745781849823553500,1.511553466796875,2.6090268986195326,0.468204079465568,0.6469995347790419
1745781849833526300,1.5215263671875,2.7228034999251363,0.5397404986739158,1.746494853890687
1745781849843499500,1.53149951171875,3.3407559500485657,0.05050035318136215,2.3547820884376764
1745781849853472500,1.541472412109375,3.55690162346065,-0.5580398332133889,1.6726359830841422
1745781849863446500,1.551446533203125,1.8577075960576532,-1.0979393218412994,0.10853577804267406
1745781849873419500,1.56141943359375,1.8353367742955684,-1.2245426714941858,-0.3953832830024883
1745781849883392500,1.571392578125,0.9900357042223215,-0.8677613236844539,-0.5014780611012131
1745781849893365500,1.581365478515625,-0.13607494235336778,0.017641455152630804,0.34384120221585035
1745781849903338500,1.59133837890625,-0.62309858084023,0.08475508948266505,1.6614632855542004
1745781849913311500,1.6013115234375,-0.0063005614489316936,-0.09210720581114291,1.978610980503261
1745781849923284500,1.611284423828125,0.9461047925591468,-0.3415726727619767,1.7254805613040922
1745781849933257500,1.621257568359375,1.5563041443377732,-0.8125450478971004,1.5878668650761245
1745781849943230500,1.63123046875,1.76099435775578,-1.0510039676651357,1.0220550096217542
1745781849953204500,1.64120458984375,1.0144628739923238,-0.923360753570497,0.5546816818919033
1745781849963177500,1.651177490234375,-0.5581640441149472,-0.8617512696146965,0.6120535282779485
1745781849973150500,1.661150390625,-2.6815847698301076,-0.9600058921396731,0.7039046404361724
1745781849983123500,1.67112353515625,-3.818696702891588,-0.5461471508458257,0.6533977113835513
1745781849993096700,1.6810966796875,-4.295008977749943,0.2916337528556585,0.16900880531445145
1745781850003069400,1.6910693359375,-4.6883419406265014,0.8723819692224264,-0.555483572859317
1745781850013042400,1.70104248046875,-4.600692298746108,0.8906433098390698,-0.6482216239199042
1745781850023015400,1.711015380859375,-4.390505241477489,0.7256529463857412,0.008999737405031918
1745781850032988700,1.72098876953125,-3.9260546693265437,0.7714324085250497,0.8598129950284957
1745781850042961400,1.73096142578125,-3.4105741671621796,0.9126198715865611,0.8702366277568042
1745781850052935400,1.740935302734375,-3.1128052725523707,0.931930428995192,0.1528502821959555
1745781850062908400,1.750908447265625,-2.984041529995203,0.7739914453580975,-0.10677169097959995
1745781850072881400,1.76088134765625,-3.032263416850567,0.5934890399962663,-0.16024419183954597
1745781850082854400,1.7708544921875,-2.7992630547493693,0.5981780745953321,-0.3133635002352297
1745781850092827600,1.78082763671875,-2.614371182256937,0.19188100072741507,-0.30499680003672835
1745781850102800400,1.79080029296875,-2.542953128731251,-0.49908057150542734,-0.1856615416906774
1745781850112773400,1.8007734375,-2.5409371127337215,-1.4108447030454874,0.16894348499327896
1745781850122746400,1.810746337890625,-2.4027947164565324,-1.5135706257656216,0.2732984702199697
1745781850132719600,1.8207197265625,-1.6497984205931424,-1.2371101843833923,0.14091887525320052
1745781850142692600,1.830692626953125,-0.9012117578655481,-0.9826344880551099,-0.3790085233174264
1745781850152666600,1.84066650390625,-0.41429041070938105,-0.8966410889491438,-0.7693414275951683
1745781850162639400,1.850639404296875,0.16097557485401628,-0.9179273303449154,-0.9353526585288345
1745781850172612400,1.8606123046875,0.533878328642249,-0.8327151447445154,-0.8766036785706878
1745781850182585600,1.870585693359375,0.7056897702872753,-0.6354026204876602,-0.7111578264348208
1745781850192558600,1.88055859375,0.94826226285398,-0.5957809503257274,-0.7237059039711952
1745781850202531600,1.890531494140625,1.274727675116062,-0.6031086628653108,-0.9067682229489088
1745781850212504300,1.90050439453125,1.3023416582286358,-0.45750192205682394,-0.6877854264147579
1745781850222477300,1.910477294921875,1.1645137347280978,-0.3553554066598415,-0.32929055268540974
1745781850232450600,1.920450439453125,1.3198568566530942,-0.36400749967098234,-0.3347898807540536
1745781850242423600,1.930423583984375,1.9527607921928167,-0.24532222966626285,-0.31832521429583427
1745781850252396500,1.940396484375,2.884201684105396,-0.11355594429224729,-0.312648629964143
1745781850262370600,1.95037060546875,4.020919064891338,-0.3063714493907988,-0.03855447932183742
1745781850272343300,1.96034326171875,5.545939597693085,-0.5268552981376647,0.684546736754477
1745781850282316500,1.970316650390625,5.889622686737775,-0.1945044810988009,0.7206641981877386
1745781850292289500,1.98028955078125,6.109265554615855,0.5115032690964639,0.5554407566308975
1745781850302262500,1.990262451171875,6.525556199231743,0.5524684628218413,0.3869100902222097
1745781850312235500,2.000235595703125,6.624329877194762,0.24588541650697587,0.11636340292841195
1745781850322208500,2.01020849609375,6.162604930615425,-0.14033990632146595,-0.7255733052782714
1745781850332181500,2.020181396484375,5.189057419857383,0.045351884377002716,-1.1130144336372614
1745781850342154500,2.030154541015625,3.5542081465929742,0.9738143450006842,-1.1174068964425474
1745781850352127500,2.04012744140625,1.7615929081708193,1.6539900270640848,-1.4904188827589153
1745781850362101500,2.0501015625,-0.0867138223350048,1.3491986864715815,-1.616353100978583
1745781850372074200,2.06007421875,-1.1606278332054614,0.6741518917292356,-1.0847589377507567
1745781850382047500,2.070047607421875,-1.0242343264222145,0.30481355242431163,-0.07256225512474775
1745781850392020500,2.0800205078125,-0.9553303015440702,0.13951806854456664,0.3197438489221036
1745781850401993500,2.089993408203125,-0.9545534719526767,0.3420890978515148,-0.4101762533888221
1745781850411966500,2.099966552734375,-0.7008341469496489,0.5838431136421859,-1.5180807966664434
1745781850421939500,2.109939453125,-0.49963002208173274,0.673401365622878,-2.5327652044549582
1745781850431912400,2.119912353515625,-0.016071429356932638,0.500379379144311,-3.0666321349203587
1745781850441885400,2.129885498046875,0.502072739058733,0.2120000980399549,-2.860897380885482
1745781850451858400,2.1398583984375,0.6558247924000025,0.01849851037338376,-2.195287399791181
1745781850461831700,2.149831787109375,0.4589093046367168,-0.2647776023730635,-1.7882526592984795
1745781850471804400,2.159804443359375,0.17500351568460462,-0.6445112250946462,-1.5938313264384865
1745781850481778400,2.1697783203125,-0.19531097517609594,-0.7742593025140464,-1.2724547617480158
1745781850491751400,2.17975146484375,-0.5019231014549732,-0.8531820325814187,-0.9668411449871956
1745781850501724400,2.189724365234375,-0.6766179895818233,-0.7543516559951007,-0.7110464750148355
1745781850511697400,2.199697509765625,-0.9289876535415649,-0.21728052266091108,-0.6626914632990956
1745781850521670700,2.209670654296875,-1.9211597852706908,0.33176074219122526,1.7418574033483862
1745781850531643400,2.219643310546875,-2.04130475256443,-0.543664101858437,0.6626520080715418
1745781850541616400,2.229616455078125,-3.183818836930394,0.3415964920289814,2.3603208717338737
1745781850551589400,2.23958935546875,-3.1519635629862544,-0.5717914413206279,3.1553061514124274
1745781850561562600,2.249562744140625,-3.2588468976467846,0.10027443791478871,1.9192979369215666
1745781850571535600,2.25953564453125,-3.1586388029664754,0.812049665595591,0.8758310136977583
1745781850581509600,2.269509521484375,-3.9482770225286483,0.5939015663199126,0.45457967793457205
1745781850591482400,2.279482421875,-3.671038290250301,1.082176373911649,0.14860606875494123
1745781850601455400,2.289455322265625,-3.1095366261452435,1.1629654823727904,0.19973025292307137
1745781850611428600,2.2994287109375,-2.418193945640325,1.345421652150899,0.019393997908383608
1745781850621401600,2.309401611328125,-2.2593735029935837,1.3103415709413588,-0.07827420303076506
1745781850631373800,2.319373779296875,-2.38150058401525,0.9229515882477164,-0.20817630196809767
1745781850641346800,2.329346923828125,-2.510821960455179,0.47095177073851224,-0.17502865012586116
1745781850651320000,2.339320068359375,-2.391308861324191,-0.03908960911184549,0.1318305827818811
1745781850661293000,2.34929296875,-1.6364146228849887,-0.5374209696851671,0.31318186005800963
1745781850671266000,2.35926611328125,-0.734469290047884,-0.8162485785901546,0.10220029141083359
1745781850681238800,2.36923876953125,-0.14071779972314835,-1.0957014797866345,-0.06112783791869878
1745781850691212000,2.3792119140625,0.5549462511122226,-1.3519265040002761,-0.04212188947983086
1745781850701186000,2.38918603515625,1.766742546018958,-1.2546294744610786,-0.20177114763353018
1745781850711159000,2.399158935546875,2.5172984629929065,-0.9200842161178588,-0.5718061274331062
1745781850721132000,2.409132080078125,2.3896236847162244,-0.5745062532372772,-1.2748308432295918
1745781850731105000,2.41910498046875,1.8966841001838444,-0.26201602870523927,-1.316737701719254
1745781850741078000,2.429078125,1.9276713591217993,0.07454334593936801,-0.9303908714029937
1745781850751051000,2.439051025390625,2.406769465306401,0.2775358155287802,-0.5399756956692785
1745781850761024000,2.44902392578125,3.351829132726788,0.34478052889257665,0.1349509067595005
1745781850770997000,2.4589970703125,4.048668072560429,0.2554996325485408,0.11356653875149786
1745781850780970000,2.468969970703125,5.038513807168603,0.5473087419711054,-0.20465207336470484
1745781850790943000,2.47894287109375,6.003197627991438,0.6242074188649654,-0.44728447942510247
1745781850800916000,2.488916015625,6.351601315817237,0.34512802715599533,-0.260906898419559
1745781850810889000,2.498888916015625,6.17736586189568,0.38639951035156844,0.23432854196503758
1745781850820863000,2.508863037109375,5.765839070680737,0.46801863989606496,0.367189929099381
1745781850830836000,2.5188359375,5.3109600444734095,0.6479043746642767,0.3090153880283236
1745781850840809000,2.52880908203125,4.621873618462682,0.714263829626143,0.5440818888790905
1745781850850782000,2.538781982421875,4.117663867375255,0.7600156731061637,0.876274885007739
1745781850860755000,2.5487548828125,4.239848816064,1.0173957125738262,1.027774044855684
1745781850870728000,2.55872802734375,4.668470534464717,0.9103577718734741,0.8941586244836449
1745781850880701200,2.568701171875,4.978835291275382,0.47231429126337166,0.2691412044100463
1745781850890674000,2.578673828125,5.0361868255257605,0.14352218961939214,-0.32263401740565895
1745781850900647000,2.58864697265625,4.820622166872024,0.10202128158211707,-0.3150280724465847
1745781850910620000,2.598619873046875,4.354859343078732,0.14553455235511065,0.044601796662062404
1745781850920593000,2.608593017578125,3.5322125878840684,0.13720613834038375,0.16838029815256594
1745781850930566100,2.618566162109375,2.3786989705979824,0.19363763513639567,0.316537161835283
1745781850940539000,2.628538818359375,1.0921984401017426,0.2828548185944557,0.4912244511775672
1745781850950513000,2.638512939453125,-0.1953606595367193,0.5121602717004716,0.19620748562440274
1745781850960486000,2.64848583984375,-0.6007675065666437,0.3796694714441895,0.115946492690593
1745781850970459000,2.658458984375,-0.6448351963520049,0.26129282899722456,0.626844343239814
1745781850980432100,2.66843212890625,-0.9249807559877633,0.3308415815196931,1.2343754987224935
1745781850990405000,2.678405029296875,-1.5174550659835337,0.3388486546255648,1.6924148886568844
1745781851000377900,2.6883779296875,-3.0549568946957586,0.628997575750947,2.6443407885849473
1745781851010350800,2.698350830078125,-5.3241299071699375,1.2500132128372787,3.307677856311202
1745781851020324000,2.708323974609375,-7.9420549825161695,1.7385319121874867,3.6748181010499597
1745781851030297000,2.718297119140625,-10.384723444199562,2.147778775771707,3.6735502730712293
1745781851040270000,2.72827001953125,-12.162796947050094,2.307778637461364,3.29234204775244
1745781851050242800,2.738242919921875,-12.975551253783703,2.324623389278352,2.784209570263326
1745781851060216000,2.748216064453125,-12.529208000731467,2.4113206988699734,2.2895604053340852
1745781851070190000,2.758190185546875,-11.222553740000723,1.8017387483373284,1.9918892720103263
1745781851080163000,2.7681630859375,-9.442199432736635,0.9986808560360223,1.7566576437257229
1745781851090136000,2.778135986328125,-7.4901915047377345,0.3948127896381542,1.1174559232160448
1745781851100108800,2.78810888671875,-5.467090517383814,-0.060412118264241144,0.0970075450733304
1745781851110081800,2.798081787109375,-3.437648052048683,-0.29649259106367826,-0.8789486342616378
1745781851120055000,2.808054931640625,-1.9127578676283359,-0.47754346062112596,-1.3775509207308292
1745781851130028000,2.818028076171875,-0.5146703548252582,-0.7695501019097865,-1.5843670402616261
1745781851140001000,2.8280009765625,1.0842302377015351,-0.8362922725789248,-1.7925740296289323
1745781851149973800,2.837973876953125,2.5878473324686286,-0.7343285664029419,-1.924115420205891
1745781851159947000,2.847947021484375,3.9513346565335987,-0.8649768075324594,-1.8089602240234612
1745781851169920000,2.857919921875,5.241383234900236,-0.9927512467913329,-1.461528888361156
1745781851179893000,2.86789306640625,6.474437421891093,-0.8985207652159035,-1.4242384376257657
1745781851189866000,2.877865966796875,7.466647547543048,-0.7924939012542367,-1.3661241023093462
1745781851199840000,2.887840087890625,7.978575910183787,-0.6347167571153491,-0.9977692210838198
1745781851209813000,2.89781298828125,7.105929737067222,-0.3942828474799171,-0.9360936861544847
1745781851219786000,2.907785888671875,5.076288534289598,-0.3171980368968099,-1.0632093692436815
1745781851229759000,2.917759033203125,2.7273189315229653,-0.13041944647547787,-1.0153189062997698
1745781851239732000,2.92773193359375,0.7320891169130802,-0.029138617130275813,-0.8285556869775056
1745781851249705000,2.937705078125,-0.5717892493635416,-0.10425777192991226,-0.5449819064587355
1745781851259678000,2.947677978515625,-0.8511959733307362,-0.17035948927104472,-0.20060557445287702
1745781851269651000,2.95765087890625,-0.46840077108144756,-0.37585714661441744,0.3022939708188176
1745781851279624000,2.9676240234375,0.018917466437816617,-0.47498694453872736,0.5569719117209315
1745781851289597000,2.977596923828125,0.07163140401542187,-0.3279114463519305,0.23652093744277952
1745781851299570200,2.987570068359375,-0.40856268071234225,-0.20489735336266457,-0.3633019817501306
1745781851309543000,2.99754296875,-1.2063427056759595,0.009906696182116866,-1.0038970563143492
1745781851319516000,3.007515869140625,-1.8786901783317327,0.19145948737971483,-1.3385104114577173
1745781851329490000,3.017489990234375,-2.217518228560686,0.24462840218320486,-1.4274787347212432
1745781851339463000,3.027462890625,-2.2281232092052696,0.2433944764740765,-1.3637827998802066
1745781851349436200,3.037436279296875,-1.8860574922293423,0.23593860751017925,-1.2340338456779718
1745781851359409200,3.0474091796875,-1.3169190496355294,0.20159305112026632,-1.0873900169067083
1745781851369382000,3.0573818359375,-0.6118722534269094,0.05863463286347687,-0.9412903780147432
1745781851379355000,3.06735498046875,0.049634676262736314,-0.2387749999798834,-0.6272630070433021
1745781851389328100,3.077328125,0.7882599169462918,-0.6074547292456031,-0.5072261762991547
1745781851399301000,3.087301025390625,1.7068378201544283,-0.935021161552146,-0.4494651844650507
1745781851409273900,3.09727392578125,2.753871422883868,-1.0886435240991412,-0.5622178495503962
1745781851419246800,3.107246826171875,3.5338591860473154,-0.9498833612497896,-0.9457660621240734
1745781851429219800,3.1172197265625,3.6661458420336244,-0.9090941086132078,-1.809184388168156
1745781851439193000,3.127193115234375,3.539059677299857,-0.8782067298531532,-2.3944448212623595
1745781851449166000,3.137166015625,3.6594220867365594,-0.4449424098109826,-2.340392328557372
1745781851459138800,3.147138916015625,3.935574777343869,-0.13002864792644978,-2.0348621522963044
1745781851469112800,3.15711279296875,4.7599452875912185,-0.023186357662361115,-1.9837553576543927
1745781851479085800,3.1670859375,6.306309637194872,0.80402271874547,-1.91554779060781
1745781851489059000,3.17705908203125,7.901243664178252,2.6425594581261276,-1.5860276669502258
1745781851499032000,3.187031982421875,8.856441863775252,4.347499043443799,-1.3603081095069647
1745781851509005000,3.197005126953125,9.18009923287928,5.596157626801729,-1.632217755717039
1745781851518977800,3.206977783203125,8.876504993116855,6.65381959105134,-2.199876773408055
1745781851528951000,3.216950927734375,7.954905111739039,7.510175723624229,-2.5300492234945295
1745781851538924000,3.226924072265625,7.025986431780457,8.028629104119538,-2.365903786432743
1745781851548897000,3.23689697265625,6.398533162862062,8.292013498568535,-1.5498790797263382
1745781851558870000,3.2468701171875,6.052212126529216,8.744395447263122,-0.4535147521167993
1745781851568843000,3.256843017578125,5.946072888234258,9.822057997012138,1.2999088781237602
1745781851578816000,3.26681591796875,5.575603499072789,11.26409804878831,2.4027397713989016
1745781851588789000,3.2767890625,4.792918751910329,12.132130590629577,3.4739340019166467
1745781851598762000,3.286761962890625,3.0928035180091857,12.212715116429328,4.252147156623006
1745781851608736000,3.296736083984375,1.3303624685764313,12.29805414327979,4.387631147345901
1745781851618709000,3.306708984375,-0.08777180695533753,11.983186229830979,3.897280410262942
1745781851628682000,3.316681884765625,-1.0590709542647003,11.42176347618103,3.319962752866745
1745781851638655200,3.3266552734375,-1.7834370757102964,10.475113909220696,2.8247821114093066
1745781851648628200,3.336628173828125,-2.2757170272901655,9.416725968784093,2.5463866103112696
1745781851658601200,3.346601318359375,-2.4479279896467925,8.5320094186455,2.477089202201366
1745781851668574200,3.35657421875,-2.720783976796269,7.877590985912084,2.9039304669260977
1745781851678547200,3.366547119140625,-3.2780256453692913,7.179544423854351,3.410902083942294
1745781851688520200,3.376520263671875,-4.009302276855707,6.24530834826529,3.5180548831939693
1745781851698493200,3.3864931640625,-4.745830837520956,5.335957123085856,3.5798727492034432
1745781851708466200,3.396466064453125,-5.225435139662027,4.480212984931469,3.7103111469745635
1745781851718439400,3.406439453125,-5.410666619372368,3.653995970034599,3.9803129137367006
1745781851728413400,3.416413330078125,-5.332804796534776,2.785500486856699,4.390474261817336
1745781851738386200,3.42638623046875,-5.025792857283354,1.9941198075413702,4.797164718917012
1745781851748359200,3.436359130859375,-4.730139347392321,1.3642074550330638,5.312646974647045
1745781851758332200,3.446332275390625,-4.636227722507715,0.6305699396342038,6.248361890617012
1745781851768305400,3.456305419921875,-4.850286652773619,-0.25232348673045635,7.61875300272107
1745781851778278100,3.466278076171875,-4.9870250274717804,-1.3714648788154125,9.012090106126665
1745781851788251100,3.476251220703125,-4.866240593230724,-2.5671985121935603,10.040489151012897
1745781851798224100,3.48622412109375,-4.606967725753784,-3.5396798550248145,10.565475148147344
1745781851808197400,3.496197265625,-4.407037858605385,-4.478024534976482,10.784856734740734
1745781851818170400,3.50617041015625,-4.350230514234304,-5.339668252563476,10.872525665843487
1745781851828143000,3.51614306640625,-4.304440238440036,-6.005424071869254,10.902075585454702
1745781851838116000,3.5261162109375,-4.277312577539682,-6.536879557278752,10.775802490669488
1745781851848089300,3.53608935546875,-4.36060694682002,-6.929533305719494,10.457613323843479
1745781851858062300,3.546062255859375,-4.687291554790735,-7.24646282787323,9.940082318890093
1745781851868036400,3.556036376953125,-5.09439468434453,-7.524398894765973,9.179012022164464
1745781851878009300,3.56600927734375,-5.418069004583359,-7.71843970387578,8.234442768609524
1745781851887982000,3.575982177734375,-5.629532657659054,-7.874656101503968,7.225658524775505
1745781851897955000,3.585955078125,-5.668563522320985,-7.923154467213154,6.279992708155512
1745781851907928300,3.59592822265625,-5.506674339753389,-7.766753360667824,5.441196197670698
1745781851917901300,3.6059013671875,-5.174220500731468,-7.171131984817981,4.957398535493016
1745781851927874300,3.615874267578125,-4.813483985555171,-5.748165466824173,5.10452211060524
1745781851937847000,3.625846923828125,-4.5792450215697285,-3.5576486424356695,5.68961098652482
1745781851947820300,3.6358203125,-4.68431750741601,-1.3189783202528953,6.075010233792662
1745781851957793300,3.645793212890625,-5.1439223931014535,0.04462415462434292,6.035448038733005
1745781851967766300,3.655766357421875,-5.68172227910161,0.5482528909534216,6.0129217341482635
1745781851977739300,3.6657392578125,-6.051898822796344,1.0632932481348514,6.712191700521111
1745781851987712300,3.675712158203125,-6.302350085914135,1.7996902913749218,8.353318154358863
1745781851997686300,3.685686279296875,-6.455078641426563,2.410768179553747,9.949227748376131
1745781852007659300,3.6956591796875,-6.631382133793831,2.8931916307687757,10.809513037091493
1745781852017632300,3.70563232421875,-6.859381911128759,3.7244922325402494,11.129024392431974
1745781852027605200,3.715605224609375,-7.156435935467481,5.059374224367738,10.816444297659396
1745781852037578200,3.725578125,-7.49006817061901,6.501275744456052,10.089344659596682
1745781852047551200,3.73555126953125,-7.7249781657338135,7.8436185736835,9.365826971673965
1745781852057524200,3.745524169921875,-7.975324214911461,8.306057221490144,8.559255737489462
1745781852067497200,3.755497314453125,-7.88354843301177,7.858755937060713,7.547164268803596
1745781852077470200,3.76547021484375,-7.298277186262607,7.187780337280034,6.906244200068712
1745781852087443200,3.775443115234375,-6.479184324157238,6.485983482778072,6.4825786427706475
1745781852097416200,3.785416259765625,-5.5411634693324565,5.513457131761312,6.16681056561172
1745781852107389200,3.79538916015625,-4.709126954501867,4.591944344145059,5.745099064990878
1745781852117363200,3.80536328125,-4.015921402734518,3.6296319286286827,4.754427985474467
1745781852127336200,3.815336181640625,-3.3216584508687257,2.91614171372354,3.589213409000635
1745781852137309400,3.825309326171875,-2.5975141554802654,2.529478145608306,2.5762702919214964
1745781852147282200,3.8352822265625,-1.9340397251099346,2.361625670722127,1.5881857217669486
1745781852157255200,3.845255126953125,-1.2710866882652043,2.3588579595744608,0.7502408596754073
1745781852167228200,3.855228271484375,-0.5860603513002395,2.4724171187371016,0.07612345473766327
1745781852177201200,3.865201171875,0.043970659151673315,2.7010838355481623,-0.5198948114752769
1745781852187174400,3.87517431640625,0.514540298704803,2.9732565166085956,-1.101744851604104
1745781852197147100,3.885147216796875,0.8741288128897547,3.2324358605831858,-1.711290123388171
1745781852207120100,3.8951201171875,1.1205752242803573,3.4413626886576414,-2.3253724540799854
1745781852217093000,3.905093017578125,1.3454919409081338,3.6463133065775035,-2.996939590013027
1745781852227066400,3.91506640625,1.6339274822443723,3.913626857168972,-3.5694209132939574
1745781852237040400,3.925040283203125,1.8028680446282028,4.23772232542932,-4.027023811507225
1745781852247013400,3.935013427734375,1.9172955110579728,4.4867701514899725,-4.363414405456185
1745781852256986000,3.944986083984375,1.9660995817154645,4.805733225297928,-4.589235085186362
1745781852266959000,3.954958984375,2.0126839304968716,5.288735937705636,-4.751179797333479
1745781852276932400,3.964932373046875,2.034398334176838,5.970082709375023,-4.995733234584331
1745781852286905300,3.9749052734375,2.147719885191321,6.7022139118641615,-5.234209397748113
1745781852296878300,3.98487841796875,2.343960980824381,7.616046666371822,-5.380937836062908
1745781852306851000,3.99485107421875,2.3150037664093075,8.15608001051247,-6.080333474642038
1745781852316824300,4.00482421875,2.0944116349823774,8.382538988146186,-7.003180725732445
1745781852326797300,4.01479736328125,1.7463105833649635,8.534034786993265,-7.621009841737151
1745781852336770300,4.024770263671875,1.545912514182925,8.16378576258421,-8.23655581524074
1745781852346743300,4.034743408203125,1.6539327439188956,7.4806918549865475,-8.981098755535482
1745781852356717000,4.044717041015625,2.0454910983383656,6.968024656677246,-9.52587491028905
1745781852366690000,4.05468994140625,2.5200714348375794,6.694752489942312,-9.677060328012704
1745781852376663300,4.064663330078125,2.908928129082918,6.697179424828291,-9.44912660165131
1745781852386636300,4.07463623046875,3.026390140902996,7.149485970199108,-8.997771073395013
1745781852396609300,4.084609375,2.743593774497509,7.8106947937250135,-8.542003573915363
1745781852406582000,4.09458203125,2.202415351974964,8.474244627419113,-8.011719470372796
1745781852416555300,4.10455517578125,1.644118621391058,9.467519751954079,-7.352278241041303
1745781852426528300,4.1145283203125,1.0913444536209105,10.607671783363818,-6.466729331731796
1745781852436501200,4.124501220703125,0.45997678773775696,11.393501842814683,-5.821475617706775
1745781852446474200,4.13447412109375,-0.2548059511959553,11.651106484818458,-5.640383137497306
1745781852456447200,4.144447265625,-0.969337272651866,11.844058329647778,-5.4321799475222825
1745781852466420200,4.154420166015625,-1.6429156753420828,12.202350374281405,-5.101581965500116
1745781852476394200,4.164394287109375,-2.1499743861198426,12.57388768493533,-4.772579728236794
1745781852486367200,4.1743671875,-2.5366531518042086,12.653849110400676,-4.316214847385883
1745781852496340200,4.18434033203125,-2.828914096647501,12.39169805713892,-3.976265684172511
1745781852506313200,4.194313232421875,-3.0004210023880002,11.739046634078026,-3.7629420824438333
1745781852516286200,4.2042861328125,-3.073363489001989,10.77912140595913,-3.696619306230545
1745781852526259200,4.21425927734375,-3.10637260915637,9.718954180890321,-3.6239965530902145
1745781852536232200,4.224232177734375,-3.0290988153398035,8.59588480170667,-3.3682910227060314
1745781852546205200,4.234205078125,-2.8198037384748456,7.5852745114892715,-2.8627713580638168
1745781852556178400,4.244178466796875,-2.371204230928421,6.6624640852779144,-1.8989198964118956
1745781852566151200,4.254151123046875,-1.7056138313174247,5.8519607723414895,-0.6717237877994775
1745781852576124200,4.264124267578125,-0.8951303921252488,5.126444019556045,0.27999475298821924
1745781852586097200,4.27409716796875,-0.03911320918314159,4.664484679698944,0.9979378556489944
1745781852596071200,4.2840712890625,0.7330273476112633,4.420293353758752,1.4853221441417932
1745781852606044400,4.29404443359375,1.1150463047910482,4.304398737385869,1.9054945986270904
1745781852616017400,4.304017333984375,1.1417793403506278,4.189537263453007,2.333036705097556
1745781852625990100,4.313990234375,0.9637690440654754,3.959674614855647,2.8393700242102144
1745781852635962400,4.32396240234375,0.8303169244963675,3.67491951559782,3.342264016523957
1745781852645935600,4.333935546875,0.8460978464741259,3.2026877880513664,3.8640427420496937
1745781852655908600,4.34390869140625,0.8566501470834016,2.7509710252672432,4.619902026128768
1745781852665881300,4.35388134765625,0.7282097181964665,2.323041965305805,5.605581873229146
1745781852675854300,4.363854248046875,0.471768201687932,1.7605571353822946,6.496545793324708
1745781852685827600,4.37382763671875,0.18490305147357283,1.0551824223935604,7.238806175640225
1745781852695800600,4.383800537109375,-0.12100253397114574,0.29189035796523094,7.760744475641846
1745781852705773600,4.393773681640625,-0.3523071980703622,-0.5030652572274208,7.949885237750411
1745781852715747600,4.40374755859375,-0.43253092773370444,-1.2907739700317382,7.966793702453375
1745781852725720300,4.41372021484375,-0.37391039646081625,-1.8972452411979435,8.174348073130846
1745781852735693600,4.423693603515625,-0.2789794019332155,-2.464048518842459,8.671826470136642
1745781852745666600,4.43366650390625,-0.26178448497168716,-3.035964609456062,9.283588248926401
1745781852755639600,4.4436396484375,-0.19449147548675536,-3.544533724796772,9.973394221383332
1745781852765612300,4.4536123046875,0.0003829349029809236,-4.072112661033868,10.627776998281478
1745781852775585500,4.46358544921875,0.530180716233328,-4.790919102525711,10.687978076744079
1745781852785558500,4.47355859375,1.4956699351549148,-5.47224424688518,10.354233613389729
1745781852795531500,4.483531494140625,2.7272359294146296,-5.716918095645308,10.215071810936927
1745781852805504500,4.49350439453125,3.8532138895213603,-5.4018648887574665,10.38129463879466
1745781852815477200,4.503477294921875,4.608682128456235,-4.271784169507026,10.996153214555978
1745781852825451300,4.513451171875,4.748755785056948,-2.429033319562673,11.904120291900634
1745781852835424500,4.523424560546875,4.3820881262660025,-0.5519207658112049,12.63834408275485
1745781852845397500,4.5333974609375,3.882002761632204,0.874689661642909,12.92406188956499
1745781852855370500,4.54337060546875,3.3340438851892946,1.6820219433277845,12.922767758101225
1745781852865343500,4.553343505859375,2.83844531058073,1.928774351927638,12.520131544828415
1745781852875316500,4.56331640625,2.302785943740606,1.6200380731016397,11.878685406392812
1745781852885289500,4.57328955078125,1.7924707153849302,1.2498065843492745,11.569435917347668
1745781852895262500,4.583262451171875,1.3126345041841267,1.4056360284864902,12.108000357979535
1745781852905235500,4.5932353515625,0.6438122099798173,2.0175807626277207,12.74420216602087
1745781852915208700,4.603208740234375,-0.1668745697647333,2.543051328408718,12.719356478577852
1745781852925181400,4.613181396484375,-1.0194809944152832,2.703178762000799,12.147699915683269
1745781852935154400,4.623154541015625,-1.7114023515909909,2.6921991028249264,11.213484298360347
1745781852945128400,4.63312841796875,-2.2012977461218832,2.4373498970091343,10.056680407357215
1745781852955101400,4.643101318359375,-2.5314684426426886,1.891933106264472,8.725255277985333
1745781852965074400,4.653074462890625,-2.729443668591976,1.3528466875851153,7.47872844595909
1745781852975047700,4.663047607421875,-2.8551158748745915,0.869779093247652,6.460749672800302
1745781852985020400,4.6730205078125,-3.0354455540180205,0.4667518348306417,5.579498752945661
1745781852994993400,4.682993408203125,-3.2053450245618818,0.15550152735710143,4.734338552647829
1745781853004966400,4.69296630859375,-3.3858711030602455,-0.11855974392890929,3.89275211918354
1745781853014939600,4.702939697265625,-3.5449031426310538,-0.3249807266622782,3.019800825640559
1745781853024912600,4.71291259765625,-3.5908196751534938,-0.41526773130893707,2.0978841333985327
1745781853034885400,4.722885498046875,-3.5074224300205707,-0.4442103326767683,1.1518266871124505
1745781853044858400,4.7328583984375,-3.2893338058471677,-0.4018634753346443,0.2944523174077272
1745781853054832400,4.742832275390625,-3.0474469574570655,-0.2878326070070267,-0.46166532534658905
1745781853064805600,4.7528056640625,-2.8393887289106843,-0.18828677562773227,-1.1554770263135432
1745781853074778600,4.762778564453125,-2.6367630468070504,-0.026564766320586203,-1.780080751019716
1745781853084751400,4.77275146484375,-2.4285657020509244,0.20763678826391696,-2.358655715000629
1745781853094724400,4.782724365234375,-2.287532260507345,0.4591641561806202,-2.895673510712385
1745781853104697300,4.792697265625,-2.166974620759487,0.6700923872053622,-3.3454555060416458
1745781853114670600,4.802670654296875,-2.0432640699386595,0.8697662337660789,-3.7377240545570847
1745781853124643600,4.8126435546875,-1.8960031321823596,1.0206202275782823,-4.074240905234217
1745781853134616300,4.8226162109375,-1.758627628624439,1.1550567550748585,-4.299222796052694
1745781853144589300,4.83258935546875,-1.6545277872025965,1.2911743675261735,-4.462404941040277
1745781853154562600,4.8425625,-1.5553040273845196,1.3504074777394532,-4.617086384186148
1745781853164536600,4.85253662109375,-1.4206336911320685,1.3568605994015932,-4.615660150775313
1745781853174509600,4.862509521484375,-1.3259317926526069,1.3831243369489907,-4.579338545072078
1745781853184482600,4.872482666015625,-1.364061324560642,1.3346160343676805,-4.551304875242709
1745781853194455300,4.882455322265625,-1.327526368367672,1.337300743407011,-4.308045569455623
1745781853204428500,4.892428466796875,-1.332059920144081,1.4549702604979275,-3.7866461986362934
1745781853214401500,4.902401611328125,-1.5241794058024882,1.4878198061764238,-3.2496792563289403
1745781853224374500,4.91237451171875,-1.9197581017792225,1.4663766206532716,-2.8579566512584686
1745781853234347500,4.922347412109375,-2.236287518699467,1.5621283204466103,-2.8605694641053674
1745781853244320500,4.932320556640625,-2.5506664795875547,1.6321984664946794,-2.896780010649562
1745781853254293500,4.94229345703125,-3.0184125861525533,1.8942130338951944,-2.8077801232039925
1745781853264266500,4.9522666015625,-3.4973557940363884,2.333705982661247,-2.542061732849479
1745781853274240500,4.962240478515625,-3.6708529968112704,2.3294413109540937,-2.3612965848982332
1745781853284213500,4.972213623046875,-3.3539266895279285,1.7934908522129058,-2.560183080473542
1745781853294186500,4.9821865234375,-2.910667666226625,1.5841104351520536,-2.7134832983940838
1745781853304159500,4.992159423828125,-2.852431458096206,1.459070681554079,-2.277866022017598
1745781853314132500,5.002132568359375,-3.030054800890386,1.606010716792941,-1.796099573406577
1745781853324105500,5.01210546875,-3.531170385354757,1.8778452519401907,-0.9835825825601816
1745781853334078500,5.022078369140625,-4.752804768186808,1.677352782472968,-1.6944336811333893
1745781853344051500,5.032051513671875,-5.884838959592581,1.1167606344282626,-2.8283190533638
1745781853354024400,5.0420244140625,-6.293730141606926,0.5834253266215325,-2.7237632848680016
1745781853363997400,5.05199755859375,-6.169063897496462,0.5015153974369168,-3.316234087732434
1745781853373970400,5.061970458984375,-5.640906284588575,0.677446549360454,-3.943680342388153
1745781853383944400,5.0719443359375,-5.0735821979403495,1.023276295045018,-4.115814440116286
1745781853393917400,5.08191748046875,-4.509772256892919,1.4249135604083538,-4.253974956572056
1745781853403890400,5.091890380859375,-3.9060429779112336,1.8915873615667222,-3.9799212840706106
1745781853413863400,5.101863525390625,-3.3079952516973017,2.613347099906206,-3.215660082349181
1745781853423836400,5.11183642578125,-2.67275907381773,3.3596044429033993,-2.016908562454581
1745781853433809400,5.121809326171875,-2.163019745653868,4.588356548786163,-0.7614087348997592
1745781853443782700,5.13178271484375,-1.9634803391277789,6.853773423597216,0.9989297892957926
1745781853453755400,5.14175537109375,-1.873078329799324,8.894899896985292,2.4534371084570883
1745781853463728400,5.151728271484375,-1.86618564767614,9.107242670983075,2.4588719929873943
1745781853473701400,5.161701416015625,-2.2232990039192138,7.977588068190217,2.394109890219569
1745781853483675400,5.17167529296875,-2.525100661176443,6.786303815436363,2.9851112050533293
1745781853493648600,5.181648681640625,-2.4527909195080397,5.838145012956858,4.198031535553932
1745781853503621600,5.19162158203125,-1.9038696277737617,5.074057414236664,5.3985424663364885
1745781853513594400,5.201594482421875,-1.0852210023045539,4.351111973243952,5.8317871683627365
1745781853523567400,5.2115673828125,-0.058438160443305964,3.768671566006541,5.6199973520725965
1745781853533540600,5.22154052734375,1.0704758531153202,3.2543168530017135,4.966565592288971
1745781853543513600,5.231513671875,2.0739969157241283,2.6575691034704447,4.063044972959161
1745781853553486600,5.241486572265625,2.828130837315321,2.068417800417542,3.308339535090327
1745781853563459300,5.251459228515625,3.2817958115577697,1.6029004758179186,2.636851309612393
1745781853573432300,5.261432373046875,3.479009990006685,1.167697040939331,2.098023834130168
1745781853583405600,5.271405517578125,3.3525790743112562,0.7905576724946498,1.7169237453609705
1745781853593379600,5.281379638671875,3.0456933917880056,0.39529052668511866,1.2811796277344225
1745781853603352600,5.2913525390625,2.6725170817553994,-0.08858429238200187,0.7348077282220125
1745781853613325600,5.30132568359375,2.439665772736072,-0.5717611923128366,0.16124445492327213
1745781853623298300,5.31129833984375,2.4214812967479227,-0.8756447704106569,-0.5327238979101181
1745781853633271800,5.321271728515625,2.4383833317101002,-1.1569558666944504,-1.2326356693178415
1745781853643244800,5.331244873046875,2.2692390634477135,-1.4951444499760864,-1.6931874804645777
1745781853653217800,5.3412177734375,2.136827319777012,-1.933589643254876,-2.2211393416672944
1745781853663190800,5.351190673828125,1.825533173161745,-2.3099434142798185,-2.53715350254178
1745781853673163800,5.361163818359375,1.354509067839384,-2.5537398956835267,-2.604566996601224
1745781853683136800,5.37113671875,0.9951905297022312,-2.7201386646300554,-2.539638305094838
1745781853693109800,5.38110986328125,1.1023089152276515,-3.006341624608636,-2.533002812603116
1745781853703083800,5.391083740234375,1.405697987806797,-3.3387703291893005,-3.04051978854239
1745781853713056800,5.401056884765625,1.807692396044731,-2.996193740081787,-2.9239935962677
1745781853723029800,5.41102978515625,2.158717664545774,-2.7428490936100483,-3.325199484476447
1745781853733003000,5.4210029296875,2.003297970253229,-2.3805483978569506,-3.1663480621695514
1745781853742975700,5.430975830078125,1.2501451686538756,-1.7202578582197428,-2.3915368248611686
1745781853752948700,5.44094873046875,0.3323663068689406,-1.2719272307425737,-1.102884084767103
1745781853762921700,5.450921630859375,-0.0830757580935955,-1.4602911632597446,-0.22941315126419065
1745781853772895000,5.46089501953125,0.27493681201152503,-1.3905530256450176,0.6926876653730869
1745781853782868000,5.470867919921875,0.8068963014204055,-1.1319213786810636,2.137359819218516
1745781853792842000,5.480842041015625,0.8434312576133758,-1.4733710095852612,3.181939014533162
1745781853802814700,5.490814697265625,0.737924983459711,-2.0235265192896126,3.977756214991212
1745781853812787700,5.50078759765625,0.6686485450726002,-2.430543139603734,4.853804890027642
1745781853822760700,5.5107607421875,0.4069979886788875,-3.034633068591356,5.418744711887836
1745781853832734000,5.52073388671875,0.10389525876045226,-3.5274902355372904,5.555962394535541
1745781853842707000,5.53070703125,0.02965630259513855,-3.772893567615747,5.337853312096
1745781853852679700,5.5406796875,-0.0043230508308857675,-3.645823769494891,4.558500924226641
1745781853862652700,5.550652587890625,-0.13966215319037437,-2.9818261920332905,4.151355124574899
1745781853872626000,5.5606259765625,-0.4536041839659214,-1.5008072980433702,4.289315150022507
1745781853882599000,5.570598876953125,-0.9498574230909347,0.6950111398845911,4.900357382366061
1745781853892573000,5.580572998046875,-1.9447206936001777,2.91397839820981,5.5289972307205195
1745781853902546000,5.5905458984375,-2.874550058662891,4.445107769280672,6.048633683520555
1745781853912518700,5.6005185546875,-3.3209330592036244,4.899385906985402,6.39465778273344
1745781853922492000,5.610491943359375,-3.257994080209732,4.7403000914007425,7.082449492758512
1745781853932465000,5.62046484375,-3.008414923751354,2.5295348442316055,5.8329129575222725
1745781853942438000,5.63043798828125,-2.234187623810768,0.8439818041682243,4.260476593551039
1745781853952410600,5.64041064453125,-1.3319301562845707,-0.1319657534688711,3.2734611139327288
1745781853962384000,5.6503837890625,-1.280313366293907,-1.1880594454884528,2.742247036063671
1745781853972356900,5.66035693359375,-1.0777017127156256,-1.5476140574038029,2.285160270678997
1745781853982331000,5.670330810546875,-0.8675158244907856,-1.2433294972896576,2.2090374004632234
1745781853992303900,5.680303955078125,-1.1961340308725834,-1.1558826845049857,1.784150776937604
1745781854002276900,5.69027685546875,-2.0549895790457726,-1.1720160731822251,1.5337217256516218
1745781854012249600,5.70024951171875,-3.3784196180105206,-1.2015256607830525,1.7150918537586926
1745781854022222800,5.710222900390625,-4.241255760252476,-1.457802269053459,1.6959347333461046
1745781854032195800,5.72019580078125,-4.810132337039708,-1.6121405978500842,1.3747417085289955
1745781854042168800,5.7301689453125,-4.932622406154871,-1.7718623732507228,0.8873363772481679
1745781854052141800,5.740141845703125,-4.407909965264797,-2.0072493382275103,0.8132920668721199
1745781854062114800,5.75011474609375,-3.823150759691,-2.4012083240479227,0.7578326299786567
1745781854072088800,5.7600888671875,-3.269497470998764,-2.5300878019392488,0.5702309140056372
1745781854082061800,5.770061767578125,-2.689720730012655,-2.3940830022126436,0.570697362473607
1745781854092034800,5.780034912109375,-2.4039818804144857,-1.898473321688175,0.5028548293471337
1745781854102007800,5.7900078125,-2.6400924834907054,-1.5913322030991315,0.17536825734376907
1745781854111980800,5.799980712890625,-2.724782691043615,-2.210978013136983,-1.0152093084454537
1745781854121953800,5.809953857421875,-2.7648165952682495,-2.1197072581499814,-0.8456435999006032
1745781854131926800,5.8199267578125,-3.057071694892645,-1.8050708153694868,0.32002281199395655
1745781854141899800,5.829899658203125,-3.0450410653591153,-1.3105372396439312,0.7482470555096864
1745781854151872800,5.839872802734375,-2.9310873539209363,-0.704381025776267,0.2958171760201454
1745781854161846000,5.849845947265625,-3.2091853333771225,-0.36140579273998735,-0.40518122158050535
1745781854171820000,5.859820068359375,-3.5476433812499044,0.05373042114377021,-0.5298270074248314
1745781854181792800,5.869792724609375,-3.8642426485359667,0.2871820341438055,-0.3747819916635752
1745781854191765800,5.879765869140625,-4.379541948914528,0.4458265357017517,-0.04760696982741355
1745781854201738800,5.88973876953125,-4.7390661656916135,0.6076490827739238,0.45808045259714125
1745781854211712000,5.8997119140625,-5.398152005714178,0.6777350109130144,0.7423965759158134
1745781854221684700,5.909684814453125,-6.168522630226612,0.7307213356912136,1.1928344048053026
1745781854231657700,5.91965771484375,-6.733804397392273,0.6788625536382198,1.515826587998867
1745781854241630700,5.929630615234375,-6.782960350227356,0.43338381823599337,1.2658084556013345
1745781854251604000,5.93960400390625,-6.422830568772554,0.3104612029224634,0.563047139981389
1745781854261577700,5.94957763671875,-5.971110883378982,0.20687164911031722,-0.08072130392193794
1745781854271551000,5.959551025390625,-5.6148822010159485,0.13599369381070137,-0.3169961576491594
1745781854281523700,5.969523681640625,-5.373859275978804,0.003936170405149459,-0.646793344682455
1745781854291496700,5.97949658203125,-5.196654450857639,0.00864040257334709,-0.873350521993637
1745781854301469700,5.9894697265625,-4.802182839339971,0.29612872618734837,-0.5214467170923948
1745781854311443000,5.99944287109375,-4.30909653981328,1.117539802107215,0.599202156946063
1745781854321416000,6.009416015625,-3.872789527606964,0.8664093245536089,0.18209902690351007
1745781854331388700,6.019388671875,-3.1432313904762266,0.72837798743546,0.02640752993226051
1745781854341362700,6.02936279296875,-2.1454232986867425,1.215603285974264,0.47661622624099254
1745781854351335700,6.039335693359375,-1.5939128672420977,1.1519167034834623,0.14300503387749194
1745781854361309000,6.049308837890625,-1.4433249770201741,0.6032061318904162,-0.3092167558193207
1745781854371282000,6.059281982421875,-1.0524995399851351,1.3126532088845968,0.03255319308042526
1745781854381255000,6.0692548828125,-0.7471990808267146,1.2454326070487498,-0.26978257105350495
1745781854391227600,6.0792275390625,-0.575541368438676,0.725862205222249,-0.44233401741087436
1745781854401201000,6.089200927734375,0.07523023222498595,1.6124194147914648,0.590624882736802
1745781854411174000,6.099173828125,0.34235914696455,2.6219115146338936,1.3376146316617727
1745781854421147000,6.10914697265625,-0.5191338370401412,2.77837341145575,1.4107102630108594
1745781854431121000,6.119120849609375,-1.635433649023622,2.7924095355927943,1.7333932341247795
1745781854441094000,6.129093994140625,-2.3529414290070534,2.5311270818591116,2.03938401363492
1745781854451066600,6.139066650390625,-2.464855159050226,2.0656156024783847,2.0152876832544804
1745781854461039900,6.149039794921875,-2.1390566862642766,1.6491402489453553,1.6978543032318352
1745781854471012900,6.159012939453125,-1.637204896479845,1.1592863554686308,0.8314023085802793
1745781854480985900,6.16898583984375,-0.9944611194491386,0.7186123802244663,-0.06053308689594268
1745781854490958800,6.178958740234375,-0.25144253917746245,0.2941220625400543,-0.5491992318928242
1745781854500931800,6.188931884765625,0.49959085911512374,-0.11701134544312954,-0.8205284478664397
1745781854510905900,6.19890576171875,1.138562131869793,-0.3607464520484209,-1.1491799719959497
1745781854520878800,6.20887890625,1.5914204659044742,-0.5549690474659205,-1.8359464306265114
1745781854530851800,6.218851806640625,1.7566273947179316,-0.5734627355337143,-2.132803471088409
1745781854540824800,6.228824951171875,1.6144705021023749,-0.27992110323011876,-1.9395663795769214
1745781854550797800,6.2387978515625,1.4347335281550884,-0.012990414476394653,-1.656565430510044
1745781854560770800,6.248770751953125,1.1859493214666843,0.24916706852614878,-1.3183680794000625
1745781854570743800,6.258743896484375,0.8431155427277087,-0.1178536414861679,-1.3838275167822838
1745781854580716800,6.268716796875,0.5395931991577149,-0.3223030318856239,-1.4024199890494347
1745781854590689800,6.278689697265625,0.3327810982149094,-0.17646248232126235,-1.136152148118615
1745781854600663800,6.288663818359375,0.2511456385901198,0.07349252171218394,-0.9500047226071358
1745781854610636800,6.29863671875,0.20654197876453398,0.19883564217090605,-1.0167980389416218
1745781854620609800,6.30860986328125,0.30182372295856474,0.2073918735921383,-1.284509648939967
1745781854630582800,6.318582763671875,0.501371312791109,0.21647417471408842,-1.5975275506079196
1745781854640555300,6.32855517578125,0.5081996975064277,0.30203298179507254,-1.6017448760420083
1745781854650528500,6.338528564453125,0.4465677094578743,0.37153088091313835,-1.4585007727116346
1745781854660501500,6.34850146484375,0.24998013847470282,0.35910569910407064,-1.219031506857276
1745781854670474500,6.358474609375,-0.006560664556687698,0.29737200424671173,-0.9644348144978284
1745781854680448500,6.368448486328125,-0.3209849350243807,0.1586269659012556,-0.7925251731753349
1745781854690421500,6.37842138671875,-0.5911936225354671,-0.02922492544054985,-0.7436486218035221
1745781854700394500,6.38839453125,-0.8250649222522973,-0.26105916637182236,-0.6672305680334568
1745781854710367500,6.398367431640625,-1.0606208140552043,-0.4746528172135353,-0.6551911706715822
1745781854720340500,6.408340576171875,-1.2447335188686848,-0.7150514728724956,-0.7792915975928306
1745781854730313500,6.4183134765625,-1.37906015625,-0.8841437186866998,-0.9311182358294725
1745781854740286500,6.428286376953125,-1.4802145918697118,-0.9160907625675201,-1.0640724158138035
1745781854750259500,6.438259521484375,-1.54575410875082,-0.9938836118221283,-1.2578519436389206
1745781854760233500,6.4482333984375,-1.60860482493937,-1.1198510016590357,-1.4501730893492697
1745781854770206500,6.45820654296875,-1.596822032687068,-1.201727905356884,-1.5403098718702792
1745781854780179500,6.468179443359375,-1.5202034879088402,-1.192329962414503,-1.4717945540487765
1745781854790152400,6.47815234375,-1.421037595757842,-1.0410399152725935,-1.3459575125932692
1745781854800125400,6.48812548828125,-1.303799455821514,-0.8894038311719894,-1.1515718355685471
1745781854810098400,6.498098388671875,-1.1457727939009665,-0.7279740828096867,-0.8553916714549065
1745781854820071400,6.508071533203125,-0.8811222519736737,-0.4597422483295202,-0.42205052331686016
1745781854830044400,6.51804443359375,-0.5447071081053465,-0.09383505251705646,0.027043489748239516
1745781854840017700,6.528017578125,-0.26226094337701794,0.22900924663841724,0.4543190542370081
1745781854849991700,6.53799169921875,0.046205286335945124,0.684846888744831,1.0740654020398854
1745781854859964400,6.54796435546875,0.29911336802132427,1.4577134217262266,1.866235185906291
1745781854869937400,6.5579375,0.4189835369616747,2.5755028146803376,2.613982475200295
1745781854879910400,6.567910400390625,0.31699031243026254,3.1664602903723713,2.8730279636621474
1745781854889883400,6.57788330078125,-0.0780301286092028,2.75528479681313,2.6295231586813923
1745781854899856600,6.587856689453125,-0.5900379862269386,1.9199626844406126,2.156662485581636
1745781854909829400,6.597829345703125,-0.9659750296771525,1.146029399010539,1.811668898460269
1745781854919803400,6.607803466796875,-1.1807318790793417,0.5353530773699283,1.6179308716893195
1745781854929776400,6.6177763671875,-1.3827636869430542,-0.0530599745362997,1.5832868438094854
1745781854939749400,6.627749267578125,-1.6821785951942205,-0.49384734702706334,1.5132020847141743
1745781854949722600,6.63772265625,-1.945268390610814,-0.7402087104827165,1.4564999542832373
1745781854959695600,6.647695556640625,-2.0943992138922214,-0.7379431036382913,1.4338713583678007
1745781854969668400,6.65766845703125,-2.121618060207367,-0.5284276620209217,1.321802145501971
1745781854979641300,6.667641357421875,-1.9846026221334934,-0.2198041959196329,1.0118921467214823
1745781854989614600,6.677614501953125,-1.705803216409683,0.061364861544966696,0.34471886183321476
1745781854999588600,6.687588623046875,-1.2413579049557446,0.41527708365917204,-0.21943711617290973
1745781855009561600,6.6975615234375,-0.79068802087605,0.8272790911704301,-0.4749661209464073
1745781855019534600,6.70753466796875,-0.5514636696934699,1.2131260822057723,-0.7957949886262417
1745781855029507300,6.71750732421875,-0.42759120630919933,1.213494330996275,-1.2524948005199432
1745781855039480300,6.727480224609375,-0.3926747912287712,0.9551754032433032,-1.6343541832238435
1745781855049453600,6.73745361328125,-0.4389747701108455,0.7564829689353704,-1.762908082422614
1745781855059426600,6.747426513671875,-0.516110616761446,0.6457406207591295,-1.6617863800287245
1745781855069399600,6.757399658203125,-0.7226859132736921,0.5059954654604196,-1.3640642471700906
1745781855079373300,6.767373291015625,-1.040945807248354,0.27081132957935333,-1.0792232231944798
1745781855089346300,6.77734619140625,-1.3360901985734701,0.003452186280488968,-1.0806108781605959
1745781855099319600,6.787319580078125,-1.5224556507498026,-0.1909650549262762,-1.1646680485069751
1745781855109292500,6.79729248046875,-1.6763672785669563,-0.314921104940772,-1.1932371403872966
1745781855119265500,6.807265625,-1.7639041077226398,-0.3623404432415962,-1.2944237247109411
1745781855129238300,6.81723828125,-1.842993426528573,-0.3616360943645239,-1.4193214394897222
1745781855139211500,6.82721142578125,-1.825969226491451,-0.24713877756893635,-1.5008610740572212
1745781855149184500,6.8371845703125,-1.7477479226917028,-0.1024468135178089,-1.59946640971601
1745781855159158500,6.847158447265625,-1.5994740085005759,0.10326865129470825,-1.652965944713354
1745781855169131500,6.857131591796875,-1.3973790722727775,0.33115853851437566,-1.6391975316017866
1745781855179104500,6.8671044921875,-1.1802701067864894,0.505282348755002,-1.7044734291106463
1745781855189077500,6.877077392578125,-1.0366606772750615,0.5537620097637176,-1.8530851969540119
1745781855199050500,6.887050537109375,-0.9710112702786922,0.4975409408479929,-2.0913456715404988
1745781855209023500,6.8970234375,-1.001465445253253,0.46409693640768523,-2.388850362256169
1745781855218996500,6.90699658203125,-1.0821166065484285,0.40104339112341403,-2.663666835823655
1745781855228969500,6.916969482421875,-1.1803320661067962,0.4004033396542072,-2.8702228431135413
1745781855238943500,6.926943603515625,-1.2649632369488477,0.3700841892361641,-3.0440824494600296
1745781855248916500,6.93691650390625,-1.26661860294044,0.24320611429512498,-3.2855613015711307
1745781855258889500,6.946889404296875,-1.1618757874399424,0.0025818331867456436,-3.630698681077361
1745781855268862500,6.956862548828125,-0.931311128053069,-0.1443617091834545,-4.033226757800579
1745781855278835500,6.96683544921875,-0.6904974618524312,-0.22269407214224338,-4.4111184059172865
1745781855288808700,6.97680859375,-0.5113303967475891,-0.4003811278223991,-4.826919221189618
1745781855298781400,6.986781494140625,-0.4014133934795856,-0.5674404065042734,-5.178297540912032
1745781855308754400,6.99675439453125,-0.28529167208625,-0.6678975075095892,-5.31681636928618
1745781855318728400,7.006728515625,-0.17535185419823973,-0.6384452030539512,-5.23587470061183
1745781855328701400,7.016701416015625,-0.04488132598949596,-0.548138324663043,-5.0570250308930875
1745781855338674400,7.02667431640625,0.11974224997805431,-0.4269903178066015,-5.033612006601691
1745781855348647700,7.036647705078125,0.33831250192224976,-0.23270810115635393,-5.03322213050127
1745781855358620400,7.046620361328125,0.5705752339312806,0.049529462322592734,-4.99689234149158
1745781855368593400,7.056593505859375,0.8571317931205034,0.48039691382348537,-4.848581602421403
1745781855378566400,7.06656640625,1.0629670849204063,0.9927993237167596,-4.636038921937346
1745781855388540400,7.07654052734375,1.1607786398530007,1.3581214131176471,-4.494949950814247
1745781855398513700,7.086513671875,1.2035434303462504,1.6730647298902273,-4.334191818103194
1745781855408486400,7.096486328125,1.182551495721936,2.0509932028859854,-4.243180006313324
1745781855418459400,7.10645947265625,1.0689181022793055,2.255609766545892,-4.338403882840275
1745781855428432400,7.116432373046875,0.8948474835306406,2.2013030068188906,-4.430141086295246
1745781855438405600,7.126405517578125,0.5781453769246115,2.0240911674350497,-4.320184335538745
1745781855448378600,7.136378662109375,0.1851701049119234,1.5517232462882995,-4.003052568811178
1745781855458351400,7.146351318359375,-0.1653191570162773,0.8237333813875913,-3.562200314390659
1745781855468325400,7.156325439453125,-0.4250076195567846,0.21824586056172846,-2.790225761812925
1745781855478298400,7.16629833984375,-0.6601052461981773,-0.18964871163070202,-1.6683125669270753
1745781855488271400,7.176271240234375,-0.9158458478957414,-0.3437368650585413,-0.4564186568647623
1745781855498244600,7.18624462890625,-1.1618009686380624,-0.06131693075001239,0.6923217546701431
1745781855508217600,7.196217529296875,-1.328507196098566,0.594420183366537,1.7276421232521533
1745781855518190300,7.2061904296875,-1.4686948344677686,1.5491659630209207,2.6203420733600855
1745781855528163300,7.216163330078125,-1.6218103434711695,2.705730200049281,3.375692823395133
1745781855538137300,7.226137451171875,-1.9035586621284484,3.6650305742681026,4.19247682403624
1745781855548110600,7.236110595703125,-2.282354565608501,4.086500082826614,5.26226411036551
1745781855558083600,7.24608349609375,-2.6538532978177067,3.9456379061967133,6.0354778493493795
1745781855568056600,7.256056640625,-2.700916662287712,4.054960450702906,6.620335839122533
1745781855578029300,7.266029296875,-2.258867307037115,4.341476714414358,6.586247107037901
1745781855588002600,7.27600244140625,-1.294936934930086,4.127788371026516,6.114627958431839
1745781855597975600,7.2859755859375,-0.04984349670782685,3.532263441288471,5.601388513192534
1745781855607948500,7.295948486328125,1.1056674318753181,3.184466487184167,5.634077899873256
1745781855617922600,7.305922607421875,2.009747730914503,2.7093998284727334,5.815090300583839
1745781855627895600,7.3158955078125,2.348063009315729,1.2557874123245476,5.700407105827331
1745781855637868800,7.325868896484375,2.331058098500967,-0.2886918541848659,5.510031248965859
1745781855647842000,7.335842041015625,2.231765365099907,-1.587683617463708,5.41765574760735
1745781855657815000,7.34581494140625,2.187190894836187,-2.550132226580381,5.079335062378645
1745781855667788000,7.3557880859375,2.128050139081478,-3.320695158794522,4.603621337935328
1745781855677760800,7.3657607421875,1.956788732534647,-4.078800175973773,4.109458933609724
1745781855687734800,7.37573486328125,1.7927192833185195,-4.743824173873663,3.6211540231406687
1745781855697707800,7.385707763671875,1.6576514721810818,-5.190066889160871,3.181362675949931
1745781855707681000,7.395680908203125,1.4899392825484274,-5.491228348818421,2.8007494939148425
1745781855717654000,7.405654052734375,1.368819332742691,-5.652517227405309,2.1705735220342874
1745781855727627000,7.415626953125,1.392583070167899,-5.661721109080315,1.4218921667605637
1745781855737599700,7.425599853515625,1.6009458346188068,-5.550056969884038,0.7152963875442743
1745781855747573000,7.435572998046875,1.7426240038067102,-5.474937723752856,0.14111819721758365
1745781855757547000,7.445547119140625,1.7755056981891393,-5.359496404105425,-0.262956524425745
1745781855767520000,7.45552001953125,1.7206249379664658,-5.2198710757941,-0.4612415469765663
1745781855777493000,7.465492919921875,1.4805378324747085,-4.94687188078165,-0.4758545942187309
1745781855787466000,7.475466064453125,1.1459773765623569,-4.631756130051612,-0.4396943165570497
1745781855797439000,7.48543896484375,0.8619605284512043,-4.3431952087700365,-0.3365338018119335
1745781855807412000,7.495411865234375,0.6450970621585845,-4.169852319774032,-0.16657237194776534
1745781855817385000,7.505385009765625,0.5448660980593413,-4.077013292557001,0.11137480086088179
1745781855827358000,7.51535791015625,0.43089485096447167,-4.020219976711273,0.3308364669531584
1745781855837332000,7.52533203125,0.271356030915305,-3.8551398891478774,0.5581693048119545
1745781855847304700,7.5353046875,0.02279693821966648,-3.459285298839211,0.8349486028850078
1745781855857278000,7.54527783203125,-0.16410042887628076,-3.0313521472245455,0.9194956025749444
1745781855867251000,7.5552509765625,-0.22175474546551704,-2.6506273215085265,0.9749386728554964
1745781855877224000,7.565223876953125,-0.21112353440113366,-2.2750585633814335,1.035645362752676
1745781855887197000,7.575197021484375,-0.14289989300258457,-1.9605454547196626,1.1643711113870143
1745781855897170000,7.585169921875,0.003935001361370086,-1.7439087829202413,1.435853472095728
1745781855907144000,7.59514404296875,0.2653782351473346,-1.2745587482899428,1.8739292475402354
1745781855917117000,7.605116943359375,0.504482138288021,-0.403870723503828,2.486271456566453
1745781855927090000,7.61508984375,0.6302998905211686,0.4963537768900394,2.888922282886505
1745781855937063000,7.62506298828125,0.6314303558558225,1.1241817243397236,2.9046014980554578
1745781855947036000,7.635035888671875,0.5383890840649604,1.6533032138437032,2.9352362902939317
1745781855957009000,7.6450087890625,0.4513280191948637,2.175762907370925,3.2736756334662434
1745781855966982000,7.65498193359375,0.4491145078638568,2.9650474911898375,3.9251451532661914
1745781855976956000,7.664955810546875,0.41809568474385883,3.8944928253710267,4.598021033710241
1745781855986929000,7.674928955078125,0.39957331857085227,4.878326167821884,5.259264344027638
1745781855996902000,7.68490185546875,0.3574123391896486,6.158292328113317,5.994155658879876
1745781856006875100,7.694875244140625,0.3191489517688751,7.705313680320978,6.380218923014402
1745781856016848000,7.704847900390625,0.12510167638566344,9.254645647558569,6.500866579133271
1745781856026820900,7.71482080078125,-0.5686953750014305,10.091892005991935,6.338374169975519
1745781856036793900,7.7247939453125,-1.4642787715911865,9.957851784336567,5.635501795196533
1745781856046767900,7.734767822265625,-2.269173596996069,8.892499265584348,4.597660968226194
1745781856056741000,7.7447412109375,-2.799289358234405,7.216054830127954,3.492944991856813
1745781856066714000,7.754714111328125,-3.0523724311605096,5.387915858381986,2.7154531371623274
1745781856076686800,7.764686767578125,-3.101162181031704,3.91712843554914,2.441809214505553
1745781856086659800,7.774659912109375,-3.2003438552737236,2.854091208001971,2.2590526004761458
1745781856096632800,7.7846328125,-3.4714275720536705,2.0143103626549244,1.962331169092655
1745781856106606000,7.794606201171875,-3.920736689174175,1.4091671252220868,1.4862199697643517
1745781856116580000,7.804580078125,-4.4407440211132165,1.0422001912236214,0.8376876724600791
1745781856126552800,7.814552734375,-4.887980131351948,0.7245628130614757,-0.0909141966342926
1745781856136525800,7.82452587890625,-5.1275207088768475,0.2640460732281208,-1.233046588206291
1745781856146498800,7.834498779296875,-5.016110836702585,-0.3327800022363663,-2.4264497328102586
1745781856156472000,7.84447216796875,-4.522713571530581,-0.7862047379821538,-3.3086113377690314
1745781856166445000,7.854445068359375,-3.6530595659673213,-0.9936199924498796,-3.9165433291375633
1745781856176417800,7.864417724609375,-2.523873165208101,-1.164215044042468,-4.4424370887666935
1745781856186391800,7.874391845703125,-1.2955045056849717,-1.3515724298655987,-4.884657124409079
1745781856196364800,7.88436474609375,-0.24329675172064452,-1.5705758307963609,-5.287023873090743
1745781856206338000,7.894338134765625,0.5756312752118334,-1.8250965353101491,-5.855032434871792
1745781856216311000,7.90431103515625,1.3146148643463849,-2.0980688423156737,-6.4892246566563845
1745781856226284000,7.914283935546875,1.8722996005117891,-2.3072686421126125,-6.984954164168238
1745781856236256800,7.9242568359375,2.257047105872631,-2.3809254144757985,-7.13107411519587
1745781856246230800,7.934230712890625,2.2864760294526816,-2.189723628184199,-6.646967825460433
1745781856256203800,7.944203857421875,2.0101637643694876,-1.814710750374198,-5.694883958491682
1745781856266177000,7.954177001953125,1.8299404682099818,-1.513051278066635,-4.817107436749339
1745781856276150000,7.96414990234375,2.180356664901972,-1.38719144025743,-4.49367510857284
1745781856286123000,7.974123046875,3.2157214571475983,-1.1910276476442814,-4.674352578240633
1745781856296095700,7.984095703125,4.518047333285212,-0.7040384959489107,-5.012003401383757
1745781856306069000,7.994069091796875,5.666553351542353,-0.06907265944331883,-5.434498745858669
1745781856316043000,8.00404296875,6.524282526034116,0.31063100653141734,-6.015774200969934
1745781856326016000,8.01401611328125,6.926106838402152,0.5597092277303338,-6.628093029120564
1745781856335989000,8.023989013671875,6.835127175316214,0.8862766390621661,-7.225155835950374
1745781856345962000,8.0339619140625,6.144972243291139,1.1072343889310956,-7.854144643872976
1745781856355935000,8.04393505859375,4.9185184774786235,1.3094663955420256,-7.960157040917873
1745781856365908000,8.053907958984375,3.6096167300820348,2.142412134172022,-6.999769455984234
1745781856375881000,8.063880859375,2.3668996656022965,3.5449221395924684,-5.562407332891225
1745781856385855000,8.07385498046875,1.1845773755263536,5.297154806482792,-3.9919033982872962
1745781856395828000,8.083827880859374,0.1414601425230503,7.442966227704286,-2.105996128183603
1745781856405800700,8.09380078125,-1.0495500425297766,9.68680430791378,-0.8348889816522598
1745781856415774000,8.10377392578125,-2.4520137976557015,11.398224779683352,-0.560708467900753
1745781856425747000,8.113746826171875,-3.8856402413517235,12.816271376931667,-0.7438023510605096
1745781856435720000,8.123719970703124,-5.2457683181166646,13.753383884739875,-1.3653227227985858
1745781856445693000,8.13369287109375,-6.256859085327386,13.920191234487294,-2.028527104055881
1745781856455667000,8.1436669921875,-6.500167490953206,14.224756365108489,-1.8862492154091595
1745781856465640000,8.153639892578125,-6.315616394722461,14.277958378463982,-1.5520248595833777
1745781856475613000,8.163613037109375,-6.075681849443912,13.538659768563509,-1.1545569888591765
1745781856485586000,8.1735859375,-5.809407578772306,12.28895547554493,-0.5526835668772458
1745781856495559000,8.183558837890626,-5.322943912255764,10.479931538635492,-0.08928279604017735
1745781856505532000,8.193531982421876,-5.251116693407297,8.187054409968853,-0.1609802510291338
1745781856515506000,8.203505859375,-5.443717825102806,6.136311966973543,-0.08172434348464011
1745781856525479000,8.21347900390625,-5.1079544231414795,4.3763603962689634,0.31503508670926095
1745781856535452000,8.223451904296875,-3.9743391000241037,3.5027976928293705,0.8822183035820722
1745781856545425000,8.2334248046875,-2.4932284360975028,3.306675401270389,1.7243500959694384
1745781856555398000,8.24339794921875,-0.8068610839765519,3.190803288990259,2.2572025886952876
1745781856565371100,8.25337109375,0.921654241913557,2.689081847587228,2.2809183953255414
1745781856575343900,8.26334375,2.504090021851659,1.823949703362584,1.8990601816654205
1745781856585318000,8.27331787109375,3.7333360487312075,0.9490712411493062,1.3784060762554406
1745781856595291000,8.283290771484374,4.92481027109921,0.11313128913938998,0.5217120900303125
1745781856605264000,8.293263916015626,5.291461563277244,-0.7730658549457788,-0.28544834221899507
1745781856615237000,8.303237060546875,5.101581965500116,-1.3573024979501962,-0.3551853107899427
1745781856625210000,8.313210205078125,5.092642287719249,-1.3717618159353733,-0.07028408105969429
1745781856635183400,8.323183349609375,4.8165451266914605,-1.3244289868742227,0.6187316178023815
1745781856645157400,8.333157470703124,4.467199189579486,-1.406246269339323,1.3843652769207953
1745781856655130400,8.34313037109375,4.123628328737616,-1.6824065587311983,2.25867149220407
1745781856665103400,8.353103271484375,3.6669384537160394,-2.132232977724075,2.843375752720237
1745781856675076600,8.36307666015625,3.0658190649718042,-2.557472067949176,3.2100960184812544
1745781856685049600,8.373049560546875,2.502629301649332,-2.7453268819004295,3.5480087074309585
1745781856695022300,8.383022216796874,1.9199242521263657,-2.856361491021514,3.8093390919595955
1745781856704995300,8.392995361328126,1.3244015143454073,-2.8938994867771863,3.8331910921901464
1745781856714969300,8.40296923828125,0.7279753979839384,-2.808378673619032,3.837995569862425
1745781856724942300,8.4129423828125,0.24671090754568575,-2.7053894237875937,3.84155735399723
1745781856734915600,8.42291552734375,-0.1779110736943781,-2.749647667708993,3.598242226369679
1745781856744888600,8.432888671875,-0.46320554052591323,-3.0031437053501606,3.238931652343273
1745781856754861300,8.442861328125,-0.5274339748084544,-3.2303385960429907,2.829115172177553
1745781856764834300,8.452834228515625,-0.486413982155919,-3.4683693535268305,2.531545307271182
1745781856774807600,8.4628076171875,-0.3178857999652624,-3.7483512470334768,2.5917846719175577
1745781856784781600,8.472781494140625,-0.07629121252000332,-4.064410416093469,2.830398197725415
1745781856794754600,8.482754638671874,0.04216317133828997,-4.392282188022136,3.054640960614383
1745781856804727600,8.4927275390625,0.10262333912849425,-4.725392445126175,3.3002991442367433
1745781856814700300,8.5027001953125,0.18175298994481562,-4.806019641023874,3.694349315471947
1745781856824673500,8.512673583984375,0.3020867578089237,-4.607178738155961,4.3083670564949506
1745781856834646500,8.522646484375,0.6033095922648907,-3.9585219376891847,5.376789484211802
1745781856844620500,8.53262060546875,1.059073584613204,-2.5432366218477487,6.796113261789083
1745781856854593500,8.542593505859376,1.3814835840046404,-0.9365390918344259,8.092953984513878
1745781856864566300,8.552566162109375,1.4353167348705231,0.1979758104711771,9.062322163760662
1745781856874539300,8.562539306640625,1.354695530322194,0.6206044259369373,9.618472529965638
1745781856884512500,8.572512451171875,1.2327923211842775,0.6042763914704322,10.070613071119785
1745781856894485500,8.582485595703124,1.2441484124571085,0.6625754357039928,10.731734216362238
1745781856904459500,8.59245947265625,1.351699417246133,0.8573626792669296,11.69711186466813
1745781856914432500,8.6024326171875,1.3072417052298784,1.0083645571172237,12.41564241182804
1745781856924405200,8.6124052734375,1.1689498174794017,1.3240607380837202,13.041474801546334
1745781856934378500,8.62237841796875,0.915143910171464,2.0635311974197625,13.578880719792842
1745781856944351500,8.6323515625,0.553884832425788,3.1755501902788876,13.732406563162803
1745781856954324500,8.642324462890626,0.06487316192686557,4.135942451387644,13.289798404985666
1745781856964298500,8.652298583984376,-0.5928250231295824,4.855423431140184,12.186999660414457
1745781856974271500,8.662271484375,-1.423075823587179,5.09137387521863,10.673414129340648
1745781856984244200,8.672244140625,-2.2193653177320956,4.905552612921595,8.882569992244242
1745781856994217500,8.682217529296874,-2.8735364977061746,4.249070817917585,6.989874084913731
1745781857004190500,8.6921904296875,-3.344725438201427,3.3995454081475733,5.252617745620012
1745781857014163500,8.70216357421875,-3.590820844197273,2.504970896339416,3.802857620985806
1745781857024136400,8.712136474609375,-3.7009202182948586,1.720631952229142,2.634275906166434
1745781857034110500,8.7221103515625,-3.7352012580811977,1.1023241127967833,1.658212028673291
1745781857044083500,8.73208349609375,-3.642733402264118,0.6153261932730675,0.8053402310848236
1745781857054056400,8.742056396484376,-3.487671435368061,0.19323358438014984,0.03315232801735401
1745781857064029400,8.752029541015625,-3.181452107799053,-0.09596271219551562,-0.6808639565885066
1745781857074002400,8.76200244140625,-2.7960966996729373,-0.20523206520974635,-1.2733277451902627
1745781857083975700,8.7719755859375,-2.384687981879711,-0.28935704009532925,-1.7687310894876718
1745781857093949400,8.781949462890625,-1.7465701110839842,-0.3113555214136839,-2.139801951673627
1745781857103922400,8.79192236328125,-1.0646399865686893,-0.3040133419573307,-2.4231027604699134
1745781857113895400,8.8018955078125,-0.5443611442118883,-0.19869711048305033,-2.408582067686319
1745781857123868400,8.811868408203125,-0.23206746516525745,0.11235562859177589,-2.3178818060636517
1745781857133841400,8.82184130859375,-0.29443766782786696,0.40629765838980675,-2.630027016550302
1745781857143814400,8.831814453125,-0.25550788892023263,0.7290045949012041,-3.2404730365663763
1745781857153788400,8.841788330078124,0.09537292960882186,1.1387152766048907,-4.28859852618575
1745781857163761400,8.851761474609376,0.5730238326597958,1.4505390000522136,-5.4756280441045755
1745781857173734400,8.861734375,0.9653975220501422,1.7518381146147846,-6.162303901842236
1745781857183707400,8.871707275390625,1.4308883970342576,2.2532503439381717,-6.234148071825504
1745781857193680600,8.8816806640625,1.7865828263901173,2.6629727160796524,-6.103961602988838
1745781857203653400,8.8916533203125,2.005640880117565,2.9043811333030463,-5.941697157368064
1745781857213627400,8.90162744140625,2.075767432527989,2.9849074991747737,-5.738759340575337
1745781857223600400,8.911600341796875,1.9958792184293268,3.0545895226880906,-5.427214434069395
1745781857233573400,8.921573486328125,1.8800759336017072,3.091368516770005,-5.014691033032536
1745781857243546400,8.93154638671875,1.6281674574129283,3.1912367119714617,-4.56051869378984
1745781857253519600,8.94151953125,1.1040279941052198,3.252219588461518,-4.1792748126357795
1745781857263492400,8.951492431640625,0.24159100724868474,3.0913994964301583,-4.049721965527534
1745781857273465300,8.96146533203125,-0.6150871238201856,2.7952321917980907,-4.085988626173139
1745781857283439400,8.971439453125,-1.3799673342227936,2.4762942524313925,-4.114384699574113
1745781857293412400,8.981412353515625,-2.042556798452139,2.1279113151326774,-4.009590446147323
1745781857303385600,8.991385498046874,-2.7099311588704587,1.6612401443228124,-3.938752822858095
1745781857313358600,9.001358642578126,-3.0199884571671483,1.3415867501631378,-3.947814665713906
1745781857323331300,9.011331298828125,-3.316940774697065,1.2779682644724846,-3.959915437874198
1745781857333304300,9.02130419921875,-3.4895617791593074,1.844112201425433,-3.5998821025311947
1745781857343278300,9.0312783203125,-3.3285178152441977,2.985635813449323,-2.881822095492482
1745781857353251600,9.04125146484375,-2.8759833063364026,4.521253728111088,-2.0706705477803946
1745781857363224600,9.051224609375,-2.3297136981546878,6.158169578516483,-1.3106763558536767
1745781857373197300,9.061197265625,-1.8236264627575873,7.81062698918581,-0.5896060610830783
1745781857383170300,9.07117041015625,-1.4723323141872882,9.280313757300377,-0.3014437837302685
1745781857393143300,9.081143310546874,-1.76642164350152,9.86496657989025,-0.6350304261744022
1745781857403117300,9.091117431640624,-2.3980478141903876,9.800527717727421,-1.3394453542202711
1745781857413090600,9.101090576171876,-3.03938172442317,9.6807615206182,-1.7903034543484448
1745781857423063600,9.1110634765625,-3.6238884165406224,9.86461352866888,-1.5701590666890144
1745781857433036300,9.121036376953125,-3.9036490685120224,10.306361270624398,-0.860965087673068
1745781857443009300,9.13100927734375,-3.834705588406324,10.346130970954894,-0.35532442699968814
1745781857452982500,9.140982421875,-3.4825042618632316,9.792358439797162,-0.5824415762811899
1745781857462956500,9.15095654296875,-2.82141818793416,8.890137212628126,-1.2744991270571946
1745781857472929500,9.160929443359375,-2.0910884819090367,7.659640308904647,-2.055035756275058
1745781857482902500,9.170902587890625,-1.4629671044707298,5.951716447079181,-3.245280144587159
1745781857492875300,9.180875244140625,-0.5134545492947101,4.434887404039502,-4.367660956984758
1745781857502848500,9.1908486328125,0.7443781051218509,3.4585596149131654,-4.981674898615479
1745781857512821500,9.200821533203126,2.064587428474426,2.830154159836471,-5.105170929902791
1745781857522795500,9.21079541015625,3.206288442891836,2.376163606901467,-4.8027808052331205
1745781857532768500,9.2207685546875,3.915584128716588,2.034033884778619,-4.214510376667977
1745781857542741500,9.230741455078125,4.1302696664482355,1.6181132425189018,-3.639066696450114
1745781857552714200,9.24071435546875,3.9122202052414417,1.2300149654254318,-3.098925800281763
1745781857562687500,9.2506875,3.435747186863422,0.8544266258150338,-2.6996646164000033
1745781857572660500,9.260660400390625,3.0062095226615666,0.49057051731348034,-2.411729133540392
1745781857582634500,9.270634521484375,2.5418331847906113,0.09886720146536826,-2.19423555265069
1745781857592607500,9.280607421875,2.14401050927937,-0.2626239314705133,-1.9383885679692028
1745781857602580500,9.29058056640625,1.8990993446320295,-0.6154249774724244,-1.7231623474895954
1745781857612553500,9.300553466796876,1.8082476918399333,-0.9006962095588446,-1.3701584723919629
1745781857622526500,9.3105263671875,1.7387065381020306,-1.046295936104655,-0.9626420858621597
1745781857632500500,9.32050048828125,1.6239900255978106,-1.2665507984012365,-0.5108160174846649
1745781857642472700,9.33047265625,1.4827888262718916,-1.46360072619915,0.07129296584129333
1745781857652445700,9.34044580078125,1.3067530449301004,-1.5730103644669056,0.7041483860641717
1745781857662419000,9.3504189453125,1.2920032195657492,-1.425295253202319,1.5371598834067581
1745781857672392000,9.360391845703125,1.3838824618399141,-1.3120868071734904,2.2443156345933675
1745781857682364700,9.37036474609375,1.5223352392405272,-1.3881541478097439,2.8655829083532094
1745781857692338700,9.380338623046875,1.6347230165362356,-1.3849468762010335,3.3946938764631747
1745781857702311700,9.390311767578124,1.7094798590958118,-1.4988631782382726,3.7822184453219174
1745781857712285000,9.400284912109376,1.769842265599966,-1.7853671669900417,4.1651615316092965
1745781857722258000,9.4102578125,1.7392314387589691,-2.1049322983443735,4.527352337247133
1745781857732231000,9.42023095703125,1.6097469807118177,-2.491577161759138,4.8961686985045665
1745781857742203600,9.43020361328125,1.4970266104608774,-2.8377555747509002,5.373671059930325
1745781857752177700,9.440177734375,1.3498831616044045,-2.8421406579673287,6.038109951418638
1745781857762150700,9.450150634765626,1.259080608651042,-2.300874557161331,7.004934291401505
1745781857772124000,9.4601240234375,1.2355039182305336,-1.0980904207497835,8.09503780505061
1745781857782097000,9.470096923828125,1.1642957080632448,0.5142600204586982,9.228450299072264
1745781857792070000,9.48006982421875,0.9504618187248707,1.9577064319014548,9.866913037782908
1745781857802042600,9.490042724609374,0.6194120012819767,2.5851731448233126,9.810379249656199
1745781857812016600,9.5000166015625,0.24243279183506963,2.5026520980030296,9.204500099164248
1745781857821990000,9.509989990234375,0.02701660174131393,2.2835779699236154,8.786129725664853
1745781857831963000,9.519962890625,-0.023078088682028465,2.3496651838153597,9.018096068543196
1745781857841936000,9.529935791015625,-0.12689852407402358,2.663797768726945,9.52314928471744
1745781857851908900,9.539908935546874,-0.3975625632703304,3.1237276485830545,10.142781650751829
1745781857861881900,9.5498818359375,-0.8031845143556594,3.8450609782040117,10.555069489467144
1745781857871855600,9.559855712890625,-1.2432862426698208,4.437542302462458,10.462310541749
1745781857881828900,9.569828857421875,-1.6882196289241314,4.416590115326643,9.646859251016378
1745781857891801900,9.5798017578125,-2.044602625066042,3.727303782829642,8.079823869305848
1745781857901774800,9.58977490234375,-2.2028549124360084,2.5342192026555534,6.190315359839797
1745781857911747600,9.59974755859375,-2.131336321145296,1.3821791650533675,4.4725867278367275
1745781857921721600,9.6097216796875,-2.004752260714769,0.42872810138463974,3.191833216559887
1745781857931694800,9.61969482421875,-2.001824975091219,-0.39444530803263184,2.314451247093081
1745781857941667800,9.629667724609375,-2.1101427264690398,-0.9585258827149867,1.688085773411393
1745781857951640800,9.639640869140624,-2.325929503440857,-1.2192086169898508,1.2885814284235237
1745781857961613800,9.64961376953125,-2.558301504510641,-1.3419225579887628,1.076470125094056
1745781857971586800,9.6595869140625,-2.5854022774040697,-1.2790168967425823,0.7266933953493833
1745781857981560800,9.669560791015625,-2.3144670291841027,-1.0995119779855012,0.3119657622665167
1745781857991533800,9.679533935546875,-1.879532474374771,-0.7532827115893364,-0.17383505642712116
1745781858001506800,9.6895068359375,-1.4583493815422057,-0.41991701841950413,-0.6665250501126051
1745781858011479800,9.699479736328126,-1.0238988108575344,-0.324311449098587,-1.3927619338661432
1745781858021452800,9.709452880859375,-0.5812316159695387,-0.35832127072811126,-2.1503122397720813
1745781858031425800,9.71942578125,-0.09054711688756942,-0.3608931670427322,-2.749680985456705
1745781858041399800,9.72939990234375,0.36739188141226764,-0.27560733168423174,-3.1539854242026806
1745781858051372800,9.739372802734374,0.7631254756897687,-0.21798341023325918,-3.4764877780526873
1745781858061345800,9.749345703125,1.0012018258810043,-0.1472241128772497,-3.6549013944417235
1745781858071318800,9.75931884765625,1.2592752544403076,0.014189268872141838,-3.7259114516884084
1745781858081292000,9.7692919921875,1.4221721527457236,0.1652759023964405,-3.651735623887181
1745781858091265800,9.779265869140625,1.3916127638310194,0.2215904948145151,-3.6384593782067296
1745781858101238800,9.78923876953125,1.3048124322563408,0.13999299257993697,-3.74155676458776
1745781858111211800,9.799211669921876,1.196144625331834,0.0015483984857797622,-3.7860336196959015
1745781858121184800,9.809184814453126,1.020858201052621,-0.06529167959988116,-3.755829035568237
1745781858131157800,9.81915771484375,0.7474399038452655,-0.04999766435623169,-3.5435125650554893
1745781858141131000,9.829131103515625,0.39733518425524234,0.04465571880638599,-3.287953749665618
1745781858151105000,9.83910498046875,0.06353577584326267,0.12374562213420867,-3.164305158165097
1745781858161077800,9.849077880859374,-0.21162026840951292,0.1906213560551405,-3.019949878722429
1745781858171050800,9.85905078125,-0.3881903392910957,0.314870836058259,-2.7950854768037794
1745781858181023700,9.869023681640625,-0.49518586562182754,0.46477615084350105,-2.696106631657481
1745781858190997000,9.8789970703125,-0.6710854898959397,0.5158236165136099,-2.6850521536797283
1745781858200969700,9.8889697265625,-0.9153571875959634,0.5744868178844451,-2.775034037899971
1745781858210943700,9.89894384765625,-1.0374176331222056,0.7013736606538296,-2.860316366127133
1745781858220916700,9.908916748046876,-1.0691063183277845,0.980084803572297,-2.9514450822949407
1745781858230889700,9.9188896484375,-1.161630288246274,1.1853928566277026,-3.0540742666423317
1745781858240862700,9.92886279296875,-1.362276779231429,1.2984966732382774,-3.288110401532054
1745781858250836000,9.9388359375,-1.5489759934067726,1.3340543088316916,-3.6206747151911256
1745781858260810000,9.94881005859375,-1.6333324389606714,1.2213111422270535,-3.9905537372440096
1745781858270782700,9.95878271484375,-1.6696102055221795,0.8624714005827904,-4.562393255490064
1745781858280755700,9.968755615234375,-1.5145102447032928,0.3781570210546255,-5.0112528752774
1745781858290728700,9.978728759765625,-1.108645132511854,-0.11267419302165507,-5.091327697989344
1745781858300702000,9.988701904296875,-0.5881143612205982,-0.5955284368693828,-4.754918399339914
1745781858310675000,9.998675048828124,-0.1545925958186388,-1.2011334465950727,-4.560287807643413
1745781858320649000,10.00864892578125,0.20847908430695533,-1.8056144207268952,-4.569145652359723
1745781858330621700,10.01862158203125,0.49689387511610983,-2.2688456802159545,-4.495059840929508
1745781858340594700,10.0285947265625,0.6663707363337278,-2.578251821127534,-4.266454498916864
1745781858350568000,10.03856787109375,0.80338157129772,-2.63637200166285,-3.81356460070014
1745781858360541000,10.048541015625,1.0850332977127284,-2.153457552060485,-3.074359514302015
1745781858370515000,10.058514892578126,1.4498662153571844,-1.098850299206376,-2.1153560772031543
1745781858380488000,10.068488037109375,1.7595500041663645,0.24822248115241527,-1.058937391012907
1745781858390460700,10.078460693359375,1.8646821112453937,1.6826210782647133,-0.02003507229089737
1745781858400433700,10.08843359375,1.7517109811037779,3.086519323173165,0.9543921439111233
1745781858410407000,10.098406982421874,1.5688035604268311,4.792465162923932,2.058655115815997
1745781858420380000,10.1083798828125,1.3531909709781407,6.426096292570233,2.8994010068029166
1745781858430354000,10.11835400390625,1.145825985392928,7.27383949509859,3.1306992411613463
1745781858440327000,10.128326904296875,0.73341364351511,7.447077754676341,3.170127580708265
1745781858450299600,10.138299560546875,0.12828618817329407,7.357445999068021,3.714554775893688
1745781858460273000,10.14827294921875,-0.5312041409969329,7.069985147982836,4.642808854463696
1745781858470246000,10.158245849609376,-1.0287585258483887,6.488198820739984,5.257746340680122
1745781858480220000,10.168219970703126,-1.4764835886478422,5.317502597984671,5.360602319520711
1745781858490193000,10.17819287109375,-1.8459072681486606,3.594944646129012,5.070498844972253
1745781858500165600,10.18816552734375,-2.020468885284662,1.6394003606975078,4.641117832636833
1745781858510138600,10.198138671875,-1.9067688563466072,-0.0796557205170393,4.391480223989486
1745781858520111900,10.20811181640625,-1.5246575447082518,-1.5677695412039756,4.082323673924804
1745781858530086000,10.2180859375,-0.7305512398213148,-2.6028262904137374,3.704115799465775
1745781858540059000,10.228058837890625,0.23560444365236907,-3.182231859999895,3.4159985302984714
1745781858550032000,10.238031982421875,1.2031185559976845,-3.4811183604627844,3.0122248374283314
1745781858560004600,10.248004638671874,2.06916891104579,-3.609724866631627,2.5277456227272745
1745781858569977900,10.257977783203126,2.8254584032356735,-3.7251550803631543,1.8881682007730005
1745781858579950800,10.267950927734375,3.3415140749394894,-3.850404092797637,1.1115098742932081
1745781858589924900,10.2779248046875,3.6318648022472857,-3.9318741692602632,0.3714344348013401
1745781858599897900,10.28789794921875,3.7910838888227936,-3.998196360951662,-0.20628186652362346
1745781858609870800,10.297870849609374,3.6982016069859265,-4.016002066755295,-0.5567775581926107
1745781858619843800,10.30784375,3.4337077899903057,-3.9806080972909923,-0.7906056032896042
1745781858629816800,10.31781689453125,2.9611645122766492,-3.8872026683628556,-0.882338130569458
1745781858639790800,10.327790771484375,2.451655485737324,-3.7373575593322514,-0.9405717083513736
1745781858649763600,10.337763671875,1.8916145418345927,-3.5173856056302784,-0.8625169932901858
1745781858659736600,10.347736572265624,1.2400281176567076,-3.2364228843927383,-0.7878980978965758
1745781858669709600,10.35770947265625,0.6235293734729289,-3.0703970404118297,-0.8219967668533325
1745781858679682800,10.367682861328126,0.08537409816384316,-3.000147446143627,-0.9182154996365308
1745781858689655800,10.37765576171875,-0.386882142769359,-2.987470335400104,-0.9749491942495107
1745781858699629800,10.3876298828125,-0.7724737342715263,-2.9724475383132694,-0.9695721773862838
1745781858709602600,10.3976025390625,-1.0697808565884828,-3.015394115114212,-0.9243985721856355
1745781858719575600,10.407575439453124,-1.2831629105061293,-3.0631665046364067,-0.7844564330101013
1745781858729548800,10.417548828125,-1.4764099388897418,-3.1331454652696844,-0.5846358714550733
1745781858739521800,10.427521728515625,-1.5859358970135449,-3.2953251552164553,-0.3431301313370466
1745781858749495800,10.437495849609375,-1.6023744061172007,-3.5702655474245546,-0.13836743720471859
1745781858759468800,10.44746875,-1.5491238774448632,-3.825041688004136,0.12876257351338863
1745781858769441500,10.457441650390624,-1.4124246657133102,-3.9949931809961794,0.5062959097117186
1745781858779414500,10.46741455078125,-1.1511609166800976,-3.945603419405222,0.9497545472383498
1745781858789387800,10.4773876953125,-0.765508571434021,-3.307483795043826,1.6112509555339811
1745781858799361800,10.48736181640625,-0.3816887023121118,-2.1692636084794996,2.3519617703199387
1745781858809334800,10.497334716796875,-0.20583470727801323,-0.8873983365684747,3.0174329274654386
1745781858819307800,10.507307861328124,-0.09471125082969666,0.29899288344681263,3.610983342260122
1745781858829280500,10.517280517578126,-0.020994875500071793,1.4020178379893302,4.261453914150596
1745781858839253800,10.527253662109375,-0.044545262435544276,2.3822335744649172,4.8435699117392295
1745781858849226800,10.537226806640625,-0.23525599554087964,2.8823317985802888,5.058462954741716
1745781858859200800,10.54720068359375,-0.4625053198346868,3.0599329295426605,5.066558582913875
1745781858869173800,10.557173828125,-0.7854699939668178,3.0804946560561657,5.231029014146328
1745781858879146500,10.567146484375,-1.1633225521821529,3.3237159679204225,5.741154126757383
1745781858889119700,10.57711962890625,-1.4459984340131282,4.08825949371457,6.550511776790023
1745781858899092700,10.5870927734375,-1.7421347589850424,5.142552858313918,7.30190882076323
1745781858909066800,10.597066650390625,-2.236298916876316,6.033691550454497,7.732584549084305
1745781858919039700,10.607039794921874,-2.8989830736517903,6.597243717348575,7.626897146210074
1745781858929012700,10.6170126953125,-3.549976792633533,6.78308368434608,6.97560707463026
1745781858938985500,10.6269853515625,-4.0069104132831095,6.444407609808445,5.816849711471796
1745781858948958700,10.636958740234375,-4.163781183166802,5.702982509273291,4.528307446014881
1745781858958932700,10.6469326171875,-4.0436639806628225,4.671427046182751,3.4383535699695345
1745781858968905700,10.65690576171875,-3.864980315160751,3.406199020817876,2.6807535797029733
1745781858978878700,10.666878662109376,-3.6764533010363576,2.047921540355682,2.0004174463808537
1745781858988851700,10.676851806640625,-3.5171184791266916,0.9205302063196897,1.4532599494487046
1745781858998824700,10.68682470703125,-3.4816672265172004,0.02412847908437252,1.0422539672374724
1745781859008798700,10.696798828125,-3.4942180805325505,-0.6917956849694251,0.6248416251152753
1745781859018771700,10.706771728515625,-3.456460304546356,-1.3168641045778988,0.1749438944518566
1745781859028744700,10.71674462890625,-3.380828140456974,-1.7597925807505845,-0.30274376041293144
1745781859038717700,10.7267177734375,-3.2682840035557743,-2.0090251157283783,-0.7052922954022884
1745781859048690700,10.736690673828125,-3.1017958027601242,-2.183368121677637,-1.1109534094542264
1745781859058663700,10.74666357421875,-2.8918635970354076,-2.291347434881329,-1.6444366012990475
1745781859068637700,10.7566376953125,-2.638202139699459,-2.177036580568552,-2.02267428637445
1745781859078610700,10.766610595703124,-2.3725649978876113,-1.9748440291851759,-2.493162385123968
1745781859088583700,10.776583740234376,-2.001856539273262,-1.8726123197227715,-3.123504361221194
1745781859098556700,10.786556640625,-1.4995008916199206,-1.7753461237132548,-3.6913328902602194
1745781859108529700,10.79652978515625,-0.9616624271750449,-1.6251520551145076,-4.2004175539076325
1745781859118503700,10.806503662109375,-0.33576986823473126,-1.5162445211499929,-4.741089195951819
1745781859128476700,10.8164765625,0.33502332418374714,-1.3774421996593476,-5.189276031044125
1745781859138449700,10.82644970703125,1.0632686982154846,-1.1946195346564055,-5.336279779168963
1745781859148422700,10.836422607421875,1.613075248351693,-1.1395564036041497,-5.275465537244081
1745781859158395600,10.846395751953125,1.9738082563966513,-1.1375737053543329,-5.1559576988101
1745781859168369700,10.85636962890625,2.2386253139972685,-0.9783791686981916,-4.9430052684813734
1745781859178342700,10.8663427734375,2.3236919536471365,-0.7428507494240999,-4.7585137934833766
1745781859188315600,10.876315673828126,2.175978595948219,-0.5175695833981037,-4.567577380129695
1745781859198288600,10.88628857421875,1.8350825072735546,-0.2071165637820959,-4.305578302559256
1745781859208261600,10.89626171875,1.4711141705691813,0.3249450708270073,-4.014306368753314
1745781859218235600,10.906235595703125,1.0534516530781983,0.9181400963127613,-3.630732583346963
1745781859228209000,10.916208984375,0.6165817462921143,1.341694594451785,-3.490349130144715
1745781859238181600,10.926181640625,0.2984252944256179,1.4512760821551083,-3.5533389625430103
1745781859248154600,10.936154541015625,0.11455810707211493,1.4767305491462348,-3.658035016292333
1745781859258127600,10.946127685546875,0.098891714852117,1.4978861498996614,-4.057559235024452
1745781859268101600,10.9561015625,0.19075287348031997,1.296967856235802,-4.662881336155533
1745781859278074600,10.96607470703125,0.30881117069311437,1.3414140239447354,-4.920534493476152
1745781859288047900,10.9760478515625,0.30029110656380653,1.6022946188792586,-4.907535895693302
1745781859298020600,10.9860205078125,0.27455343871712684,2.350409280180931,-4.406279733714461
1745781859307993600,10.99599365234375,0.4250736705303192,3.747285955889523,-3.4489603041797876
1745781859317967600,11.005967529296875,0.7815886955540626,5.489474198627471,-2.43543675686419
1745781859327940600,11.015940673828124,1.0992099262990056,7.284301267880201,-1.6102233660519123
1745781859337913900,11.025913818359374,1.2908641325332224,9.081072456938028,-0.9926572848975658
1745781859347886800,11.035886962890626,1.0910698744632303,10.53782375563383,-0.5902946278691291
1745781859357859600,11.045859619140625,0.5118881767608225,11.641257290977238,-0.427856579247117
1745781859367833600,11.05583349609375,-0.5550448891811073,12.384265276789664,0.004437690186500549
1745781859377806600,11.065806640625,-1.9816776745975015,12.493103252649307,0.4110866462320089
1745781859387779800,11.07577978515625,-3.276111920702457,12.0758785420537,1.1092799232840538
1745781859397752800,11.0857529296875,-4.408423175483942,11.080984876406193,2.016570124280453
1745781859407725600,11.0957255859375,-5.22302457138896,9.45419908261001,2.995283639499545
1745781859417699600,11.105699462890625,-5.646498990029096,7.617417954725027,3.968294559162855
1745781859427672600,11.115672607421875,-5.6891024524807925,5.788215737661719,4.7746290619820355
1745781859437645600,11.1256455078125,-5.408633652240038,4.262448185884952,5.337867925143241
1745781859447618800,11.135618896484376,-4.761229189921916,3.1898475957006216,5.468443685558438
1745781859457591800,11.145591796875,-3.708107499450445,2.3626760565578935,4.977652218970656
1745781859467565800,11.15556591796875,-2.415880408000946,1.8784703981012105,4.436750859823823
1745781859477538600,11.16553857421875,-1.0990403418857604,1.7049691036731003,3.9548073010802267
1745781859487511600,11.175511474609374,0.11530041333939879,1.4533902978301048,3.311420549970865
1745781859497484800,11.18548486328125,1.174871462613344,1.1250345417767762,2.538064187645912
1745781859507457800,11.195457763671875,2.1558400632828474,0.5009340904176235,1.6936317171007393
1745781859517431800,11.205431884765625,3.145807378444075,-0.1622299588292837,1.084228484135866
1745781859527404800,11.21540478515625,4.031531644320488,-0.6679869393587112,0.8663239843577146
1745781859537377500,11.22537744140625,4.742390341678261,-1.1310597934156656,1.0040957937568427
1745781859547350500,11.2353505859375,5.175394805207849,-1.629638260617852,1.207104922220111
1745781859557323800,11.24532373046875,5.296749732813239,-2.197849651494622,1.3803081104844808
1745781859567297800,11.2552978515625,5.122235461950302,-2.6258956158339974,1.6562211471170185
1745781859577270800,11.265270751953125,4.788337269338965,-2.7494956920176743,1.958191000548005
1745781859587243800,11.275243896484374,4.369678142026067,-2.7536113106429574,2.1992489968985316
1745781859597216500,11.285216552734376,3.8225983865052457,-2.658449977958202,2.5122315349921585
1745781859607189800,11.295189697265625,3.153814743810892,-2.6166660151958463,2.817375342284143
1745781859617163800,11.305163818359375,2.359063857410103,-2.7563042029887437,3.1043577622026204
1745781859627136800,11.31513671875,1.548829278412461,-2.881141712012887,3.33162747169733
1745781859637110000,11.325110107421875,0.7548925579387694,-2.876014870518446,3.6745907220348712
1745781859647083000,11.3350830078125,0.03854636908061802,-2.873997100955248,4.076941396364569
1745781859657056000,11.345055908203125,-0.6690677203327416,-2.9629402897775172,4.4363411099791525
1745781859667030000,11.355030029296875,-1.2453460978090762,-2.9439778151541947,4.8078839735910295
1745781859677003300,11.365003173828125,-1.7092986573100089,-2.8700451484590768,5.189167309972643
1745781859686976000,11.37497607421875,-2.072186213040352,-2.833080568677187,5.707127938514947
1745781859696949000,11.384948974609374,-2.410527356535196,-2.9277035567015406,6.128735394239425
1745781859706922000,11.394921875,-2.743679114693403,-3.1728648967176674,6.4297939780443905
1745781859716896000,11.40489599609375,-2.9406513010799884,-3.3680466925561428,6.8486769772410385
1745781859726869000,11.414868896484375,-2.98675137347579,-3.560479481947422,7.282054950258136
1745781859736842200,11.42484228515625,-2.900071453410387,-3.6864533015251157,7.597390481218695
1745781859746815000,11.43481494140625,-2.7114485776960846,-3.7778023824453353,7.866663933706283
1745781859756788000,11.4447880859375,-2.457919222307205,-3.7278590786248444,8.072892608737945
1745781859766762000,11.454761962890625,-2.1814427065730095,-3.6103000361710786,8.125012087553738
1745781859776735000,11.46473486328125,-1.925821931862831,-3.500537931203842,7.974003779962659
1745781859786708200,11.474708251953125,-1.7068483415484428,-3.445925466528535,7.663746575179696
1745781859796681200,11.48468115234375,-1.4121160381555558,-3.26722952606678,7.2817737952291965
1745781859806654000,11.494654052734376,-1.0638742628931999,-2.870575894334912,7.068313415378332
1745781859816628000,11.5046279296875,-0.6311527079582214,-1.9433651873379945,7.216874329817295
1745781859826601000,11.51460107421875,-0.23795416684998197,-0.6234849498093128,7.51252433257699
1745781859836574000,11.524573974609375,-0.032623317440878596,0.7294289577931166,7.623961677280068
1745781859846547200,11.534547119140624,-0.06945641633020713,1.965024061438441,7.392050279459357
1745781859856520200,11.544520263671876,-0.45324061135053634,2.6887282118439675,6.6721840997815125
1745781859866494200,11.554494140625,-0.9448843108534812,2.9344518619179722,5.78271129502654
1745781859876467000,11.564467041015625,-1.4273954403519629,2.897569699722528,4.912885440027713
1745781859886440000,11.57443994140625,-1.9233330376565456,2.6080326268851755,4.254789487825334
1745781859896413200,11.5844130859375,-2.46788765861392,2.26499426548481,3.9501641514495014
1745781859906386200,11.59438623046875,-3.091538612639904,1.9873107120484113,3.8829175383895635
1745781859916360200,11.604360107421876,-3.8060850585997104,1.8296014455139635,3.8897055910944935
1745781859926333000,11.6143330078125,-4.629509227907658,1.828603082126379,3.9965129379093645
1745781859936306000,11.624305908203125,-5.549955847597122,1.9362439571559429,4.073661936302483
1745781859946279200,11.634279052734374,-6.513617339634895,2.1562200025111435,4.089525568127632
1745781859956253000,11.6442529296875,-7.3833192759931086,2.221447384703159,3.9302451067537065
1745781859966226200,11.65422607421875,-8.061699014550447,2.1415648696929215,3.3991210452556606
1745781859976199200,11.66419921875,-8.50552648538947,1.8443389959186314,2.6149291084006427
1745781859986172000,11.674171875,-8.691275851494073,1.4901444497317076,1.8970707614138722
1745781859996145000,11.684144775390624,-8.670212020677328,1.3101456099778412,1.3439637084275484
1745781860006119000,11.694118896484374,-8.484212479203938,1.1791104153573513,0.9468313532680273
1745781860016092200,11.704092041015626,-8.076905936032533,1.0936556531727313,0.652436903527379
1745781860026065200,11.714065185546875,-7.477680982732773,1.1462041710555553,0.5003846398413181
1745781860036038100,11.7240380859375,-6.738278327935934,1.3014391564309595,0.5527104548841715
1745781860046011000,11.734010986328125,-6.05740969517231,1.3804185851216315,0.865181828585267
1745781860055985000,11.74398486328125,-5.675677153718471,1.2993904072076081,1.329492115482688
1745781860065958100,11.753958251953126,-5.464195964986086,1.0505834041655062,1.9681763879895209
1745781860075931100,11.76393115234375,-5.21056548731029,0.5443716656059027,2.4904110405892133
1745781860085904100,11.773904052734375,-4.7603795873552555,0.1614502066284418,2.502388478630781
1745781860095877000,11.783877197265625,-4.000239849478006,0.1322498311072588,2.14505504989624
1745781860105851100,11.79385107421875,-3.069676324921846,0.18679566028714178,1.5850976926237343
1745781860115823900,11.803823974609376,-2.3936104162648317,0.19815701225697993,1.1059066474586725
1745781860125797000,11.813797119140625,-2.1257167276978493,0.1435685129791498,0.8913438593238592
1745781860135770000,11.82377001953125,-2.3252242777809498,0.18813596898019314,1.0459650967150926
1745781860145744100,11.833744140625,-3.1159222355291245,0.22894261114299297,1.457802269053459
1745781860155717000,11.843717041015625,-4.302173462551832,0.20958149259090422,1.7864713288396596
1745781860165689900,11.85368994140625,-5.499905576270819,0.20908874063789842,1.923199766665697
1745781860175663000,11.8636630859375,-6.484270833641291,0.2940127569466829,1.8188427356123924
1745781860185636000,11.873635986328125,-7.268369539254904,0.38504327343702316,1.5019026920646428
1745781860195610000,11.883610107421875,-7.7713319206297395,0.5175573084384203,1.1247878735393284
1745781860205583000,11.8935830078125,-7.983325150537491,0.9136188194960355,0.9041279375731944
1745781860215556000,11.90355615234375,-7.93949886829257,1.4883721793621778,0.7606266446113586
1745781860225528800,11.91352880859375,-7.7775781215429305,1.8252245456039904,0.4215443273603916
1745781860235502000,11.923502197265625,-7.71243432598114,2.0650076997131106,0.13674246635138987
1745781860245476000,11.93347607421875,-7.71937026272416,2.260512151634693,-0.024168811094760892
1745781860255449000,11.943448974609375,-7.69568660479784,2.4494606060415505,-0.05040507611334324
1745781860265422000,11.953422119140624,-7.621255340930819,2.7506267418742176,0.02486789927482605
1745781860275395000,11.96339501953125,-7.442565245687961,3.1935651549190283,0.1304927583068609
1745781860285369000,11.973369140625,-7.1212243368327615,3.5613112565964458,0.15828969677090643
1745781860295342000,11.983342041015625,-6.805714618349075,3.609465338912606,-0.07740764932930469
1745781860305315000,11.993315185546875,-6.577664572131633,3.5107138727813956,-0.4364490510255098
1745781860315288000,12.0032880859375,-6.409651938247681,3.4647082006707786,-0.7709943093687296
1745781860325261000,12.013260986328126,-6.267614872619509,3.5844583234280347,-1.0430319658726452
1745781860335235000,12.023235107421876,-6.203896725946665,3.786910694791376,-1.2525930001974106
1745781860345208000,12.0332080078125,-6.24405747142136,3.9309184759706257,-1.3999381091058254
1745781860355181000,12.04318115234375,-6.305962431192397,3.832110018955171,-1.5885276670724153
1745781860365154000,12.053154052734374,-6.204251530733704,3.72424001134485,-1.70116503521502
1745781860375127000,12.063126953125,-5.8652528001129625,3.912416896857321,-1.7809207089751957
1745781860385101000,12.07310107421875,-5.317153638416529,4.371481976577639,-1.7643500979244708
1745781860395074000,12.083073974609375,-4.730066574417054,5.011124864983558,-1.8792799609184263
1745781860405047300,12.09304736328125,-4.189138327263295,5.477309129059314,-2.5599381658017633
1745781860415020000,12.10302001953125,-3.6814571006730197,5.668346080178022,-3.441128295379877
1745781860424994000,12.112994140625,-3.3811557649761435,5.47019199053049,-4.308272363948822
1745781860434967000,12.122967041015626,-3.2510759713843465,5.110348624801635,-4.919709733089804
1745781860444940000,12.13293994140625,-3.2338132864162326,4.814763503971696,-5.050871184438467
1745781860454913000,12.1429130859375,-3.1768563044413924,4.703650568917394,-4.781034252849221
1745781860464886000,12.152885986328124,-3.006869155614078,4.559369816015661,-4.437122031223773
1745781860474860000,12.162860107421874,-2.773843951332569,4.189073737594485,-4.129083087012171
1745781860484833000,12.1728330078125,-2.4551044571474194,3.8803684384286403,-3.574288811591267
1745781860494806000,12.182805908203125,-2.0889013471283016,3.571212472885847,-3.0086428872883317
1745781860504779000,12.192779052734375,-1.6104269257999955,3.357759107297659,-2.43668646466434
1745781860514753000,12.2027529296875,-1.1327695199429988,3.179098822671175,-1.851523938986659
1745781860524726300,12.212726318359374,-0.6334618616834282,3.0141099205225705,-1.4086194282114506
1745781860534699000,12.222698974609376,-0.16190554918050765,2.8365613965302705,-1.163304943460226
1745781860544672000,12.232672119140625,0.34287330703176555,2.7268741103649137,-0.9704220722138881
1745781860554645000,12.24264501953125,0.7573297950230539,2.630195943376422,-0.9377963984191418
1745781860564619000,12.252618896484375,1.0386077927548438,2.438452305293083,-1.0167384177088736
1745781860574592000,12.262592041015624,1.1776525446992367,2.1875801864147184,-1.0338900435179472
1745781860584565200,12.272565185546876,1.227059915012121,2.006211227351427,-0.8892699756592511
1745781860594538000,12.2825380859375,1.1832722112119196,1.8547154285043477,-0.5846428857177496
1745781860604512000,12.292511962890625,1.173411326932907,1.617564376464486,-0.5820914476692676
1745781860614485000,12.302485107421875,1.2901800957918166,1.351387136426568,-0.7427186474770308
1745781860624458000,12.3124580078125,1.5179402191519735,1.100657640889287,-0.7510942616343498
1745781860634431200,12.32243115234375,1.8652292237341404,0.9308499402821063,-0.623570290005207
1745781860644404500,12.332404541015626,2.2046283518493173,0.7660778957545756,-0.47253509440720076
1745781860654378500,12.34237841796875,2.4600445438981056,0.5926712938725948,-0.34642098957598205
1745781860664351200,12.352351318359375,2.675397605627775,0.45068098999559875,-0.20976912411749363
1745781860674324200,12.36232421875,2.861578933408856,0.33721126268208024,-0.039164135652780534
1745781860684297200,12.372297119140624,2.8927912332743406,0.2799561745434999,0.17898001810014247
1745781860694271200,12.382271240234376,2.889281763848662,0.16819792732298372,0.39720775848329065
1745781860704244500,12.392244384765625,2.8750585927069183,0.13765899667441844,0.7394950092554092
1745781860714217500,12.402217529296875,2.7350802131742236,0.04614449605941772,1.1170862131208181
1745781860724190200,12.412190185546875,2.5713977174490688,-0.029386838003993034,1.411863524699211
1745781860734163200,12.4221630859375,2.465017656135559,-0.09127718472778797,1.6205635582804678
1745781860744137200,12.43213720703125,2.5114292786985635,-0.1476210032403469,1.824466420713067
1745781860754110500,12.4421103515625,2.6415239775985477,-0.17209318119585512,2.108942703029513
1745781860764083500,12.45208349609375,2.817081620034575,-0.30400691221654413,2.1945009255886077
1745781860774056200,12.46205615234375,3.0810131269723176,-0.4072188648879528,1.9714818592756986
1745781860784030200,12.4720302734375,3.366477251282334,-0.43248190096020694,1.5758306825846433
1745781860794003200,12.482003173828126,3.61238619479537,-0.4368424342572689,1.1381862842947243
1745781860803976200,12.49197607421875,3.825491185337305,-0.44233694002032276,0.8724784153342247
1745781860813949400,12.501949462890625,4.048379903268814,-0.44632454835176466,0.9986334366977214
1745781860823922400,12.51192236328125,4.182267564710974,-0.3994026381790638,1.6135583556935191
1745781860833896400,12.521896484375,4.220098113672435,-0.44345103874206543,2.39889157153815
1745781860843869200,12.531869140625,4.250394759997725,-0.6389508144885301,3.099688601347804
1745781860853842200,12.54184228515625,4.277375413642823,-0.8377414484739303,3.6194565715730187
1745781860863815400,12.5518154296875,4.4849441051065915,-0.8766250136196613,4.022704487003386
1745781860873789200,12.5617890625,4.894096860666573,-0.863302006188035,4.201764000080526
1745781860883762400,12.571762451171875,5.393423808148503,-0.9557423894762992,4.281834731139242
1745781860893735400,12.5817353515625,5.965361526072025,-0.9768331082999706,4.445306214462221
1745781860903708200,12.591708251953126,6.524716241276264,-0.8542582835108041,4.57935549620688
1745781860913681200,12.60168115234375,6.982292251482606,-0.5283434908688068,4.855455872105062
1745781860923655200,12.6116552734375,7.174859480908513,0.14109189373254774,5.271150596654415
1745781860933628400,12.62162841796875,7.042164244121313,0.8723223479896783,5.559536161369085
1745781860943601400,12.631601318359374,6.54790656272769,1.4611685306161641,5.840174472957849
1745781860953574400,12.641574462890626,5.74405043272078,1.615861664199829,5.8592065056860445
